onset	duration	sample	trial_type	response_time	stim_file	item_name	category	serialpos	list	test	answer	experiment	session	subject
0.0	2.364	45122	INSTRUCT_START	n/a	n/a	n/a	n/a	-999	-999	[0, 0, 0]	n/a	catFR1	2	R1412M
2.364	24.851	47492	INSTRUCT_END	n/a	n/a	n/a	n/a	-999	-999	[0, 0, 0]	n/a	catFR1	2	R1412M
27.215	10.0	72347	COUNTDOWN_START	n/a	n/a	n/a	n/a	-999	-999	[0, 0, 0]	n/a	catFR1	2	R1412M
37.596	0.001	82721	COUNTDOWN_END	n/a	n/a	n/a	n/a	-999	-999	[0, 0, 0]	n/a	catFR1	2	R1412M
37.597	1.932	82721	ENCODING_START	n/a	n/a	n/a	n/a	-999	-1	[0, 0, 0]	n/a	catFR1	2	R1412M
39.529	1.6	84650	WORD	n/a	n/a	PLUM	Fruit	1	-1	[0, 0, 0]	n/a	catFR1	2	R1412M
41.13	0.883	86248	WORD_OFF	n/a	n/a	PLUM	Fruit	1	-1	[0, 0, 0]	n/a	catFR1	2	R1412M
42.013	1.6	87130	WORD	n/a	n/a	PEACH	Fruit	2	-1	[0, 0, 0]	n/a	catFR1	2	R1412M
43.63	0.833	88756	WORD_OFF	n/a	n/a	PEACH	Fruit	2	-1	[0, 0, 0]	n/a	catFR1	2	R1412M
44.463	1.6	89583	WORD	n/a	n/a	BASEBALL	Toys	3	-1	[0, 0, 0]	n/a	catFR1	2	R1412M
46.08	0.949	91208	WORD_OFF	n/a	n/a	BASEBALL	Toys	3	-1	[0, 0, 0]	n/a	catFR1	2	R1412M
47.029	1.6	92149	WORD	n/a	n/a	BARBIE	Toys	4	-1	[0, 0, 0]	n/a	catFR1	2	R1412M
48.63	0.883	93757	WORD_OFF	n/a	n/a	BARBIE	Toys	4	-1	[0, 0, 0]	n/a	catFR1	2	R1412M
49.513	1.6	94639	WORD	n/a	n/a	SQUID	OceanAnimals	5	-1	[0, 0, 0]	n/a	catFR1	2	R1412M
51.129	0.984	96251	WORD_OFF	n/a	n/a	SQUID	OceanAnimals	5	-1	[0, 0, 0]	n/a	catFR1	2	R1412M
52.113	1.6	97243	WORD	n/a	n/a	JELLYFISH	OceanAnimals	6	-1	[0, 0, 0]	n/a	catFR1	2	R1412M
53.73	0.816	98855	WORD_OFF	n/a	n/a	JELLYFISH	OceanAnimals	6	-1	[0, 0, 0]	n/a	catFR1	2	R1412M
54.546	1.6	99668	WORD	n/a	n/a	GRAPE	Fruit	7	-1	[0, 0, 0]	n/a	catFR1	2	R1412M
56.146	0.983	101266	WORD_OFF	n/a	n/a	GRAPE	Fruit	7	-1	[0, 0, 0]	n/a	catFR1	2	R1412M
57.129	1.6	102258	WORD	n/a	n/a	CHERRY	Fruit	8	-1	[0, 0, 0]	n/a	catFR1	2	R1412M
58.745	1.001	103870	WORD_OFF	n/a	n/a	CHERRY	Fruit	8	-1	[0, 0, 0]	n/a	catFR1	2	R1412M
59.746	1.6	104862	WORD	n/a	n/a	BALL	Toys	9	-1	[0, 0, 0]	n/a	catFR1	2	R1412M
61.346	0.8	106474	WORD_OFF	n/a	n/a	BALL	Toys	9	-1	[0, 0, 0]	n/a	catFR1	2	R1412M
62.146	1.6	107273	WORD	n/a	n/a	FOOTBALL	Toys	10	-1	[0, 0, 0]	n/a	catFR1	2	R1412M
63.746	0.95	108871	WORD_OFF	n/a	n/a	FOOTBALL	Toys	10	-1	[0, 0, 0]	n/a	catFR1	2	R1412M
64.696	1.6	109822	WORD	n/a	n/a	LOBSTER	OceanAnimals	11	-1	[0, 0, 0]	n/a	catFR1	2	R1412M
66.313	0.766	111434	WORD_OFF	n/a	n/a	LOBSTER	OceanAnimals	11	-1	[0, 0, 0]	n/a	catFR1	2	R1412M
67.079	1.6	112206	WORD	n/a	n/a	FISH	OceanAnimals	12	-1	[0, 0, 0]	n/a	catFR1	2	R1412M
68.696	0.002	113818	WORD_OFF	n/a	n/a	FISH	OceanAnimals	12	-1	[0, 0, 0]	n/a	catFR1	2	R1412M
68.698	0.0	113818	ENCODING_END	n/a	n/a	n/a	n/a	-999	-1	[0, 0, 0]	n/a	catFR1	2	R1412M
68.698	0.0	113818	DISTRACT_START	n/a	n/a	n/a	n/a	-999	-1	[0, 0, 0]	n/a	catFR1	2	R1412M
68.697	0.001	113819	PROB	8.433	n/a	n/a	n/a	-999	-1	[3, 8, 4]	15.0	catFR1	2	R1412M
68.698	8.449	113820	START	n/a	n/a	n/a	n/a	-999	-1	[-999, -999, -999]	n/a	catFR1	2	R1412M
77.147	3.184	122269	PROB	3.166	n/a	n/a	n/a	-999	-1	[3, 3, 7]	13.0	catFR1	2	R1412M
80.331	5.283	125452	PROB	5.266	n/a	n/a	n/a	-999	-1	[1, 8, 6]	15.0	catFR1	2	R1412M
85.614	4.249	130735	PROB	4.234	n/a	n/a	n/a	-999	-1	[3, 8, 2]	13.0	catFR1	2	R1412M
89.863	0.0	134980	DISTRACT_END	n/a	n/a	n/a	n/a	-999	-1	[0, 0, 0]	n/a	catFR1	2	R1412M
89.863	2.099	134984	STOP	n/a	n/a	n/a	n/a	-999	-1	[-999, -999, -999]	n/a	catFR1	2	R1412M
91.962	0.149	137083	REC_START	n/a	n/a	n/a	n/a	-999	-1	[0, 0, 0]	n/a	catFR1	2	R1412M
92.111	0.573	137232	REC_WORD	0.149	n/a	PLUM	Fruit	1	-1	[0, 0, 0]	n/a	catFR1	2	R1412M
92.684	1.865	137805	REC_WORD	0.722	n/a	PEACH	Fruit	2	-1	[0, 0, 0]	n/a	catFR1	2	R1412M
94.549	0.668	139670	REC_WORD	2.587	n/a	CHERRY	Fruit	8	-1	[0, 0, 0]	n/a	catFR1	2	R1412M
95.217	0.624	140338	REC_WORD	3.255	n/a	BASEBALL	Toys	3	-1	[0, 0, 0]	n/a	catFR1	2	R1412M
95.841	0.751	140962	REC_WORD	3.879	n/a	FOOTBALL	Toys	10	-1	[0, 0, 0]	n/a	catFR1	2	R1412M
96.592	7.98	141713	REC_WORD	4.63	n/a	LOBSTER	OceanAnimals	11	-1	[0, 0, 0]	n/a	catFR1	2	R1412M
104.572	11.15	149692	REC_WORD	12.61	n/a	BALL	Toys	9	-1	[0, 0, 0]	n/a	catFR1	2	R1412M
115.722	6.477	160842	REC_WORD	23.76	n/a	GRAPE	Fruit	7	-1	[0, 0, 0]	n/a	catFR1	2	R1412M
122.199	8.783	167317	REC_END	n/a	n/a	n/a	n/a	-999	-1	[0, 0, 0]	n/a	catFR1	2	R1412M
130.982	10.0	176107	COUNTDOWN_START	n/a	n/a	n/a	n/a	-999	1	[0, 0, 0]	n/a	catFR1	2	R1412M
141.33	0.0	186454	COUNTDOWN_END	n/a	n/a	n/a	n/a	-999	1	[0, 0, 0]	n/a	catFR1	2	R1412M
141.33	2.35	186454	ENCODING_START	n/a	n/a	n/a	n/a	-999	1	[0, 0, 0]	n/a	catFR1	2	R1412M
143.68	1.6	188796	WORD	n/a	wordpools/wordpool_categorized_EN.txt	WINDOW	Building	1	1	[0, 0, 0]	n/a	catFR1	2	R1412M
145.28	0.85	190394	WORD_OFF	n/a	n/a	WINDOW	Building	1	1	[0, 0, 0]	n/a	catFR1	2	R1412M
146.13	1.6	191249	WORD	n/a	wordpools/wordpool_categorized_EN.txt	DOOR	Building	2	1	[0, 0, 0]	n/a	catFR1	2	R1412M
147.747	0.833	192861	WORD_OFF	n/a	n/a	DOOR	Building	2	1	[0, 0, 0]	n/a	catFR1	2	R1412M
148.58	1.6	193701	WORD	n/a	wordpools/wordpool_categorized_EN.txt	HICKORY	Trees	3	1	[0, 0, 0]	n/a	catFR1	2	R1412M
150.18	0.817	195299	WORD_OFF	n/a	n/a	HICKORY	Trees	3	1	[0, 0, 0]	n/a	catFR1	2	R1412M
150.997	1.6	196112	WORD	n/a	wordpools/wordpool_categorized_EN.txt	EVERGREEN	Trees	4	1	[0, 0, 0]	n/a	catFR1	2	R1412M
152.597	0.816	197710	WORD_OFF	n/a	n/a	EVERGREEN	Trees	4	1	[0, 0, 0]	n/a	catFR1	2	R1412M
153.413	1.6	198537	WORD	n/a	wordpools/wordpool_categorized_EN.txt	COMPUTER	Electronics	5	1	[0, 0, 0]	n/a	catFR1	2	R1412M
155.013	1.0	200135	WORD_OFF	n/a	n/a	COMPUTER	Electronics	5	1	[0, 0, 0]	n/a	catFR1	2	R1412M
156.013	1.6	201127	WORD	n/a	wordpools/wordpool_categorized_EN.txt	TELEVISION	Electronics	6	1	[0, 0, 0]	n/a	catFR1	2	R1412M
157.629	0.951	202753	WORD_OFF	n/a	n/a	TELEVISION	Electronics	6	1	[0, 0, 0]	n/a	catFR1	2	R1412M
158.58	1.6	203704	WORD	n/a	wordpools/wordpool_categorized_EN.txt	SPRUCE	Trees	7	1	[0, 0, 0]	n/a	catFR1	2	R1412M
160.18	0.85	205302	WORD_OFF	n/a	n/a	SPRUCE	Trees	7	1	[0, 0, 0]	n/a	catFR1	2	R1412M
161.03	1.6	206142	WORD	n/a	wordpools/wordpool_categorized_EN.txt	MAPLE	Trees	8	1	[0, 0, 0]	n/a	catFR1	2	R1412M
162.646	0.767	207768	WORD_OFF	n/a	n/a	MAPLE	Trees	8	1	[0, 0, 0]	n/a	catFR1	2	R1412M
163.413	1.6	208526	WORD	n/a	wordpools/wordpool_categorized_EN.txt	STAIRS	Building	9	1	[0, 0, 0]	n/a	catFR1	2	R1412M
165.029	0.983	210152	WORD_OFF	n/a	n/a	STAIRS	Building	9	1	[0, 0, 0]	n/a	catFR1	2	R1412M
166.012	1.6	211130	WORD	n/a	wordpools/wordpool_categorized_EN.txt	WALL	Building	10	1	[0, 0, 0]	n/a	catFR1	2	R1412M
167.613	0.949	212728	WORD_OFF	n/a	n/a	WALL	Building	10	1	[0, 0, 0]	n/a	catFR1	2	R1412M
168.562	1.6	213679	WORD	n/a	wordpools/wordpool_categorized_EN.txt	HEADPHONES	Electronics	11	1	[0, 0, 0]	n/a	catFR1	2	R1412M
170.163	0.767	215277	WORD_OFF	n/a	n/a	HEADPHONES	Electronics	11	1	[0, 0, 0]	n/a	catFR1	2	R1412M
170.93	1.6	216049	WORD	n/a	wordpools/wordpool_categorized_EN.txt	PRINTER	Electronics	12	1	[0, 0, 0]	n/a	catFR1	2	R1412M
172.547	0.001	217661	WORD_OFF	n/a	n/a	PRINTER	Electronics	12	1	[0, 0, 0]	n/a	catFR1	2	R1412M
172.548	0.0	217661	ENCODING_END	n/a	n/a	n/a	n/a	-999	1	[0, 0, 0]	n/a	catFR1	2	R1412M
172.547	0.001	217664	PROB	4.7	n/a	n/a	n/a	-999	1	[5, 6, 3]	14.0	catFR1	2	R1412M
172.548	0.0	217665	START	n/a	n/a	n/a	n/a	-999	1	[-999, -999, -999]	n/a	catFR1	2	R1412M
172.548	4.715	217674	DISTRACT_START	n/a	n/a	n/a	n/a	-999	1	[0, 0, 0]	n/a	catFR1	2	R1412M
177.263	3.284	222380	PROB	3.267	n/a	n/a	n/a	-999	1	[7, 7, 7]	14.0	catFR1	2	R1412M
180.547	9.1	225664	PROB	9.083	n/a	n/a	n/a	-999	1	[7, 2, 5]	14.0	catFR1	2	R1412M
189.647	6.666	234763	PROB	6.65	n/a	n/a	n/a	-999	1	[2, 2, 5]	9.0	catFR1	2	R1412M
196.313	0.0	241427	DISTRACT_END	n/a	n/a	n/a	n/a	-999	1	[0, 0, 0]	n/a	catFR1	2	R1412M
196.313	2.05	241429	STOP	n/a	n/a	n/a	n/a	-999	1	[-999, -999, -999]	n/a	catFR1	2	R1412M
198.363	1.657	243474	REC_START	n/a	n/a	n/a	n/a	-999	1	[0, 0, 0]	n/a	catFR1	2	R1412M
200.02	1.733	245136	REC_WORD	1.657	n/a	STAIRS	Building	9	1	[0, 0, 0]	n/a	catFR1	2	R1412M
201.753	25.264	246869	REC_WORD	3.39	n/a	HEADPHONES	Electronics	11	1	[0, 0, 0]	n/a	catFR1	2	R1412M
227.017	1.566	272131	REC_WORD	28.654	n/a	WINDOW	Building	1	1	[0, 0, 0]	n/a	catFR1	2	R1412M
228.583	4.147	273695	REC_END	n/a	n/a	n/a	n/a	-999	1	[0, 0, 0]	n/a	catFR1	2	R1412M
232.73	10.0	277842	COUNTDOWN_START	n/a	n/a	n/a	n/a	-999	2	[0, 0, 0]	n/a	catFR1	2	R1412M
243.08	0.001	288189	COUNTDOWN_END	n/a	n/a	n/a	n/a	-999	2	[0, 0, 0]	n/a	catFR1	2	R1412M
243.081	1.915	288203	ENCODING_START	n/a	n/a	n/a	n/a	-999	2	[0, 0, 0]	n/a	catFR1	2	R1412M
244.996	1.6	290104	WORD	n/a	wordpools/wordpool_categorized_EN.txt	COUCH	Furniture	1	2	[0, 0, 0]	n/a	catFR1	2	R1412M
246.596	0.917	291716	WORD_OFF	n/a	n/a	COUCH	Furniture	1	2	[0, 0, 0]	n/a	catFR1	2	R1412M
247.513	1.6	292626	WORD	n/a	wordpools/wordpool_categorized_EN.txt	BED	Furniture	2	2	[0, 0, 0]	n/a	catFR1	2	R1412M
249.113	0.867	294224	WORD_OFF	n/a	n/a	BED	Furniture	2	2	[0, 0, 0]	n/a	catFR1	2	R1412M
249.98	1.6	295092	WORD	n/a	wordpools/wordpool_categorized_EN.txt	WIND	Weather	3	2	[0, 0, 0]	n/a	catFR1	2	R1412M
251.596	1.0	296704	WORD_OFF	n/a	n/a	WIND	Weather	3	2	[0, 0, 0]	n/a	catFR1	2	R1412M
252.596	1.6	297710	WORD	n/a	wordpools/wordpool_categorized_EN.txt	HURRICANE	Weather	4	2	[0, 0, 0]	n/a	catFR1	2	R1412M
254.197	0.766	299308	WORD_OFF	n/a	n/a	HURRICANE	Weather	4	2	[0, 0, 0]	n/a	catFR1	2	R1412M
254.963	1.6	300079	WORD	n/a	wordpools/wordpool_categorized_EN.txt	CABBAGE	Vegetables	5	2	[0, 0, 0]	n/a	catFR1	2	R1412M
256.58	0.766	301691	WORD_OFF	n/a	n/a	CABBAGE	Vegetables	5	2	[0, 0, 0]	n/a	catFR1	2	R1412M
257.346	1.6	302463	WORD	n/a	wordpools/wordpool_categorized_EN.txt	CARROT	Vegetables	6	2	[0, 0, 0]	n/a	catFR1	2	R1412M
258.947	0.966	304061	WORD_OFF	n/a	n/a	CARROT	Vegetables	6	2	[0, 0, 0]	n/a	catFR1	2	R1412M
259.913	1.6	305025	WORD	n/a	wordpools/wordpool_categorized_EN.txt	THUNDERSTORM	Weather	7	2	[0, 0, 0]	n/a	catFR1	2	R1412M
261.53	0.883	306637	WORD_OFF	n/a	n/a	THUNDERSTORM	Weather	7	2	[0, 0, 0]	n/a	catFR1	2	R1412M
262.413	1.6	307533	WORD	n/a	wordpools/wordpool_categorized_EN.txt	RAIN	Weather	8	2	[0, 0, 0]	n/a	catFR1	2	R1412M
264.029	0.984	309145	WORD_OFF	n/a	n/a	RAIN	Weather	8	2	[0, 0, 0]	n/a	catFR1	2	R1412M
265.013	1.6	310123	WORD	n/a	wordpools/wordpool_categorized_EN.txt	SPINACH	Vegetables	9	2	[0, 0, 0]	n/a	catFR1	2	R1412M
266.63	0.783	311749	WORD_OFF	n/a	n/a	SPINACH	Vegetables	9	2	[0, 0, 0]	n/a	catFR1	2	R1412M
267.413	1.6	312521	WORD	n/a	wordpools/wordpool_categorized_EN.txt	CAULIFLOWER	Vegetables	10	2	[0, 0, 0]	n/a	catFR1	2	R1412M
269.03	0.867	314146	WORD_OFF	n/a	n/a	CAULIFLOWER	Vegetables	10	2	[0, 0, 0]	n/a	catFR1	2	R1412M
269.897	1.6	315014	WORD	n/a	wordpools/wordpool_categorized_EN.txt	SOFA	Furniture	11	2	[0, 0, 0]	n/a	catFR1	2	R1412M
271.513	0.784	316626	WORD_OFF	n/a	n/a	SOFA	Furniture	11	2	[0, 0, 0]	n/a	catFR1	2	R1412M
272.297	1.6	317412	WORD	n/a	wordpools/wordpool_categorized_EN.txt	RECLINER	Furniture	12	2	[0, 0, 0]	n/a	catFR1	2	R1412M
273.897	0.0	319009	PROB	7.782	n/a	n/a	n/a	-999	2	[8, 5, 3]	16.0	catFR1	2	R1412M
273.897	0.001	319010	WORD_OFF	n/a	n/a	RECLINER	Furniture	12	2	[0, 0, 0]	n/a	catFR1	2	R1412M
273.898	0.0	319010	ENCODING_END	n/a	n/a	n/a	n/a	-999	2	[0, 0, 0]	n/a	catFR1	2	R1412M
273.898	0.0	319010	DISTRACT_START	n/a	n/a	n/a	n/a	-999	2	[0, 0, 0]	n/a	catFR1	2	R1412M
273.898	7.798	319010	START	n/a	n/a	n/a	n/a	-999	2	[-999, -999, -999]	n/a	catFR1	2	R1412M
281.696	6.684	326808	PROB	6.667	n/a	n/a	n/a	-999	2	[6, 6, 5]	17.0	catFR1	2	R1412M
288.38	3.55	333491	PROB	3.533	n/a	n/a	n/a	-999	2	[3, 3, 2]	8.0	catFR1	2	R1412M
291.93	5.302	337041	PROB	5.283	n/a	n/a	n/a	-999	2	[2, 7, 3]	12.0	catFR1	2	R1412M
297.232	0.0	342343	STOP	n/a	n/a	n/a	n/a	-999	2	[-999, -999, -999]	n/a	catFR1	2	R1412M
297.232	2.198	342349	DISTRACT_END	n/a	n/a	n/a	n/a	-999	2	[0, 0, 0]	n/a	catFR1	2	R1412M
299.43	2.793	344534	REC_START	n/a	n/a	n/a	n/a	-999	2	[0, 0, 0]	n/a	catFR1	2	R1412M
302.223	6.156	347334	REC_WORD_VV	2.793	n/a	<>	n/a	-999	2	[0, 0, 0]	n/a	catFR1	2	R1412M
308.379	4.183	353489	REC_WORD	8.949	n/a	HURRICANE	Weather	4	2	[0, 0, 0]	n/a	catFR1	2	R1412M
312.562	8.296	357672	REC_WORD	13.132	n/a	WIND	Weather	3	2	[0, 0, 0]	n/a	catFR1	2	R1412M
320.858	8.803	365968	REC_WORD	21.428	n/a	SPINACH	Vegetables	9	2	[0, 0, 0]	n/a	catFR1	2	R1412M
329.661	3.102	374769	REC_END	n/a	n/a	n/a	n/a	-999	2	[0, 0, 0]	n/a	catFR1	2	R1412M
332.763	10.0	377869	COUNTDOWN_START	n/a	n/a	n/a	n/a	-999	3	[0, 0, 0]	n/a	catFR1	2	R1412M
343.114	0.0	388229	COUNTDOWN_END	n/a	n/a	n/a	n/a	-999	3	[0, 0, 0]	n/a	catFR1	2	R1412M
343.114	1.833	388229	ENCODING_START	n/a	n/a	n/a	n/a	-999	3	[0, 0, 0]	n/a	catFR1	2	R1412M
344.947	1.6	390062	WORD	n/a	wordpools/wordpool_categorized_EN.txt	FOUNDATION	Building	1	3	[0, 0, 0]	n/a	catFR1	2	R1412M
346.563	0.984	391674	WORD_OFF	n/a	n/a	FOUNDATION	Building	1	3	[0, 0, 0]	n/a	catFR1	2	R1412M
347.547	1.6	392652	WORD	n/a	wordpools/wordpool_categorized_EN.txt	ROOM	Building	2	3	[0, 0, 0]	n/a	catFR1	2	R1412M
349.147	0.966	394250	WORD_OFF	n/a	n/a	ROOM	Building	2	3	[0, 0, 0]	n/a	catFR1	2	R1412M
350.113	1.6	395229	WORD	n/a	wordpools/wordpool_categorized_EN.txt	SHOVEL	Tools	3	3	[0, 0, 0]	n/a	catFR1	2	R1412M
351.713	0.817	396827	WORD_OFF	n/a	n/a	SHOVEL	Tools	3	3	[0, 0, 0]	n/a	catFR1	2	R1412M
352.53	1.6	397640	WORD	n/a	wordpools/wordpool_categorized_EN.txt	DRILL	Tools	4	3	[0, 0, 0]	n/a	catFR1	2	R1412M
354.147	0.916	399252	WORD_OFF	n/a	n/a	DRILL	Tools	4	3	[0, 0, 0]	n/a	catFR1	2	R1412M
355.063	1.6	400175	WORD	n/a	wordpools/wordpool_categorized_EN.txt	FLUTE	Instruments	5	3	[0, 0, 0]	n/a	catFR1	2	R1412M
356.679	0.968	401787	WORD_OFF	n/a	n/a	FLUTE	Instruments	5	3	[0, 0, 0]	n/a	catFR1	2	R1412M
357.647	1.6	402751	WORD	n/a	wordpools/wordpool_categorized_EN.txt	TRUMPET	Instruments	6	3	[0, 0, 0]	n/a	catFR1	2	R1412M
359.263	0.966	404377	WORD_OFF	n/a	n/a	TRUMPET	Instruments	6	3	[0, 0, 0]	n/a	catFR1	2	R1412M
360.229	1.6	405341	WORD	n/a	wordpools/wordpool_categorized_EN.txt	HAMMER	Tools	7	3	[0, 0, 0]	n/a	catFR1	2	R1412M
361.83	0.983	406940	WORD_OFF	n/a	n/a	HAMMER	Tools	7	3	[0, 0, 0]	n/a	catFR1	2	R1412M
362.813	1.6	407918	WORD	n/a	wordpools/wordpool_categorized_EN.txt	SANDER	Tools	8	3	[0, 0, 0]	n/a	catFR1	2	R1412M
364.43	0.883	409544	WORD_OFF	n/a	n/a	SANDER	Tools	8	3	[0, 0, 0]	n/a	catFR1	2	R1412M
365.313	1.6	410425	WORD	n/a	wordpools/wordpool_categorized_EN.txt	PIANO	Instruments	9	3	[0, 0, 0]	n/a	catFR1	2	R1412M
366.929	0.884	412037	WORD_OFF	n/a	n/a	PIANO	Instruments	9	3	[0, 0, 0]	n/a	catFR1	2	R1412M
367.813	1.6	412919	WORD	n/a	wordpools/wordpool_categorized_EN.txt	CELLO	Instruments	10	3	[0, 0, 0]	n/a	catFR1	2	R1412M
369.415	0.848	414517	WORD_OFF	n/a	n/a	CELLO	Instruments	10	3	[0, 0, 0]	n/a	catFR1	2	R1412M
370.263	1.6	415372	WORD	n/a	wordpools/wordpool_categorized_EN.txt	ROOF	Building	11	3	[0, 0, 0]	n/a	catFR1	2	R1412M
371.863	0.85	416970	WORD_OFF	n/a	n/a	ROOF	Building	11	3	[0, 0, 0]	n/a	catFR1	2	R1412M
372.713	1.6	417824	WORD	n/a	wordpools/wordpool_categorized_EN.txt	CEILING	Building	12	3	[0, 0, 0]	n/a	catFR1	2	R1412M
374.313	0.0	419420	PROB	4.399	n/a	n/a	n/a	-999	3	[8, 7, 3]	18.0	catFR1	2	R1412M
374.313	0.002	419422	WORD_OFF	n/a	n/a	CEILING	Building	12	3	[0, 0, 0]	n/a	catFR1	2	R1412M
374.315	0.0	419422	ENCODING_END	n/a	n/a	n/a	n/a	-999	3	[0, 0, 0]	n/a	catFR1	2	R1412M
374.315	0.0	419422	DISTRACT_START	n/a	n/a	n/a	n/a	-999	3	[0, 0, 0]	n/a	catFR1	2	R1412M
374.315	4.416	419422	START	n/a	n/a	n/a	n/a	-999	3	[-999, -999, -999]	n/a	catFR1	2	R1412M
378.731	5.365	423838	PROB	5.348	n/a	n/a	n/a	-999	3	[8, 8, 2]	18.0	catFR1	2	R1412M
384.096	7.618	429203	PROB	7.6	n/a	n/a	n/a	-999	3	[3, 8, 2]	13.0	catFR1	2	R1412M
391.714	5.932	436820	PROB	5.916	n/a	n/a	n/a	-999	3	[8, 8, 2]	18.0	catFR1	2	R1412M
397.646	0.0	442748	DISTRACT_END	n/a	n/a	n/a	n/a	-999	3	[0, 0, 0]	n/a	catFR1	2	R1412M
397.646	2.133	442752	STOP	n/a	n/a	n/a	n/a	-999	3	[-999, -999, -999]	n/a	catFR1	2	R1412M
399.779	4.239	444892	REC_START	n/a	n/a	n/a	n/a	-999	3	[0, 0, 0]	n/a	catFR1	2	R1412M
404.018	14.184	449124	REC_WORD	4.239	n/a	HAMMER	Tools	7	3	[0, 0, 0]	n/a	catFR1	2	R1412M
418.202	11.776	463307	REC_WORD	18.423	n/a	ROOF	Building	11	3	[0, 0, 0]	n/a	catFR1	2	R1412M
429.978	4.051	475084	REC_END	n/a	n/a	n/a	n/a	-999	3	[0, 0, 0]	n/a	catFR1	2	R1412M
434.029	10.0	479135	COUNTDOWN_START	n/a	n/a	n/a	n/a	-999	4	[0, 0, 0]	n/a	catFR1	2	R1412M
444.381	0.0	489482	COUNTDOWN_END	n/a	n/a	n/a	n/a	-999	4	[0, 0, 0]	n/a	catFR1	2	R1412M
444.381	2.066	489482	ENCODING_START	n/a	n/a	n/a	n/a	-999	4	[0, 0, 0]	n/a	catFR1	2	R1412M
446.447	1.6	491549	WORD	n/a	wordpools/wordpool_categorized_EN.txt	MARIGOLD	Flowers	1	4	[0, 0, 0]	n/a	catFR1	2	R1412M
448.063	0.884	493161	WORD_OFF	n/a	n/a	MARIGOLD	Flowers	1	4	[0, 0, 0]	n/a	catFR1	2	R1412M
448.947	1.6	494056	WORD	n/a	wordpools/wordpool_categorized_EN.txt	DAFFODIL	Flowers	2	4	[0, 0, 0]	n/a	catFR1	2	R1412M
450.562	1.001	495668	WORD_OFF	n/a	n/a	DAFFODIL	Flowers	2	4	[0, 0, 0]	n/a	catFR1	2	R1412M
451.563	1.6	496660	WORD	n/a	wordpools/wordpool_categorized_EN.txt	STOVE	Appliances	3	4	[0, 0, 0]	n/a	catFR1	2	R1412M
453.18	1.0	498286	WORD_OFF	n/a	n/a	STOVE	Appliances	3	4	[0, 0, 0]	n/a	catFR1	2	R1412M
454.18	1.6	499278	WORD	n/a	wordpools/wordpool_categorized_EN.txt	OVEN	Appliances	4	4	[0, 0, 0]	n/a	catFR1	2	R1412M
455.78	0.8	500890	WORD_OFF	n/a	n/a	OVEN	Appliances	4	4	[0, 0, 0]	n/a	catFR1	2	R1412M
456.58	1.6	501689	WORD	n/a	wordpools/wordpool_categorized_EN.txt	BIRCH	Trees	5	4	[0, 0, 0]	n/a	catFR1	2	R1412M
458.18	0.783	503288	WORD_OFF	n/a	n/a	BIRCH	Trees	5	4	[0, 0, 0]	n/a	catFR1	2	R1412M
458.963	1.6	504073	WORD	n/a	wordpools/wordpool_categorized_EN.txt	OAK	Trees	6	4	[0, 0, 0]	n/a	catFR1	2	R1412M
460.563	0.934	505671	WORD_OFF	n/a	n/a	OAK	Trees	6	4	[0, 0, 0]	n/a	catFR1	2	R1412M
461.497	1.6	506594	WORD	n/a	wordpools/wordpool_categorized_EN.txt	ROSE	Flowers	7	4	[0, 0, 0]	n/a	catFR1	2	R1412M
463.097	0.833	508206	WORD_OFF	n/a	n/a	ROSE	Flowers	7	4	[0, 0, 0]	n/a	catFR1	2	R1412M
463.93	1.6	509033	WORD	n/a	wordpools/wordpool_categorized_EN.txt	PETUNIA	Flowers	8	4	[0, 0, 0]	n/a	catFR1	2	R1412M
465.53	0.85	510631	WORD_OFF	n/a	n/a	PETUNIA	Flowers	8	4	[0, 0, 0]	n/a	catFR1	2	R1412M
466.38	1.6	511485	WORD	n/a	wordpools/wordpool_categorized_EN.txt	WILLOW	Trees	9	4	[0, 0, 0]	n/a	catFR1	2	R1412M
467.996	0.984	513097	WORD_OFF	n/a	n/a	WILLOW	Trees	9	4	[0, 0, 0]	n/a	catFR1	2	R1412M
468.98	1.6	514089	WORD	n/a	wordpools/wordpool_categorized_EN.txt	WALNUT	Trees	10	4	[0, 0, 0]	n/a	catFR1	2	R1412M
470.596	0.9	515701	WORD_OFF	n/a	n/a	WALNUT	Trees	10	4	[0, 0, 0]	n/a	catFR1	2	R1412M
471.496	1.6	516597	WORD	n/a	wordpools/wordpool_categorized_EN.txt	REFRIGERATOR	Appliances	11	4	[0, 0, 0]	n/a	catFR1	2	R1412M
473.114	0.899	518223	WORD_OFF	n/a	n/a	REFRIGERATOR	Appliances	11	4	[0, 0, 0]	n/a	catFR1	2	R1412M
474.013	1.6	519118	WORD	n/a	wordpools/wordpool_categorized_EN.txt	WASHER	Appliances	12	4	[0, 0, 0]	n/a	catFR1	2	R1412M
475.613	0.0	520715	PROB	6.783	n/a	n/a	n/a	-999	4	[8, 8, 4]	20.0	catFR1	2	R1412M
475.613	0.002	520716	WORD_OFF	n/a	n/a	WASHER	Appliances	12	4	[0, 0, 0]	n/a	catFR1	2	R1412M
475.615	0.0	520716	ENCODING_END	n/a	n/a	n/a	n/a	-999	4	[0, 0, 0]	n/a	catFR1	2	R1412M
475.615	0.0	520716	DISTRACT_START	n/a	n/a	n/a	n/a	-999	4	[0, 0, 0]	n/a	catFR1	2	R1412M
475.615	6.798	520717	START	n/a	n/a	n/a	n/a	-999	4	[-999, -999, -999]	n/a	catFR1	2	R1412M
482.413	3.284	527515	PROB	3.266	n/a	n/a	n/a	-999	4	[3, 7, 3]	13.0	catFR1	2	R1412M
485.697	5.282	530799	PROB	5.266	n/a	n/a	n/a	-999	4	[1, 3, 6]	10.0	catFR1	2	R1412M
490.979	4.418	536081	PROB	4.4	n/a	n/a	n/a	-999	4	[4, 5, 5]	14.0	catFR1	2	R1412M
495.397	6.45	540498	PROB	6.434	n/a	n/a	n/a	-999	4	[5, 8, 6]	19.0	catFR1	2	R1412M
501.847	0.0	546948	STOP	n/a	n/a	n/a	n/a	-999	4	[-999, -999, -999]	n/a	catFR1	2	R1412M
501.847	2.284	546949	DISTRACT_END	n/a	n/a	n/a	n/a	-999	4	[0, 0, 0]	n/a	catFR1	2	R1412M
504.131	0.674	549231	REC_START	n/a	n/a	n/a	n/a	-999	4	[0, 0, 0]	n/a	catFR1	2	R1412M
504.805	3.468	549906	REC_WORD	0.674	n/a	MARIGOLD	Flowers	1	4	[0, 0, 0]	n/a	catFR1	2	R1412M
508.273	1.943	553374	REC_WORD	4.142	n/a	DAFFODIL	Flowers	2	4	[0, 0, 0]	n/a	catFR1	2	R1412M
510.216	21.491	555317	REC_WORD	6.085	n/a	ROSE	Flowers	7	4	[0, 0, 0]	n/a	catFR1	2	R1412M
531.707	2.642	576807	REC_WORD	27.576	n/a	TULIP	n/a	-999	4	[0, 0, 0]	n/a	catFR1	2	R1412M
534.349	7.847	579451	REC_END	n/a	n/a	n/a	n/a	-999	4	[0, 0, 0]	n/a	catFR1	2	R1412M
542.196	10.0	587304	COUNTDOWN_START	n/a	n/a	n/a	n/a	-999	5	[0, 0, 0]	n/a	catFR1	2	R1412M
552.547	0.0	597651	COUNTDOWN_END	n/a	n/a	n/a	n/a	-999	5	[0, 0, 0]	n/a	catFR1	2	R1412M
552.547	2.216	597651	ENCODING_START	n/a	n/a	n/a	n/a	-999	5	[0, 0, 0]	n/a	catFR1	2	R1412M
554.763	1.6	599856	WORD	n/a	wordpools/wordpool_categorized_EN.txt	PHONE	Electronics	1	5	[0, 0, 0]	n/a	catFR1	2	R1412M
556.379	0.834	601482	WORD_OFF	n/a	n/a	PHONE	Electronics	1	5	[0, 0, 0]	n/a	catFR1	2	R1412M
557.213	1.6	602308	WORD	n/a	wordpools/wordpool_categorized_EN.txt	SPEAKER	Electronics	2	5	[0, 0, 0]	n/a	catFR1	2	R1412M
558.83	1.0	603934	WORD_OFF	n/a	n/a	SPEAKER	Electronics	2	5	[0, 0, 0]	n/a	catFR1	2	R1412M
559.83	1.6	604926	WORD	n/a	wordpools/wordpool_categorized_EN.txt	TULIP	Flowers	3	5	[0, 0, 0]	n/a	catFR1	2	R1412M
561.447	0.868	606552	WORD_OFF	n/a	n/a	TULIP	Flowers	3	5	[0, 0, 0]	n/a	catFR1	2	R1412M
562.315	1.6	607420	WORD	n/a	wordpools/wordpool_categorized_EN.txt	LILAC	Flowers	4	5	[0, 0, 0]	n/a	catFR1	2	R1412M
563.93	0.815	609032	WORD_OFF	n/a	n/a	LILAC	Flowers	4	5	[0, 0, 0]	n/a	catFR1	2	R1412M
564.745	1.6	609845	WORD	n/a	wordpools/wordpool_categorized_EN.txt	ELEPHANT	Zoo	5	5	[0, 0, 0]	n/a	catFR1	2	R1412M
566.346	0.968	611443	WORD_OFF	n/a	n/a	ELEPHANT	Zoo	5	5	[0, 0, 0]	n/a	catFR1	2	R1412M
567.314	1.6	612407	WORD	n/a	wordpools/wordpool_categorized_EN.txt	PANDA	Zoo	6	5	[0, 0, 0]	n/a	catFR1	2	R1412M
568.913	0.834	614006	WORD_OFF	n/a	n/a	PANDA	Zoo	6	5	[0, 0, 0]	n/a	catFR1	2	R1412M
569.747	1.6	614846	WORD	n/a	wordpools/wordpool_categorized_EN.txt	CARNATION	Flowers	7	5	[0, 0, 0]	n/a	catFR1	2	R1412M
571.347	0.916	616444	WORD_OFF	n/a	n/a	CARNATION	Flowers	7	5	[0, 0, 0]	n/a	catFR1	2	R1412M
572.263	1.6	617367	WORD	n/a	wordpools/wordpool_categorized_EN.txt	DAISY	Flowers	8	5	[0, 0, 0]	n/a	catFR1	2	R1412M
573.863	0.9	618966	WORD_OFF	n/a	n/a	DAISY	Flowers	8	5	[0, 0, 0]	n/a	catFR1	2	R1412M
574.763	1.6	619861	WORD	n/a	wordpools/wordpool_categorized_EN.txt	ZEBRA	Zoo	9	5	[0, 0, 0]	n/a	catFR1	2	R1412M
576.363	0.8	621459	WORD_OFF	n/a	n/a	ZEBRA	Zoo	9	5	[0, 0, 0]	n/a	catFR1	2	R1412M
577.163	1.6	622259	WORD	n/a	wordpools/wordpool_categorized_EN.txt	GIRAFFE	Zoo	10	5	[0, 0, 0]	n/a	catFR1	2	R1412M
578.763	0.784	623857	WORD_OFF	n/a	n/a	GIRAFFE	Zoo	10	5	[0, 0, 0]	n/a	catFR1	2	R1412M
579.547	1.6	624642	WORD	n/a	wordpools/wordpool_categorized_EN.txt	MICROWAVE	Electronics	11	5	[0, 0, 0]	n/a	catFR1	2	R1412M
581.163	0.967	626254	WORD_OFF	n/a	n/a	MICROWAVE	Electronics	11	5	[0, 0, 0]	n/a	catFR1	2	R1412M
582.13	1.6	627232	WORD	n/a	wordpools/wordpool_categorized_EN.txt	SCANNER	Electronics	12	5	[0, 0, 0]	n/a	catFR1	2	R1412M
583.747	0.001	628844	WORD_OFF	n/a	n/a	SCANNER	Electronics	12	5	[0, 0, 0]	n/a	catFR1	2	R1412M
583.748	0.0	628844	ENCODING_END	n/a	n/a	n/a	n/a	-999	5	[0, 0, 0]	n/a	catFR1	2	R1412M
583.748	0.0	628844	DISTRACT_START	n/a	n/a	n/a	n/a	-999	5	[0, 0, 0]	n/a	catFR1	2	R1412M
583.747	0.001	628844	PROB	7.349	n/a	n/a	n/a	-999	5	[3, 6, 4]	13.0	catFR1	2	R1412M
583.748	7.365	628845	START	n/a	n/a	n/a	n/a	-999	5	[-999, -999, -999]	n/a	catFR1	2	R1412M
591.113	4.734	636210	PROB	4.716	n/a	n/a	n/a	-999	5	[7, 2, 1]	10.0	catFR1	2	R1412M
595.847	5.267	640944	PROB	5.25	n/a	n/a	n/a	-999	5	[8, 5, 6]	19.0	catFR1	2	R1412M
601.114	3.099	646210	PROB	3.083	n/a	n/a	n/a	-999	5	[1, 1, 7]	9.0	catFR1	2	R1412M
604.213	0.0	649304	DISTRACT_END	n/a	n/a	n/a	n/a	-999	5	[0, 0, 0]	n/a	catFR1	2	R1412M
604.213	2.084	649309	STOP	n/a	n/a	n/a	n/a	-999	5	[-999, -999, -999]	n/a	catFR1	2	R1412M
606.297	0.493	651393	REC_START	n/a	n/a	n/a	n/a	-999	5	[0, 0, 0]	n/a	catFR1	2	R1412M
606.79	0.655	651886	REC_WORD	0.493	n/a	ELEPHANT	Zoo	5	5	[0, 0, 0]	n/a	catFR1	2	R1412M
607.445	1.172	652541	REC_WORD	1.148	n/a	GIRAFFE	Zoo	10	5	[0, 0, 0]	n/a	catFR1	2	R1412M
608.617	4.501	653713	REC_WORD	2.32	n/a	ZEBRA	Zoo	9	5	[0, 0, 0]	n/a	catFR1	2	R1412M
613.118	4.467	658214	REC_WORD	6.821	n/a	TULIP	Flowers	3	5	[0, 0, 0]	n/a	catFR1	2	R1412M
617.585	4.256	662681	REC_WORD	11.288	n/a	PHONE	Electronics	1	5	[0, 0, 0]	n/a	catFR1	2	R1412M
621.841	10.874	666936	REC_WORD	15.544	n/a	SPEAKER	Electronics	2	5	[0, 0, 0]	n/a	catFR1	2	R1412M
632.715	3.801	677810	REC_WORD	26.418	n/a	ZEBRA	Zoo	9	5	[0, 0, 0]	n/a	catFR1	2	R1412M
636.516	3.664	681613	REC_END	n/a	n/a	n/a	n/a	-999	5	[0, 0, 0]	n/a	catFR1	2	R1412M
640.18	10.0	685278	COUNTDOWN_START	n/a	n/a	n/a	n/a	-999	6	[0, 0, 0]	n/a	catFR1	2	R1412M
650.531	0.0	695625	COUNTDOWN_END	n/a	n/a	n/a	n/a	-999	6	[0, 0, 0]	n/a	catFR1	2	R1412M
650.531	2.316	695625	ENCODING_START	n/a	n/a	n/a	n/a	-999	6	[0, 0, 0]	n/a	catFR1	2	R1412M
652.847	1.6	697940	WORD	n/a	wordpools/wordpool_categorized_EN.txt	PEN	OfficeSupplies	1	6	[0, 0, 0]	n/a	catFR1	2	R1412M
654.447	0.983	699538	WORD_OFF	n/a	n/a	PEN	OfficeSupplies	1	6	[0, 0, 0]	n/a	catFR1	2	R1412M
655.43	1.6	700530	WORD	n/a	wordpools/wordpool_categorized_EN.txt	RULER	OfficeSupplies	2	6	[0, 0, 0]	n/a	catFR1	2	R1412M
657.047	0.8	702142	WORD_OFF	n/a	n/a	RULER	OfficeSupplies	2	6	[0, 0, 0]	n/a	catFR1	2	R1412M
657.847	1.6	702941	WORD	n/a	wordpools/wordpool_categorized_EN.txt	CUPCAKE	Desserts	3	6	[0, 0, 0]	n/a	catFR1	2	R1412M
659.447	1.0	704539	WORD_OFF	n/a	n/a	CUPCAKE	Desserts	3	6	[0, 0, 0]	n/a	catFR1	2	R1412M
660.447	1.6	705545	WORD	n/a	wordpools/wordpool_categorized_EN.txt	FUDGE	Desserts	4	6	[0, 0, 0]	n/a	catFR1	2	R1412M
662.047	0.933	707143	WORD_OFF	n/a	n/a	FUDGE	Desserts	4	6	[0, 0, 0]	n/a	catFR1	2	R1412M
662.98	1.6	708080	WORD	n/a	wordpools/wordpool_categorized_EN.txt	MARBLES	Toys	5	6	[0, 0, 0]	n/a	catFR1	2	R1412M
664.58	0.933	709678	WORD_OFF	n/a	n/a	MARBLES	Toys	5	6	[0, 0, 0]	n/a	catFR1	2	R1412M
665.513	1.6	710602	WORD	n/a	wordpools/wordpool_categorized_EN.txt	PUZZLE	Toys	6	6	[0, 0, 0]	n/a	catFR1	2	R1412M
667.129	0.967	712227	WORD_OFF	n/a	n/a	PUZZLE	Toys	6	6	[0, 0, 0]	n/a	catFR1	2	R1412M
668.096	1.6	713192	WORD	n/a	wordpools/wordpool_categorized_EN.txt	NOTEBOOK	OfficeSupplies	7	6	[0, 0, 0]	n/a	catFR1	2	R1412M
669.697	0.983	714790	WORD_OFF	n/a	n/a	NOTEBOOK	OfficeSupplies	7	6	[0, 0, 0]	n/a	catFR1	2	R1412M
670.68	1.6	715768	WORD	n/a	wordpools/wordpool_categorized_EN.txt	PENCIL	OfficeSupplies	8	6	[0, 0, 0]	n/a	catFR1	2	R1412M
672.28	0.917	717366	WORD_OFF	n/a	n/a	PENCIL	OfficeSupplies	8	6	[0, 0, 0]	n/a	catFR1	2	R1412M
673.197	1.6	718290	WORD	n/a	wordpools/wordpool_categorized_EN.txt	CAKE	Desserts	9	6	[0, 0, 0]	n/a	catFR1	2	R1412M
674.797	0.882	719888	WORD_OFF	n/a	n/a	CAKE	Desserts	9	6	[0, 0, 0]	n/a	catFR1	2	R1412M
675.679	1.6	720770	WORD	n/a	wordpools/wordpool_categorized_EN.txt	BROWNIES	Desserts	10	6	[0, 0, 0]	n/a	catFR1	2	R1412M
677.28	0.9	722368	WORD_OFF	n/a	n/a	BROWNIES	Desserts	10	6	[0, 0, 0]	n/a	catFR1	2	R1412M
678.18	1.6	723277	WORD	n/a	wordpools/wordpool_categorized_EN.txt	FRISBEE	Toys	11	6	[0, 0, 0]	n/a	catFR1	2	R1412M
679.78	0.9	724875	WORD_OFF	n/a	n/a	FRISBEE	Toys	11	6	[0, 0, 0]	n/a	catFR1	2	R1412M
680.68	1.6	725771	WORD	n/a	wordpools/wordpool_categorized_EN.txt	DOLL	Toys	12	6	[0, 0, 0]	n/a	catFR1	2	R1412M
682.28	0.002	727369	WORD_OFF	n/a	n/a	DOLL	Toys	12	6	[0, 0, 0]	n/a	catFR1	2	R1412M
682.282	0.0	727369	ENCODING_END	n/a	n/a	n/a	n/a	-999	6	[0, 0, 0]	n/a	catFR1	2	R1412M
682.282	0.0	727369	DISTRACT_START	n/a	n/a	n/a	n/a	-999	6	[0, 0, 0]	n/a	catFR1	2	R1412M
682.28	0.002	727372	PROB	4.599	n/a	n/a	n/a	-999	6	[3, 5, 6]	14.0	catFR1	2	R1412M
682.282	4.615	727374	START	n/a	n/a	n/a	n/a	-999	6	[-999, -999, -999]	n/a	catFR1	2	R1412M
686.897	12.185	731989	PROB	12.165	n/a	n/a	n/a	-999	6	[4, 5, 7]	16.0	catFR1	2	R1412M
699.082	4.948	744174	PROB	4.933	n/a	n/a	n/a	-999	6	[4, 8, 7]	19.0	catFR1	2	R1412M
704.03	0.0	749121	STOP	n/a	n/a	n/a	n/a	-999	6	[-999, -999, -999]	n/a	catFR1	2	R1412M
704.03	2.266	749124	DISTRACT_END	n/a	n/a	n/a	n/a	-999	6	[0, 0, 0]	n/a	catFR1	2	R1412M
706.296	1.185	751392	REC_START	n/a	n/a	n/a	n/a	-999	6	[0, 0, 0]	n/a	catFR1	2	R1412M
707.481	0.551	752572	REC_WORD	1.185	n/a	PEN	OfficeSupplies	1	6	[0, 0, 0]	n/a	catFR1	2	R1412M
708.032	2.999	753123	REC_WORD	1.736	n/a	PENCIL	OfficeSupplies	8	6	[0, 0, 0]	n/a	catFR1	2	R1412M
711.031	0.785	756122	REC_WORD	4.735	n/a	RULER	OfficeSupplies	2	6	[0, 0, 0]	n/a	catFR1	2	R1412M
711.816	2.074	756907	REC_WORD	5.52	n/a	NOTEBOOK	OfficeSupplies	7	6	[0, 0, 0]	n/a	catFR1	2	R1412M
713.89	0.764	758981	REC_WORD	7.594	n/a	CUPCAKE	Desserts	3	6	[0, 0, 0]	n/a	catFR1	2	R1412M
714.654	0.604	759745	REC_WORD	8.358	n/a	CAKE	Desserts	9	6	[0, 0, 0]	n/a	catFR1	2	R1412M
715.258	21.256	760349	REC_WORD	8.962	n/a	FUDGE	Desserts	4	6	[0, 0, 0]	n/a	catFR1	2	R1412M
736.514	4.266	781598	REC_END	n/a	n/a	n/a	n/a	-999	6	[0, 0, 0]	n/a	catFR1	2	R1412M
740.78	10.0	785869	COUNTDOWN_START	n/a	n/a	n/a	n/a	-999	7	[0, 0, 0]	n/a	catFR1	2	R1412M
751.13	0.0	796217	COUNTDOWN_END	n/a	n/a	n/a	n/a	-999	7	[0, 0, 0]	n/a	catFR1	2	R1412M
751.13	2.349	796217	ENCODING_START	n/a	n/a	n/a	n/a	-999	7	[0, 0, 0]	n/a	catFR1	2	R1412M
753.479	1.6	798573	WORD	n/a	wordpools/wordpool_categorized_EN.txt	FLY	Insects	1	7	[0, 0, 0]	n/a	catFR1	2	R1412M
755.08	0.9	800171	WORD_OFF	n/a	n/a	FLY	Insects	1	7	[0, 0, 0]	n/a	catFR1	2	R1412M
755.98	1.6	801066	WORD	n/a	wordpools/wordpool_categorized_EN.txt	MOTH	Insects	2	7	[0, 0, 0]	n/a	catFR1	2	R1412M
757.597	0.766	802692	WORD_OFF	n/a	n/a	MOTH	Insects	2	7	[0, 0, 0]	n/a	catFR1	2	R1412M
758.363	1.6	803450	WORD	n/a	wordpools/wordpool_categorized_EN.txt	ELBOW	BodyParts	3	7	[0, 0, 0]	n/a	catFR1	2	R1412M
759.963	0.9	805048	WORD_OFF	n/a	n/a	ELBOW	BodyParts	3	7	[0, 0, 0]	n/a	catFR1	2	R1412M
760.863	1.6	805957	WORD	n/a	wordpools/wordpool_categorized_EN.txt	FOOT	BodyParts	4	7	[0, 0, 0]	n/a	catFR1	2	R1412M
762.463	0.983	807556	WORD_OFF	n/a	n/a	FOOT	BodyParts	4	7	[0, 0, 0]	n/a	catFR1	2	R1412M
763.446	1.6	808534	WORD	n/a	wordpools/wordpool_categorized_EN.txt	BASKETBALL	Toys	5	7	[0, 0, 0]	n/a	catFR1	2	R1412M
765.047	0.933	810132	WORD_OFF	n/a	n/a	BASKETBALL	Toys	5	7	[0, 0, 0]	n/a	catFR1	2	R1412M
765.98	1.6	811069	WORD	n/a	wordpools/wordpool_categorized_EN.txt	BLOCKS	Toys	6	7	[0, 0, 0]	n/a	catFR1	2	R1412M
767.58	0.833	812667	WORD_OFF	n/a	n/a	BLOCKS	Toys	6	7	[0, 0, 0]	n/a	catFR1	2	R1412M
768.413	1.6	813508	WORD	n/a	wordpools/wordpool_categorized_EN.txt	SPIDER	Insects	7	7	[0, 0, 0]	n/a	catFR1	2	R1412M
770.013	0.899	815106	WORD_OFF	n/a	n/a	SPIDER	Insects	7	7	[0, 0, 0]	n/a	catFR1	2	R1412M
770.912	1.6	816001	WORD	n/a	wordpools/wordpool_categorized_EN.txt	ROACH	Insects	8	7	[0, 0, 0]	n/a	catFR1	2	R1412M
772.514	0.882	817600	WORD_OFF	n/a	n/a	ROACH	Insects	8	7	[0, 0, 0]	n/a	catFR1	2	R1412M
773.396	1.6	818481	WORD	n/a	wordpools/wordpool_categorized_EN.txt	HEAD	BodyParts	9	7	[0, 0, 0]	n/a	catFR1	2	R1412M
774.997	0.916	820080	WORD_OFF	n/a	n/a	HEAD	BodyParts	9	7	[0, 0, 0]	n/a	catFR1	2	R1412M
775.913	1.6	821003	WORD	n/a	wordpools/wordpool_categorized_EN.txt	LEG	BodyParts	10	7	[0, 0, 0]	n/a	catFR1	2	R1412M
777.513	0.783	822601	WORD_OFF	n/a	n/a	LEG	BodyParts	10	7	[0, 0, 0]	n/a	catFR1	2	R1412M
778.296	1.6	823386	WORD	n/a	wordpools/wordpool_categorized_EN.txt	SLINKY	Toys	11	7	[0, 0, 0]	n/a	catFR1	2	R1412M
779.897	0.866	824985	WORD_OFF	n/a	n/a	SLINKY	Toys	11	7	[0, 0, 0]	n/a	catFR1	2	R1412M
780.763	1.6	825853	WORD	n/a	wordpools/wordpool_categorized_EN.txt	DOLLHOUSE	Toys	12	7	[0, 0, 0]	n/a	catFR1	2	R1412M
782.38	0.002	827465	WORD_OFF	n/a	n/a	DOLLHOUSE	Toys	12	7	[0, 0, 0]	n/a	catFR1	2	R1412M
782.382	0.0	827465	ENCODING_END	n/a	n/a	n/a	n/a	-999	7	[0, 0, 0]	n/a	catFR1	2	R1412M
782.381	0.001	827469	PROB	7.849	n/a	n/a	n/a	-999	7	[5, 1, 7]	13.0	catFR1	2	R1412M
782.382	0.0	827470	START	n/a	n/a	n/a	n/a	-999	7	[-999, -999, -999]	n/a	catFR1	2	R1412M
782.382	7.865	827478	DISTRACT_START	n/a	n/a	n/a	n/a	-999	7	[0, 0, 0]	n/a	catFR1	2	R1412M
790.247	6.133	835334	PROB	6.116	n/a	n/a	n/a	-999	7	[7, 2, 6]	15.0	catFR1	2	R1412M
796.38	8.266	841467	PROB	8.249	n/a	n/a	n/a	-999	7	[3, 8, 1]	13.0	catFR1	2	R1412M
804.646	0.0	849729	DISTRACT_END	n/a	n/a	n/a	n/a	-999	7	[0, 0, 0]	n/a	catFR1	2	R1412M
804.646	2.184	849733	STOP	n/a	n/a	n/a	n/a	-999	7	[-999, -999, -999]	n/a	catFR1	2	R1412M
806.83	1.205	851914	REC_START	n/a	n/a	n/a	n/a	-999	7	[0, 0, 0]	n/a	catFR1	2	R1412M
808.035	0.632	853121	REC_WORD	1.205	n/a	ELBOW	BodyParts	3	7	[0, 0, 0]	n/a	catFR1	2	R1412M
808.667	1.841	853753	REC_WORD	1.837	n/a	FOOT	BodyParts	4	7	[0, 0, 0]	n/a	catFR1	2	R1412M
810.508	0.984	855594	REC_WORD	3.678	n/a	LEG	BodyParts	10	7	[0, 0, 0]	n/a	catFR1	2	R1412M
811.492	0.914	856578	REC_WORD	4.662	n/a	BASKETBALL	Toys	5	7	[0, 0, 0]	n/a	catFR1	2	R1412M
812.406	4.001	857492	REC_WORD	5.576	n/a	HEAD	BodyParts	9	7	[0, 0, 0]	n/a	catFR1	2	R1412M
816.407	20.656	861493	REC_WORD	9.577	n/a	SLINKY	Toys	11	7	[0, 0, 0]	n/a	catFR1	2	R1412M
837.063	4.6	882149	REC_END	n/a	n/a	n/a	n/a	-999	7	[0, 0, 0]	n/a	catFR1	2	R1412M
841.663	10.0	886750	COUNTDOWN_START	n/a	n/a	n/a	n/a	-999	8	[0, 0, 0]	n/a	catFR1	2	R1412M
852.014	0.0	897097	COUNTDOWN_END	n/a	n/a	n/a	n/a	-999	8	[0, 0, 0]	n/a	catFR1	2	R1412M
852.014	2.165	897097	ENCODING_START	n/a	n/a	n/a	n/a	-999	8	[0, 0, 0]	n/a	catFR1	2	R1412M
854.179	1.6	899261	WORD	n/a	wordpools/wordpool_categorized_EN.txt	SUEDE	Fabric	1	8	[0, 0, 0]	n/a	catFR1	2	R1412M
855.78	0.95	900859	WORD_OFF	n/a	n/a	SUEDE	Fabric	1	8	[0, 0, 0]	n/a	catFR1	2	R1412M
856.73	1.6	901809	WORD	n/a	wordpools/wordpool_categorized_EN.txt	DENIM	Fabric	2	8	[0, 0, 0]	n/a	catFR1	2	R1412M
858.33	0.967	903421	WORD_OFF	n/a	n/a	DENIM	Fabric	2	8	[0, 0, 0]	n/a	catFR1	2	R1412M
859.297	1.6	904386	WORD	n/a	wordpools/wordpool_categorized_EN.txt	PIE	Desserts	3	8	[0, 0, 0]	n/a	catFR1	2	R1412M
860.913	0.984	905998	WORD_OFF	n/a	n/a	PIE	Desserts	3	8	[0, 0, 0]	n/a	catFR1	2	R1412M
861.897	1.6	906976	WORD	n/a	wordpools/wordpool_categorized_EN.txt	MOUSSE	Desserts	4	8	[0, 0, 0]	n/a	catFR1	2	R1412M
863.497	0.966	908574	WORD_OFF	n/a	n/a	MOUSSE	Desserts	4	8	[0, 0, 0]	n/a	catFR1	2	R1412M
864.463	1.6	909552	WORD	n/a	wordpools/wordpool_categorized_EN.txt	CABINET	Furniture	5	8	[0, 0, 0]	n/a	catFR1	2	R1412M
866.063	0.816	911151	WORD_OFF	n/a	n/a	CABINET	Furniture	5	8	[0, 0, 0]	n/a	catFR1	2	R1412M
866.879	1.6	911964	WORD	n/a	wordpools/wordpool_categorized_EN.txt	SHELF	Furniture	6	8	[0, 0, 0]	n/a	catFR1	2	R1412M
868.479	0.935	913562	WORD_OFF	n/a	n/a	SHELF	Furniture	6	8	[0, 0, 0]	n/a	catFR1	2	R1412M
869.414	1.6	914499	WORD	n/a	wordpools/wordpool_categorized_EN.txt	PASTRY	Desserts	7	8	[0, 0, 0]	n/a	catFR1	2	R1412M
871.013	0.834	916097	WORD_OFF	n/a	n/a	PASTRY	Desserts	7	8	[0, 0, 0]	n/a	catFR1	2	R1412M
871.847	1.6	916937	WORD	n/a	wordpools/wordpool_categorized_EN.txt	JELLO	Desserts	8	8	[0, 0, 0]	n/a	catFR1	2	R1412M
873.447	0.85	918536	WORD_OFF	n/a	n/a	JELLO	Desserts	8	8	[0, 0, 0]	n/a	catFR1	2	R1412M
874.297	1.6	919376	WORD	n/a	wordpools/wordpool_categorized_EN.txt	LINEN	Fabric	9	8	[0, 0, 0]	n/a	catFR1	2	R1412M
875.897	0.833	920974	WORD_OFF	n/a	n/a	LINEN	Fabric	9	8	[0, 0, 0]	n/a	catFR1	2	R1412M
876.73	1.6	921815	WORD	n/a	wordpools/wordpool_categorized_EN.txt	LEATHER	Fabric	10	8	[0, 0, 0]	n/a	catFR1	2	R1412M
878.33	0.867	923413	WORD_OFF	n/a	n/a	LEATHER	Fabric	10	8	[0, 0, 0]	n/a	catFR1	2	R1412M
879.197	1.6	924281	WORD	n/a	wordpools/wordpool_categorized_EN.txt	CHAIR	Furniture	11	8	[0, 0, 0]	n/a	catFR1	2	R1412M
880.797	0.95	925879	WORD_OFF	n/a	n/a	CHAIR	Furniture	11	8	[0, 0, 0]	n/a	catFR1	2	R1412M
881.747	1.6	926830	WORD	n/a	wordpools/wordpool_categorized_EN.txt	NIGHTSTAND	Furniture	12	8	[0, 0, 0]	n/a	catFR1	2	R1412M
883.363	0.001	928442	WORD_OFF	n/a	n/a	NIGHTSTAND	Furniture	12	8	[0, 0, 0]	n/a	catFR1	2	R1412M
883.364	0.0	928442	ENCODING_END	n/a	n/a	n/a	n/a	-999	8	[0, 0, 0]	n/a	catFR1	2	R1412M
883.364	0.001	928447	PROB	5.849	n/a	n/a	n/a	-999	8	[8, 1, 7]	16.0	catFR1	2	R1412M
883.365	0.0	928448	START	n/a	n/a	n/a	n/a	-999	8	[-999, -999, -999]	n/a	catFR1	2	R1412M
883.365	5.868	928456	DISTRACT_START	n/a	n/a	n/a	n/a	-999	8	[0, 0, 0]	n/a	catFR1	2	R1412M
889.233	6.199	934316	PROB	6.182	n/a	n/a	n/a	-999	8	[3, 3, 6]	12.0	catFR1	2	R1412M
895.432	3.998	940514	PROB	3.983	n/a	n/a	n/a	-999	8	[8, 1, 1]	10.0	catFR1	2	R1412M
899.43	3.949	944512	PROB	3.933	n/a	n/a	n/a	-999	8	[7, 3, 7]	17.0	catFR1	2	R1412M
903.379	0.0	948461	DISTRACT_END	n/a	n/a	n/a	n/a	-999	8	[0, 0, 0]	n/a	catFR1	2	R1412M
903.379	2.3	948461	STOP	n/a	n/a	n/a	n/a	-999	8	[-999, -999, -999]	n/a	catFR1	2	R1412M
905.679	0.591	950756	REC_START	n/a	n/a	n/a	n/a	-999	8	[0, 0, 0]	n/a	catFR1	2	R1412M
906.27	0.797	951352	REC_WORD	0.591	n/a	PASTRY	Desserts	7	8	[0, 0, 0]	n/a	catFR1	2	R1412M
907.067	28.828	952149	REC_WORD	1.388	n/a	SHELL	n/a	-999	8	[0, 0, 0]	n/a	catFR1	2	R1412M
935.895	7.835	980976	REC_END	n/a	n/a	n/a	n/a	-999	8	[0, 0, 0]	n/a	catFR1	2	R1412M
943.73	10.0	988816	COUNTDOWN_START	n/a	n/a	n/a	n/a	-999	9	[0, 0, 0]	n/a	catFR1	2	R1412M
954.08	0.001	999163	COUNTDOWN_END	n/a	n/a	n/a	n/a	-999	9	[0, 0, 0]	n/a	catFR1	2	R1412M
954.081	2.249	999163	ENCODING_START	n/a	n/a	n/a	n/a	-999	9	[0, 0, 0]	n/a	catFR1	2	R1412M
956.33	1.6	1001409	WORD	n/a	wordpools/wordpool_categorized_EN.txt	MOTORCYCLE	Vehicles	1	9	[0, 0, 0]	n/a	catFR1	2	R1412M
957.93	0.85	1003007	WORD_OFF	n/a	n/a	MOTORCYCLE	Vehicles	1	9	[0, 0, 0]	n/a	catFR1	2	R1412M
958.78	1.6	1003861	WORD	n/a	wordpools/wordpool_categorized_EN.txt	JEEP	Vehicles	2	9	[0, 0, 0]	n/a	catFR1	2	R1412M
960.397	0.983	1005473	WORD_OFF	n/a	n/a	JEEP	Vehicles	2	9	[0, 0, 0]	n/a	catFR1	2	R1412M
961.38	1.6	1006465	WORD	n/a	wordpools/wordpool_categorized_EN.txt	GNAT	Insects	3	9	[0, 0, 0]	n/a	catFR1	2	R1412M
962.997	0.8	1008077	WORD_OFF	n/a	n/a	GNAT	Insects	3	9	[0, 0, 0]	n/a	catFR1	2	R1412M
963.797	1.6	1008876	WORD	n/a	wordpools/wordpool_categorized_EN.txt	LADYBUG	Insects	4	9	[0, 0, 0]	n/a	catFR1	2	R1412M
965.397	0.916	1010475	WORD_OFF	n/a	n/a	LADYBUG	Insects	4	9	[0, 0, 0]	n/a	catFR1	2	R1412M
966.313	1.6	1011398	WORD	n/a	wordpools/wordpool_categorized_EN.txt	STAPLER	OfficeSupplies	5	9	[0, 0, 0]	n/a	catFR1	2	R1412M
967.93	0.933	1013010	WORD_OFF	n/a	n/a	STAPLER	OfficeSupplies	5	9	[0, 0, 0]	n/a	catFR1	2	R1412M
968.863	1.6	1013947	WORD	n/a	wordpools/wordpool_categorized_EN.txt	PAPER	OfficeSupplies	6	9	[0, 0, 0]	n/a	catFR1	2	R1412M
970.48	0.8	1015559	WORD_OFF	n/a	n/a	PAPER	OfficeSupplies	6	9	[0, 0, 0]	n/a	catFR1	2	R1412M
971.28	1.6	1016358	WORD	n/a	wordpools/wordpool_categorized_EN.txt	CAR	Vehicles	7	9	[0, 0, 0]	n/a	catFR1	2	R1412M
972.896	0.967	1017970	WORD_OFF	n/a	n/a	CAR	Vehicles	7	9	[0, 0, 0]	n/a	catFR1	2	R1412M
973.863	1.6	1018948	WORD	n/a	wordpools/wordpool_categorized_EN.txt	MOPED	Vehicles	8	9	[0, 0, 0]	n/a	catFR1	2	R1412M
975.479	0.801	1020560	WORD_OFF	n/a	n/a	MOPED	Vehicles	8	9	[0, 0, 0]	n/a	catFR1	2	R1412M
976.28	1.6	1021359	WORD	n/a	wordpools/wordpool_categorized_EN.txt	CRICKET	Insects	9	9	[0, 0, 0]	n/a	catFR1	2	R1412M
977.88	0.983	1022957	WORD_OFF	n/a	n/a	CRICKET	Insects	9	9	[0, 0, 0]	n/a	catFR1	2	R1412M
978.863	1.6	1023935	WORD	n/a	wordpools/wordpool_categorized_EN.txt	BUTTERFLY	Insects	10	9	[0, 0, 0]	n/a	catFR1	2	R1412M
980.463	0.984	1025547	WORD_OFF	n/a	n/a	BUTTERFLY	Insects	10	9	[0, 0, 0]	n/a	catFR1	2	R1412M
981.447	1.6	1026526	WORD	n/a	wordpools/wordpool_categorized_EN.txt	FOLDER	OfficeSupplies	11	9	[0, 0, 0]	n/a	catFR1	2	R1412M
983.063	0.883	1028138	WORD_OFF	n/a	n/a	FOLDER	OfficeSupplies	11	9	[0, 0, 0]	n/a	catFR1	2	R1412M
983.946	1.6	1029019	WORD	n/a	wordpools/wordpool_categorized_EN.txt	GLUE	OfficeSupplies	12	9	[0, 0, 0]	n/a	catFR1	2	R1412M
985.547	0.001	1030625	PROB	3.816	n/a	n/a	n/a	-999	9	[3, 3, 7]	13.0	catFR1	2	R1412M
985.548	0.0	1030626	START	n/a	n/a	n/a	n/a	-999	9	[-999, -999, -999]	n/a	catFR1	2	R1412M
985.546	0.002	1030631	WORD_OFF	n/a	n/a	GLUE	OfficeSupplies	12	9	[0, 0, 0]	n/a	catFR1	2	R1412M
985.548	0.0	1030631	ENCODING_END	n/a	n/a	n/a	n/a	-999	9	[0, 0, 0]	n/a	catFR1	2	R1412M
985.548	3.832	1030631	DISTRACT_START	n/a	n/a	n/a	n/a	-999	9	[0, 0, 0]	n/a	catFR1	2	R1412M
989.38	4.117	1034458	PROB	4.099	n/a	n/a	n/a	-999	9	[1, 2, 8]	11.0	catFR1	2	R1412M
993.497	4.366	1038574	PROB	4.349	n/a	n/a	n/a	-999	9	[1, 3, 3]	7.0	catFR1	2	R1412M
997.863	7.367	1042940	PROB	7.35	n/a	n/a	n/a	-999	9	[2, 8, 6]	16.0	catFR1	2	R1412M
1005.23	3.717	1050307	PROB	3.7	n/a	n/a	n/a	-999	9	[8, 2, 6]	16.0	catFR1	2	R1412M
1008.947	0.0	1054024	STOP	n/a	n/a	n/a	n/a	-999	9	[-999, -999, -999]	n/a	catFR1	2	R1412M
1008.947	2.032	1054026	DISTRACT_END	n/a	n/a	n/a	n/a	-999	9	[0, 0, 0]	n/a	catFR1	2	R1412M
1010.979	0.032	1056059	REC_START	n/a	n/a	n/a	n/a	-999	9	[0, 0, 0]	n/a	catFR1	2	R1412M
1011.011	0.849	1056088	REC_WORD	0.032	n/a	LADYBUG	Insects	4	9	[0, 0, 0]	n/a	catFR1	2	R1412M
1011.86	2.285	1056937	REC_WORD	0.881	n/a	BUTTERFLY	Insects	10	9	[0, 0, 0]	n/a	catFR1	2	R1412M
1014.145	1.98	1059222	REC_WORD	3.166	n/a	CRICKET	Insects	9	9	[0, 0, 0]	n/a	catFR1	2	R1412M
1016.125	0.665	1061201	REC_WORD_VV	5.146	n/a	<>	n/a	-999	9	[0, 0, 0]	n/a	catFR1	2	R1412M
1016.79	2.187	1061866	REC_WORD	5.811	n/a	GLUE	OfficeSupplies	12	9	[0, 0, 0]	n/a	catFR1	2	R1412M
1018.977	3.276	1064053	REC_WORD	7.998	n/a	FOLDER	OfficeSupplies	11	9	[0, 0, 0]	n/a	catFR1	2	R1412M
1022.253	18.931	1067329	REC_WORD	11.274	n/a	CAR	Vehicles	7	9	[0, 0, 0]	n/a	catFR1	2	R1412M
1041.184	2.996	1086266	REC_END	n/a	n/a	n/a	n/a	-999	9	[0, 0, 0]	n/a	catFR1	2	R1412M
1044.18	10.0	1089256	COUNTDOWN_START	n/a	n/a	n/a	n/a	-999	10	[0, 0, 0]	n/a	catFR1	2	R1412M
1054.53	0.0	1099603	COUNTDOWN_END	n/a	n/a	n/a	n/a	-999	10	[0, 0, 0]	n/a	catFR1	2	R1412M
1054.53	2.0	1099603	ENCODING_START	n/a	n/a	n/a	n/a	-999	10	[0, 0, 0]	n/a	catFR1	2	R1412M
1056.53	1.6	1101601	WORD	n/a	wordpools/wordpool_categorized_EN.txt	TABLE	Furniture	1	10	[0, 0, 0]	n/a	catFR1	2	R1412M
1058.13	0.8	1103199	WORD_OFF	n/a	n/a	TABLE	Furniture	1	10	[0, 0, 0]	n/a	catFR1	2	R1412M
1058.93	1.6	1103998	WORD	n/a	wordpools/wordpool_categorized_EN.txt	DRESSER	Furniture	2	10	[0, 0, 0]	n/a	catFR1	2	R1412M
1060.53	1.0	1105610	WORD_OFF	n/a	n/a	DRESSER	Furniture	2	10	[0, 0, 0]	n/a	catFR1	2	R1412M
1061.53	1.6	1106602	WORD	n/a	wordpools/wordpool_categorized_EN.txt	GUITAR	Instruments	3	10	[0, 0, 0]	n/a	catFR1	2	R1412M
1063.13	0.966	1108200	WORD_OFF	n/a	n/a	GUITAR	Instruments	3	10	[0, 0, 0]	n/a	catFR1	2	R1412M
1064.096	1.6	1109165	WORD	n/a	wordpools/wordpool_categorized_EN.txt	DRUM	Instruments	4	10	[0, 0, 0]	n/a	catFR1	2	R1412M
1065.712	0.918	1110791	WORD_OFF	n/a	n/a	DRUM	Instruments	4	10	[0, 0, 0]	n/a	catFR1	2	R1412M
1066.63	1.6	1111700	WORD	n/a	wordpools/wordpool_categorized_EN.txt	SPARROW	Birds	5	10	[0, 0, 0]	n/a	catFR1	2	R1412M
1068.23	0.983	1113298	WORD_OFF	n/a	n/a	SPARROW	Birds	5	10	[0, 0, 0]	n/a	catFR1	2	R1412M
1069.213	1.6	1114290	WORD	n/a	wordpools/wordpool_categorized_EN.txt	DOVE	Birds	6	10	[0, 0, 0]	n/a	catFR1	2	R1412M
1070.813	0.816	1115888	WORD_OFF	n/a	n/a	DOVE	Birds	6	10	[0, 0, 0]	n/a	catFR1	2	R1412M
1071.629	1.6	1116701	WORD	n/a	wordpools/wordpool_categorized_EN.txt	ORGAN	Instruments	7	10	[0, 0, 0]	n/a	catFR1	2	R1412M
1073.229	0.85	1118299	WORD_OFF	n/a	n/a	ORGAN	Instruments	7	10	[0, 0, 0]	n/a	catFR1	2	R1412M
1074.079	1.6	1119154	WORD	n/a	wordpools/wordpool_categorized_EN.txt	TROMBONE	Instruments	8	10	[0, 0, 0]	n/a	catFR1	2	R1412M
1075.679	0.934	1120752	WORD_OFF	n/a	n/a	TROMBONE	Instruments	8	10	[0, 0, 0]	n/a	catFR1	2	R1412M
1076.613	1.6	1121689	WORD	n/a	wordpools/wordpool_categorized_EN.txt	DESK	Furniture	9	10	[0, 0, 0]	n/a	catFR1	2	R1412M
1078.229	0.834	1123301	WORD_OFF	n/a	n/a	DESK	Furniture	9	10	[0, 0, 0]	n/a	catFR1	2	R1412M
1079.063	1.6	1124141	WORD	n/a	wordpools/wordpool_categorized_EN.txt	BOOKCASE	Furniture	10	10	[0, 0, 0]	n/a	catFR1	2	R1412M
1080.663	0.999	1125739	WORD_OFF	n/a	n/a	BOOKCASE	Furniture	10	10	[0, 0, 0]	n/a	catFR1	2	R1412M
1081.662	1.6	1126731	WORD	n/a	wordpools/wordpool_categorized_EN.txt	HAWK	Birds	11	10	[0, 0, 0]	n/a	catFR1	2	R1412M
1083.262	0.867	1128330	WORD_OFF	n/a	n/a	HAWK	Birds	11	10	[0, 0, 0]	n/a	catFR1	2	R1412M
1084.129	1.6	1129198	WORD	n/a	wordpools/wordpool_categorized_EN.txt	CROW	Birds	12	10	[0, 0, 0]	n/a	catFR1	2	R1412M
1085.73	0.001	1130803	PROB	5.718	n/a	n/a	n/a	-999	10	[4, 2, 4]	10.0	catFR1	2	R1412M
1085.731	0.0	1130804	START	n/a	n/a	n/a	n/a	-999	10	[-999, -999, -999]	n/a	catFR1	2	R1412M
1085.729	0.002	1130810	WORD_OFF	n/a	n/a	CROW	Birds	12	10	[0, 0, 0]	n/a	catFR1	2	R1412M
1085.731	0.0	1130810	ENCODING_END	n/a	n/a	n/a	n/a	-999	10	[0, 0, 0]	n/a	catFR1	2	R1412M
1085.731	5.734	1130810	DISTRACT_START	n/a	n/a	n/a	n/a	-999	10	[0, 0, 0]	n/a	catFR1	2	R1412M
1091.465	5.515	1136538	PROB	5.498	n/a	n/a	n/a	-999	10	[4, 7, 4]	15.0	catFR1	2	R1412M
1096.98	4.817	1142053	PROB	4.799	n/a	n/a	n/a	-999	10	[6, 4, 2]	12.0	catFR1	2	R1412M
1101.797	6.116	1146869	PROB	6.099	n/a	n/a	n/a	-999	10	[1, 6, 8]	15.0	catFR1	2	R1412M
1107.913	0.0	1152985	STOP	n/a	n/a	n/a	n/a	-999	10	[-999, -999, -999]	n/a	catFR1	2	R1412M
1107.913	2.234	1152992	DISTRACT_END	n/a	n/a	n/a	n/a	-999	10	[0, 0, 0]	n/a	catFR1	2	R1412M
1110.147	1.659	1155218	REC_START	n/a	n/a	n/a	n/a	-999	10	[0, 0, 0]	n/a	catFR1	2	R1412M
1111.806	0.913	1156878	REC_WORD	1.659	n/a	GUITAR	Instruments	3	10	[0, 0, 0]	n/a	catFR1	2	R1412M
1112.719	0.67	1157791	REC_WORD	2.572	n/a	DRUM	Instruments	4	10	[0, 0, 0]	n/a	catFR1	2	R1412M
1113.389	2.301	1158461	REC_WORD	3.242	n/a	TROMBONE	Instruments	8	10	[0, 0, 0]	n/a	catFR1	2	R1412M
1115.69	24.669	1160762	REC_WORD	5.543	n/a	HAWK	Birds	11	10	[0, 0, 0]	n/a	catFR1	2	R1412M
1140.359	3.67	1185425	REC_END	n/a	n/a	n/a	n/a	-999	10	[0, 0, 0]	n/a	catFR1	2	R1412M
1144.029	10.0	1189103	COUNTDOWN_START	n/a	n/a	n/a	n/a	-999	11	[0, 0, 0]	n/a	catFR1	2	R1412M
1154.38	0.0	1199450	COUNTDOWN_END	n/a	n/a	n/a	n/a	-999	11	[0, 0, 0]	n/a	catFR1	2	R1412M
1154.38	2.066	1199450	ENCODING_START	n/a	n/a	n/a	n/a	-999	11	[0, 0, 0]	n/a	catFR1	2	R1412M
1156.446	1.6	1201517	WORD	n/a	wordpools/wordpool_categorized_EN.txt	BLOUSE	Clothing	1	11	[0, 0, 0]	n/a	catFR1	2	R1412M
1158.046	0.95	1203115	WORD_OFF	n/a	n/a	BLOUSE	Clothing	1	11	[0, 0, 0]	n/a	catFR1	2	R1412M
1158.996	1.6	1204066	WORD	n/a	wordpools/wordpool_categorized_EN.txt	JEANS	Clothing	2	11	[0, 0, 0]	n/a	catFR1	2	R1412M
1160.596	0.767	1205664	WORD_OFF	n/a	n/a	JEANS	Clothing	2	11	[0, 0, 0]	n/a	catFR1	2	R1412M
1161.363	1.6	1206436	WORD	n/a	wordpools/wordpool_categorized_EN.txt	MOSQUITO	Insects	3	11	[0, 0, 0]	n/a	catFR1	2	R1412M
1162.963	0.783	1208034	WORD_OFF	n/a	n/a	MOSQUITO	Insects	3	11	[0, 0, 0]	n/a	catFR1	2	R1412M
1163.746	1.6	1208819	WORD	n/a	wordpools/wordpool_categorized_EN.txt	BEE	Insects	4	11	[0, 0, 0]	n/a	catFR1	2	R1412M
1165.346	0.816	1210418	WORD_OFF	n/a	n/a	BEE	Insects	4	11	[0, 0, 0]	n/a	catFR1	2	R1412M
1166.162	1.6	1211230	WORD	n/a	wordpools/wordpool_categorized_EN.txt	DUCK	Birds	5	11	[0, 0, 0]	n/a	catFR1	2	R1412M
1167.762	0.784	1212829	WORD_OFF	n/a	n/a	DUCK	Birds	5	11	[0, 0, 0]	n/a	catFR1	2	R1412M
1168.546	1.6	1213614	WORD	n/a	wordpools/wordpool_categorized_EN.txt	SEAGULL	Birds	6	11	[0, 0, 0]	n/a	catFR1	2	R1412M
1170.147	0.783	1215212	WORD_OFF	n/a	n/a	SEAGULL	Birds	6	11	[0, 0, 0]	n/a	catFR1	2	R1412M
1170.93	1.6	1215998	WORD	n/a	wordpools/wordpool_categorized_EN.txt	BEETLE	Insects	7	11	[0, 0, 0]	n/a	catFR1	2	R1412M
1172.53	0.984	1217596	WORD_OFF	n/a	n/a	BEETLE	Insects	7	11	[0, 0, 0]	n/a	catFR1	2	R1412M
1173.514	1.6	1218588	WORD	n/a	wordpools/wordpool_categorized_EN.txt	ANT	Insects	8	11	[0, 0, 0]	n/a	catFR1	2	R1412M
1175.114	0.983	1220186	WORD_OFF	n/a	n/a	ANT	Insects	8	11	[0, 0, 0]	n/a	catFR1	2	R1412M
1176.097	1.6	1221164	WORD	n/a	wordpools/wordpool_categorized_EN.txt	SHOES	Clothing	9	11	[0, 0, 0]	n/a	catFR1	2	R1412M
1177.713	0.916	1222776	WORD_OFF	n/a	n/a	SHOES	Clothing	9	11	[0, 0, 0]	n/a	catFR1	2	R1412M
1178.629	1.6	1223699	WORD	n/a	wordpools/wordpool_categorized_EN.txt	JACKET	Clothing	10	11	[0, 0, 0]	n/a	catFR1	2	R1412M
1180.229	0.884	1225298	WORD_OFF	n/a	n/a	JACKET	Clothing	10	11	[0, 0, 0]	n/a	catFR1	2	R1412M
1181.113	1.6	1226179	WORD	n/a	wordpools/wordpool_categorized_EN.txt	PIGEON	Birds	11	11	[0, 0, 0]	n/a	catFR1	2	R1412M
1182.713	0.9	1227778	WORD_OFF	n/a	n/a	PIGEON	Birds	11	11	[0, 0, 0]	n/a	catFR1	2	R1412M
1183.613	1.6	1228687	WORD	n/a	wordpools/wordpool_categorized_EN.txt	CARDINAL	Birds	12	11	[0, 0, 0]	n/a	catFR1	2	R1412M
1185.213	0.002	1230281	PROB	8.333	n/a	n/a	n/a	-999	11	[8, 6, 7]	21.0	catFR1	2	R1412M
1185.215	0.0	1230283	START	n/a	n/a	n/a	n/a	-999	11	[-999, -999, -999]	n/a	catFR1	2	R1412M
1185.213	0.002	1230285	WORD_OFF	n/a	n/a	CARDINAL	Birds	12	11	[0, 0, 0]	n/a	catFR1	2	R1412M
1185.215	0.0	1230285	ENCODING_END	n/a	n/a	n/a	n/a	-999	11	[0, 0, 0]	n/a	catFR1	2	R1412M
1185.215	8.349	1230285	DISTRACT_START	n/a	n/a	n/a	n/a	-999	11	[0, 0, 0]	n/a	catFR1	2	R1412M
1193.564	2.749	1238632	PROB	2.733	n/a	n/a	n/a	-999	11	[1, 8, 1]	10.0	catFR1	2	R1412M
1196.313	3.284	1241381	PROB	3.266	n/a	n/a	n/a	-999	11	[3, 1, 4]	9.0	catFR1	2	R1412M
1199.597	6.816	1244665	PROB	6.799	n/a	n/a	n/a	-999	11	[4, 4, 2]	10.0	catFR1	2	R1412M
1206.413	0.0	1251475	DISTRACT_END	n/a	n/a	n/a	n/a	-999	11	[0, 0, 0]	n/a	catFR1	2	R1412M
1206.413	2.116	1251480	STOP	n/a	n/a	n/a	n/a	-999	11	[-999, -999, -999]	n/a	catFR1	2	R1412M
1208.529	0.368	1253591	REC_START	n/a	n/a	n/a	n/a	-999	11	[0, 0, 0]	n/a	catFR1	2	R1412M
1208.897	0.608	1253964	REC_WORD	0.368	n/a	BEETLE	Insects	7	11	[0, 0, 0]	n/a	catFR1	2	R1412M
1209.505	1.51	1254572	REC_WORD	0.976	n/a	ANT	Insects	8	11	[0, 0, 0]	n/a	catFR1	2	R1412M
1211.015	8.034	1256082	REC_WORD	2.486	n/a	LADYBUG	Insects	-999	11	[0, 0, 0]	n/a	catFR1	2	R1412M
1219.049	2.011	1264116	REC_WORD	10.52	n/a	BUTTERFLY	Insects	-999	11	[0, 0, 0]	n/a	catFR1	2	R1412M
1221.06	17.66	1266127	REC_WORD	12.531	n/a	PIGEON	Birds	11	11	[0, 0, 0]	n/a	catFR1	2	R1412M
1238.72	11.543	1283784	REC_END	n/a	n/a	n/a	n/a	-999	11	[0, 0, 0]	n/a	catFR1	2	R1412M
1250.263	10.0	1295330	COUNTDOWN_START	n/a	n/a	n/a	n/a	-999	12	[0, 0, 0]	n/a	catFR1	2	R1412M
1260.614	0.0	1305677	COUNTDOWN_END	n/a	n/a	n/a	n/a	-999	12	[0, 0, 0]	n/a	catFR1	2	R1412M
1260.614	2.083	1305677	ENCODING_START	n/a	n/a	n/a	n/a	-999	12	[0, 0, 0]	n/a	catFR1	2	R1412M
1262.697	1.6	1307757	WORD	n/a	wordpools/wordpool_categorized_EN.txt	MARKER	OfficeSupplies	1	12	[0, 0, 0]	n/a	catFR1	2	R1412M
1264.297	0.949	1309356	WORD_OFF	n/a	n/a	MARKER	OfficeSupplies	1	12	[0, 0, 0]	n/a	catFR1	2	R1412M
1265.246	1.6	1310306	WORD	n/a	wordpools/wordpool_categorized_EN.txt	TAPE	OfficeSupplies	2	12	[0, 0, 0]	n/a	catFR1	2	R1412M
1266.847	0.766	1311918	WORD_OFF	n/a	n/a	TAPE	OfficeSupplies	2	12	[0, 0, 0]	n/a	catFR1	2	R1412M
1267.613	1.6	1312676	WORD	n/a	wordpools/wordpool_categorized_EN.txt	ROBIN	Birds	3	12	[0, 0, 0]	n/a	catFR1	2	R1412M
1269.213	0.866	1314274	WORD_OFF	n/a	n/a	ROBIN	Birds	3	12	[0, 0, 0]	n/a	catFR1	2	R1412M
1270.079	1.6	1315142	WORD	n/a	wordpools/wordpool_categorized_EN.txt	GOOSE	Birds	4	12	[0, 0, 0]	n/a	catFR1	2	R1412M
1271.679	0.984	1316741	WORD_OFF	n/a	n/a	GOOSE	Birds	4	12	[0, 0, 0]	n/a	catFR1	2	R1412M
1272.663	1.6	1317733	WORD	n/a	wordpools/wordpool_categorized_EN.txt	COAT	Clothing	5	12	[0, 0, 0]	n/a	catFR1	2	R1412M
1274.263	0.95	1319331	WORD_OFF	n/a	n/a	COAT	Clothing	5	12	[0, 0, 0]	n/a	catFR1	2	R1412M
1275.213	1.6	1320281	WORD	n/a	wordpools/wordpool_categorized_EN.txt	PANTS	Clothing	6	12	[0, 0, 0]	n/a	catFR1	2	R1412M
1276.83	0.966	1321893	WORD_OFF	n/a	n/a	PANTS	Clothing	6	12	[0, 0, 0]	n/a	catFR1	2	R1412M
1277.796	1.6	1322858	WORD	n/a	wordpools/wordpool_categorized_EN.txt	BLUEBIRD	Birds	7	12	[0, 0, 0]	n/a	catFR1	2	R1412M
1279.397	1.0	1324456	WORD_OFF	n/a	n/a	BLUEBIRD	Birds	7	12	[0, 0, 0]	n/a	catFR1	2	R1412M
1280.397	1.6	1325462	WORD	n/a	wordpools/wordpool_categorized_EN.txt	FINCH	Birds	8	12	[0, 0, 0]	n/a	catFR1	2	R1412M
1281.997	0.983	1327060	WORD_OFF	n/a	n/a	FINCH	Birds	8	12	[0, 0, 0]	n/a	catFR1	2	R1412M
1282.98	1.6	1328038	WORD	n/a	wordpools/wordpool_categorized_EN.txt	BINDER	OfficeSupplies	9	12	[0, 0, 0]	n/a	catFR1	2	R1412M
1284.597	0.933	1329664	WORD_OFF	n/a	n/a	BINDER	OfficeSupplies	9	12	[0, 0, 0]	n/a	catFR1	2	R1412M
1285.53	1.6	1330601	WORD	n/a	wordpools/wordpool_categorized_EN.txt	ERASER	OfficeSupplies	10	12	[0, 0, 0]	n/a	catFR1	2	R1412M
1287.13	0.95	1332199	WORD_OFF	n/a	n/a	ERASER	OfficeSupplies	10	12	[0, 0, 0]	n/a	catFR1	2	R1412M
1288.08	1.6	1333150	WORD	n/a	wordpools/wordpool_categorized_EN.txt	SOCKS	Clothing	11	12	[0, 0, 0]	n/a	catFR1	2	R1412M
1289.68	1.0	1334748	WORD_OFF	n/a	n/a	SOCKS	Clothing	11	12	[0, 0, 0]	n/a	catFR1	2	R1412M
1290.68	1.6	1335740	WORD	n/a	wordpools/wordpool_categorized_EN.txt	UNDERWEAR	Clothing	12	12	[0, 0, 0]	n/a	catFR1	2	R1412M
1292.28	0.001	1337338	WORD_OFF	n/a	n/a	UNDERWEAR	Clothing	12	12	[0, 0, 0]	n/a	catFR1	2	R1412M
1292.281	0.001	1337344	PROB	4.648	n/a	n/a	n/a	-999	12	[6, 6, 1]	13.0	catFR1	2	R1412M
1292.282	0.0	1337345	START	n/a	n/a	n/a	n/a	-999	12	[-999, -999, -999]	n/a	catFR1	2	R1412M
1292.282	0.0	1337352	ENCODING_END	n/a	n/a	n/a	n/a	-999	12	[0, 0, 0]	n/a	catFR1	2	R1412M
1292.282	4.665	1337352	DISTRACT_START	n/a	n/a	n/a	n/a	-999	12	[0, 0, 0]	n/a	catFR1	2	R1412M
1296.947	6.35	1342010	PROB	6.333	n/a	n/a	n/a	-999	12	[7, 5, 3]	15.0	catFR1	2	R1412M
1303.297	9.533	1348360	PROB	9.516	n/a	n/a	n/a	-999	12	[7, 6, 5]	18.0	catFR1	2	R1412M
1312.83	0.0	1357892	STOP	n/a	n/a	n/a	n/a	-999	12	[-999, -999, -999]	n/a	catFR1	2	R1412M
1312.83	2.1	1357895	DISTRACT_END	n/a	n/a	n/a	n/a	-999	12	[0, 0, 0]	n/a	catFR1	2	R1412M
1314.93	3.487	1359997	REC_START	n/a	n/a	n/a	n/a	-999	12	[0, 0, 0]	n/a	catFR1	2	R1412M
1318.417	1.827	1363479	REC_WORD	3.487	n/a	JEANS	Clothing	-999	12	[0, 0, 0]	n/a	catFR1	2	R1412M
1320.244	7.316	1365306	REC_WORD	5.314	n/a	JACKET	Clothing	-999	12	[0, 0, 0]	n/a	catFR1	2	R1412M
1327.56	17.58	1372621	REC_WORD	12.63	n/a	BLUEBIRD	Birds	7	12	[0, 0, 0]	n/a	catFR1	2	R1412M
1345.14	0.0	1390204	REC_END	n/a	n/a	n/a	n/a	-999	12	[0, 0, 0]	n/a	catFR1	2	R1412M
