onset	duration	sample	trial_type	response_time	stim_file	item_name	category	serialpos	list	test	answer	experiment	session	subject
0.0	0.0	13773	INSTRUCT_START	n/a	n/a	n/a	n/a	-999	-999	[0, 0, 0]	n/a	catFR1	0	R1222M
0.0	10.941	13773	INSTRUCT_END	n/a	n/a	n/a	n/a	-999	-999	[0, 0, 0]	n/a	catFR1	0	R1222M
10.941	0.0	24714	SESS_START	n/a	n/a	n/a	n/a	-999	-999	[0, 0, 0]	n/a	catFR1	0	R1222M
10.941	337.506	24714	MIC_TEST	n/a	n/a	n/a	n/a	-999	-999	[0, 0, 0]	n/a	catFR1	0	R1222M
348.447	1.788	362200	PRACTICE_TRIAL	n/a	n/a	n/a	n/a	-999	-1	[0, 0, 0]	n/a	catFR1	0	R1222M
350.235	10.0	363988	COUNTDOWN_START	n/a	n/a	n/a	n/a	-999	-1	[0, 0, 0]	n/a	catFR1	0	R1222M
360.663	0.007	374415	COUNTDOWN_END	n/a	n/a	n/a	n/a	-999	-1	[0, 0, 0]	n/a	catFR1	0	R1222M
360.67	1.6	374422	PRACTICE_ORIENT	n/a	n/a	n/a	n/a	-999	-1	[0, 0, 0]	n/a	catFR1	0	R1222M
362.287	1.917	376039	PRACTICE_ORIENT_OFF	n/a	n/a	n/a	n/a	-999	-1	[0, 0, 0]	n/a	catFR1	0	R1222M
364.204	1.6	377956	PRACTICE_WORD	n/a	n/a	RING	n/a	-1	-1	[0, 0, 0]	n/a	catFR1	0	R1222M
365.821	0.851	379573	PRACTICE_WORD_OFF	n/a	n/a	RING	n/a	-999	-1	[0, 0, 0]	n/a	catFR1	0	R1222M
366.672	1.6	380424	PRACTICE_WORD	n/a	n/a	CAMEL	n/a	-1	-1	[0, 0, 0]	n/a	catFR1	0	R1222M
368.289	0.833	382041	PRACTICE_WORD_OFF	n/a	n/a	CAMEL	n/a	-999	-1	[0, 0, 0]	n/a	catFR1	0	R1222M
369.122	1.6	382873	PRACTICE_WORD	n/a	n/a	FLOOD	n/a	-1	-1	[0, 0, 0]	n/a	catFR1	0	R1222M
370.739	0.851	384490	PRACTICE_WORD_OFF	n/a	n/a	FLOOD	n/a	-999	-1	[0, 0, 0]	n/a	catFR1	0	R1222M
371.59	1.6	385341	PRACTICE_WORD	n/a	n/a	TONGUE	n/a	-1	-1	[0, 0, 0]	n/a	catFR1	0	R1222M
373.206	0.967	386957	PRACTICE_WORD_OFF	n/a	n/a	TONGUE	n/a	-999	-1	[0, 0, 0]	n/a	catFR1	0	R1222M
374.173	1.6	387924	PRACTICE_WORD	n/a	n/a	ATTIC	n/a	-1	-1	[0, 0, 0]	n/a	catFR1	0	R1222M
375.79	0.884	389541	PRACTICE_WORD_OFF	n/a	n/a	ATTIC	n/a	-999	-1	[0, 0, 0]	n/a	catFR1	0	R1222M
376.674	1.6	390425	PRACTICE_WORD	n/a	n/a	CHEST	n/a	-1	-1	[0, 0, 0]	n/a	catFR1	0	R1222M
378.291	0.933	392042	PRACTICE_WORD_OFF	n/a	n/a	CHEST	n/a	-999	-1	[0, 0, 0]	n/a	catFR1	0	R1222M
379.224	1.6	392975	PRACTICE_WORD	n/a	n/a	RHINO	n/a	-1	-1	[0, 0, 0]	n/a	catFR1	0	R1222M
380.841	0.9	394592	PRACTICE_WORD_OFF	n/a	n/a	RHINO	n/a	-999	-1	[0, 0, 0]	n/a	catFR1	0	R1222M
381.741	1.6	395492	PRACTICE_WORD	n/a	n/a	WAGON	n/a	-1	-1	[0, 0, 0]	n/a	catFR1	0	R1222M
383.358	0.867	397109	PRACTICE_WORD_OFF	n/a	n/a	WAGON	n/a	-999	-1	[0, 0, 0]	n/a	catFR1	0	R1222M
384.225	1.6	397976	PRACTICE_WORD	n/a	n/a	IRON	n/a	-1	-1	[0, 0, 0]	n/a	catFR1	0	R1222M
385.842	0.867	399593	PRACTICE_WORD_OFF	n/a	n/a	IRON	n/a	-999	-1	[0, 0, 0]	n/a	catFR1	0	R1222M
386.709	1.6	400459	PRACTICE_WORD	n/a	n/a	WATCH	n/a	-1	-1	[0, 0, 0]	n/a	catFR1	0	R1222M
388.325	0.968	402075	PRACTICE_WORD_OFF	n/a	n/a	WATCH	n/a	-999	-1	[0, 0, 0]	n/a	catFR1	0	R1222M
389.293	1.6	403043	PRACTICE_WORD	n/a	n/a	BEAM	n/a	-1	-1	[0, 0, 0]	n/a	catFR1	0	R1222M
390.91	0.933	404660	PRACTICE_WORD_OFF	n/a	n/a	BEAM	n/a	-999	-1	[0, 0, 0]	n/a	catFR1	0	R1222M
391.843	1.6	405593	PRACTICE_WORD	n/a	n/a	COTTON	n/a	-1	-1	[0, 0, 0]	n/a	catFR1	0	R1222M
393.46	0.0	407210	PRACTICE_WORD_OFF	n/a	n/a	COTTON	n/a	-999	-1	[0, 0, 0]	n/a	catFR1	0	R1222M
393.46	0.001	407210	ENCODING_END	n/a	n/a	n/a	n/a	-999	-1	[0, 0, 0]	n/a	catFR1	0	R1222M
393.461	0.0	407211	DISTRACT_START	n/a	n/a	n/a	n/a	-999	-1	[0, 0, 0]	n/a	catFR1	0	R1222M
393.461	0.016	407211	START	n/a	n/a	n/a	n/a	-999	-1	[-999, -999, -999]	n/a	catFR1	0	R1222M
393.477	12.719	407227	PROB	12.694	n/a	n/a	n/a	-999	-1	[5, 4, 8]	17.0	catFR1	0	R1222M
406.196	11.408	419945	PROB	11.408	n/a	n/a	n/a	-999	-1	[5, 6, 8]	19.0	catFR1	0	R1222M
417.604	0.012	431353	STOP	n/a	n/a	n/a	n/a	-999	-1	[-999, -999, -999]	n/a	catFR1	0	R1222M
417.616	0.699	431365	DISTRACT_END	n/a	n/a	n/a	n/a	-999	-1	[0, 0, 0]	n/a	catFR1	0	R1222M
418.315	0.521	432064	RETRIEVAL_ORIENT	n/a	n/a	n/a	n/a	-999	-1	[0, 0, 0]	n/a	catFR1	0	R1222M
418.836	30.006	432585	PRACTICE_REC_START	n/a	n/a	n/a	n/a	-999	-1	[0, 0, 0]	n/a	catFR1	0	R1222M
448.842	27.051	462589	PRACTICE_REC_END	n/a	n/a	n/a	n/a	-999	-1	[0, 0, 0]	n/a	catFR1	0	R1222M
475.893	0.5	489638	TRIAL	n/a	n/a	n/a	n/a	-999	1	[0, 0, 0]	n/a	catFR1	0	R1222M
476.393	10.0	490138	COUNTDOWN_START	n/a	n/a	n/a	n/a	-999	1	[0, 0, 0]	n/a	catFR1	0	R1222M
486.821	0.007	500566	COUNTDOWN_END	n/a	n/a	n/a	n/a	-999	1	[0, 0, 0]	n/a	catFR1	0	R1222M
486.828	1.6	500573	ORIENT	n/a	n/a	n/a	n/a	-999	1	[0, 0, 0]	n/a	catFR1	0	R1222M
488.445	2.101	502189	ORIENT_OFF	n/a	n/a	n/a	n/a	-999	1	[0, 0, 0]	n/a	catFR1	0	R1222M
490.546	1.6	504290	WORD	n/a	wordpools/wordpool_categorized_EN.txt	ROOM	Building	1	1	[0, 0, 0]	n/a	catFR1	0	R1222M
492.163	0.883	505907	WORD_OFF	n/a	n/a	ROOM	n/a	1	1	[0, 0, 0]	n/a	catFR1	0	R1222M
493.046	1.6	506790	WORD	n/a	wordpools/wordpool_categorized_EN.txt	FOUNDATION	Building	2	1	[0, 0, 0]	n/a	catFR1	0	R1222M
494.663	0.8	508407	WORD_OFF	n/a	n/a	FOUNDATION	n/a	2	1	[0, 0, 0]	n/a	catFR1	0	R1222M
495.463	1.6	509207	WORD	n/a	wordpools/wordpool_categorized_EN.txt	OYSTER	OceanAnimals	3	1	[0, 0, 0]	n/a	catFR1	0	R1222M
497.08	0.834	510824	WORD_OFF	n/a	n/a	OYSTER	n/a	3	1	[0, 0, 0]	n/a	catFR1	0	R1222M
497.914	1.6	511658	WORD	n/a	wordpools/wordpool_categorized_EN.txt	SQUID	OceanAnimals	4	1	[0, 0, 0]	n/a	catFR1	0	R1222M
499.531	0.966	513275	WORD_OFF	n/a	n/a	SQUID	n/a	4	1	[0, 0, 0]	n/a	catFR1	0	R1222M
500.497	1.6	514241	WORD	n/a	wordpools/wordpool_categorized_EN.txt	SPEAKER	Electronics	5	1	[0, 0, 0]	n/a	catFR1	0	R1222M
502.115	0.816	515859	WORD_OFF	n/a	n/a	SPEAKER	n/a	5	1	[0, 0, 0]	n/a	catFR1	0	R1222M
502.931	1.6	516675	WORD	n/a	wordpools/wordpool_categorized_EN.txt	PHONE	Electronics	6	1	[0, 0, 0]	n/a	catFR1	0	R1222M
504.548	0.851	518292	WORD_OFF	n/a	n/a	PHONE	n/a	6	1	[0, 0, 0]	n/a	catFR1	0	R1222M
505.399	1.6	519142	WORD	n/a	wordpools/wordpool_categorized_EN.txt	WINDOW	Building	7	1	[0, 0, 0]	n/a	catFR1	0	R1222M
507.015	0.951	520758	WORD_OFF	n/a	n/a	WINDOW	n/a	7	1	[0, 0, 0]	n/a	catFR1	0	R1222M
507.966	1.6	521709	WORD	n/a	wordpools/wordpool_categorized_EN.txt	FLOOR	Building	8	1	[0, 0, 0]	n/a	catFR1	0	R1222M
509.584	0.848	523327	WORD_OFF	n/a	n/a	FLOOR	n/a	8	1	[0, 0, 0]	n/a	catFR1	0	R1222M
510.432	1.6	524175	WORD	n/a	wordpools/wordpool_categorized_EN.txt	JELLYFISH	OceanAnimals	9	1	[0, 0, 0]	n/a	catFR1	0	R1222M
512.033	0.867	525776	WORD_OFF	n/a	n/a	JELLYFISH	n/a	9	1	[0, 0, 0]	n/a	catFR1	0	R1222M
512.9	1.6	526643	WORD	n/a	wordpools/wordpool_categorized_EN.txt	CRAB	OceanAnimals	10	1	[0, 0, 0]	n/a	catFR1	0	R1222M
514.517	0.767	528260	WORD_OFF	n/a	n/a	CRAB	n/a	10	1	[0, 0, 0]	n/a	catFR1	0	R1222M
515.284	1.6	529027	WORD	n/a	wordpools/wordpool_categorized_EN.txt	MICROWAVE	Electronics	11	1	[0, 0, 0]	n/a	catFR1	0	R1222M
516.901	0.967	530644	WORD_OFF	n/a	n/a	MICROWAVE	n/a	11	1	[0, 0, 0]	n/a	catFR1	0	R1222M
517.868	1.6	531611	WORD	n/a	wordpools/wordpool_categorized_EN.txt	SCANNER	Electronics	12	1	[0, 0, 0]	n/a	catFR1	0	R1222M
519.485	0.0	533228	ENCODING_END	n/a	n/a	n/a	n/a	-999	1	[0, 0, 0]	n/a	catFR1	0	R1222M
519.485	0.134	533228	WORD_OFF	n/a	n/a	SCANNER	n/a	12	1	[0, 0, 0]	n/a	catFR1	0	R1222M
519.619	0.0	533362	DISTRACT_START	n/a	n/a	n/a	n/a	-999	1	[0, 0, 0]	n/a	catFR1	0	R1222M
519.619	0.017	533362	START	n/a	n/a	n/a	n/a	-999	1	[-999, -999, -999]	n/a	catFR1	0	R1222M
519.636	6.516	533379	PROB	6.493	n/a	n/a	n/a	-999	1	[6, 4, 1]	11.0	catFR1	0	R1222M
526.152	6.135	539894	PROB	6.106	n/a	n/a	n/a	-999	1	[4, 1, 9]	14.0	catFR1	0	R1222M
532.287	11.18	546029	PROB	11.18	n/a	n/a	n/a	-999	1	[4, 4, 6]	14.0	catFR1	0	R1222M
543.467	0.006	557208	STOP	n/a	n/a	n/a	n/a	-999	1	[-999, -999, -999]	n/a	catFR1	0	R1222M
543.473	0.633	557214	DISTRACT_END	n/a	n/a	n/a	n/a	-999	1	[0, 0, 0]	n/a	catFR1	0	R1222M
544.106	0.518	557847	RETRIEVAL_ORIENT	n/a	n/a	n/a	n/a	-999	1	[0, 0, 0]	n/a	catFR1	0	R1222M
544.624	2.699	558365	REC_START	n/a	n/a	n/a	n/a	-999	1	[0, 0, 0]	n/a	catFR1	0	R1222M
547.323	4.962	561064	REC_WORD	2.699	n/a	ROOM	Building	1	1	[0, 0, 0]	n/a	catFR1	0	R1222M
552.285	3.863	566026	REC_WORD	7.661	n/a	SQUID	OceanAnimals	4	1	[0, 0, 0]	n/a	catFR1	0	R1222M
556.148	5.363	569888	REC_WORD	11.524	n/a	CRAB	OceanAnimals	10	1	[0, 0, 0]	n/a	catFR1	0	R1222M
561.511	8.763	575251	REC_WORD	16.887	n/a	SCANNER	Electronics	12	1	[0, 0, 0]	n/a	catFR1	0	R1222M
570.274	4.361	584014	REC_WORD	25.65	n/a	MICROWAVE	Electronics	11	1	[0, 0, 0]	n/a	catFR1	0	R1222M
574.635	8.378	588374	REC_END	n/a	n/a	n/a	n/a	-999	1	[0, 0, 0]	n/a	catFR1	0	R1222M
583.013	0.5	596752	TRIAL	n/a	n/a	n/a	n/a	-999	2	[0, 0, 0]	n/a	catFR1	0	R1222M
583.513	10.0	597252	COUNTDOWN_START	n/a	n/a	n/a	n/a	-999	2	[0, 0, 0]	n/a	catFR1	0	R1222M
593.941	0.008	607679	COUNTDOWN_END	n/a	n/a	n/a	n/a	-999	2	[0, 0, 0]	n/a	catFR1	0	R1222M
593.949	1.6	607687	ORIENT	n/a	n/a	n/a	n/a	-999	2	[0, 0, 0]	n/a	catFR1	0	R1222M
595.566	2.167	609304	ORIENT_OFF	n/a	n/a	n/a	n/a	-999	2	[0, 0, 0]	n/a	catFR1	0	R1222M
597.733	1.6	611471	WORD	n/a	wordpools/wordpool_categorized_EN.txt	MARKER	OfficeSupplies	1	2	[0, 0, 0]	n/a	catFR1	0	R1222M
599.35	0.8	613088	WORD_OFF	n/a	n/a	MARKER	n/a	1	2	[0, 0, 0]	n/a	catFR1	0	R1222M
600.15	1.6	613888	WORD	n/a	wordpools/wordpool_categorized_EN.txt	BINDER	OfficeSupplies	2	2	[0, 0, 0]	n/a	catFR1	0	R1222M
601.767	0.767	615505	WORD_OFF	n/a	n/a	BINDER	n/a	2	2	[0, 0, 0]	n/a	catFR1	0	R1222M
602.534	1.6	616272	WORD	n/a	wordpools/wordpool_categorized_EN.txt	THUNDERSTORM	Weather	3	2	[0, 0, 0]	n/a	catFR1	0	R1222M
604.151	0.883	617889	WORD_OFF	n/a	n/a	THUNDERSTORM	n/a	3	2	[0, 0, 0]	n/a	catFR1	0	R1222M
605.034	1.6	618772	WORD	n/a	wordpools/wordpool_categorized_EN.txt	HURRICANE	Weather	4	2	[0, 0, 0]	n/a	catFR1	0	R1222M
606.636	0.882	620374	WORD_OFF	n/a	n/a	HURRICANE	n/a	4	2	[0, 0, 0]	n/a	catFR1	0	R1222M
607.518	1.6	621255	WORD	n/a	wordpools/wordpool_categorized_EN.txt	CAULIFLOWER	Vegetables	5	2	[0, 0, 0]	n/a	catFR1	0	R1222M
609.135	0.867	622872	WORD_OFF	n/a	n/a	CAULIFLOWER	n/a	5	2	[0, 0, 0]	n/a	catFR1	0	R1222M
610.002	1.6	623739	WORD	n/a	wordpools/wordpool_categorized_EN.txt	BROCCOLI	Vegetables	6	2	[0, 0, 0]	n/a	catFR1	0	R1222M
611.62	0.899	625357	WORD_OFF	n/a	n/a	BROCCOLI	n/a	6	2	[0, 0, 0]	n/a	catFR1	0	R1222M
612.519	1.6	626256	WORD	n/a	wordpools/wordpool_categorized_EN.txt	PENCIL	OfficeSupplies	7	2	[0, 0, 0]	n/a	catFR1	0	R1222M
614.136	0.8	627873	WORD_OFF	n/a	n/a	PENCIL	n/a	7	2	[0, 0, 0]	n/a	catFR1	0	R1222M
614.936	1.6	628673	WORD	n/a	wordpools/wordpool_categorized_EN.txt	TAPE	OfficeSupplies	8	2	[0, 0, 0]	n/a	catFR1	0	R1222M
616.553	0.85	630290	WORD_OFF	n/a	n/a	TAPE	n/a	8	2	[0, 0, 0]	n/a	catFR1	0	R1222M
617.403	1.6	631140	WORD	n/a	wordpools/wordpool_categorized_EN.txt	DRIZZLE	Weather	9	2	[0, 0, 0]	n/a	catFR1	0	R1222M
619.021	0.85	632758	WORD_OFF	n/a	n/a	DRIZZLE	n/a	9	2	[0, 0, 0]	n/a	catFR1	0	R1222M
619.871	1.6	633608	WORD	n/a	wordpools/wordpool_categorized_EN.txt	CLOUD	Weather	10	2	[0, 0, 0]	n/a	catFR1	0	R1222M
621.488	0.8	635225	WORD_OFF	n/a	n/a	CLOUD	n/a	10	2	[0, 0, 0]	n/a	catFR1	0	R1222M
622.288	1.6	636025	WORD	n/a	wordpools/wordpool_categorized_EN.txt	CUCUMBER	Vegetables	11	2	[0, 0, 0]	n/a	catFR1	0	R1222M
623.905	0.933	637642	WORD_OFF	n/a	n/a	CUCUMBER	n/a	11	2	[0, 0, 0]	n/a	catFR1	0	R1222M
624.838	1.6	638574	WORD	n/a	wordpools/wordpool_categorized_EN.txt	SPINACH	Vegetables	12	2	[0, 0, 0]	n/a	catFR1	0	R1222M
626.455	0.0	640191	WORD_OFF	n/a	n/a	SPINACH	n/a	12	2	[0, 0, 0]	n/a	catFR1	0	R1222M
626.455	0.103	640191	ENCODING_END	n/a	n/a	n/a	n/a	-999	2	[0, 0, 0]	n/a	catFR1	0	R1222M
626.558	0.0	640294	DISTRACT_START	n/a	n/a	n/a	n/a	-999	2	[0, 0, 0]	n/a	catFR1	0	R1222M
626.558	0.015	640294	START	n/a	n/a	n/a	n/a	-999	2	[-999, -999, -999]	n/a	catFR1	0	R1222M
626.573	8.234	640309	PROB	8.197	n/a	n/a	n/a	-999	2	[2, 2, 3]	7.0	catFR1	0	R1222M
634.807	4.417	648543	PROB	4.388	n/a	n/a	n/a	-999	2	[2, 1, 6]	9.0	catFR1	0	R1222M
639.224	14.986	652960	PROB	14.986	n/a	n/a	n/a	-999	2	[3, 3, 6]	12.0	catFR1	0	R1222M
654.21	0.018	667945	STOP	n/a	n/a	n/a	n/a	-999	2	[-999, -999, -999]	n/a	catFR1	0	R1222M
654.228	0.566	667963	DISTRACT_END	n/a	n/a	n/a	n/a	-999	2	[0, 0, 0]	n/a	catFR1	0	R1222M
654.794	0.518	668529	RETRIEVAL_ORIENT	n/a	n/a	n/a	n/a	-999	2	[0, 0, 0]	n/a	catFR1	0	R1222M
655.312	3.526	669047	REC_START	n/a	n/a	n/a	n/a	-999	2	[0, 0, 0]	n/a	catFR1	0	R1222M
658.838	2.872	672572	REC_WORD	3.526	n/a	THUNDERSTORM	Weather	3	2	[0, 0, 0]	n/a	catFR1	0	R1222M
661.71	2.829	675444	REC_WORD	6.398	n/a	MARKER	OfficeSupplies	1	2	[0, 0, 0]	n/a	catFR1	0	R1222M
664.539	4.458	678273	REC_WORD	9.227	n/a	BINDER	OfficeSupplies	2	2	[0, 0, 0]	n/a	catFR1	0	R1222M
668.997	2.538	682731	REC_WORD	13.685	n/a	SPINACH	Vegetables	12	2	[0, 0, 0]	n/a	catFR1	0	R1222M
671.535	13.785	685269	REC_WORD	16.223	n/a	CUCUMBER	Vegetables	11	2	[0, 0, 0]	n/a	catFR1	0	R1222M
685.32	9.982	699053	REC_END	n/a	n/a	n/a	n/a	-999	2	[0, 0, 0]	n/a	catFR1	0	R1222M
695.302	0.5	709034	TRIAL	n/a	n/a	n/a	n/a	-999	3	[0, 0, 0]	n/a	catFR1	0	R1222M
695.802	10.0	709534	COUNTDOWN_START	n/a	n/a	n/a	n/a	-999	3	[0, 0, 0]	n/a	catFR1	0	R1222M
706.23	0.007	719962	COUNTDOWN_END	n/a	n/a	n/a	n/a	-999	3	[0, 0, 0]	n/a	catFR1	0	R1222M
706.237	1.6	719969	ORIENT	n/a	n/a	n/a	n/a	-999	3	[0, 0, 0]	n/a	catFR1	0	R1222M
707.854	2.234	721586	ORIENT_OFF	n/a	n/a	n/a	n/a	-999	3	[0, 0, 0]	n/a	catFR1	0	R1222M
710.088	1.6	723819	WORD	n/a	wordpools/wordpool_categorized_EN.txt	FISH	OceanAnimals	1	3	[0, 0, 0]	n/a	catFR1	0	R1222M
711.705	0.85	725436	WORD_OFF	n/a	n/a	FISH	n/a	1	3	[0, 0, 0]	n/a	catFR1	0	R1222M
712.555	1.6	726286	WORD	n/a	wordpools/wordpool_categorized_EN.txt	DOLPHIN	OceanAnimals	2	3	[0, 0, 0]	n/a	catFR1	0	R1222M
714.172	0.867	727903	WORD_OFF	n/a	n/a	DOLPHIN	n/a	2	3	[0, 0, 0]	n/a	catFR1	0	R1222M
715.039	1.6	728770	WORD	n/a	wordpools/wordpool_categorized_EN.txt	PEN	OfficeSupplies	3	3	[0, 0, 0]	n/a	catFR1	0	R1222M
716.656	0.85	730387	WORD_OFF	n/a	n/a	PEN	n/a	3	3	[0, 0, 0]	n/a	catFR1	0	R1222M
717.506	1.6	731237	WORD	n/a	wordpools/wordpool_categorized_EN.txt	NOTEBOOK	OfficeSupplies	4	3	[0, 0, 0]	n/a	catFR1	0	R1222M
719.123	1.0	732854	WORD_OFF	n/a	n/a	NOTEBOOK	n/a	4	3	[0, 0, 0]	n/a	catFR1	0	R1222M
720.123	1.6	733854	WORD	n/a	wordpools/wordpool_categorized_EN.txt	COAT	Clothing	5	3	[0, 0, 0]	n/a	catFR1	0	R1222M
721.74	0.851	735471	WORD_OFF	n/a	n/a	COAT	n/a	5	3	[0, 0, 0]	n/a	catFR1	0	R1222M
722.591	1.6	736322	WORD	n/a	wordpools/wordpool_categorized_EN.txt	UNDERWEAR	Clothing	6	3	[0, 0, 0]	n/a	catFR1	0	R1222M
724.207	0.967	737938	WORD_OFF	n/a	n/a	UNDERWEAR	n/a	6	3	[0, 0, 0]	n/a	catFR1	0	R1222M
725.174	1.6	738905	WORD	n/a	wordpools/wordpool_categorized_EN.txt	OCTOPUS	OceanAnimals	7	3	[0, 0, 0]	n/a	catFR1	0	R1222M
726.791	0.95	740521	WORD_OFF	n/a	n/a	OCTOPUS	n/a	7	3	[0, 0, 0]	n/a	catFR1	0	R1222M
727.741	1.6	741471	WORD	n/a	wordpools/wordpool_categorized_EN.txt	PLANKTON	OceanAnimals	8	3	[0, 0, 0]	n/a	catFR1	0	R1222M
729.358	0.934	743088	WORD_OFF	n/a	n/a	PLANKTON	n/a	8	3	[0, 0, 0]	n/a	catFR1	0	R1222M
730.292	1.6	744022	WORD	n/a	wordpools/wordpool_categorized_EN.txt	ERASER	OfficeSupplies	9	3	[0, 0, 0]	n/a	catFR1	0	R1222M
731.909	0.984	745639	WORD_OFF	n/a	n/a	ERASER	n/a	9	3	[0, 0, 0]	n/a	catFR1	0	R1222M
732.893	1.6	746623	WORD	n/a	wordpools/wordpool_categorized_EN.txt	FOLDER	OfficeSupplies	10	3	[0, 0, 0]	n/a	catFR1	0	R1222M
734.51	0.799	748240	WORD_OFF	n/a	n/a	FOLDER	n/a	10	3	[0, 0, 0]	n/a	catFR1	0	R1222M
735.309	1.6	749039	WORD	n/a	wordpools/wordpool_categorized_EN.txt	SHORTS	Clothing	11	3	[0, 0, 0]	n/a	catFR1	0	R1222M
736.91	0.95	750640	WORD_OFF	n/a	n/a	SHORTS	n/a	11	3	[0, 0, 0]	n/a	catFR1	0	R1222M
737.86	1.6	751590	WORD	n/a	wordpools/wordpool_categorized_EN.txt	PANTS	Clothing	12	3	[0, 0, 0]	n/a	catFR1	0	R1222M
739.477	0.0	753207	ENCODING_END	n/a	n/a	n/a	n/a	-999	3	[0, 0, 0]	n/a	catFR1	0	R1222M
739.477	0.105	753207	WORD_OFF	n/a	n/a	PANTS	n/a	12	3	[0, 0, 0]	n/a	catFR1	0	R1222M
739.582	0.0	753312	DISTRACT_START	n/a	n/a	n/a	n/a	-999	3	[0, 0, 0]	n/a	catFR1	0	R1222M
739.582	0.013	753312	START	n/a	n/a	n/a	n/a	-999	3	[-999, -999, -999]	n/a	catFR1	0	R1222M
739.595	6.867	753325	PROB	6.839	n/a	n/a	n/a	-999	3	[4, 4, 9]	17.0	catFR1	0	R1222M
746.462	8.868	760191	PROB	8.836	n/a	n/a	n/a	-999	3	[3, 8, 3]	14.0	catFR1	0	R1222M
755.33	7.704	769059	PROB	7.704	n/a	n/a	n/a	-999	3	[2, 7, 7]	16.0	catFR1	0	R1222M
763.034	0.015	776762	STOP	n/a	n/a	n/a	n/a	-999	3	[-999, -999, -999]	n/a	catFR1	0	R1222M
763.049	0.551	776777	DISTRACT_END	n/a	n/a	n/a	n/a	-999	3	[0, 0, 0]	n/a	catFR1	0	R1222M
763.6	0.516	777328	RETRIEVAL_ORIENT	n/a	n/a	n/a	n/a	-999	3	[0, 0, 0]	n/a	catFR1	0	R1222M
764.116	2.006	777844	REC_START	n/a	n/a	n/a	n/a	-999	3	[0, 0, 0]	n/a	catFR1	0	R1222M
766.122	5.989	779850	REC_WORD	2.006	n/a	FISH	OceanAnimals	1	3	[0, 0, 0]	n/a	catFR1	0	R1222M
772.111	22.015	785839	REC_WORD	7.995	n/a	ERASER	OfficeSupplies	9	3	[0, 0, 0]	n/a	catFR1	0	R1222M
794.126	37.552	807853	REC_END	n/a	n/a	n/a	n/a	-999	3	[0, 0, 0]	n/a	catFR1	0	R1222M
831.678	0.5	845402	TRIAL	n/a	n/a	n/a	n/a	-999	4	[0, 0, 0]	n/a	catFR1	0	R1222M
832.178	10.0	845902	COUNTDOWN_START	n/a	n/a	n/a	n/a	-999	4	[0, 0, 0]	n/a	catFR1	0	R1222M
842.606	0.009	856330	COUNTDOWN_END	n/a	n/a	n/a	n/a	-999	4	[0, 0, 0]	n/a	catFR1	0	R1222M
842.615	1.6	856339	ORIENT	n/a	n/a	n/a	n/a	-999	4	[0, 0, 0]	n/a	catFR1	0	R1222M
844.231	2.217	857955	ORIENT_OFF	n/a	n/a	n/a	n/a	-999	4	[0, 0, 0]	n/a	catFR1	0	R1222M
846.448	1.6	860171	WORD	n/a	wordpools/wordpool_categorized_EN.txt	FINGERS	BodyParts	1	4	[0, 0, 0]	n/a	catFR1	0	R1222M
848.065	0.8	861788	WORD_OFF	n/a	n/a	FINGERS	n/a	1	4	[0, 0, 0]	n/a	catFR1	0	R1222M
848.865	1.6	862588	WORD	n/a	wordpools/wordpool_categorized_EN.txt	KNEE	BodyParts	2	4	[0, 0, 0]	n/a	catFR1	0	R1222M
850.482	0.95	864205	WORD_OFF	n/a	n/a	KNEE	n/a	2	4	[0, 0, 0]	n/a	catFR1	0	R1222M
851.432	1.6	865155	WORD	n/a	wordpools/wordpool_categorized_EN.txt	BATHROOM	Building	3	4	[0, 0, 0]	n/a	catFR1	0	R1222M
853.049	0.9	866772	WORD_OFF	n/a	n/a	BATHROOM	n/a	3	4	[0, 0, 0]	n/a	catFR1	0	R1222M
853.949	1.6	867672	WORD	n/a	wordpools/wordpool_categorized_EN.txt	WALL	Building	4	4	[0, 0, 0]	n/a	catFR1	0	R1222M
855.567	0.799	869290	WORD_OFF	n/a	n/a	WALL	n/a	4	4	[0, 0, 0]	n/a	catFR1	0	R1222M
856.366	1.6	870089	WORD	n/a	wordpools/wordpool_categorized_EN.txt	DOLL	Toys	5	4	[0, 0, 0]	n/a	catFR1	0	R1222M
857.983	0.934	871706	WORD_OFF	n/a	n/a	DOLL	n/a	5	4	[0, 0, 0]	n/a	catFR1	0	R1222M
858.917	1.6	872640	WORD	n/a	wordpools/wordpool_categorized_EN.txt	BASEBALL	Toys	6	4	[0, 0, 0]	n/a	catFR1	0	R1222M
860.534	0.917	874257	WORD_OFF	n/a	n/a	BASEBALL	n/a	6	4	[0, 0, 0]	n/a	catFR1	0	R1222M
861.451	1.6	875174	WORD	n/a	wordpools/wordpool_categorized_EN.txt	ATTIC	Building	7	4	[0, 0, 0]	n/a	catFR1	0	R1222M
863.068	0.783	876790	WORD_OFF	n/a	n/a	ATTIC	n/a	7	4	[0, 0, 0]	n/a	catFR1	0	R1222M
863.851	1.6	877573	WORD	n/a	wordpools/wordpool_categorized_EN.txt	ROOF	Building	8	4	[0, 0, 0]	n/a	catFR1	0	R1222M
865.468	0.8	879190	WORD_OFF	n/a	n/a	ROOF	n/a	8	4	[0, 0, 0]	n/a	catFR1	0	R1222M
866.268	1.6	879990	WORD	n/a	wordpools/wordpool_categorized_EN.txt	LEG	BodyParts	9	4	[0, 0, 0]	n/a	catFR1	0	R1222M
867.885	0.784	881607	WORD_OFF	n/a	n/a	LEG	n/a	9	4	[0, 0, 0]	n/a	catFR1	0	R1222M
868.669	1.6	882391	WORD	n/a	wordpools/wordpool_categorized_EN.txt	EAR	BodyParts	10	4	[0, 0, 0]	n/a	catFR1	0	R1222M
870.286	0.8	884008	WORD_OFF	n/a	n/a	EAR	n/a	10	4	[0, 0, 0]	n/a	catFR1	0	R1222M
871.086	1.6	884808	WORD	n/a	wordpools/wordpool_categorized_EN.txt	FOOTBALL	Toys	11	4	[0, 0, 0]	n/a	catFR1	0	R1222M
872.703	0.85	886425	WORD_OFF	n/a	n/a	FOOTBALL	n/a	11	4	[0, 0, 0]	n/a	catFR1	0	R1222M
873.553	1.6	887275	WORD	n/a	wordpools/wordpool_categorized_EN.txt	SLINKY	Toys	12	4	[0, 0, 0]	n/a	catFR1	0	R1222M
875.17	0.0	888892	WORD_OFF	n/a	n/a	SLINKY	n/a	12	4	[0, 0, 0]	n/a	catFR1	0	R1222M
875.17	0.137	888892	ENCODING_END	n/a	n/a	n/a	n/a	-999	4	[0, 0, 0]	n/a	catFR1	0	R1222M
875.307	0.001	889029	DISTRACT_START	n/a	n/a	n/a	n/a	-999	4	[0, 0, 0]	n/a	catFR1	0	R1222M
875.308	0.012	889030	START	n/a	n/a	n/a	n/a	-999	4	[-999, -999, -999]	n/a	catFR1	0	R1222M
875.32	12.786	889042	PROB	12.761	n/a	n/a	n/a	-999	4	[4, 8, 8]	20.0	catFR1	0	R1222M
888.106	5.401	901827	PROB	5.367	n/a	n/a	n/a	-999	4	[7, 1, 3]	11.0	catFR1	0	R1222M
893.507	8.663	907228	PROB	8.663	n/a	n/a	n/a	-999	4	[6, 7, 5]	18.0	catFR1	0	R1222M
902.17	0.023	915890	STOP	n/a	n/a	n/a	n/a	-999	4	[-999, -999, -999]	n/a	catFR1	0	R1222M
902.193	0.533	915913	DISTRACT_END	n/a	n/a	n/a	n/a	-999	4	[0, 0, 0]	n/a	catFR1	0	R1222M
902.726	0.517	916446	RETRIEVAL_ORIENT	n/a	n/a	n/a	n/a	-999	4	[0, 0, 0]	n/a	catFR1	0	R1222M
903.243	3.185	916963	REC_START	n/a	n/a	n/a	n/a	-999	4	[0, 0, 0]	n/a	catFR1	0	R1222M
906.428	2.825	920148	REC_WORD	3.185	n/a	SLINKY	Toys	12	4	[0, 0, 0]	n/a	catFR1	0	R1222M
909.253	1.841	922973	REC_WORD	6.01	n/a	FOOTBALL	Toys	11	4	[0, 0, 0]	n/a	catFR1	0	R1222M
911.094	7.321	924814	REC_WORD	7.851	n/a	BASEBALL	Toys	6	4	[0, 0, 0]	n/a	catFR1	0	R1222M
918.415	10.939	932134	REC_WORD	15.172	n/a	BATHROOM	Building	3	4	[0, 0, 0]	n/a	catFR1	0	R1222M
929.354	2.566	943073	REC_WORD	26.111	n/a	ROOF	Building	8	4	[0, 0, 0]	n/a	catFR1	0	R1222M
931.92	1.334	945638	REC_WORD	28.677	n/a	ATTIC	Building	7	4	[0, 0, 0]	n/a	catFR1	0	R1222M
933.254	140.288	946972	REC_END	n/a	n/a	n/a	n/a	-999	4	[0, 0, 0]	n/a	catFR1	0	R1222M
1073.542	0.5	1087252	TRIAL	n/a	n/a	n/a	n/a	-999	5	[0, 0, 0]	n/a	catFR1	0	R1222M
1074.042	10.0	1087752	COUNTDOWN_START	n/a	n/a	n/a	n/a	-999	5	[0, 0, 0]	n/a	catFR1	0	R1222M
1084.47	0.007	1098179	COUNTDOWN_END	n/a	n/a	n/a	n/a	-999	5	[0, 0, 0]	n/a	catFR1	0	R1222M
1084.477	1.6	1098186	ORIENT	n/a	n/a	n/a	n/a	-999	5	[0, 0, 0]	n/a	catFR1	0	R1222M
1086.094	2.017	1099803	ORIENT_OFF	n/a	n/a	n/a	n/a	-999	5	[0, 0, 0]	n/a	catFR1	0	R1222M
1088.111	1.6	1101820	WORD	n/a	wordpools/wordpool_categorized_EN.txt	LEMON	Fruit	1	5	[0, 0, 0]	n/a	catFR1	0	R1222M
1089.728	0.917	1103437	WORD_OFF	n/a	n/a	LEMON	n/a	1	5	[0, 0, 0]	n/a	catFR1	0	R1222M
1090.645	1.6	1104354	WORD	n/a	wordpools/wordpool_categorized_EN.txt	GRAPE	Fruit	2	5	[0, 0, 0]	n/a	catFR1	0	R1222M
1092.262	0.834	1105971	WORD_OFF	n/a	n/a	GRAPE	n/a	2	5	[0, 0, 0]	n/a	catFR1	0	R1222M
1093.096	1.6	1106805	WORD	n/a	wordpools/wordpool_categorized_EN.txt	LOBSTER	OceanAnimals	3	5	[0, 0, 0]	n/a	catFR1	0	R1222M
1094.713	0.8	1108422	WORD_OFF	n/a	n/a	LOBSTER	n/a	3	5	[0, 0, 0]	n/a	catFR1	0	R1222M
1095.513	1.6	1109222	WORD	n/a	wordpools/wordpool_categorized_EN.txt	WHALE	OceanAnimals	4	5	[0, 0, 0]	n/a	catFR1	0	R1222M
1097.13	0.883	1110839	WORD_OFF	n/a	n/a	WHALE	n/a	4	5	[0, 0, 0]	n/a	catFR1	0	R1222M
1098.013	1.6	1111722	WORD	n/a	wordpools/wordpool_categorized_EN.txt	FOREST	Landscapes	5	5	[0, 0, 0]	n/a	catFR1	0	R1222M
1099.631	0.967	1113340	WORD_OFF	n/a	n/a	FOREST	n/a	5	5	[0, 0, 0]	n/a	catFR1	0	R1222M
1100.598	1.6	1114306	WORD	n/a	wordpools/wordpool_categorized_EN.txt	STREAM	Landscapes	6	5	[0, 0, 0]	n/a	catFR1	0	R1222M
1102.214	1.0	1115922	WORD_OFF	n/a	n/a	STREAM	n/a	6	5	[0, 0, 0]	n/a	catFR1	0	R1222M
1103.214	1.6	1116922	WORD	n/a	wordpools/wordpool_categorized_EN.txt	TURTLE	OceanAnimals	7	5	[0, 0, 0]	n/a	catFR1	0	R1222M
1104.831	1.001	1118539	WORD_OFF	n/a	n/a	TURTLE	n/a	7	5	[0, 0, 0]	n/a	catFR1	0	R1222M
1105.832	1.6	1119540	WORD	n/a	wordpools/wordpool_categorized_EN.txt	SHRIMP	OceanAnimals	8	5	[0, 0, 0]	n/a	catFR1	0	R1222M
1107.449	0.816	1121157	WORD_OFF	n/a	n/a	SHRIMP	n/a	8	5	[0, 0, 0]	n/a	catFR1	0	R1222M
1108.265	1.6	1121973	WORD	n/a	wordpools/wordpool_categorized_EN.txt	LIME	Fruit	9	5	[0, 0, 0]	n/a	catFR1	0	R1222M
1109.882	0.8	1123590	WORD_OFF	n/a	n/a	LIME	n/a	9	5	[0, 0, 0]	n/a	catFR1	0	R1222M
1110.682	1.6	1124390	WORD	n/a	wordpools/wordpool_categorized_EN.txt	BANANA	Fruit	10	5	[0, 0, 0]	n/a	catFR1	0	R1222M
1112.299	0.784	1126007	WORD_OFF	n/a	n/a	BANANA	n/a	10	5	[0, 0, 0]	n/a	catFR1	0	R1222M
1113.083	1.6	1126791	WORD	n/a	wordpools/wordpool_categorized_EN.txt	MOUNTAIN	Landscapes	11	5	[0, 0, 0]	n/a	catFR1	0	R1222M
1114.7	0.817	1128408	WORD_OFF	n/a	n/a	MOUNTAIN	n/a	11	5	[0, 0, 0]	n/a	catFR1	0	R1222M
1115.517	1.6	1129225	WORD	n/a	wordpools/wordpool_categorized_EN.txt	CREEK	Landscapes	12	5	[0, 0, 0]	n/a	catFR1	0	R1222M
1117.134	0.0	1130842	ENCODING_END	n/a	n/a	n/a	n/a	-999	5	[0, 0, 0]	n/a	catFR1	0	R1222M
1117.134	0.104	1130842	WORD_OFF	n/a	n/a	CREEK	n/a	12	5	[0, 0, 0]	n/a	catFR1	0	R1222M
1117.238	0.0	1130946	DISTRACT_START	n/a	n/a	n/a	n/a	-999	5	[0, 0, 0]	n/a	catFR1	0	R1222M
1117.238	0.012	1130946	START	n/a	n/a	n/a	n/a	-999	5	[-999, -999, -999]	n/a	catFR1	0	R1222M
1117.25	7.885	1130958	PROB	7.849	n/a	n/a	n/a	-999	5	[6, 7, 6]	19.0	catFR1	0	R1222M
1125.135	6.618	1138842	PROB	6.595	n/a	n/a	n/a	-999	5	[7, 4, 6]	17.0	catFR1	0	R1222M
1131.753	5.301	1145460	PROB	5.273	n/a	n/a	n/a	-999	5	[4, 1, 4]	9.0	catFR1	0	R1222M
1137.054	9.243	1150760	PROB	9.243	n/a	n/a	n/a	-999	5	[8, 9, 3]	20.0	catFR1	0	R1222M
1146.297	0.009	1160003	STOP	n/a	n/a	n/a	n/a	-999	5	[-999, -999, -999]	n/a	catFR1	0	R1222M
1146.306	0.6	1160012	DISTRACT_END	n/a	n/a	n/a	n/a	-999	5	[0, 0, 0]	n/a	catFR1	0	R1222M
1146.906	0.518	1160612	RETRIEVAL_ORIENT	n/a	n/a	n/a	n/a	-999	5	[0, 0, 0]	n/a	catFR1	0	R1222M
1147.424	1.957	1161130	REC_START	n/a	n/a	n/a	n/a	-999	5	[0, 0, 0]	n/a	catFR1	0	R1222M
1149.381	1.97	1163087	REC_WORD	1.957	n/a	LOBSTER	OceanAnimals	3	5	[0, 0, 0]	n/a	catFR1	0	R1222M
1151.351	26.084	1165057	REC_WORD	3.927	n/a	SHRIMP	OceanAnimals	8	5	[0, 0, 0]	n/a	catFR1	0	R1222M
1177.435	48.953	1191139	REC_END	n/a	n/a	n/a	n/a	-999	5	[0, 0, 0]	n/a	catFR1	0	R1222M
1226.388	0.5	1240089	TRIAL	n/a	n/a	n/a	n/a	-999	6	[0, 0, 0]	n/a	catFR1	0	R1222M
1226.888	10.0	1240589	COUNTDOWN_START	n/a	n/a	n/a	n/a	-999	6	[0, 0, 0]	n/a	catFR1	0	R1222M
1237.316	0.008	1251016	COUNTDOWN_END	n/a	n/a	n/a	n/a	-999	6	[0, 0, 0]	n/a	catFR1	0	R1222M
1237.324	1.6	1251024	ORIENT	n/a	n/a	n/a	n/a	-999	6	[0, 0, 0]	n/a	catFR1	0	R1222M
1238.941	2.1	1252641	ORIENT_OFF	n/a	n/a	n/a	n/a	-999	6	[0, 0, 0]	n/a	catFR1	0	R1222M
1241.041	1.6	1254741	WORD	n/a	wordpools/wordpool_categorized_EN.txt	STAPLER	OfficeSupplies	1	6	[0, 0, 0]	n/a	catFR1	0	R1222M
1242.642	0.9	1256342	WORD_OFF	n/a	n/a	STAPLER	n/a	1	6	[0, 0, 0]	n/a	catFR1	0	R1222M
1243.542	1.6	1257242	WORD	n/a	wordpools/wordpool_categorized_EN.txt	PAPER	OfficeSupplies	2	6	[0, 0, 0]	n/a	catFR1	0	R1222M
1245.158	0.767	1258858	WORD_OFF	n/a	n/a	PAPER	n/a	2	6	[0, 0, 0]	n/a	catFR1	0	R1222M
1245.925	1.6	1259625	WORD	n/a	wordpools/wordpool_categorized_EN.txt	NIGHTSTAND	Furniture	3	6	[0, 0, 0]	n/a	catFR1	0	R1222M
1247.542	0.951	1261242	WORD_OFF	n/a	n/a	NIGHTSTAND	n/a	3	6	[0, 0, 0]	n/a	catFR1	0	R1222M
1248.493	1.6	1262193	WORD	n/a	wordpools/wordpool_categorized_EN.txt	SHELF	Furniture	4	6	[0, 0, 0]	n/a	catFR1	0	R1222M
1250.109	0.784	1263809	WORD_OFF	n/a	n/a	SHELF	n/a	4	6	[0, 0, 0]	n/a	catFR1	0	R1222M
1250.893	1.6	1264593	WORD	n/a	wordpools/wordpool_categorized_EN.txt	CORKSCREW	KitchenTools	5	6	[0, 0, 0]	n/a	catFR1	0	R1222M
1252.51	1.017	1266210	WORD_OFF	n/a	n/a	CORKSCREW	n/a	5	6	[0, 0, 0]	n/a	catFR1	0	R1222M
1253.527	1.6	1267226	WORD	n/a	wordpools/wordpool_categorized_EN.txt	STRAINER	KitchenTools	6	6	[0, 0, 0]	n/a	catFR1	0	R1222M
1255.144	0.783	1268843	WORD_OFF	n/a	n/a	STRAINER	n/a	6	6	[0, 0, 0]	n/a	catFR1	0	R1222M
1255.927	1.6	1269626	WORD	n/a	wordpools/wordpool_categorized_EN.txt	SOFA	Furniture	7	6	[0, 0, 0]	n/a	catFR1	0	R1222M
1257.544	0.767	1271243	WORD_OFF	n/a	n/a	SOFA	n/a	7	6	[0, 0, 0]	n/a	catFR1	0	R1222M
1258.311	1.6	1272010	WORD	n/a	wordpools/wordpool_categorized_EN.txt	CABINET	Furniture	8	6	[0, 0, 0]	n/a	catFR1	0	R1222M
1259.928	0.867	1273627	WORD_OFF	n/a	n/a	CABINET	n/a	8	6	[0, 0, 0]	n/a	catFR1	0	R1222M
1260.795	1.6	1274494	WORD	n/a	wordpools/wordpool_categorized_EN.txt	GLUE	OfficeSupplies	9	6	[0, 0, 0]	n/a	catFR1	0	R1222M
1262.412	0.8	1276111	WORD_OFF	n/a	n/a	GLUE	n/a	9	6	[0, 0, 0]	n/a	catFR1	0	R1222M
1263.212	1.6	1276911	WORD	n/a	wordpools/wordpool_categorized_EN.txt	RULER	OfficeSupplies	10	6	[0, 0, 0]	n/a	catFR1	0	R1222M
1264.829	1.0	1278528	WORD_OFF	n/a	n/a	RULER	n/a	10	6	[0, 0, 0]	n/a	catFR1	0	R1222M
1265.829	1.6	1279528	WORD	n/a	wordpools/wordpool_categorized_EN.txt	COLANDER	KitchenTools	11	6	[0, 0, 0]	n/a	catFR1	0	R1222M
1267.446	0.967	1281145	WORD_OFF	n/a	n/a	COLANDER	n/a	11	6	[0, 0, 0]	n/a	catFR1	0	R1222M
1268.413	1.6	1282112	WORD	n/a	wordpools/wordpool_categorized_EN.txt	LADLE	KitchenTools	12	6	[0, 0, 0]	n/a	catFR1	0	R1222M
1270.03	0.0	1283729	ENCODING_END	n/a	n/a	n/a	n/a	-999	6	[0, 0, 0]	n/a	catFR1	0	R1222M
1270.03	0.101	1283729	WORD_OFF	n/a	n/a	LADLE	n/a	12	6	[0, 0, 0]	n/a	catFR1	0	R1222M
1270.131	0.0	1283830	DISTRACT_START	n/a	n/a	n/a	n/a	-999	6	[0, 0, 0]	n/a	catFR1	0	R1222M
1270.131	0.016	1283830	START	n/a	n/a	n/a	n/a	-999	6	[-999, -999, -999]	n/a	catFR1	0	R1222M
1270.147	10.752	1283846	PROB	10.727	n/a	n/a	n/a	-999	6	[7, 8, 9]	24.0	catFR1	0	R1222M
1280.899	9.168	1294597	PROB	9.136	n/a	n/a	n/a	-999	6	[5, 9, 4]	18.0	catFR1	0	R1222M
1290.067	7.592	1303764	PROB	7.592	n/a	n/a	n/a	-999	6	[9, 2, 7]	18.0	catFR1	0	R1222M
1297.659	0.01	1311356	STOP	n/a	n/a	n/a	n/a	-999	6	[-999, -999, -999]	n/a	catFR1	0	R1222M
1297.669	0.6	1311366	DISTRACT_END	n/a	n/a	n/a	n/a	-999	6	[0, 0, 0]	n/a	catFR1	0	R1222M
1298.269	0.517	1311966	RETRIEVAL_ORIENT	n/a	n/a	n/a	n/a	-999	6	[0, 0, 0]	n/a	catFR1	0	R1222M
1298.786	5.937	1312483	REC_START	n/a	n/a	n/a	n/a	-999	6	[0, 0, 0]	n/a	catFR1	0	R1222M
1304.723	13.313	1318419	REC_WORD	5.937	n/a	LADLE	KitchenTools	12	6	[0, 0, 0]	n/a	catFR1	0	R1222M
1318.036	6.247	1331732	REC_WORD	19.25	n/a	GLUE	OfficeSupplies	9	6	[0, 0, 0]	n/a	catFR1	0	R1222M
1324.283	4.514	1337978	REC_WORD	25.497	n/a	PAPER	OfficeSupplies	2	6	[0, 0, 0]	n/a	catFR1	0	R1222M
1328.797	5.962	1342492	REC_END	n/a	n/a	n/a	n/a	-999	6	[0, 0, 0]	n/a	catFR1	0	R1222M
1334.759	0.5	1348454	TRIAL	n/a	n/a	n/a	n/a	-999	7	[0, 0, 0]	n/a	catFR1	0	R1222M
1335.259	10.0	1348954	COUNTDOWN_START	n/a	n/a	n/a	n/a	-999	7	[0, 0, 0]	n/a	catFR1	0	R1222M
1345.687	0.008	1359381	COUNTDOWN_END	n/a	n/a	n/a	n/a	-999	7	[0, 0, 0]	n/a	catFR1	0	R1222M
1345.695	1.6	1359389	ORIENT	n/a	n/a	n/a	n/a	-999	7	[0, 0, 0]	n/a	catFR1	0	R1222M
1347.312	2.234	1361006	ORIENT_OFF	n/a	n/a	n/a	n/a	-999	7	[0, 0, 0]	n/a	catFR1	0	R1222M
1349.546	1.6	1363240	WORD	n/a	wordpools/wordpool_categorized_EN.txt	RIVER	Landscapes	1	7	[0, 0, 0]	n/a	catFR1	0	R1222M
1351.162	0.917	1364856	WORD_OFF	n/a	n/a	RIVER	n/a	1	7	[0, 0, 0]	n/a	catFR1	0	R1222M
1352.079	1.6	1365773	WORD	n/a	wordpools/wordpool_categorized_EN.txt	BEACH	Landscapes	2	7	[0, 0, 0]	n/a	catFR1	0	R1222M
1353.696	1.0	1367390	WORD_OFF	n/a	n/a	BEACH	n/a	2	7	[0, 0, 0]	n/a	catFR1	0	R1222M
1354.696	1.6	1368390	WORD	n/a	wordpools/wordpool_categorized_EN.txt	TELEVISION	Electronics	3	7	[0, 0, 0]	n/a	catFR1	0	R1222M
1356.313	0.801	1370006	WORD_OFF	n/a	n/a	TELEVISION	n/a	3	7	[0, 0, 0]	n/a	catFR1	0	R1222M
1357.114	1.6	1370807	WORD	n/a	wordpools/wordpool_categorized_EN.txt	COMPUTER	Electronics	4	7	[0, 0, 0]	n/a	catFR1	0	R1222M
1358.731	0.967	1372424	WORD_OFF	n/a	n/a	COMPUTER	n/a	4	7	[0, 0, 0]	n/a	catFR1	0	R1222M
1359.698	1.6	1373391	WORD	n/a	wordpools/wordpool_categorized_EN.txt	SHIRT	Clothing	5	7	[0, 0, 0]	n/a	catFR1	0	R1222M
1361.314	0.967	1375007	WORD_OFF	n/a	n/a	SHIRT	n/a	5	7	[0, 0, 0]	n/a	catFR1	0	R1222M
1362.281	1.6	1375974	WORD	n/a	wordpools/wordpool_categorized_EN.txt	SOCKS	Clothing	6	7	[0, 0, 0]	n/a	catFR1	0	R1222M
1363.898	0.834	1377591	WORD_OFF	n/a	n/a	SOCKS	n/a	6	7	[0, 0, 0]	n/a	catFR1	0	R1222M
1364.732	1.6	1378425	WORD	n/a	wordpools/wordpool_categorized_EN.txt	VALLEY	Landscapes	7	7	[0, 0, 0]	n/a	catFR1	0	R1222M
1366.349	0.9	1380042	WORD_OFF	n/a	n/a	VALLEY	n/a	7	7	[0, 0, 0]	n/a	catFR1	0	R1222M
1367.249	1.6	1380942	WORD	n/a	wordpools/wordpool_categorized_EN.txt	ISLAND	Landscapes	8	7	[0, 0, 0]	n/a	catFR1	0	R1222M
1368.866	0.85	1382559	WORD_OFF	n/a	n/a	ISLAND	n/a	8	7	[0, 0, 0]	n/a	catFR1	0	R1222M
1369.716	1.6	1383409	WORD	n/a	wordpools/wordpool_categorized_EN.txt	CALCULATOR	Electronics	9	7	[0, 0, 0]	n/a	catFR1	0	R1222M
1371.333	0.783	1385026	WORD_OFF	n/a	n/a	CALCULATOR	n/a	9	7	[0, 0, 0]	n/a	catFR1	0	R1222M
1372.116	1.6	1385809	WORD	n/a	wordpools/wordpool_categorized_EN.txt	TABLET	Electronics	10	7	[0, 0, 0]	n/a	catFR1	0	R1222M
1373.733	0.852	1387425	WORD_OFF	n/a	n/a	TABLET	n/a	10	7	[0, 0, 0]	n/a	catFR1	0	R1222M
1374.585	1.6	1388277	WORD	n/a	wordpools/wordpool_categorized_EN.txt	SHOES	Clothing	11	7	[0, 0, 0]	n/a	catFR1	0	R1222M
1376.201	0.9	1389893	WORD_OFF	n/a	n/a	SHOES	n/a	11	7	[0, 0, 0]	n/a	catFR1	0	R1222M
1377.101	1.6	1390793	WORD	n/a	wordpools/wordpool_categorized_EN.txt	DRESS	Clothing	12	7	[0, 0, 0]	n/a	catFR1	0	R1222M
1378.718	0.0	1392410	ENCODING_END	n/a	n/a	n/a	n/a	-999	7	[0, 0, 0]	n/a	catFR1	0	R1222M
1378.718	0.129	1392410	WORD_OFF	n/a	n/a	DRESS	n/a	12	7	[0, 0, 0]	n/a	catFR1	0	R1222M
1378.847	0.0	1392539	DISTRACT_START	n/a	n/a	n/a	n/a	-999	7	[0, 0, 0]	n/a	catFR1	0	R1222M
1378.847	0.021	1392539	START	n/a	n/a	n/a	n/a	-999	7	[-999, -999, -999]	n/a	catFR1	0	R1222M
1378.868	5.868	1392560	PROB	5.829	n/a	n/a	n/a	-999	7	[7, 1, 5]	13.0	catFR1	0	R1222M
1384.736	5.267	1398428	PROB	5.235	n/a	n/a	n/a	-999	7	[1, 7, 6]	14.0	catFR1	0	R1222M
1390.003	5.218	1403694	PROB	5.192	n/a	n/a	n/a	-999	7	[7, 1, 9]	17.0	catFR1	0	R1222M
1395.221	7.805	1408912	PROB	7.805	n/a	n/a	n/a	-999	7	[6, 8, 2]	16.0	catFR1	0	R1222M
1403.026	0.013	1416717	STOP	n/a	n/a	n/a	n/a	-999	7	[-999, -999, -999]	n/a	catFR1	0	R1222M
1403.039	0.535	1416730	DISTRACT_END	n/a	n/a	n/a	n/a	-999	7	[0, 0, 0]	n/a	catFR1	0	R1222M
1403.574	0.516	1417265	RETRIEVAL_ORIENT	n/a	n/a	n/a	n/a	-999	7	[0, 0, 0]	n/a	catFR1	0	R1222M
1404.09	1.236	1417781	REC_START	n/a	n/a	n/a	n/a	-999	7	[0, 0, 0]	n/a	catFR1	0	R1222M
1405.326	3.185	1419017	REC_WORD	1.236	n/a	DRESS	Clothing	12	7	[0, 0, 0]	n/a	catFR1	0	R1222M
1408.511	8.975	1422201	REC_WORD	4.421	n/a	TABLET	Electronics	10	7	[0, 0, 0]	n/a	catFR1	0	R1222M
1417.486	16.613	1431176	REC_WORD	13.396	n/a	TELEVISION	Electronics	3	7	[0, 0, 0]	n/a	catFR1	0	R1222M
1434.099	6.464	1447788	REC_END	n/a	n/a	n/a	n/a	-999	7	[0, 0, 0]	n/a	catFR1	0	R1222M
1440.563	0.5	1454252	TRIAL	n/a	n/a	n/a	n/a	-999	8	[0, 0, 0]	n/a	catFR1	0	R1222M
1441.063	10.0	1454751	COUNTDOWN_START	n/a	n/a	n/a	n/a	-999	8	[0, 0, 0]	n/a	catFR1	0	R1222M
1451.491	0.008	1465179	COUNTDOWN_END	n/a	n/a	n/a	n/a	-999	8	[0, 0, 0]	n/a	catFR1	0	R1222M
1451.499	1.6	1465187	ORIENT	n/a	n/a	n/a	n/a	-999	8	[0, 0, 0]	n/a	catFR1	0	R1222M
1453.116	1.967	1466804	ORIENT_OFF	n/a	n/a	n/a	n/a	-999	8	[0, 0, 0]	n/a	catFR1	0	R1222M
1455.083	1.6	1468771	WORD	n/a	wordpools/wordpool_categorized_EN.txt	FOOT	BodyParts	1	8	[0, 0, 0]	n/a	catFR1	0	R1222M
1456.7	1.016	1470388	WORD_OFF	n/a	n/a	FOOT	n/a	1	8	[0, 0, 0]	n/a	catFR1	0	R1222M
1457.716	1.6	1471403	WORD	n/a	wordpools/wordpool_categorized_EN.txt	TOE	BodyParts	2	8	[0, 0, 0]	n/a	catFR1	0	R1222M
1459.333	0.967	1473020	WORD_OFF	n/a	n/a	TOE	n/a	2	8	[0, 0, 0]	n/a	catFR1	0	R1222M
1460.3	1.6	1473987	WORD	n/a	wordpools/wordpool_categorized_EN.txt	BEER	Beverages	3	8	[0, 0, 0]	n/a	catFR1	0	R1222M
1461.917	1.0	1475604	WORD_OFF	n/a	n/a	BEER	n/a	3	8	[0, 0, 0]	n/a	catFR1	0	R1222M
1462.917	1.6	1476604	WORD	n/a	wordpools/wordpool_categorized_EN.txt	JUICE	Beverages	4	8	[0, 0, 0]	n/a	catFR1	0	R1222M
1464.534	0.867	1478221	WORD_OFF	n/a	n/a	JUICE	n/a	4	8	[0, 0, 0]	n/a	catFR1	0	R1222M
1465.401	1.6	1479088	WORD	n/a	wordpools/wordpool_categorized_EN.txt	WIND	Weather	5	8	[0, 0, 0]	n/a	catFR1	0	R1222M
1467.018	0.867	1480705	WORD_OFF	n/a	n/a	WIND	n/a	5	8	[0, 0, 0]	n/a	catFR1	0	R1222M
1467.885	1.6	1481572	WORD	n/a	wordpools/wordpool_categorized_EN.txt	LIGHTNING	Weather	6	8	[0, 0, 0]	n/a	catFR1	0	R1222M
1469.502	0.917	1483189	WORD_OFF	n/a	n/a	LIGHTNING	n/a	6	8	[0, 0, 0]	n/a	catFR1	0	R1222M
1470.419	1.6	1484106	WORD	n/a	wordpools/wordpool_categorized_EN.txt	HAND	BodyParts	7	8	[0, 0, 0]	n/a	catFR1	0	R1222M
1472.036	0.983	1485723	WORD_OFF	n/a	n/a	HAND	n/a	7	8	[0, 0, 0]	n/a	catFR1	0	R1222M
1473.019	1.6	1486706	WORD	n/a	wordpools/wordpool_categorized_EN.txt	HEAD	BodyParts	8	8	[0, 0, 0]	n/a	catFR1	0	R1222M
1474.637	0.883	1488323	WORD_OFF	n/a	n/a	HEAD	n/a	8	8	[0, 0, 0]	n/a	catFR1	0	R1222M
1475.52	1.6	1489206	WORD	n/a	wordpools/wordpool_categorized_EN.txt	COLA	Beverages	9	8	[0, 0, 0]	n/a	catFR1	0	R1222M
1477.137	0.85	1490823	WORD_OFF	n/a	n/a	COLA	n/a	9	8	[0, 0, 0]	n/a	catFR1	0	R1222M
1477.987	1.6	1491673	WORD	n/a	wordpools/wordpool_categorized_EN.txt	WATER	Beverages	10	8	[0, 0, 0]	n/a	catFR1	0	R1222M
1479.588	0.966	1493274	WORD_OFF	n/a	n/a	WATER	n/a	10	8	[0, 0, 0]	n/a	catFR1	0	R1222M
1480.554	1.6	1494240	WORD	n/a	wordpools/wordpool_categorized_EN.txt	TORNADO	Weather	11	8	[0, 0, 0]	n/a	catFR1	0	R1222M
1482.171	0.884	1495857	WORD_OFF	n/a	n/a	TORNADO	n/a	11	8	[0, 0, 0]	n/a	catFR1	0	R1222M
1483.055	1.6	1496741	WORD	n/a	wordpools/wordpool_categorized_EN.txt	FOG	Weather	12	8	[0, 0, 0]	n/a	catFR1	0	R1222M
1484.672	0.0	1498358	WORD_OFF	n/a	n/a	FOG	n/a	12	8	[0, 0, 0]	n/a	catFR1	0	R1222M
1484.672	0.101	1498358	ENCODING_END	n/a	n/a	n/a	n/a	-999	8	[0, 0, 0]	n/a	catFR1	0	R1222M
1484.773	0.0	1498459	DISTRACT_START	n/a	n/a	n/a	n/a	-999	8	[0, 0, 0]	n/a	catFR1	0	R1222M
1484.773	0.015	1498459	START	n/a	n/a	n/a	n/a	-999	8	[-999, -999, -999]	n/a	catFR1	0	R1222M
1484.788	8.735	1498474	PROB	8.71	n/a	n/a	n/a	-999	8	[6, 6, 9]	21.0	catFR1	0	R1222M
1493.523	6.635	1507208	PROB	6.608	n/a	n/a	n/a	-999	8	[2, 3, 1]	6.0	catFR1	0	R1222M
1500.158	8.005	1513843	PROB	8.005	n/a	n/a	n/a	-999	8	[9, 4, 5]	18.0	catFR1	0	R1222M
1508.163	0.013	1521848	STOP	n/a	n/a	n/a	n/a	-999	8	[-999, -999, -999]	n/a	catFR1	0	R1222M
1508.176	0.667	1521861	DISTRACT_END	n/a	n/a	n/a	n/a	-999	8	[0, 0, 0]	n/a	catFR1	0	R1222M
1508.843	0.517	1522527	RETRIEVAL_ORIENT	n/a	n/a	n/a	n/a	-999	8	[0, 0, 0]	n/a	catFR1	0	R1222M
1509.36	2.022	1523044	REC_START	n/a	n/a	n/a	n/a	-999	8	[0, 0, 0]	n/a	catFR1	0	R1222M
1511.382	4.591	1525066	REC_WORD	2.022	n/a	HEAD	BodyParts	8	8	[0, 0, 0]	n/a	catFR1	0	R1222M
1515.973	4.471	1529657	REC_WORD	6.613	n/a	TORNADO	Weather	11	8	[0, 0, 0]	n/a	catFR1	0	R1222M
1520.444	7.137	1534128	REC_WORD	11.084	n/a	HAND	BodyParts	7	8	[0, 0, 0]	n/a	catFR1	0	R1222M
1527.581	11.79	1541264	REC_WORD	18.221	n/a	RIVER	n/a	-999	8	[0, 0, 0]	n/a	catFR1	0	R1222M
1539.371	220.47	1553054	REC_END	n/a	n/a	n/a	n/a	-999	8	[0, 0, 0]	n/a	catFR1	0	R1222M
1759.841	0.0	1773511	TRIAL	n/a	n/a	n/a	n/a	-999	9	[0, 0, 0]	n/a	catFR1	0	R1222M
