onset	duration	sample	trial_type	response_time	stim_file	item_name	category	serialpos	list	test	answer	experiment	session	subject
0.0	1.4	4950	INSTRUCT_START	n/a	n/a	n/a	n/a	-999	-999	[0, 0, 0]	n/a	catFR1	3	R1541T
1.4	26.699	6352	INSTRUCT_END	n/a	n/a	n/a	n/a	-999	-999	[0, 0, 0]	n/a	catFR1	3	R1541T
28.099	10.349	33045	COUNTDOWN_START	n/a	n/a	n/a	n/a	-999	-999	[0, 0, 0]	n/a	catFR1	3	R1541T
38.448	0.0	43393	COUNTDOWN_END	n/a	n/a	n/a	n/a	-999	-999	[0, 0, 0]	n/a	catFR1	3	R1541T
38.448	2.018	43402	ENCODING_START	n/a	n/a	n/a	n/a	-999	-1	[0, 0, 0]	n/a	catFR1	3	R1541T
40.466	1.616	45413	WORD	n/a	n/a	BASS	Instruments	1	-1	[0, 0, 0]	n/a	catFR1	3	R1541T
42.082	0.766	47024	WORD_OFF	n/a	n/a	BASS	Instruments	1	-1	[0, 0, 0]	n/a	catFR1	3	R1541T
42.848	1.616	47798	WORD	n/a	n/a	CELLO	Instruments	2	-1	[0, 0, 0]	n/a	catFR1	3	R1541T
44.464	0.768	49408	WORD_OFF	n/a	n/a	CELLO	Instruments	2	-1	[0, 0, 0]	n/a	catFR1	3	R1541T
45.232	1.6	50182	WORD	n/a	n/a	PIG	FarmAnimals	3	-1	[0, 0, 0]	n/a	catFR1	3	R1541T
46.832	0.967	51775	WORD_OFF	n/a	n/a	PIG	FarmAnimals	3	-1	[0, 0, 0]	n/a	catFR1	3	R1541T
47.799	1.616	52748	WORD	n/a	n/a	CALF	FarmAnimals	4	-1	[0, 0, 0]	n/a	catFR1	3	R1541T
49.415	0.901	54359	WORD_OFF	n/a	n/a	CALF	FarmAnimals	4	-1	[0, 0, 0]	n/a	catFR1	3	R1541T
50.316	1.616	55260	WORD	n/a	n/a	LADLE	KitchenTools	5	-1	[0, 0, 0]	n/a	catFR1	3	R1541T
51.932	0.85	56880	WORD_OFF	n/a	n/a	LADLE	KitchenTools	5	-1	[0, 0, 0]	n/a	catFR1	3	R1541T
52.782	1.616	57727	WORD	n/a	n/a	TONGS	KitchenTools	6	-1	[0, 0, 0]	n/a	catFR1	3	R1541T
54.398	0.867	59347	WORD_OFF	n/a	n/a	TONGS	KitchenTools	6	-1	[0, 0, 0]	n/a	catFR1	3	R1541T
55.265	1.617	60211	WORD	n/a	n/a	COW	FarmAnimals	7	-1	[0, 0, 0]	n/a	catFR1	3	R1541T
56.882	0.817	61831	WORD_OFF	n/a	n/a	COW	FarmAnimals	7	-1	[0, 0, 0]	n/a	catFR1	3	R1541T
57.699	1.616	62641	WORD	n/a	n/a	HORSE	FarmAnimals	8	-1	[0, 0, 0]	n/a	catFR1	3	R1541T
59.315	0.984	64261	WORD_OFF	n/a	n/a	HORSE	FarmAnimals	8	-1	[0, 0, 0]	n/a	catFR1	3	R1541T
60.299	1.615	65244	WORD	n/a	n/a	GUITAR	Instruments	9	-1	[0, 0, 0]	n/a	catFR1	3	R1541T
61.914	0.835	66864	WORD_OFF	n/a	n/a	GUITAR	Instruments	9	-1	[0, 0, 0]	n/a	catFR1	3	R1541T
62.749	1.615	67692	WORD	n/a	n/a	TROMBONE	Instruments	10	-1	[0, 0, 0]	n/a	catFR1	3	R1541T
64.364	0.851	69312	WORD_OFF	n/a	n/a	TROMBONE	Instruments	10	-1	[0, 0, 0]	n/a	catFR1	3	R1541T
65.215	1.6	70158	WORD	n/a	n/a	SPATULA	KitchenTools	11	-1	[0, 0, 0]	n/a	catFR1	3	R1541T
66.815	0.783	71760	WORD_OFF	n/a	n/a	SPATULA	KitchenTools	11	-1	[0, 0, 0]	n/a	catFR1	3	R1541T
67.598	1.602	72543	WORD	n/a	n/a	SPOON	KitchenTools	12	-1	[0, 0, 0]	n/a	catFR1	3	R1541T
69.2	0.0	74143	START	n/a	n/a	n/a	n/a	-999	-1	[-999, -999, -999]	n/a	catFR1	3	R1541T
69.2	0.0	74143	PROB	0.0	n/a	n/a	n/a	-999	-1	[8, 6, 3]	17	catFR1	3	R1541T
69.199	0.001	74145	WORD_OFF	n/a	n/a	SPOON	KitchenTools	12	-1	[0, 0, 0]	n/a	catFR1	3	R1541T
69.2	0.0	74145	ENCODING_END	n/a	n/a	n/a	n/a	-999	-1	[0, 0, 0]	n/a	catFR1	3	R1541T
69.2	2.666	74145	DISTRACT_START	n/a	n/a	n/a	n/a	-999	-1	[0, 0, 0]	n/a	catFR1	3	R1541T
71.866	2.25	76809	PROB	2.25	n/a	n/a	n/a	-999	-1	[6, 3, 5]	14	catFR1	3	R1541T
74.116	2.266	79059	PROB	2.266	n/a	n/a	n/a	-999	-1	[8, 6, 4]	18	catFR1	3	R1541T
76.382	1.75	81325	PROB	1.75	n/a	n/a	n/a	-999	-1	[5, 5, 1]	11	catFR1	3	R1541T
78.132	2.933	83075	PROB	2.933	n/a	n/a	n/a	-999	-1	[1, 7, 7]	15	catFR1	3	R1541T
81.065	2.1	86008	PROB	2.1	n/a	n/a	n/a	-999	-1	[1, 3, 5]	9	catFR1	3	R1541T
83.165	1.967	88108	PROB	1.967	n/a	n/a	n/a	-999	-1	[3, 1, 2]	6	catFR1	3	R1541T
85.132	2.15	90075	PROB	2.15	n/a	n/a	n/a	-999	-1	[1, 1, 6]	8	catFR1	3	R1541T
87.282	2.615	92225	PROB	2.615	n/a	n/a	n/a	-999	-1	[7, 4, 4]	15	catFR1	3	R1541T
89.897	0.0	94840	DISTRACT_END	n/a	n/a	n/a	n/a	-999	-1	[0, 0, 0]	n/a	catFR1	3	R1541T
89.897	1.684	94840	STOP	n/a	n/a	n/a	n/a	-999	-1	[-999, -999, -999]	n/a	catFR1	3	R1541T
91.581	1.988	96524	REC_START	n/a	n/a	n/a	n/a	-999	-1	[0, 0, 0]	n/a	catFR1	3	R1541T
93.569	0.623	98512	REC_WORD	0.623	n/a	BASS	Instruments	1	-1	[0, 0, 0]	n/a	catFR1	3	R1541T
94.192	0.685	99135	REC_WORD	0.685	n/a	CELLO	Instruments	2	-1	[0, 0, 0]	n/a	catFR1	3	R1541T
94.877	0.779	99820	REC_WORD	0.779	n/a	GUITAR	Instruments	9	-1	[0, 0, 0]	n/a	catFR1	3	R1541T
95.656	3.569	100599	REC_WORD	3.569	n/a	TROMBONE	Instruments	10	-1	[0, 0, 0]	n/a	catFR1	3	R1541T
99.225	0.908	104167	REC_WORD	0.908	n/a	LADLE	KitchenTools	5	-1	[0, 0, 0]	n/a	catFR1	3	R1541T
100.133	2.899	105075	REC_WORD	2.899	n/a	SPOON	KitchenTools	12	-1	[0, 0, 0]	n/a	catFR1	3	R1541T
103.032	18.749	107974	REC_WORD	18.749	n/a	SPATULA	KitchenTools	11	-1	[0, 0, 0]	n/a	catFR1	3	R1541T
121.781	10.282	126728	REC_END	n/a	n/a	n/a	n/a	-999	-1	[0, 0, 0]	n/a	catFR1	3	R1541T
132.063	10.351	137005	COUNTDOWN_START	n/a	n/a	n/a	n/a	-999	1	[0, 0, 0]	n/a	catFR1	3	R1541T
142.414	0.0	147361	COUNTDOWN_END	n/a	n/a	n/a	n/a	-999	1	[0, 0, 0]	n/a	catFR1	3	R1541T
142.414	2.016	147361	ENCODING_START	n/a	n/a	n/a	n/a	-999	1	[0, 0, 0]	n/a	catFR1	3	R1541T
144.43	1.617	149373	WORD	n/a	wordpools/wordpool_categorized_EN.txt	SCOOTER	Vehicles	1	1	[0, 0, 0]	n/a	catFR1	3	R1541T
146.047	0.783	150993	WORD_OFF	n/a	n/a	SCOOTER	Vehicles	1	1	[0, 0, 0]	n/a	catFR1	3	R1541T
146.83	1.617	151775	WORD	n/a	wordpools/wordpool_categorized_EN.txt	MOPED	Vehicles	2	1	[0, 0, 0]	n/a	catFR1	3	R1541T
148.447	0.915	153386	WORD_OFF	n/a	n/a	MOPED	Vehicles	2	1	[0, 0, 0]	n/a	catFR1	3	R1541T
149.362	1.602	154305	WORD	n/a	wordpools/wordpool_categorized_EN.txt	PETUNIA	Flowers	3	1	[0, 0, 0]	n/a	catFR1	3	R1541T
150.964	0.782	155907	WORD_OFF	n/a	n/a	PETUNIA	Flowers	3	1	[0, 0, 0]	n/a	catFR1	3	R1541T
151.746	1.601	156690	WORD	n/a	wordpools/wordpool_categorized_EN.txt	LILAC	Flowers	4	1	[0, 0, 0]	n/a	catFR1	3	R1541T
153.347	0.999	158292	WORD_OFF	n/a	n/a	LILAC	Flowers	4	1	[0, 0, 0]	n/a	catFR1	3	R1541T
154.346	1.601	159293	WORD	n/a	wordpools/wordpool_categorized_EN.txt	DRESS	Clothing	5	1	[0, 0, 0]	n/a	catFR1	3	R1541T
155.947	0.816	160885	WORD_OFF	n/a	n/a	DRESS	Clothing	5	1	[0, 0, 0]	n/a	catFR1	3	R1541T
156.763	1.617	161705	WORD	n/a	wordpools/wordpool_categorized_EN.txt	SHOES	Clothing	6	1	[0, 0, 0]	n/a	catFR1	3	R1541T
158.38	0.783	163324	WORD_OFF	n/a	n/a	SHOES	Clothing	6	1	[0, 0, 0]	n/a	catFR1	3	R1541T
159.163	1.617	164107	WORD	n/a	wordpools/wordpool_categorized_EN.txt	CAR	Vehicles	7	1	[0, 0, 0]	n/a	catFR1	3	R1541T
160.78	0.866	165727	WORD_OFF	n/a	n/a	CAR	Vehicles	7	1	[0, 0, 0]	n/a	catFR1	3	R1541T
161.646	1.6	166592	WORD	n/a	wordpools/wordpool_categorized_EN.txt	PLANE	Vehicles	8	1	[0, 0, 0]	n/a	catFR1	3	R1541T
163.246	0.834	168193	WORD_OFF	n/a	n/a	PLANE	Vehicles	8	1	[0, 0, 0]	n/a	catFR1	3	R1541T
164.08	1.615	169022	WORD	n/a	wordpools/wordpool_categorized_EN.txt	ROSE	Flowers	9	1	[0, 0, 0]	n/a	catFR1	3	R1541T
165.695	1.001	170642	WORD_OFF	n/a	n/a	ROSE	Flowers	9	1	[0, 0, 0]	n/a	catFR1	3	R1541T
166.696	1.617	171643	WORD	n/a	wordpools/wordpool_categorized_EN.txt	VIOLET	Flowers	10	1	[0, 0, 0]	n/a	catFR1	3	R1541T
168.313	0.849	173254	WORD_OFF	n/a	n/a	VIOLET	Flowers	10	1	[0, 0, 0]	n/a	catFR1	3	R1541T
169.162	1.617	174109	WORD	n/a	wordpools/wordpool_categorized_EN.txt	SKIRT	Clothing	11	1	[0, 0, 0]	n/a	catFR1	3	R1541T
170.779	0.883	175720	WORD_OFF	n/a	n/a	SKIRT	Clothing	11	1	[0, 0, 0]	n/a	catFR1	3	R1541T
171.662	1.601	176603	WORD	n/a	wordpools/wordpool_categorized_EN.txt	SHIRT	Clothing	12	1	[0, 0, 0]	n/a	catFR1	3	R1541T
173.263	0.0	178203	PROB	0.0	n/a	n/a	n/a	-999	1	[4, 4, 2]	10	catFR1	3	R1541T
173.263	0.001	178204	WORD_OFF	n/a	n/a	SHIRT	Clothing	12	1	[0, 0, 0]	n/a	catFR1	3	R1541T
173.264	0.0	178204	ENCODING_END	n/a	n/a	n/a	n/a	-999	1	[0, 0, 0]	n/a	catFR1	3	R1541T
173.264	0.0	178204	DISTRACT_START	n/a	n/a	n/a	n/a	-999	1	[0, 0, 0]	n/a	catFR1	3	R1541T
173.264	3.749	178204	START	n/a	n/a	n/a	n/a	-999	1	[-999, -999, -999]	n/a	catFR1	3	R1541T
177.013	2.033	181953	PROB	2.033	n/a	n/a	n/a	-999	1	[8, 2, 8]	18	catFR1	3	R1541T
179.046	2.133	183986	PROB	2.133	n/a	n/a	n/a	-999	1	[7, 4, 3]	14	catFR1	3	R1541T
181.179	2.1	186119	PROB	2.1	n/a	n/a	n/a	-999	1	[4, 4, 3]	11	catFR1	3	R1541T
183.279	2.65	188219	PROB	2.65	n/a	n/a	n/a	-999	1	[4, 4, 8]	16	catFR1	3	R1541T
185.929	2.349	190869	PROB	2.349	n/a	n/a	n/a	-999	1	[3, 8, 1]	12	catFR1	3	R1541T
188.278	3.201	193218	PROB	3.201	n/a	n/a	n/a	-999	1	[8, 3, 6]	17	catFR1	3	R1541T
191.479	2.25	196419	PROB	2.25	n/a	n/a	n/a	-999	1	[1, 2, 5]	8	catFR1	3	R1541T
193.729	0.0	198669	STOP	n/a	n/a	n/a	n/a	-999	1	[-999, -999, -999]	n/a	catFR1	3	R1541T
193.729	1.733	198672	DISTRACT_END	n/a	n/a	n/a	n/a	-999	1	[0, 0, 0]	n/a	catFR1	3	R1541T
195.462	1.556	200402	REC_START	n/a	n/a	n/a	n/a	-999	1	[0, 0, 0]	n/a	catFR1	3	R1541T
197.018	0.867	201958	REC_WORD	0.867	n/a	DRESS	Clothing	5	1	[0, 0, 0]	n/a	catFR1	3	R1541T
197.885	1.078	202825	REC_WORD	1.078	n/a	SHIRT	Clothing	12	1	[0, 0, 0]	n/a	catFR1	3	R1541T
198.963	1.225	203903	REC_WORD	1.225	n/a	SHOES	Clothing	6	1	[0, 0, 0]	n/a	catFR1	3	R1541T
200.188	1.131	205128	REC_WORD	1.131	n/a	PETUNIA	Flowers	3	1	[0, 0, 0]	n/a	catFR1	3	R1541T
201.319	4.818	206259	REC_WORD	4.818	n/a	LILAC	Flowers	4	1	[0, 0, 0]	n/a	catFR1	3	R1541T
206.137	16.781	211077	REC_WORD	16.781	n/a	ROSE	Flowers	9	1	[0, 0, 0]	n/a	catFR1	3	R1541T
222.918	0.933	227857	REC_WORD	0.933	n/a	SCOOTER	Vehicles	1	1	[0, 0, 0]	n/a	catFR1	3	R1541T
223.851	1.805	228790	REC_WORD	1.805	n/a	MOPED	Vehicles	2	1	[0, 0, 0]	n/a	catFR1	3	R1541T
225.656	1.505	230598	REC_END	n/a	n/a	n/a	n/a	-999	1	[0, 0, 0]	n/a	catFR1	3	R1541T
227.161	10.349	232109	COUNTDOWN_START	n/a	n/a	n/a	n/a	-999	2	[0, 0, 0]	n/a	catFR1	3	R1541T
237.51	0.0	242448	COUNTDOWN_END	n/a	n/a	n/a	n/a	-999	2	[0, 0, 0]	n/a	catFR1	3	R1541T
237.51	2.051	242457	ENCODING_START	n/a	n/a	n/a	n/a	-999	2	[0, 0, 0]	n/a	catFR1	3	R1541T
239.561	1.617	244505	WORD	n/a	wordpools/wordpool_categorized_EN.txt	SAW	Tools	1	2	[0, 0, 0]	n/a	catFR1	3	R1541T
241.178	0.815	246115	WORD_OFF	n/a	n/a	SAW	Tools	1	2	[0, 0, 0]	n/a	catFR1	3	R1541T
241.993	1.6	246935	WORD	n/a	wordpools/wordpool_categorized_EN.txt	DRILL	Tools	2	2	[0, 0, 0]	n/a	catFR1	3	R1541T
243.593	0.85	248536	WORD_OFF	n/a	n/a	DRILL	Tools	2	2	[0, 0, 0]	n/a	catFR1	3	R1541T
244.443	1.601	249383	WORD	n/a	wordpools/wordpool_categorized_EN.txt	SOCKS	Clothing	3	2	[0, 0, 0]	n/a	catFR1	3	R1541T
246.044	0.967	250984	WORD_OFF	n/a	n/a	SOCKS	Clothing	3	2	[0, 0, 0]	n/a	catFR1	3	R1541T
247.011	1.616	251949	WORD	n/a	wordpools/wordpool_categorized_EN.txt	JEANS	Clothing	4	2	[0, 0, 0]	n/a	catFR1	3	R1541T
248.627	0.95	253569	WORD_OFF	n/a	n/a	JEANS	Clothing	4	2	[0, 0, 0]	n/a	catFR1	3	R1541T
249.577	1.6	254516	WORD	n/a	wordpools/wordpool_categorized_EN.txt	HALLWAY	Building	5	2	[0, 0, 0]	n/a	catFR1	3	R1541T
251.177	0.884	256117	WORD_OFF	n/a	n/a	HALLWAY	Building	5	2	[0, 0, 0]	n/a	catFR1	3	R1541T
252.061	1.6	257000	WORD	n/a	wordpools/wordpool_categorized_EN.txt	CEILING	Building	6	2	[0, 0, 0]	n/a	catFR1	3	R1541T
253.661	0.966	258602	WORD_OFF	n/a	n/a	CEILING	Building	6	2	[0, 0, 0]	n/a	catFR1	3	R1541T
254.627	1.617	259567	WORD	n/a	wordpools/wordpool_categorized_EN.txt	SHOVEL	Tools	7	2	[0, 0, 0]	n/a	catFR1	3	R1541T
256.244	0.783	261187	WORD_OFF	n/a	n/a	SHOVEL	Tools	7	2	[0, 0, 0]	n/a	catFR1	3	R1541T
257.027	1.6	261969	WORD	n/a	wordpools/wordpool_categorized_EN.txt	AXE	Tools	8	2	[0, 0, 0]	n/a	catFR1	3	R1541T
258.627	0.867	263571	WORD_OFF	n/a	n/a	AXE	Tools	8	2	[0, 0, 0]	n/a	catFR1	3	R1541T
259.494	1.616	264436	WORD	n/a	wordpools/wordpool_categorized_EN.txt	STAIRS	Building	9	2	[0, 0, 0]	n/a	catFR1	3	R1541T
261.11	0.984	266046	WORD_OFF	n/a	n/a	STAIRS	Building	9	2	[0, 0, 0]	n/a	catFR1	3	R1541T
262.094	1.616	267038	WORD	n/a	wordpools/wordpool_categorized_EN.txt	ROOM	Building	10	2	[0, 0, 0]	n/a	catFR1	3	R1541T
263.71	0.934	268649	WORD_OFF	n/a	n/a	ROOM	Building	10	2	[0, 0, 0]	n/a	catFR1	3	R1541T
264.644	1.616	269587	WORD	n/a	wordpools/wordpool_categorized_EN.txt	UNDERWEAR	Clothing	11	2	[0, 0, 0]	n/a	catFR1	3	R1541T
266.26	0.967	271198	WORD_OFF	n/a	n/a	UNDERWEAR	Clothing	11	2	[0, 0, 0]	n/a	catFR1	3	R1541T
267.227	1.617	272171	WORD	n/a	wordpools/wordpool_categorized_EN.txt	BLOUSE	Clothing	12	2	[0, 0, 0]	n/a	catFR1	3	R1541T
268.844	0.001	273782	WORD_OFF	n/a	n/a	BLOUSE	Clothing	12	2	[0, 0, 0]	n/a	catFR1	3	R1541T
268.845	0.0	273782	ENCODING_END	n/a	n/a	n/a	n/a	-999	2	[0, 0, 0]	n/a	catFR1	3	R1541T
268.844	0.001	273782	PROB	0.001	n/a	n/a	n/a	-999	2	[7, 6, 6]	19	catFR1	3	R1541T
268.845	0.0	273783	START	n/a	n/a	n/a	n/a	-999	2	[-999, -999, -999]	n/a	catFR1	3	R1541T
268.845	3.566	273791	DISTRACT_START	n/a	n/a	n/a	n/a	-999	2	[0, 0, 0]	n/a	catFR1	3	R1541T
272.411	2.35	277349	PROB	2.35	n/a	n/a	n/a	-999	2	[6, 6, 5]	17	catFR1	3	R1541T
274.761	1.833	279699	PROB	1.833	n/a	n/a	n/a	-999	2	[7, 3, 1]	11	catFR1	3	R1541T
276.594	2.233	281532	PROB	2.233	n/a	n/a	n/a	-999	2	[2, 5, 5]	12	catFR1	3	R1541T
278.827	2.233	283765	PROB	2.233	n/a	n/a	n/a	-999	2	[8, 1, 2]	11	catFR1	3	R1541T
281.06	2.284	285997	PROB	2.284	n/a	n/a	n/a	-999	2	[7, 4, 2]	13	catFR1	3	R1541T
283.344	2.184	288281	PROB	2.184	n/a	n/a	n/a	-999	2	[8, 1, 1]	10	catFR1	3	R1541T
285.528	2.432	290465	PROB	2.432	n/a	n/a	n/a	-999	2	[8, 4, 3]	15	catFR1	3	R1541T
287.96	3.15	292897	PROB	3.15	n/a	n/a	n/a	-999	2	[5, 4, 7]	16	catFR1	3	R1541T
291.11	0.0	296047	STOP	n/a	n/a	n/a	n/a	-999	2	[-999, -999, -999]	n/a	catFR1	3	R1541T
291.11	1.832	296052	DISTRACT_END	n/a	n/a	n/a	n/a	-999	2	[0, 0, 0]	n/a	catFR1	3	R1541T
292.942	1.982	297881	REC_START	n/a	n/a	n/a	n/a	-999	2	[0, 0, 0]	n/a	catFR1	3	R1541T
294.924	2.33	299861	REC_WORD	2.33	n/a	HAMMER	n/a	-999	2	[0, 0, 0]	n/a	catFR1	3	R1541T
297.254	0.686	302191	REC_WORD	0.686	n/a	DRILL	Tools	2	2	[0, 0, 0]	n/a	catFR1	3	R1541T
297.94	1.211	302877	REC_WORD	1.211	n/a	SAW	Tools	1	2	[0, 0, 0]	n/a	catFR1	3	R1541T
299.151	4.101	304088	REC_WORD	4.101	n/a	SHOVEL	Tools	7	2	[0, 0, 0]	n/a	catFR1	3	R1541T
303.252	0.995	308189	REC_WORD	0.995	n/a	STAIRS	Building	9	2	[0, 0, 0]	n/a	catFR1	3	R1541T
304.247	0.856	309184	REC_WORD	0.856	n/a	HALLWAY	Building	5	2	[0, 0, 0]	n/a	catFR1	3	R1541T
305.103	18.065	310040	REC_WORD	18.065	n/a	CEILING	Building	6	2	[0, 0, 0]	n/a	catFR1	3	R1541T
323.168	42.457	328106	REC_END	n/a	n/a	n/a	n/a	-999	2	[0, 0, 0]	n/a	catFR1	3	R1541T
365.625	10.349	370561	COUNTDOWN_START	n/a	n/a	n/a	n/a	-999	3	[0, 0, 0]	n/a	catFR1	3	R1541T
375.974	0.0	380909	COUNTDOWN_END	n/a	n/a	n/a	n/a	-999	3	[0, 0, 0]	n/a	catFR1	3	R1541T
375.974	2.234	380909	ENCODING_START	n/a	n/a	n/a	n/a	-999	3	[0, 0, 0]	n/a	catFR1	3	R1541T
378.208	1.617	383148	WORD	n/a	wordpools/wordpool_categorized_EN.txt	CREEK	Landscapes	1	3	[0, 0, 0]	n/a	catFR1	3	R1541T
379.825	0.899	384759	WORD_OFF	n/a	n/a	CREEK	Landscapes	1	3	[0, 0, 0]	n/a	catFR1	3	R1541T
380.724	1.617	385660	WORD	n/a	wordpools/wordpool_categorized_EN.txt	LAKE	Landscapes	2	3	[0, 0, 0]	n/a	catFR1	3	R1541T
382.341	0.932	387280	WORD_OFF	n/a	n/a	LAKE	Landscapes	2	3	[0, 0, 0]	n/a	catFR1	3	R1541T
383.273	1.601	388208	WORD	n/a	wordpools/wordpool_categorized_EN.txt	MIXER	Appliances	3	3	[0, 0, 0]	n/a	catFR1	3	R1541T
384.874	0.782	389810	WORD_OFF	n/a	n/a	MIXER	Appliances	3	3	[0, 0, 0]	n/a	catFR1	3	R1541T
385.656	1.602	390592	WORD	n/a	wordpools/wordpool_categorized_EN.txt	TOASTER	Appliances	4	3	[0, 0, 0]	n/a	catFR1	3	R1541T
387.258	0.766	392194	WORD_OFF	n/a	n/a	TOASTER	Appliances	4	3	[0, 0, 0]	n/a	catFR1	3	R1541T
388.024	1.617	392959	WORD	n/a	wordpools/wordpool_categorized_EN.txt	DOLPHIN	OceanAnimals	5	3	[0, 0, 0]	n/a	catFR1	3	R1541T
389.641	0.964	394579	WORD_OFF	n/a	n/a	DOLPHIN	OceanAnimals	5	3	[0, 0, 0]	n/a	catFR1	3	R1541T
390.605	1.602	395543	WORD	n/a	wordpools/wordpool_categorized_EN.txt	FISH	OceanAnimals	6	3	[0, 0, 0]	n/a	catFR1	3	R1541T
392.207	1.0	397145	WORD_OFF	n/a	n/a	FISH	OceanAnimals	6	3	[0, 0, 0]	n/a	catFR1	3	R1541T
393.207	1.617	398146	WORD	n/a	wordpools/wordpool_categorized_EN.txt	WOODS	Landscapes	7	3	[0, 0, 0]	n/a	catFR1	3	R1541T
394.824	0.917	399757	WORD_OFF	n/a	n/a	WOODS	Landscapes	7	3	[0, 0, 0]	n/a	catFR1	3	R1541T
395.741	1.616	400676	WORD	n/a	wordpools/wordpool_categorized_EN.txt	MOUNTAIN	Landscapes	8	3	[0, 0, 0]	n/a	catFR1	3	R1541T
397.357	0.85	402296	WORD_OFF	n/a	n/a	MOUNTAIN	Landscapes	8	3	[0, 0, 0]	n/a	catFR1	3	R1541T
398.207	1.616	403143	WORD	n/a	wordpools/wordpool_categorized_EN.txt	PLANKTON	OceanAnimals	9	3	[0, 0, 0]	n/a	catFR1	3	R1541T
399.823	0.917	404763	WORD_OFF	n/a	n/a	PLANKTON	OceanAnimals	9	3	[0, 0, 0]	n/a	catFR1	3	R1541T
400.74	1.616	405673	WORD	n/a	wordpools/wordpool_categorized_EN.txt	OYSTER	OceanAnimals	10	3	[0, 0, 0]	n/a	catFR1	3	R1541T
402.356	0.884	407293	WORD_OFF	n/a	n/a	OYSTER	OceanAnimals	10	3	[0, 0, 0]	n/a	catFR1	3	R1541T
403.24	1.617	408175	WORD	n/a	wordpools/wordpool_categorized_EN.txt	FREEZER	Appliances	11	3	[0, 0, 0]	n/a	catFR1	3	R1541T
404.857	0.783	409795	WORD_OFF	n/a	n/a	FREEZER	Appliances	11	3	[0, 0, 0]	n/a	catFR1	3	R1541T
405.64	1.616	410578	WORD	n/a	wordpools/wordpool_categorized_EN.txt	VACUUM	Appliances	12	3	[0, 0, 0]	n/a	catFR1	3	R1541T
407.256	0.0	412189	WORD_OFF	n/a	n/a	VACUUM	Appliances	12	3	[0, 0, 0]	n/a	catFR1	3	R1541T
407.256	0.001	412190	PROB	0.001	n/a	n/a	n/a	-999	3	[4, 2, 3]	9	catFR1	3	R1541T
407.257	0.0	412191	START	n/a	n/a	n/a	n/a	-999	3	[-999, -999, -999]	n/a	catFR1	3	R1541T
407.257	0.0	412198	ENCODING_END	n/a	n/a	n/a	n/a	-999	3	[0, 0, 0]	n/a	catFR1	3	R1541T
407.257	3.317	412198	DISTRACT_START	n/a	n/a	n/a	n/a	-999	3	[0, 0, 0]	n/a	catFR1	3	R1541T
410.574	3.35	415508	PROB	3.35	n/a	n/a	n/a	-999	3	[2, 7, 3]	12	catFR1	3	R1541T
413.924	2.201	418858	PROB	2.201	n/a	n/a	n/a	-999	3	[4, 6, 4]	14	catFR1	3	R1541T
416.125	2.164	421059	PROB	2.164	n/a	n/a	n/a	-999	3	[6, 6, 8]	20	catFR1	3	R1541T
418.289	1.901	423223	PROB	1.901	n/a	n/a	n/a	-999	3	[7, 1, 3]	11	catFR1	3	R1541T
420.19	2.45	425124	PROB	2.45	n/a	n/a	n/a	-999	3	[6, 5, 4]	15	catFR1	3	R1541T
422.64	2.317	427574	PROB	2.317	n/a	n/a	n/a	-999	3	[6, 7, 8]	21	catFR1	3	R1541T
424.957	2.133	429891	PROB	2.133	n/a	n/a	n/a	-999	3	[3, 4, 2]	9	catFR1	3	R1541T
427.09	2.7	432024	PROB	2.7	n/a	n/a	n/a	-999	3	[6, 5, 5]	16	catFR1	3	R1541T
429.79	0.0	434723	DISTRACT_END	n/a	n/a	n/a	n/a	-999	3	[0, 0, 0]	n/a	catFR1	3	R1541T
429.79	1.867	434723	STOP	n/a	n/a	n/a	n/a	-999	3	[-999, -999, -999]	n/a	catFR1	3	R1541T
431.657	1.786	436588	REC_START	n/a	n/a	n/a	n/a	-999	3	[0, 0, 0]	n/a	catFR1	3	R1541T
433.443	1.095	438376	REC_WORD	1.095	n/a	CREEK	Landscapes	1	3	[0, 0, 0]	n/a	catFR1	3	R1541T
434.538	1.444	439471	REC_WORD	1.444	n/a	MIXER	Appliances	3	3	[0, 0, 0]	n/a	catFR1	3	R1541T
435.982	6.715	440915	REC_WORD	6.715	n/a	TOASTER	Appliances	4	3	[0, 0, 0]	n/a	catFR1	3	R1541T
442.697	1.135	447630	REC_WORD	1.135	n/a	RIVER	n/a	-999	3	[0, 0, 0]	n/a	catFR1	3	R1541T
443.832	2.468	448765	REC_WORD	2.468	n/a	FISH	OceanAnimals	6	3	[0, 0, 0]	n/a	catFR1	3	R1541T
446.3	15.585	451233	REC_WORD	15.585	n/a	PLANKTON	OceanAnimals	9	3	[0, 0, 0]	n/a	catFR1	3	R1541T
461.885	1.42	466822	REC_END	n/a	n/a	n/a	n/a	-999	3	[0, 0, 0]	n/a	catFR1	3	R1541T
463.305	10.351	468241	COUNTDOWN_START	n/a	n/a	n/a	n/a	-999	4	[0, 0, 0]	n/a	catFR1	3	R1541T
473.656	0.0	478589	COUNTDOWN_END	n/a	n/a	n/a	n/a	-999	4	[0, 0, 0]	n/a	catFR1	3	R1541T
473.656	1.966	478589	ENCODING_START	n/a	n/a	n/a	n/a	-999	4	[0, 0, 0]	n/a	catFR1	3	R1541T
475.622	1.6	480555	WORD	n/a	wordpools/wordpool_categorized_EN.txt	CRAB	OceanAnimals	1	4	[0, 0, 0]	n/a	catFR1	3	R1541T
477.222	0.849	482157	WORD_OFF	n/a	n/a	CRAB	OceanAnimals	1	4	[0, 0, 0]	n/a	catFR1	3	R1541T
478.071	1.615	483003	WORD	n/a	wordpools/wordpool_categorized_EN.txt	LOBSTER	OceanAnimals	2	4	[0, 0, 0]	n/a	catFR1	3	R1541T
479.686	0.903	484623	WORD_OFF	n/a	n/a	LOBSTER	OceanAnimals	2	4	[0, 0, 0]	n/a	catFR1	3	R1541T
480.589	1.616	485524	WORD	n/a	wordpools/wordpool_categorized_EN.txt	STRAWBERRY	Fruit	3	4	[0, 0, 0]	n/a	catFR1	3	R1541T
482.205	0.834	487144	WORD_OFF	n/a	n/a	STRAWBERRY	Fruit	3	4	[0, 0, 0]	n/a	catFR1	3	R1541T
483.039	1.616	487972	WORD	n/a	wordpools/wordpool_categorized_EN.txt	BLUEBERRY	Fruit	4	4	[0, 0, 0]	n/a	catFR1	3	R1541T
484.655	0.849	489592	WORD_OFF	n/a	n/a	BLUEBERRY	Fruit	4	4	[0, 0, 0]	n/a	catFR1	3	R1541T
485.504	1.601	490439	WORD	n/a	wordpools/wordpool_categorized_EN.txt	MOUSSE	Desserts	5	4	[0, 0, 0]	n/a	catFR1	3	R1541T
487.105	0.85	492040	WORD_OFF	n/a	n/a	MOUSSE	Desserts	5	4	[0, 0, 0]	n/a	catFR1	3	R1541T
487.955	1.617	492887	WORD	n/a	wordpools/wordpool_categorized_EN.txt	COOKIE	Desserts	6	4	[0, 0, 0]	n/a	catFR1	3	R1541T
489.572	0.95	494507	WORD_OFF	n/a	n/a	COOKIE	Desserts	6	4	[0, 0, 0]	n/a	catFR1	3	R1541T
490.522	1.616	495453	WORD	n/a	wordpools/wordpool_categorized_EN.txt	JELLYFISH	OceanAnimals	7	4	[0, 0, 0]	n/a	catFR1	3	R1541T
492.138	0.95	497073	WORD_OFF	n/a	n/a	JELLYFISH	OceanAnimals	7	4	[0, 0, 0]	n/a	catFR1	3	R1541T
493.088	1.616	498029	WORD	n/a	wordpools/wordpool_categorized_EN.txt	OCTOPUS	OceanAnimals	8	4	[0, 0, 0]	n/a	catFR1	3	R1541T
494.704	0.917	499640	WORD_OFF	n/a	n/a	OCTOPUS	OceanAnimals	8	4	[0, 0, 0]	n/a	catFR1	3	R1541T
495.621	1.6	500550	WORD	n/a	wordpools/wordpool_categorized_EN.txt	GRAPE	Fruit	9	4	[0, 0, 0]	n/a	catFR1	3	R1541T
497.221	0.9	502151	WORD_OFF	n/a	n/a	GRAPE	Fruit	9	4	[0, 0, 0]	n/a	catFR1	3	R1541T
498.121	1.6	503052	WORD	n/a	wordpools/wordpool_categorized_EN.txt	PEAR	Fruit	10	4	[0, 0, 0]	n/a	catFR1	3	R1541T
499.721	0.8	504654	WORD_OFF	n/a	n/a	PEAR	Fruit	10	4	[0, 0, 0]	n/a	catFR1	3	R1541T
500.521	1.617	505455	WORD	n/a	wordpools/wordpool_categorized_EN.txt	PIE	Desserts	11	4	[0, 0, 0]	n/a	catFR1	3	R1541T
502.138	0.8	507075	WORD_OFF	n/a	n/a	PIE	Desserts	11	4	[0, 0, 0]	n/a	catFR1	3	R1541T
502.938	1.617	507876	WORD	n/a	wordpools/wordpool_categorized_EN.txt	BROWNIES	Desserts	12	4	[0, 0, 0]	n/a	catFR1	3	R1541T
504.555	0.0	509486	PROB	0.0	n/a	n/a	n/a	-999	4	[8, 1, 4]	13	catFR1	3	R1541T
504.555	0.002	509487	WORD_OFF	n/a	n/a	BROWNIES	Desserts	12	4	[0, 0, 0]	n/a	catFR1	3	R1541T
504.557	0.0	509488	START	n/a	n/a	n/a	n/a	-999	4	[-999, -999, -999]	n/a	catFR1	3	R1541T
504.557	0.0	509496	ENCODING_END	n/a	n/a	n/a	n/a	-999	4	[0, 0, 0]	n/a	catFR1	3	R1541T
504.557	3.682	509496	DISTRACT_START	n/a	n/a	n/a	n/a	-999	4	[0, 0, 0]	n/a	catFR1	3	R1541T
508.239	3.716	513170	PROB	3.716	n/a	n/a	n/a	-999	4	[3, 8, 3]	14	catFR1	3	R1541T
511.955	2.133	516886	PROB	2.133	n/a	n/a	n/a	-999	4	[7, 5, 5]	17	catFR1	3	R1541T
514.088	1.882	519019	PROB	1.882	n/a	n/a	n/a	-999	4	[2, 6, 5]	13	catFR1	3	R1541T
515.97	2.151	520901	PROB	2.151	n/a	n/a	n/a	-999	4	[7, 7, 8]	22	catFR1	3	R1541T
518.121	2.651	523052	PROB	2.651	n/a	n/a	n/a	-999	4	[6, 6, 6]	18	catFR1	3	R1541T
520.772	2.683	525703	PROB	2.683	n/a	n/a	n/a	-999	4	[1, 7, 2]	10	catFR1	3	R1541T
523.455	2.183	528386	PROB	2.183	n/a	n/a	n/a	-999	4	[5, 8, 2]	14	catFR1	3	R1541T
525.638	0.0	530569	STOP	n/a	n/a	n/a	n/a	-999	4	[-999, -999, -999]	n/a	catFR1	3	R1541T
525.638	1.75	530574	DISTRACT_END	n/a	n/a	n/a	n/a	-999	4	[0, 0, 0]	n/a	catFR1	3	R1541T
527.388	0.763	532321	REC_START	n/a	n/a	n/a	n/a	-999	4	[0, 0, 0]	n/a	catFR1	3	R1541T
528.151	1.025	533082	REC_WORD	1.025	n/a	CRAB	OceanAnimals	1	4	[0, 0, 0]	n/a	catFR1	3	R1541T
529.176	1.033	534107	REC_WORD	1.033	n/a	LOBSTER	OceanAnimals	2	4	[0, 0, 0]	n/a	catFR1	3	R1541T
530.209	1.061	535140	REC_WORD	1.061	n/a	COOKIE	Desserts	6	4	[0, 0, 0]	n/a	catFR1	3	R1541T
531.27	2.897	536201	REC_WORD	2.897	n/a	MOUSSE	Desserts	5	4	[0, 0, 0]	n/a	catFR1	3	R1541T
534.167	23.449	539098	REC_WORD	23.449	n/a	CAKE	n/a	-999	4	[0, 0, 0]	n/a	catFR1	3	R1541T
557.616	1.821	562545	REC_END	n/a	n/a	n/a	n/a	-999	4	[0, 0, 0]	n/a	catFR1	3	R1541T
559.437	10.349	564374	COUNTDOWN_START	n/a	n/a	n/a	n/a	-999	5	[0, 0, 0]	n/a	catFR1	3	R1541T
569.786	0.0	574722	COUNTDOWN_END	n/a	n/a	n/a	n/a	-999	5	[0, 0, 0]	n/a	catFR1	3	R1541T
569.786	2.117	574722	ENCODING_START	n/a	n/a	n/a	n/a	-999	5	[0, 0, 0]	n/a	catFR1	3	R1541T
571.903	1.617	576834	WORD	n/a	wordpools/wordpool_categorized_EN.txt	WALL	Building	1	5	[0, 0, 0]	n/a	catFR1	3	R1541T
573.52	0.866	578453	WORD_OFF	n/a	n/a	WALL	Building	1	5	[0, 0, 0]	n/a	catFR1	3	R1541T
574.386	1.6	579318	WORD	n/a	wordpools/wordpool_categorized_EN.txt	FLOOR	Building	2	5	[0, 0, 0]	n/a	catFR1	3	R1541T
575.986	0.8	580920	WORD_OFF	n/a	n/a	FLOOR	Building	2	5	[0, 0, 0]	n/a	catFR1	3	R1541T
576.786	1.616	581721	WORD	n/a	wordpools/wordpool_categorized_EN.txt	SCANNER	Electronics	3	5	[0, 0, 0]	n/a	catFR1	3	R1541T
578.402	0.983	583332	WORD_OFF	n/a	n/a	SCANNER	Electronics	3	5	[0, 0, 0]	n/a	catFR1	3	R1541T
579.385	1.6	584314	WORD	n/a	wordpools/wordpool_categorized_EN.txt	HEADPHONES	Electronics	4	5	[0, 0, 0]	n/a	catFR1	3	R1541T
580.985	0.801	585916	WORD_OFF	n/a	n/a	HEADPHONES	Electronics	4	5	[0, 0, 0]	n/a	catFR1	3	R1541T
581.786	1.616	586717	WORD	n/a	wordpools/wordpool_categorized_EN.txt	CIDER	Beverages	5	5	[0, 0, 0]	n/a	catFR1	3	R1541T
583.402	0.817	588337	WORD_OFF	n/a	n/a	CIDER	Beverages	5	5	[0, 0, 0]	n/a	catFR1	3	R1541T
584.219	1.616	589147	WORD	n/a	wordpools/wordpool_categorized_EN.txt	MILK	Beverages	6	5	[0, 0, 0]	n/a	catFR1	3	R1541T
585.835	0.767	590767	WORD_OFF	n/a	n/a	MILK	Beverages	6	5	[0, 0, 0]	n/a	catFR1	3	R1541T
586.602	1.6	591532	WORD	n/a	wordpools/wordpool_categorized_EN.txt	DOOR	Building	7	5	[0, 0, 0]	n/a	catFR1	3	R1541T
588.202	0.766	593133	WORD_OFF	n/a	n/a	DOOR	Building	7	5	[0, 0, 0]	n/a	catFR1	3	R1541T
588.968	1.617	593898	WORD	n/a	wordpools/wordpool_categorized_EN.txt	ROOF	Building	8	5	[0, 0, 0]	n/a	catFR1	3	R1541T
590.585	0.784	595518	WORD_OFF	n/a	n/a	ROOF	Building	8	5	[0, 0, 0]	n/a	catFR1	3	R1541T
591.369	1.617	596300	WORD	n/a	wordpools/wordpool_categorized_EN.txt	JUICE	Beverages	9	5	[0, 0, 0]	n/a	catFR1	3	R1541T
592.986	1.0	597920	WORD_OFF	n/a	n/a	JUICE	Beverages	9	5	[0, 0, 0]	n/a	catFR1	3	R1541T
593.986	1.6	598921	WORD	n/a	wordpools/wordpool_categorized_EN.txt	COLA	Beverages	10	5	[0, 0, 0]	n/a	catFR1	3	R1541T
595.586	0.9	600514	WORD_OFF	n/a	n/a	COLA	Beverages	10	5	[0, 0, 0]	n/a	catFR1	3	R1541T
596.486	1.6	601415	WORD	n/a	wordpools/wordpool_categorized_EN.txt	PHONE	Electronics	11	5	[0, 0, 0]	n/a	catFR1	3	R1541T
598.086	0.9	603017	WORD_OFF	n/a	n/a	PHONE	Electronics	11	5	[0, 0, 0]	n/a	catFR1	3	R1541T
598.986	1.616	603918	WORD	n/a	wordpools/wordpool_categorized_EN.txt	PRINTER	Electronics	12	5	[0, 0, 0]	n/a	catFR1	3	R1541T
600.602	0.002	605531	PROB	0.002	n/a	n/a	n/a	-999	5	[7, 5, 7]	19	catFR1	3	R1541T
600.604	0.0	605533	START	n/a	n/a	n/a	n/a	-999	5	[-999, -999, -999]	n/a	catFR1	3	R1541T
600.602	0.002	605538	WORD_OFF	n/a	n/a	PRINTER	Electronics	12	5	[0, 0, 0]	n/a	catFR1	3	R1541T
600.604	0.0	605538	ENCODING_END	n/a	n/a	n/a	n/a	-999	5	[0, 0, 0]	n/a	catFR1	3	R1541T
600.604	2.999	605547	DISTRACT_START	n/a	n/a	n/a	n/a	-999	5	[0, 0, 0]	n/a	catFR1	3	R1541T
603.603	2.649	608532	PROB	2.649	n/a	n/a	n/a	-999	5	[1, 2, 7]	10	catFR1	3	R1541T
606.252	2.65	611181	PROB	2.65	n/a	n/a	n/a	-999	5	[1, 8, 1]	10	catFR1	3	R1541T
608.902	2.366	613831	PROB	2.366	n/a	n/a	n/a	-999	5	[7, 5, 4]	16	catFR1	3	R1541T
611.268	2.534	616197	PROB	2.534	n/a	n/a	n/a	-999	5	[1, 3, 3]	7	catFR1	3	R1541T
613.802	4.266	618730	PROB	4.266	n/a	n/a	n/a	-999	5	[1, 7, 6]	14	catFR1	3	R1541T
618.068	2.284	622996	PROB	2.284	n/a	n/a	n/a	-999	5	[6, 3, 1]	10	catFR1	3	R1541T
620.352	2.732	625280	PROB	2.732	n/a	n/a	n/a	-999	5	[1, 7, 8]	16	catFR1	3	R1541T
623.084	0.0	628012	STOP	n/a	n/a	n/a	n/a	-999	5	[-999, -999, -999]	n/a	catFR1	3	R1541T
623.084	1.884	628017	DISTRACT_END	n/a	n/a	n/a	n/a	-999	5	[0, 0, 0]	n/a	catFR1	3	R1541T
624.968	0.713	629901	REC_START	n/a	n/a	n/a	n/a	-999	5	[0, 0, 0]	n/a	catFR1	3	R1541T
625.681	1.0	630609	REC_WORD	1.0	n/a	HEADPHONES	Electronics	4	5	[0, 0, 0]	n/a	catFR1	3	R1541T
626.681	0.65	631609	REC_WORD_VV	0.65	n/a	<>	n/a	-999	5	[0, 0, 0]	n/a	catFR1	3	R1541T
627.331	1.008	632259	REC_WORD	1.008	n/a	SCANNER	Electronics	3	5	[0, 0, 0]	n/a	catFR1	3	R1541T
628.339	1.923	633267	REC_WORD	1.923	n/a	PRINTER	Electronics	12	5	[0, 0, 0]	n/a	catFR1	3	R1541T
630.262	3.207	635190	REC_WORD	3.207	n/a	CIDER	Beverages	5	5	[0, 0, 0]	n/a	catFR1	3	R1541T
633.469	1.35	638397	REC_WORD	1.35	n/a	COLA	Beverages	10	5	[0, 0, 0]	n/a	catFR1	3	R1541T
634.819	5.737	639747	REC_WORD	5.737	n/a	WATER	n/a	-999	5	[0, 0, 0]	n/a	catFR1	3	R1541T
640.556	0.948	645484	REC_WORD	0.948	n/a	FLOOR	Building	2	5	[0, 0, 0]	n/a	catFR1	3	R1541T
641.504	1.57	646432	REC_WORD	1.57	n/a	WALL	Building	1	5	[0, 0, 0]	n/a	catFR1	3	R1541T
643.074	4.998	648002	REC_WORD	4.998	n/a	CEILING	Building	-999	5	[0, 0, 0]	n/a	catFR1	3	R1541T
648.072	7.127	653000	REC_WORD	7.127	n/a	STAIRS	Building	-999	5	[0, 0, 0]	n/a	catFR1	3	R1541T
655.199	1.418	660125	REC_END	n/a	n/a	n/a	n/a	-999	5	[0, 0, 0]	n/a	catFR1	3	R1541T
656.617	10.351	661545	COUNTDOWN_START	n/a	n/a	n/a	n/a	-999	6	[0, 0, 0]	n/a	catFR1	3	R1541T
666.968	0.0	671893	COUNTDOWN_END	n/a	n/a	n/a	n/a	-999	6	[0, 0, 0]	n/a	catFR1	3	R1541T
666.968	1.983	671902	ENCODING_START	n/a	n/a	n/a	n/a	-999	6	[0, 0, 0]	n/a	catFR1	3	R1541T
668.951	1.6	673877	WORD	n/a	wordpools/wordpool_categorized_EN.txt	KNIFE	KitchenTools	1	6	[0, 0, 0]	n/a	catFR1	3	R1541T
670.551	0.782	675478	WORD_OFF	n/a	n/a	KNIFE	KitchenTools	1	6	[0, 0, 0]	n/a	catFR1	3	R1541T
671.333	1.601	676261	WORD	n/a	wordpools/wordpool_categorized_EN.txt	COLANDER	KitchenTools	2	6	[0, 0, 0]	n/a	catFR1	3	R1541T
672.934	0.783	677863	WORD_OFF	n/a	n/a	COLANDER	KitchenTools	2	6	[0, 0, 0]	n/a	catFR1	3	R1541T
673.717	1.6	678645	WORD	n/a	wordpools/wordpool_categorized_EN.txt	CHEESECAKE	Desserts	3	6	[0, 0, 0]	n/a	catFR1	3	R1541T
675.317	0.766	680247	WORD_OFF	n/a	n/a	CHEESECAKE	Desserts	3	6	[0, 0, 0]	n/a	catFR1	3	R1541T
676.083	1.6	681012	WORD	n/a	wordpools/wordpool_categorized_EN.txt	FUDGE	Desserts	4	6	[0, 0, 0]	n/a	catFR1	3	R1541T
677.683	0.883	682613	WORD_OFF	n/a	n/a	FUDGE	Desserts	4	6	[0, 0, 0]	n/a	catFR1	3	R1541T
678.566	1.617	683496	WORD	n/a	wordpools/wordpool_categorized_EN.txt	SPRUCE	Trees	5	6	[0, 0, 0]	n/a	catFR1	3	R1541T
680.183	0.983	685116	WORD_OFF	n/a	n/a	SPRUCE	Trees	5	6	[0, 0, 0]	n/a	catFR1	3	R1541T
681.166	1.601	686099	WORD	n/a	wordpools/wordpool_categorized_EN.txt	WILLOW	Trees	6	6	[0, 0, 0]	n/a	catFR1	3	R1541T
682.767	0.983	687692	WORD_OFF	n/a	n/a	WILLOW	Trees	6	6	[0, 0, 0]	n/a	catFR1	3	R1541T
683.75	1.6	688675	WORD	n/a	wordpools/wordpool_categorized_EN.txt	WHISK	KitchenTools	7	6	[0, 0, 0]	n/a	catFR1	3	R1541T
685.35	0.884	690276	WORD_OFF	n/a	n/a	WHISK	KitchenTools	7	6	[0, 0, 0]	n/a	catFR1	3	R1541T
686.234	1.6	691159	WORD	n/a	wordpools/wordpool_categorized_EN.txt	PEELER	KitchenTools	8	6	[0, 0, 0]	n/a	catFR1	3	R1541T
687.834	0.833	692761	WORD_OFF	n/a	n/a	PEELER	KitchenTools	8	6	[0, 0, 0]	n/a	catFR1	3	R1541T
688.667	1.617	693598	WORD	n/a	wordpools/wordpool_categorized_EN.txt	HICKORY	Trees	9	6	[0, 0, 0]	n/a	catFR1	3	R1541T
690.284	0.933	695209	WORD_OFF	n/a	n/a	HICKORY	Trees	9	6	[0, 0, 0]	n/a	catFR1	3	R1541T
691.217	1.617	696146	WORD	n/a	wordpools/wordpool_categorized_EN.txt	BIRCH	Trees	10	6	[0, 0, 0]	n/a	catFR1	3	R1541T
692.834	0.799	697766	WORD_OFF	n/a	n/a	BIRCH	Trees	10	6	[0, 0, 0]	n/a	catFR1	3	R1541T
693.633	1.616	698558	WORD	n/a	wordpools/wordpool_categorized_EN.txt	COBBLER	Desserts	11	6	[0, 0, 0]	n/a	catFR1	3	R1541T
695.249	0.95	700178	WORD_OFF	n/a	n/a	COBBLER	Desserts	11	6	[0, 0, 0]	n/a	catFR1	3	R1541T
696.199	1.601	701125	WORD	n/a	wordpools/wordpool_categorized_EN.txt	PASTRY	Desserts	12	6	[0, 0, 0]	n/a	catFR1	3	R1541T
697.8	0.001	702726	WORD_OFF	n/a	n/a	PASTRY	Desserts	12	6	[0, 0, 0]	n/a	catFR1	3	R1541T
697.801	0.003	702727	PROB	0.003	n/a	n/a	n/a	-999	6	[6, 8, 4]	18	catFR1	3	R1541T
697.804	0.0	702730	START	n/a	n/a	n/a	n/a	-999	6	[-999, -999, -999]	n/a	catFR1	3	R1541T
697.804	0.0	702736	ENCODING_END	n/a	n/a	n/a	n/a	-999	6	[0, 0, 0]	n/a	catFR1	3	R1541T
697.804	3.829	702736	DISTRACT_START	n/a	n/a	n/a	n/a	-999	6	[0, 0, 0]	n/a	catFR1	3	R1541T
701.633	2.017	706559	PROB	2.017	n/a	n/a	n/a	-999	6	[6, 4, 3]	13	catFR1	3	R1541T
703.65	2.434	708576	PROB	2.434	n/a	n/a	n/a	-999	6	[6, 3, 5]	14	catFR1	3	R1541T
706.084	2.133	711010	PROB	2.133	n/a	n/a	n/a	-999	6	[5, 7, 2]	14	catFR1	3	R1541T
708.217	2.567	713143	PROB	2.567	n/a	n/a	n/a	-999	6	[1, 6, 1]	8	catFR1	3	R1541T
710.784	2.317	715710	PROB	2.317	n/a	n/a	n/a	-999	6	[8, 2, 5]	15	catFR1	3	R1541T
713.101	2.616	718027	PROB	2.616	n/a	n/a	n/a	-999	6	[6, 8, 3]	17	catFR1	3	R1541T
715.717	2.166	720643	PROB	2.166	n/a	n/a	n/a	-999	6	[3, 6, 1]	10	catFR1	3	R1541T
717.883	0.0	722809	STOP	n/a	n/a	n/a	n/a	-999	6	[-999, -999, -999]	n/a	catFR1	3	R1541T
717.883	1.649	722812	DISTRACT_END	n/a	n/a	n/a	n/a	-999	6	[0, 0, 0]	n/a	catFR1	3	R1541T
719.532	0.904	724459	REC_START	n/a	n/a	n/a	n/a	-999	6	[0, 0, 0]	n/a	catFR1	3	R1541T
720.436	1.09	725362	REC_WORD	1.09	n/a	KNIFE	KitchenTools	1	6	[0, 0, 0]	n/a	catFR1	3	R1541T
721.526	1.082	726452	REC_WORD	1.082	n/a	PEELER	KitchenTools	8	6	[0, 0, 0]	n/a	catFR1	3	R1541T
722.608	3.097	727534	REC_WORD	3.097	n/a	FUDGE	Desserts	4	6	[0, 0, 0]	n/a	catFR1	3	R1541T
725.705	6.449	730630	REC_WORD	6.449	n/a	CHOCOLATE	n/a	-999	6	[0, 0, 0]	n/a	catFR1	3	R1541T
732.154	17.644	737079	REC_WORD	17.644	n/a	CHEESECAKE	Desserts	3	6	[0, 0, 0]	n/a	catFR1	3	R1541T
749.798	2.651	754729	REC_END	n/a	n/a	n/a	n/a	-999	6	[0, 0, 0]	n/a	catFR1	3	R1541T
752.449	10.349	757377	COUNTDOWN_START	n/a	n/a	n/a	n/a	-999	7	[0, 0, 0]	n/a	catFR1	3	R1541T
762.798	0.001	767725	COUNTDOWN_END	n/a	n/a	n/a	n/a	-999	7	[0, 0, 0]	n/a	catFR1	3	R1541T
762.799	2.149	767725	ENCODING_START	n/a	n/a	n/a	n/a	-999	7	[0, 0, 0]	n/a	catFR1	3	R1541T
764.948	1.6	769873	WORD	n/a	wordpools/wordpool_categorized_EN.txt	FOUNDATION	Building	1	7	[0, 0, 0]	n/a	catFR1	3	R1541T
766.548	0.85	771475	WORD_OFF	n/a	n/a	FOUNDATION	Building	1	7	[0, 0, 0]	n/a	catFR1	3	R1541T
767.398	1.616	772321	WORD	n/a	wordpools/wordpool_categorized_EN.txt	ATTIC	Building	2	7	[0, 0, 0]	n/a	catFR1	3	R1541T
769.014	0.784	773941	WORD_OFF	n/a	n/a	ATTIC	Building	2	7	[0, 0, 0]	n/a	catFR1	3	R1541T
769.798	1.616	774724	WORD	n/a	wordpools/wordpool_categorized_EN.txt	RECLINER	Furniture	3	7	[0, 0, 0]	n/a	catFR1	3	R1541T
771.414	0.8	776344	WORD_OFF	n/a	n/a	RECLINER	Furniture	3	7	[0, 0, 0]	n/a	catFR1	3	R1541T
772.214	1.601	777145	WORD	n/a	wordpools/wordpool_categorized_EN.txt	COUCH	Furniture	4	7	[0, 0, 0]	n/a	catFR1	3	R1541T
773.815	0.967	778737	WORD_OFF	n/a	n/a	COUCH	Furniture	4	7	[0, 0, 0]	n/a	catFR1	3	R1541T
774.782	1.616	779711	WORD	n/a	wordpools/wordpool_categorized_EN.txt	VELVET	Fabric	5	7	[0, 0, 0]	n/a	catFR1	3	R1541T
776.398	0.867	781322	WORD_OFF	n/a	n/a	VELVET	Fabric	5	7	[0, 0, 0]	n/a	catFR1	3	R1541T
777.265	1.617	782186	WORD	n/a	wordpools/wordpool_categorized_EN.txt	SILK	Fabric	6	7	[0, 0, 0]	n/a	catFR1	3	R1541T
778.882	0.949	783806	WORD_OFF	n/a	n/a	SILK	Fabric	6	7	[0, 0, 0]	n/a	catFR1	3	R1541T
779.831	1.601	784762	WORD	n/a	wordpools/wordpool_categorized_EN.txt	BATHROOM	Building	7	7	[0, 0, 0]	n/a	catFR1	3	R1541T
781.432	0.983	786355	WORD_OFF	n/a	n/a	BATHROOM	Building	7	7	[0, 0, 0]	n/a	catFR1	3	R1541T
782.415	1.6	787338	WORD	n/a	wordpools/wordpool_categorized_EN.txt	WINDOW	Building	8	7	[0, 0, 0]	n/a	catFR1	3	R1541T
784.015	0.965	788939	WORD_OFF	n/a	n/a	WINDOW	Building	8	7	[0, 0, 0]	n/a	catFR1	3	R1541T
784.98	1.6	789904	WORD	n/a	wordpools/wordpool_categorized_EN.txt	CABINET	Furniture	9	7	[0, 0, 0]	n/a	catFR1	3	R1541T
786.58	0.867	791506	WORD_OFF	n/a	n/a	CABINET	Furniture	9	7	[0, 0, 0]	n/a	catFR1	3	R1541T
787.447	1.601	792370	WORD	n/a	wordpools/wordpool_categorized_EN.txt	TABLE	Furniture	10	7	[0, 0, 0]	n/a	catFR1	3	R1541T
789.048	0.833	793972	WORD_OFF	n/a	n/a	TABLE	Furniture	10	7	[0, 0, 0]	n/a	catFR1	3	R1541T
789.881	1.617	794809	WORD	n/a	wordpools/wordpool_categorized_EN.txt	SATIN	Fabric	11	7	[0, 0, 0]	n/a	catFR1	3	R1541T
791.498	0.966	796429	WORD_OFF	n/a	n/a	SATIN	Fabric	11	7	[0, 0, 0]	n/a	catFR1	3	R1541T
792.464	1.617	797394	WORD	n/a	wordpools/wordpool_categorized_EN.txt	LINEN	Fabric	12	7	[0, 0, 0]	n/a	catFR1	3	R1541T
794.081	0.0	799005	WORD_OFF	n/a	n/a	LINEN	Fabric	12	7	[0, 0, 0]	n/a	catFR1	3	R1541T
794.081	0.004	799005	PROB	0.004	n/a	n/a	n/a	-999	7	[2, 6, 8]	16	catFR1	3	R1541T
794.085	0.0	799009	START	n/a	n/a	n/a	n/a	-999	7	[-999, -999, -999]	n/a	catFR1	3	R1541T
794.085	0.0	799014	ENCODING_END	n/a	n/a	n/a	n/a	-999	7	[0, 0, 0]	n/a	catFR1	3	R1541T
794.085	3.547	799014	DISTRACT_START	n/a	n/a	n/a	n/a	-999	7	[0, 0, 0]	n/a	catFR1	3	R1541T
797.632	3.382	802556	PROB	3.382	n/a	n/a	n/a	-999	7	[3, 1, 6]	10	catFR1	3	R1541T
801.014	3.3	805937	PROB	3.3	n/a	n/a	n/a	-999	7	[3, 3, 5]	11	catFR1	3	R1541T
804.314	4.067	809237	PROB	4.067	n/a	n/a	n/a	-999	7	[4, 8, 7]	19	catFR1	3	R1541T
808.381	2.417	813304	PROB	2.417	n/a	n/a	n/a	-999	7	[5, 5, 6]	16	catFR1	3	R1541T
810.798	3.333	815721	PROB	3.333	n/a	n/a	n/a	-999	7	[6, 5, 4]	15	catFR1	3	R1541T
814.131	0.0	819054	DISTRACT_END	n/a	n/a	n/a	n/a	-999	7	[0, 0, 0]	n/a	catFR1	3	R1541T
814.131	1.75	819054	STOP	n/a	n/a	n/a	n/a	-999	7	[-999, -999, -999]	n/a	catFR1	3	R1541T
815.881	1.415	820802	REC_START	n/a	n/a	n/a	n/a	-999	7	[0, 0, 0]	n/a	catFR1	3	R1541T
817.296	1.183	822219	REC_WORD	1.183	n/a	FOUNDATION	Building	1	7	[0, 0, 0]	n/a	catFR1	3	R1541T
818.479	3.562	823402	REC_WORD	3.562	n/a	ATTIC	Building	2	7	[0, 0, 0]	n/a	catFR1	3	R1541T
822.041	1.099	826964	REC_WORD	1.099	n/a	RECLINER	Furniture	3	7	[0, 0, 0]	n/a	catFR1	3	R1541T
823.14	2.752	828063	REC_WORD	2.752	n/a	COUCH	Furniture	4	7	[0, 0, 0]	n/a	catFR1	3	R1541T
825.892	8.928	830815	REC_WORD	8.928	n/a	CHAIR	n/a	-999	7	[0, 0, 0]	n/a	catFR1	3	R1541T
834.82	11.29	839742	REC_WORD	11.29	n/a	WALL	Building	-999	7	[0, 0, 0]	n/a	catFR1	3	R1541T
846.11	2.103	851035	REC_END	n/a	n/a	n/a	n/a	-999	7	[0, 0, 0]	n/a	catFR1	3	R1541T
848.213	10.349	853137	COUNTDOWN_START	n/a	n/a	n/a	n/a	-999	8	[0, 0, 0]	n/a	catFR1	3	R1541T
858.562	0.0	863485	COUNTDOWN_END	n/a	n/a	n/a	n/a	-999	8	[0, 0, 0]	n/a	catFR1	3	R1541T
858.562	2.2	863485	ENCODING_START	n/a	n/a	n/a	n/a	-999	8	[0, 0, 0]	n/a	catFR1	3	R1541T
860.762	1.601	865687	WORD	n/a	wordpools/wordpool_categorized_EN.txt	LEMON	Fruit	1	8	[0, 0, 0]	n/a	catFR1	3	R1541T
862.363	0.8	867289	WORD_OFF	n/a	n/a	LEMON	Fruit	1	8	[0, 0, 0]	n/a	catFR1	3	R1541T
863.163	1.616	868090	WORD	n/a	wordpools/wordpool_categorized_EN.txt	LIME	Fruit	2	8	[0, 0, 0]	n/a	catFR1	3	R1541T
864.779	0.934	869701	WORD_OFF	n/a	n/a	LIME	Fruit	2	8	[0, 0, 0]	n/a	catFR1	3	R1541T
865.713	1.616	870638	WORD	n/a	wordpools/wordpool_categorized_EN.txt	DOLLHOUSE	Toys	3	8	[0, 0, 0]	n/a	catFR1	3	R1541T
867.329	0.867	872249	WORD_OFF	n/a	n/a	DOLLHOUSE	Toys	3	8	[0, 0, 0]	n/a	catFR1	3	R1541T
868.196	1.6	873123	WORD	n/a	wordpools/wordpool_categorized_EN.txt	DOLL	Toys	4	8	[0, 0, 0]	n/a	catFR1	3	R1541T
869.796	1.0	874715	WORD_OFF	n/a	n/a	DOLL	Toys	4	8	[0, 0, 0]	n/a	catFR1	3	R1541T
870.796	1.6	875717	WORD	n/a	wordpools/wordpool_categorized_EN.txt	BEETLE	Insects	5	8	[0, 0, 0]	n/a	catFR1	3	R1541T
872.396	0.95	877318	WORD_OFF	n/a	n/a	BEETLE	Insects	5	8	[0, 0, 0]	n/a	catFR1	3	R1541T
873.346	1.617	878274	WORD	n/a	wordpools/wordpool_categorized_EN.txt	BUTTERFLY	Insects	6	8	[0, 0, 0]	n/a	catFR1	3	R1541T
874.963	0.933	879885	WORD_OFF	n/a	n/a	BUTTERFLY	Insects	6	8	[0, 0, 0]	n/a	catFR1	3	R1541T
875.896	1.617	880822	WORD	n/a	wordpools/wordpool_categorized_EN.txt	FRISBEE	Toys	7	8	[0, 0, 0]	n/a	catFR1	3	R1541T
877.513	0.799	882433	WORD_OFF	n/a	n/a	FRISBEE	Toys	7	8	[0, 0, 0]	n/a	catFR1	3	R1541T
878.312	1.616	883234	WORD	n/a	wordpools/wordpool_categorized_EN.txt	MARBLES	Toys	8	8	[0, 0, 0]	n/a	catFR1	3	R1541T
879.928	0.884	884854	WORD_OFF	n/a	n/a	MARBLES	Toys	8	8	[0, 0, 0]	n/a	catFR1	3	R1541T
880.812	1.6	885737	WORD	n/a	wordpools/wordpool_categorized_EN.txt	PEACH	Fruit	9	8	[0, 0, 0]	n/a	catFR1	3	R1541T
882.412	0.766	887338	WORD_OFF	n/a	n/a	PEACH	Fruit	9	8	[0, 0, 0]	n/a	catFR1	3	R1541T
883.178	1.601	888103	WORD	n/a	wordpools/wordpool_categorized_EN.txt	BANANA	Fruit	10	8	[0, 0, 0]	n/a	catFR1	3	R1541T
884.779	0.833	889705	WORD_OFF	n/a	n/a	BANANA	Fruit	10	8	[0, 0, 0]	n/a	catFR1	3	R1541T
885.612	1.616	890533	WORD	n/a	wordpools/wordpool_categorized_EN.txt	ROACH	Insects	11	8	[0, 0, 0]	n/a	catFR1	3	R1541T
887.228	0.784	892153	WORD_OFF	n/a	n/a	ROACH	Insects	11	8	[0, 0, 0]	n/a	catFR1	3	R1541T
888.012	1.617	892936	WORD	n/a	wordpools/wordpool_categorized_EN.txt	LADYBUG	Insects	12	8	[0, 0, 0]	n/a	catFR1	3	R1541T
889.629	0.0	894550	PROB	0.0	n/a	n/a	n/a	-999	8	[3, 5, 6]	14	catFR1	3	R1541T
889.629	0.0	894550	START	n/a	n/a	n/a	n/a	-999	8	[-999, -999, -999]	n/a	catFR1	3	R1541T
889.628	0.001	894555	WORD_OFF	n/a	n/a	LADYBUG	Insects	12	8	[0, 0, 0]	n/a	catFR1	3	R1541T
889.629	0.0	894555	ENCODING_END	n/a	n/a	n/a	n/a	-999	8	[0, 0, 0]	n/a	catFR1	3	R1541T
889.629	5.917	894555	DISTRACT_START	n/a	n/a	n/a	n/a	-999	8	[0, 0, 0]	n/a	catFR1	3	R1541T
895.546	2.566	900467	PROB	2.566	n/a	n/a	n/a	-999	8	[2, 3, 3]	8	catFR1	3	R1541T
898.112	2.25	903033	PROB	2.25	n/a	n/a	n/a	-999	8	[3, 2, 3]	8	catFR1	3	R1541T
900.362	2.182	905283	PROB	2.182	n/a	n/a	n/a	-999	8	[2, 2, 8]	12	catFR1	3	R1541T
902.544	2.201	907465	PROB	2.201	n/a	n/a	n/a	-999	8	[1, 3, 3]	7	catFR1	3	R1541T
904.745	2.667	909666	PROB	2.667	n/a	n/a	n/a	-999	8	[3, 3, 6]	12	catFR1	3	R1541T
907.412	3.7	912333	PROB	3.7	n/a	n/a	n/a	-999	8	[5, 7, 3]	15	catFR1	3	R1541T
911.112	0.0	916032	STOP	n/a	n/a	n/a	n/a	-999	8	[-999, -999, -999]	n/a	catFR1	3	R1541T
911.112	1.649	916034	DISTRACT_END	n/a	n/a	n/a	n/a	-999	8	[0, 0, 0]	n/a	catFR1	3	R1541T
912.761	5.524	917681	REC_START	n/a	n/a	n/a	n/a	-999	8	[0, 0, 0]	n/a	catFR1	3	R1541T
918.285	1.162	923205	REC_WORD	1.162	n/a	BEETLE	Insects	5	8	[0, 0, 0]	n/a	catFR1	3	R1541T
919.447	4.59	924367	REC_WORD	4.59	n/a	LADYBUG	Insects	12	8	[0, 0, 0]	n/a	catFR1	3	R1541T
924.037	2.706	928957	REC_WORD	2.706	n/a	SPIDER	n/a	-999	8	[0, 0, 0]	n/a	catFR1	3	R1541T
926.743	3.06	931663	REC_WORD	3.06	n/a	CHAIR	n/a	-999	8	[0, 0, 0]	n/a	catFR1	3	R1541T
929.803	1.085	934723	REC_WORD	1.085	n/a	LEMON	Fruit	1	8	[0, 0, 0]	n/a	catFR1	3	R1541T
930.888	12.108	935808	REC_WORD	12.108	n/a	LIME	Fruit	2	8	[0, 0, 0]	n/a	catFR1	3	R1541T
942.996	2.015	947914	REC_END	n/a	n/a	n/a	n/a	-999	8	[0, 0, 0]	n/a	catFR1	3	R1541T
945.011	10.35	949935	COUNTDOWN_START	n/a	n/a	n/a	n/a	-999	9	[0, 0, 0]	n/a	catFR1	3	R1541T
955.361	0.0	960282	COUNTDOWN_END	n/a	n/a	n/a	n/a	-999	9	[0, 0, 0]	n/a	catFR1	3	R1541T
955.361	2.083	960282	ENCODING_START	n/a	n/a	n/a	n/a	-999	9	[0, 0, 0]	n/a	catFR1	3	R1541T
957.444	1.616	962366	WORD	n/a	wordpools/wordpool_categorized_EN.txt	COAT	Clothing	1	9	[0, 0, 0]	n/a	catFR1	3	R1541T
959.06	0.766	963977	WORD_OFF	n/a	n/a	COAT	Clothing	1	9	[0, 0, 0]	n/a	catFR1	3	R1541T
959.826	1.601	964751	WORD	n/a	wordpools/wordpool_categorized_EN.txt	PANTS	Clothing	2	9	[0, 0, 0]	n/a	catFR1	3	R1541T
961.427	0.817	966353	WORD_OFF	n/a	n/a	PANTS	Clothing	2	9	[0, 0, 0]	n/a	catFR1	3	R1541T
962.244	1.616	967163	WORD	n/a	wordpools/wordpool_categorized_EN.txt	POTATO	Vegetables	3	9	[0, 0, 0]	n/a	catFR1	3	R1541T
963.86	0.866	968782	WORD_OFF	n/a	n/a	POTATO	Vegetables	3	9	[0, 0, 0]	n/a	catFR1	3	R1541T
964.726	1.6	969647	WORD	n/a	wordpools/wordpool_categorized_EN.txt	BROCCOLI	Vegetables	4	9	[0, 0, 0]	n/a	catFR1	3	R1541T
966.326	0.884	971249	WORD_OFF	n/a	n/a	BROCCOLI	Vegetables	4	9	[0, 0, 0]	n/a	catFR1	3	R1541T
967.21	1.6	972132	WORD	n/a	wordpools/wordpool_categorized_EN.txt	FLY	Insects	5	9	[0, 0, 0]	n/a	catFR1	3	R1541T
968.81	0.899	973733	WORD_OFF	n/a	n/a	FLY	Insects	5	9	[0, 0, 0]	n/a	catFR1	3	R1541T
969.709	1.6	974634	WORD	n/a	wordpools/wordpool_categorized_EN.txt	MOTH	Insects	6	9	[0, 0, 0]	n/a	catFR1	3	R1541T
971.309	0.884	976227	WORD_OFF	n/a	n/a	MOTH	Insects	6	9	[0, 0, 0]	n/a	catFR1	3	R1541T
972.193	1.6	977110	WORD	n/a	wordpools/wordpool_categorized_EN.txt	JACKET	Clothing	7	9	[0, 0, 0]	n/a	catFR1	3	R1541T
973.793	0.867	978712	WORD_OFF	n/a	n/a	JACKET	Clothing	7	9	[0, 0, 0]	n/a	catFR1	3	R1541T
974.66	1.617	979585	WORD	n/a	wordpools/wordpool_categorized_EN.txt	SHORTS	Clothing	8	9	[0, 0, 0]	n/a	catFR1	3	R1541T
976.277	0.816	981196	WORD_OFF	n/a	n/a	SHORTS	Clothing	8	9	[0, 0, 0]	n/a	catFR1	3	R1541T
977.093	1.617	982015	WORD	n/a	wordpools/wordpool_categorized_EN.txt	ONION	Vegetables	9	9	[0, 0, 0]	n/a	catFR1	3	R1541T
978.71	0.816	983635	WORD_OFF	n/a	n/a	ONION	Vegetables	9	9	[0, 0, 0]	n/a	catFR1	3	R1541T
979.526	1.6	984445	WORD	n/a	wordpools/wordpool_categorized_EN.txt	CUCUMBER	Vegetables	10	9	[0, 0, 0]	n/a	catFR1	3	R1541T
981.126	0.851	986047	WORD_OFF	n/a	n/a	CUCUMBER	Vegetables	10	9	[0, 0, 0]	n/a	catFR1	3	R1541T
981.977	1.599	986893	WORD	n/a	wordpools/wordpool_categorized_EN.txt	CRICKET	Insects	11	9	[0, 0, 0]	n/a	catFR1	3	R1541T
983.576	0.867	988495	WORD_OFF	n/a	n/a	CRICKET	Insects	11	9	[0, 0, 0]	n/a	catFR1	3	R1541T
984.443	1.617	989360	WORD	n/a	wordpools/wordpool_categorized_EN.txt	BEE	Insects	12	9	[0, 0, 0]	n/a	catFR1	3	R1541T
986.06	0.001	990978	PROB	0.001	n/a	n/a	n/a	-999	9	[2, 4, 4]	10	catFR1	3	R1541T
986.061	0.0	990979	START	n/a	n/a	n/a	n/a	-999	9	[-999, -999, -999]	n/a	catFR1	3	R1541T
986.06	0.001	990980	WORD_OFF	n/a	n/a	BEE	Insects	12	9	[0, 0, 0]	n/a	catFR1	3	R1541T
986.061	0.0	990980	ENCODING_END	n/a	n/a	n/a	n/a	-999	9	[0, 0, 0]	n/a	catFR1	3	R1541T
986.061	2.883	990989	DISTRACT_START	n/a	n/a	n/a	n/a	-999	9	[0, 0, 0]	n/a	catFR1	3	R1541T
988.944	2.332	993862	PROB	2.332	n/a	n/a	n/a	-999	9	[7, 4, 2]	13	catFR1	3	R1541T
991.276	2.501	996194	PROB	2.501	n/a	n/a	n/a	-999	9	[2, 3, 7]	12	catFR1	3	R1541T
993.777	1.866	998695	PROB	1.866	n/a	n/a	n/a	-999	9	[1, 1, 5]	7	catFR1	3	R1541T
995.643	2.251	1000561	PROB	2.251	n/a	n/a	n/a	-999	9	[6, 2, 3]	11	catFR1	3	R1541T
997.894	2.432	1002812	PROB	2.432	n/a	n/a	n/a	-999	9	[2, 6, 8]	16	catFR1	3	R1541T
1000.326	2.318	1005244	PROB	2.318	n/a	n/a	n/a	-999	9	[3, 8, 8]	19	catFR1	3	R1541T
1002.644	2.716	1007562	PROB	2.716	n/a	n/a	n/a	-999	9	[5, 4, 2]	11	catFR1	3	R1541T
1005.36	2.632	1010278	PROB	2.632	n/a	n/a	n/a	-999	9	[6, 7, 1]	14	catFR1	3	R1541T
1007.992	0.0	1012910	STOP	n/a	n/a	n/a	n/a	-999	9	[-999, -999, -999]	n/a	catFR1	3	R1541T
1007.992	1.584	1012913	DISTRACT_END	n/a	n/a	n/a	n/a	-999	9	[0, 0, 0]	n/a	catFR1	3	R1541T
1009.576	1.824	1014496	REC_START	n/a	n/a	n/a	n/a	-999	9	[0, 0, 0]	n/a	catFR1	3	R1541T
1011.4	1.066	1016318	REC_WORD	1.066	n/a	COAT	Clothing	1	9	[0, 0, 0]	n/a	catFR1	3	R1541T
1012.466	1.017	1017384	REC_WORD	1.017	n/a	PANTS	Clothing	2	9	[0, 0, 0]	n/a	catFR1	3	R1541T
1013.483	0.853	1018401	REC_WORD	0.853	n/a	BROCCOLI	Vegetables	4	9	[0, 0, 0]	n/a	catFR1	3	R1541T
1014.336	3.485	1019254	REC_WORD	3.485	n/a	POTATO	Vegetables	3	9	[0, 0, 0]	n/a	catFR1	3	R1541T
1017.821	0.914	1022739	REC_WORD	0.914	n/a	JACKET	Clothing	7	9	[0, 0, 0]	n/a	catFR1	3	R1541T
1018.735	2.898	1023653	REC_WORD	2.898	n/a	SHORTS	Clothing	8	9	[0, 0, 0]	n/a	catFR1	3	R1541T
1021.633	0.954	1026550	REC_WORD	0.954	n/a	MOTH	Insects	6	9	[0, 0, 0]	n/a	catFR1	3	R1541T
1022.587	17.224	1027504	REC_WORD	17.224	n/a	MOSQUITO	n/a	-999	9	[0, 0, 0]	n/a	catFR1	3	R1541T
1039.811	1.497	1044730	REC_END	n/a	n/a	n/a	n/a	-999	9	[0, 0, 0]	n/a	catFR1	3	R1541T
1041.308	10.351	1046231	COUNTDOWN_START	n/a	n/a	n/a	n/a	-999	10	[0, 0, 0]	n/a	catFR1	3	R1541T
1051.659	0.0	1056579	COUNTDOWN_END	n/a	n/a	n/a	n/a	-999	10	[0, 0, 0]	n/a	catFR1	3	R1541T
1051.659	2.133	1056579	ENCODING_START	n/a	n/a	n/a	n/a	-999	10	[0, 0, 0]	n/a	catFR1	3	R1541T
1053.792	1.616	1058709	WORD	n/a	wordpools/wordpool_categorized_EN.txt	BASKETBALL	Toys	1	10	[0, 0, 0]	n/a	catFR1	3	R1541T
1055.408	0.984	1060329	WORD_OFF	n/a	n/a	BASKETBALL	Toys	1	10	[0, 0, 0]	n/a	catFR1	3	R1541T
1056.392	1.616	1061311	WORD	n/a	wordpools/wordpool_categorized_EN.txt	BASEBALL	Toys	2	10	[0, 0, 0]	n/a	catFR1	3	R1541T
1058.008	0.9	1062931	WORD_OFF	n/a	n/a	BASEBALL	Toys	2	10	[0, 0, 0]	n/a	catFR1	3	R1541T
1058.908	1.6	1063823	WORD	n/a	wordpools/wordpool_categorized_EN.txt	BEAR	Zoo	3	10	[0, 0, 0]	n/a	catFR1	3	R1541T
1060.508	0.834	1065425	WORD_OFF	n/a	n/a	BEAR	Zoo	3	10	[0, 0, 0]	n/a	catFR1	3	R1541T
1061.342	1.599	1066262	WORD	n/a	wordpools/wordpool_categorized_EN.txt	ORANGUTAN	Zoo	4	10	[0, 0, 0]	n/a	catFR1	3	R1541T
1062.941	0.95	1067864	WORD_OFF	n/a	n/a	ORANGUTAN	Zoo	4	10	[0, 0, 0]	n/a	catFR1	3	R1541T
1063.891	1.6	1068811	WORD	n/a	wordpools/wordpool_categorized_EN.txt	DESK	Furniture	5	10	[0, 0, 0]	n/a	catFR1	3	R1541T
1065.491	0.817	1070412	WORD_OFF	n/a	n/a	DESK	Furniture	5	10	[0, 0, 0]	n/a	catFR1	3	R1541T
1066.308	1.6	1071222	WORD	n/a	wordpools/wordpool_categorized_EN.txt	SHELF	Furniture	6	10	[0, 0, 0]	n/a	catFR1	3	R1541T
1067.908	0.833	1072824	WORD_OFF	n/a	n/a	SHELF	Furniture	6	10	[0, 0, 0]	n/a	catFR1	3	R1541T
1068.741	1.6	1073661	WORD	n/a	wordpools/wordpool_categorized_EN.txt	BLOCKS	Toys	7	10	[0, 0, 0]	n/a	catFR1	3	R1541T
1070.341	0.767	1075263	WORD_OFF	n/a	n/a	BLOCKS	Toys	7	10	[0, 0, 0]	n/a	catFR1	3	R1541T
1071.108	1.6	1076028	WORD	n/a	wordpools/wordpool_categorized_EN.txt	PUZZLE	Toys	8	10	[0, 0, 0]	n/a	catFR1	3	R1541T
1072.708	0.933	1077629	WORD_OFF	n/a	n/a	PUZZLE	Toys	8	10	[0, 0, 0]	n/a	catFR1	3	R1541T
1073.641	1.616	1078558	WORD	n/a	wordpools/wordpool_categorized_EN.txt	TIGER	Zoo	9	10	[0, 0, 0]	n/a	catFR1	3	R1541T
1075.257	0.883	1080178	WORD_OFF	n/a	n/a	TIGER	Zoo	9	10	[0, 0, 0]	n/a	catFR1	3	R1541T
1076.14	1.601	1081060	WORD	n/a	wordpools/wordpool_categorized_EN.txt	CHIMPANZEE	Zoo	10	10	[0, 0, 0]	n/a	catFR1	3	R1541T
1077.741	1.0	1082662	WORD_OFF	n/a	n/a	CHIMPANZEE	Zoo	10	10	[0, 0, 0]	n/a	catFR1	3	R1541T
1078.741	1.6	1083663	WORD	n/a	wordpools/wordpool_categorized_EN.txt	SOFA	Furniture	11	10	[0, 0, 0]	n/a	catFR1	3	R1541T
1080.341	0.9	1085256	WORD_OFF	n/a	n/a	SOFA	Furniture	11	10	[0, 0, 0]	n/a	catFR1	3	R1541T
1081.241	1.601	1086157	WORD	n/a	wordpools/wordpool_categorized_EN.txt	DRESSER	Furniture	12	10	[0, 0, 0]	n/a	catFR1	3	R1541T
1082.842	0.0	1087758	START	n/a	n/a	n/a	n/a	-999	10	[-999, -999, -999]	n/a	catFR1	3	R1541T
1082.842	0.0	1087758	PROB	0.0	n/a	n/a	n/a	-999	10	[2, 4, 3]	9	catFR1	3	R1541T
1082.841	0.001	1087759	WORD_OFF	n/a	n/a	DRESSER	Furniture	12	10	[0, 0, 0]	n/a	catFR1	3	R1541T
1082.842	0.0	1087759	ENCODING_END	n/a	n/a	n/a	n/a	-999	10	[0, 0, 0]	n/a	catFR1	3	R1541T
1082.842	2.616	1087768	DISTRACT_START	n/a	n/a	n/a	n/a	-999	10	[0, 0, 0]	n/a	catFR1	3	R1541T
1085.458	2.865	1090374	PROB	2.865	n/a	n/a	n/a	-999	10	[2, 1, 7]	10	catFR1	3	R1541T
1088.323	2.452	1093239	PROB	2.452	n/a	n/a	n/a	-999	10	[5, 7, 1]	13	catFR1	3	R1541T
1090.775	2.233	1095691	PROB	2.233	n/a	n/a	n/a	-999	10	[2, 5, 6]	13	catFR1	3	R1541T
1093.008	2.066	1097924	PROB	2.066	n/a	n/a	n/a	-999	10	[2, 1, 2]	5	catFR1	3	R1541T
1095.074	1.801	1099989	PROB	1.801	n/a	n/a	n/a	-999	10	[2, 8, 1]	11	catFR1	3	R1541T
1096.875	3.866	1101790	PROB	3.866	n/a	n/a	n/a	-999	10	[3, 4, 7]	14	catFR1	3	R1541T
1100.741	2.083	1105656	PROB	2.083	n/a	n/a	n/a	-999	10	[3, 3, 5]	11	catFR1	3	R1541T
1102.824	2.35	1107739	PROB	2.35	n/a	n/a	n/a	-999	10	[6, 1, 7]	14	catFR1	3	R1541T
1105.174	0.0	1110089	STOP	n/a	n/a	n/a	n/a	-999	10	[-999, -999, -999]	n/a	catFR1	3	R1541T
1105.174	1.866	1110092	DISTRACT_END	n/a	n/a	n/a	n/a	-999	10	[0, 0, 0]	n/a	catFR1	3	R1541T
1107.04	2.932	1111958	REC_START	n/a	n/a	n/a	n/a	-999	10	[0, 0, 0]	n/a	catFR1	3	R1541T
1109.972	3.164	1114887	REC_WORD	3.164	n/a	BLOCKS	Toys	7	10	[0, 0, 0]	n/a	catFR1	3	R1541T
1113.136	1.484	1118051	REC_WORD	1.484	n/a	DOLL	Toys	-999	10	[0, 0, 0]	n/a	catFR1	3	R1541T
1114.62	0.668	1119535	REC_WORD	0.668	n/a	BEAR	Zoo	3	10	[0, 0, 0]	n/a	catFR1	3	R1541T
1115.288	0.96	1120203	REC_WORD	0.96	n/a	ORANGUTAN	Zoo	4	10	[0, 0, 0]	n/a	catFR1	3	R1541T
1116.248	4.934	1121163	REC_WORD	4.934	n/a	CHIMPANZEE	Zoo	10	10	[0, 0, 0]	n/a	catFR1	3	R1541T
1121.182	9.171	1126097	REC_WORD	9.171	n/a	DOLLHOUSE	Toys	-999	10	[0, 0, 0]	n/a	catFR1	3	R1541T
1130.353	1.228	1135268	REC_WORD	1.228	n/a	DESK	Furniture	5	10	[0, 0, 0]	n/a	catFR1	3	R1541T
1131.581	4.757	1136495	REC_WORD	4.757	n/a	SHELF	Furniture	6	10	[0, 0, 0]	n/a	catFR1	3	R1541T
1136.338	0.935	1141252	REC_WORD	0.935	n/a	TABLE	Furniture	-999	10	[0, 0, 0]	n/a	catFR1	3	R1541T
1137.273	1.433	1142191	REC_END	n/a	n/a	n/a	n/a	-999	10	[0, 0, 0]	n/a	catFR1	3	R1541T
1138.706	10.349	1143629	COUNTDOWN_START	n/a	n/a	n/a	n/a	-999	11	[0, 0, 0]	n/a	catFR1	3	R1541T
1149.055	0.0	1153968	COUNTDOWN_END	n/a	n/a	n/a	n/a	-999	11	[0, 0, 0]	n/a	catFR1	3	R1541T
1149.055	2.2	1153977	ENCODING_START	n/a	n/a	n/a	n/a	-999	11	[0, 0, 0]	n/a	catFR1	3	R1541T
1151.255	1.601	1156170	WORD	n/a	wordpools/wordpool_categorized_EN.txt	VIOLIN	Instruments	1	11	[0, 0, 0]	n/a	catFR1	3	R1541T
1152.856	0.833	1157772	WORD_OFF	n/a	n/a	VIOLIN	Instruments	1	11	[0, 0, 0]	n/a	catFR1	3	R1541T
1153.689	1.6	1158609	WORD	n/a	wordpools/wordpool_categorized_EN.txt	BANJO	Instruments	2	11	[0, 0, 0]	n/a	catFR1	3	R1541T
1155.289	0.767	1160202	WORD_OFF	n/a	n/a	BANJO	Instruments	2	11	[0, 0, 0]	n/a	catFR1	3	R1541T
1156.056	1.6	1160976	WORD	n/a	wordpools/wordpool_categorized_EN.txt	SPINACH	Vegetables	3	11	[0, 0, 0]	n/a	catFR1	3	R1541T
1157.656	0.9	1162568	WORD_OFF	n/a	n/a	SPINACH	Vegetables	3	11	[0, 0, 0]	n/a	catFR1	3	R1541T
1158.556	1.6	1163469	WORD	n/a	wordpools/wordpool_categorized_EN.txt	LETTUCE	Vegetables	4	11	[0, 0, 0]	n/a	catFR1	3	R1541T
1160.156	0.85	1165071	WORD_OFF	n/a	n/a	LETTUCE	Vegetables	4	11	[0, 0, 0]	n/a	catFR1	3	R1541T
1161.006	1.616	1165926	WORD	n/a	wordpools/wordpool_categorized_EN.txt	PANDA	Zoo	5	11	[0, 0, 0]	n/a	catFR1	3	R1541T
1162.622	0.934	1167537	WORD_OFF	n/a	n/a	PANDA	Zoo	5	11	[0, 0, 0]	n/a	catFR1	3	R1541T
1163.556	1.6	1168475	WORD	n/a	wordpools/wordpool_categorized_EN.txt	CHEETAH	Zoo	6	11	[0, 0, 0]	n/a	catFR1	3	R1541T
1165.156	0.85	1170067	WORD_OFF	n/a	n/a	CHEETAH	Zoo	6	11	[0, 0, 0]	n/a	catFR1	3	R1541T
1166.006	1.616	1170923	WORD	n/a	wordpools/wordpool_categorized_EN.txt	CABBAGE	Vegetables	7	11	[0, 0, 0]	n/a	catFR1	3	R1541T
1167.622	1.0	1172534	WORD_OFF	n/a	n/a	CABBAGE	Vegetables	7	11	[0, 0, 0]	n/a	catFR1	3	R1541T
1168.622	1.616	1173535	WORD	n/a	wordpools/wordpool_categorized_EN.txt	CARROT	Vegetables	8	11	[0, 0, 0]	n/a	catFR1	3	R1541T
1170.238	0.817	1175155	WORD_OFF	n/a	n/a	CARROT	Vegetables	8	11	[0, 0, 0]	n/a	catFR1	3	R1541T
1171.055	1.6	1175974	WORD	n/a	wordpools/wordpool_categorized_EN.txt	FLUTE	Instruments	9	11	[0, 0, 0]	n/a	catFR1	3	R1541T
1172.655	0.834	1177567	WORD_OFF	n/a	n/a	FLUTE	Instruments	9	11	[0, 0, 0]	n/a	catFR1	3	R1541T
1173.489	1.615	1178404	WORD	n/a	wordpools/wordpool_categorized_EN.txt	TRUMPET	Instruments	10	11	[0, 0, 0]	n/a	catFR1	3	R1541T
1175.104	0.985	1180024	WORD_OFF	n/a	n/a	TRUMPET	Instruments	10	11	[0, 0, 0]	n/a	catFR1	3	R1541T
1176.089	1.599	1181007	WORD	n/a	wordpools/wordpool_categorized_EN.txt	GIRAFFE	Zoo	11	11	[0, 0, 0]	n/a	catFR1	3	R1541T
1177.688	0.934	1182608	WORD_OFF	n/a	n/a	GIRAFFE	Zoo	11	11	[0, 0, 0]	n/a	catFR1	3	R1541T
1178.622	1.601	1183537	WORD	n/a	wordpools/wordpool_categorized_EN.txt	GORILLA	Zoo	12	11	[0, 0, 0]	n/a	catFR1	3	R1541T
1180.223	0.0	1185136	START	n/a	n/a	n/a	n/a	-999	11	[-999, -999, -999]	n/a	catFR1	3	R1541T
1180.223	0.0	1185136	PROB	0.0	n/a	n/a	n/a	-999	11	[3, 5, 5]	13	catFR1	3	R1541T
1180.222	0.001	1185138	WORD_OFF	n/a	n/a	GORILLA	Zoo	12	11	[0, 0, 0]	n/a	catFR1	3	R1541T
1180.223	0.0	1185138	ENCODING_END	n/a	n/a	n/a	n/a	-999	11	[0, 0, 0]	n/a	catFR1	3	R1541T
1180.223	3.332	1185138	DISTRACT_START	n/a	n/a	n/a	n/a	-999	11	[0, 0, 0]	n/a	catFR1	3	R1541T
1183.555	2.817	1188468	PROB	2.817	n/a	n/a	n/a	-999	11	[2, 7, 5]	14	catFR1	3	R1541T
1186.372	2.749	1191285	PROB	2.749	n/a	n/a	n/a	-999	11	[1, 2, 2]	5	catFR1	3	R1541T
1189.121	2.168	1194034	PROB	2.168	n/a	n/a	n/a	-999	11	[1, 2, 6]	9	catFR1	3	R1541T
1191.289	2.683	1196202	PROB	2.683	n/a	n/a	n/a	-999	11	[3, 5, 2]	10	catFR1	3	R1541T
1193.972	2.066	1198885	PROB	2.066	n/a	n/a	n/a	-999	11	[3, 1, 2]	6	catFR1	3	R1541T
1196.038	2.467	1200951	PROB	2.467	n/a	n/a	n/a	-999	11	[4, 1, 7]	12	catFR1	3	R1541T
1198.505	2.649	1203418	PROB	2.649	n/a	n/a	n/a	-999	11	[7, 8, 5]	20	catFR1	3	R1541T
1201.154	0.0	1206067	STOP	n/a	n/a	n/a	n/a	-999	11	[-999, -999, -999]	n/a	catFR1	3	R1541T
1201.154	1.867	1206071	DISTRACT_END	n/a	n/a	n/a	n/a	-999	11	[0, 0, 0]	n/a	catFR1	3	R1541T
1203.021	5.711	1207936	REC_START	n/a	n/a	n/a	n/a	-999	11	[0, 0, 0]	n/a	catFR1	3	R1541T
1208.732	1.0	1213644	REC_WORD	1.0	n/a	ORANGUTAN	Zoo	-999	11	[0, 0, 0]	n/a	catFR1	3	R1541T
1209.732	6.732	1214644	REC_WORD_VV	6.732	n/a	<>	n/a	-999	11	[0, 0, 0]	n/a	catFR1	3	R1541T
1216.464	9.175	1221376	REC_WORD	9.175	n/a	SHELF	Furniture	-999	11	[0, 0, 0]	n/a	catFR1	3	R1541T
1225.639	7.621	1230551	REC_WORD	7.621	n/a	TABLE	Furniture	-999	11	[0, 0, 0]	n/a	catFR1	3	R1541T
1233.26	2.877	1238169	REC_END	n/a	n/a	n/a	n/a	-999	11	[0, 0, 0]	n/a	catFR1	3	R1541T
1236.137	10.35	1241054	COUNTDOWN_START	n/a	n/a	n/a	n/a	-999	12	[0, 0, 0]	n/a	catFR1	3	R1541T
1246.487	0.0	1251402	COUNTDOWN_END	n/a	n/a	n/a	n/a	-999	12	[0, 0, 0]	n/a	catFR1	3	R1541T
1246.487	2.066	1251402	ENCODING_START	n/a	n/a	n/a	n/a	-999	12	[0, 0, 0]	n/a	catFR1	3	R1541T
1248.553	1.601	1253468	WORD	n/a	wordpools/wordpool_categorized_EN.txt	ELEPHANT	Zoo	1	12	[0, 0, 0]	n/a	catFR1	3	R1541T
1250.154	0.832	1255070	WORD_OFF	n/a	n/a	ELEPHANT	Zoo	1	12	[0, 0, 0]	n/a	catFR1	3	R1541T
1250.986	1.601	1255898	WORD	n/a	wordpools/wordpool_categorized_EN.txt	MONKEY	Zoo	2	12	[0, 0, 0]	n/a	catFR1	3	R1541T
1252.587	0.882	1257500	WORD_OFF	n/a	n/a	MONKEY	Zoo	2	12	[0, 0, 0]	n/a	catFR1	3	R1541T
1253.469	1.601	1258383	WORD	n/a	wordpools/wordpool_categorized_EN.txt	TUBA	Instruments	3	12	[0, 0, 0]	n/a	catFR1	3	R1541T
1255.07	1.0	1259984	WORD_OFF	n/a	n/a	TUBA	Instruments	3	12	[0, 0, 0]	n/a	catFR1	3	R1541T
1256.07	1.617	1260985	WORD	n/a	wordpools/wordpool_categorized_EN.txt	PIANO	Instruments	4	12	[0, 0, 0]	n/a	catFR1	3	R1541T
1257.687	0.766	1262596	WORD_OFF	n/a	n/a	PIANO	Instruments	4	12	[0, 0, 0]	n/a	catFR1	3	R1541T
1258.453	1.6	1263370	WORD	n/a	wordpools/wordpool_categorized_EN.txt	CORN	Vegetables	5	12	[0, 0, 0]	n/a	catFR1	3	R1541T
1260.053	0.9	1264963	WORD_OFF	n/a	n/a	CORN	Vegetables	5	12	[0, 0, 0]	n/a	catFR1	3	R1541T
1260.953	1.617	1265864	WORD	n/a	wordpools/wordpool_categorized_EN.txt	CELERY	Vegetables	6	12	[0, 0, 0]	n/a	catFR1	3	R1541T
1262.57	0.983	1267484	WORD_OFF	n/a	n/a	CELERY	Vegetables	6	12	[0, 0, 0]	n/a	catFR1	3	R1541T
1263.553	1.615	1268466	WORD	n/a	wordpools/wordpool_categorized_EN.txt	DRUM	Instruments	7	12	[0, 0, 0]	n/a	catFR1	3	R1541T
1265.168	0.919	1270077	WORD_OFF	n/a	n/a	DRUM	Instruments	7	12	[0, 0, 0]	n/a	catFR1	3	R1541T
1266.087	1.599	1270996	WORD	n/a	wordpools/wordpool_categorized_EN.txt	ORGAN	Instruments	8	12	[0, 0, 0]	n/a	catFR1	3	R1541T
1267.686	0.817	1272598	WORD_OFF	n/a	n/a	ORGAN	Instruments	8	12	[0, 0, 0]	n/a	catFR1	3	R1541T
1268.503	1.6	1273417	WORD	n/a	wordpools/wordpool_categorized_EN.txt	LION	Zoo	9	12	[0, 0, 0]	n/a	catFR1	3	R1541T
1270.103	0.917	1275019	WORD_OFF	n/a	n/a	LION	Zoo	9	12	[0, 0, 0]	n/a	catFR1	3	R1541T
1271.02	1.617	1275929	WORD	n/a	wordpools/wordpool_categorized_EN.txt	ZEBRA	Zoo	10	12	[0, 0, 0]	n/a	catFR1	3	R1541T
1272.637	0.816	1277549	WORD_OFF	n/a	n/a	ZEBRA	Zoo	10	12	[0, 0, 0]	n/a	catFR1	3	R1541T
1273.453	1.6	1278368	WORD	n/a	wordpools/wordpool_categorized_EN.txt	CAULIFLOWER	Vegetables	11	12	[0, 0, 0]	n/a	catFR1	3	R1541T
1275.053	0.966	1279970	WORD_OFF	n/a	n/a	CAULIFLOWER	Vegetables	11	12	[0, 0, 0]	n/a	catFR1	3	R1541T
1276.019	1.601	1280935	WORD	n/a	wordpools/wordpool_categorized_EN.txt	PEAS	Vegetables	12	12	[0, 0, 0]	n/a	catFR1	3	R1541T
1277.62	0.001	1282531	PROB	0.001	n/a	n/a	n/a	-999	12	[3, 8, 5]	16	catFR1	3	R1541T
1277.621	0.0	1282532	START	n/a	n/a	n/a	n/a	-999	12	[-999, -999, -999]	n/a	catFR1	3	R1541T
1277.619	0.002	1282536	WORD_OFF	n/a	n/a	PEAS	Vegetables	12	12	[0, 0, 0]	n/a	catFR1	3	R1541T
1277.621	0.0	1282536	ENCODING_END	n/a	n/a	n/a	n/a	-999	12	[0, 0, 0]	n/a	catFR1	3	R1541T
1277.621	3.432	1282536	DISTRACT_START	n/a	n/a	n/a	n/a	-999	12	[0, 0, 0]	n/a	catFR1	3	R1541T
1281.053	3.384	1285963	PROB	3.384	n/a	n/a	n/a	-999	12	[6, 3, 2]	11	catFR1	3	R1541T
1284.437	3.082	1289347	PROB	3.082	n/a	n/a	n/a	-999	12	[3, 8, 4]	15	catFR1	3	R1541T
1287.519	2.333	1292429	PROB	2.333	n/a	n/a	n/a	-999	12	[2, 8, 4]	14	catFR1	3	R1541T
1289.852	2.368	1294762	PROB	2.368	n/a	n/a	n/a	-999	12	[7, 3, 6]	16	catFR1	3	R1541T
1292.22	3.716	1297130	PROB	3.716	n/a	n/a	n/a	-999	12	[4, 8, 3]	15	catFR1	3	R1541T
1295.936	2.083	1300846	PROB	2.083	n/a	n/a	n/a	-999	12	[6, 1, 1]	8	catFR1	3	R1541T
1298.019	0.0	1302929	STOP	n/a	n/a	n/a	n/a	-999	12	[-999, -999, -999]	n/a	catFR1	3	R1541T
1298.019	1.533	1302932	DISTRACT_END	n/a	n/a	n/a	n/a	-999	12	[0, 0, 0]	n/a	catFR1	3	R1541T
1299.552	0.874	1304461	REC_START	n/a	n/a	n/a	n/a	-999	12	[0, 0, 0]	n/a	catFR1	3	R1541T
1300.426	0.777	1305336	REC_WORD	0.777	n/a	PIANO	Instruments	4	12	[0, 0, 0]	n/a	catFR1	3	R1541T
1301.203	0.777	1306113	REC_WORD	0.777	n/a	ORGAN	Instruments	8	12	[0, 0, 0]	n/a	catFR1	3	R1541T
1301.98	2.799	1306890	REC_WORD	2.799	n/a	TUBA	Instruments	3	12	[0, 0, 0]	n/a	catFR1	3	R1541T
1304.779	0.78	1309689	REC_WORD	0.78	n/a	GORILLA	Zoo	-999	12	[0, 0, 0]	n/a	catFR1	3	R1541T
1305.559	3.32	1310469	REC_WORD	3.32	n/a	LION	Zoo	9	12	[0, 0, 0]	n/a	catFR1	3	R1541T
1308.879	1.228	1313789	REC_WORD	1.228	n/a	VIOLIN	Instruments	-999	12	[0, 0, 0]	n/a	catFR1	3	R1541T
1310.107	19.68	1315017	REC_WORD	19.68	n/a	BANJO	Instruments	-999	12	[0, 0, 0]	n/a	catFR1	3	R1541T
1329.787	0.0	1334695	REC_END	n/a	n/a	n/a	n/a	-999	12	[0, 0, 0]	n/a	catFR1	3	R1541T
