onset	duration	sample	trial_type	response_time	stim_file	item_name	category	serialpos	list	test	answer	experiment	session	subject
0.0	0.0	20272	INSTRUCT_START	n/a	n/a	n/a	n/a	-999	-999	[0, 0, 0]	n/a	catFR1	1	R1170J
0.0	10.927	20272	INSTRUCT_END	n/a	n/a	n/a	n/a	-999	-999	[0, 0, 0]	n/a	catFR1	1	R1170J
10.927	0.0	31199	SESS_START	n/a	n/a	n/a	n/a	-999	-999	[0, 0, 0]	n/a	catFR1	1	R1170J
10.927	33.501	31199	MIC_TEST	n/a	n/a	n/a	n/a	-999	-999	[0, 0, 0]	n/a	catFR1	1	R1170J
44.428	40.3	64699	PRACTICE_TRIAL	n/a	n/a	n/a	n/a	-999	-1	[0, 0, 0]	n/a	catFR1	1	R1170J
84.728	10.0	104999	COUNTDOWN_START	n/a	n/a	n/a	n/a	-999	-1	[0, 0, 0]	n/a	catFR1	1	R1170J
95.156	0.007	115427	COUNTDOWN_END	n/a	n/a	n/a	n/a	-999	-1	[0, 0, 0]	n/a	catFR1	1	R1170J
95.163	1.6	115434	PRACTICE_ORIENT	n/a	n/a	n/a	n/a	-999	-1	[0, 0, 0]	n/a	catFR1	1	R1170J
96.778	1.867	117049	PRACTICE_ORIENT_OFF	n/a	n/a	n/a	n/a	-999	-1	[0, 0, 0]	n/a	catFR1	1	R1170J
98.645	1.6	118915	PRACTICE_WORD	n/a	n/a	IRON	n/a	-1	-1	[0, 0, 0]	n/a	catFR1	1	R1170J
100.263	0.967	120533	PRACTICE_WORD_OFF	n/a	n/a	IRON	n/a	-999	-1	[0, 0, 0]	n/a	catFR1	1	R1170J
101.23	1.6	121500	PRACTICE_WORD	n/a	n/a	WATCH	n/a	-1	-1	[0, 0, 0]	n/a	catFR1	1	R1170J
102.846	0.784	123116	PRACTICE_WORD_OFF	n/a	n/a	WATCH	n/a	-999	-1	[0, 0, 0]	n/a	catFR1	1	R1170J
103.63	1.6	123900	PRACTICE_WORD	n/a	n/a	ATTIC	n/a	-1	-1	[0, 0, 0]	n/a	catFR1	1	R1170J
105.247	0.784	125517	PRACTICE_WORD_OFF	n/a	n/a	ATTIC	n/a	-999	-1	[0, 0, 0]	n/a	catFR1	1	R1170J
106.031	1.6	126301	PRACTICE_WORD	n/a	n/a	COTTON	n/a	-1	-1	[0, 0, 0]	n/a	catFR1	1	R1170J
107.647	0.933	127917	PRACTICE_WORD_OFF	n/a	n/a	COTTON	n/a	-999	-1	[0, 0, 0]	n/a	catFR1	1	R1170J
108.58	1.6	128850	PRACTICE_WORD	n/a	n/a	CHEST	n/a	-1	-1	[0, 0, 0]	n/a	catFR1	1	R1170J
110.181	0.934	130451	PRACTICE_WORD_OFF	n/a	n/a	CHEST	n/a	-999	-1	[0, 0, 0]	n/a	catFR1	1	R1170J
111.115	1.6	131385	PRACTICE_WORD	n/a	n/a	TONGUE	n/a	-1	-1	[0, 0, 0]	n/a	catFR1	1	R1170J
112.731	1.0	133001	PRACTICE_WORD_OFF	n/a	n/a	TONGUE	n/a	-999	-1	[0, 0, 0]	n/a	catFR1	1	R1170J
113.731	1.6	134001	PRACTICE_WORD	n/a	n/a	RHINO	n/a	-1	-1	[0, 0, 0]	n/a	catFR1	1	R1170J
115.348	0.884	135618	PRACTICE_WORD_OFF	n/a	n/a	RHINO	n/a	-999	-1	[0, 0, 0]	n/a	catFR1	1	R1170J
116.232	1.6	136502	PRACTICE_WORD	n/a	n/a	WAGON	n/a	-1	-1	[0, 0, 0]	n/a	catFR1	1	R1170J
117.848	0.8	138118	PRACTICE_WORD_OFF	n/a	n/a	WAGON	n/a	-999	-1	[0, 0, 0]	n/a	catFR1	1	R1170J
118.648	1.6	138918	PRACTICE_WORD	n/a	n/a	CAMEL	n/a	-1	-1	[0, 0, 0]	n/a	catFR1	1	R1170J
120.266	0.817	140536	PRACTICE_WORD_OFF	n/a	n/a	CAMEL	n/a	-999	-1	[0, 0, 0]	n/a	catFR1	1	R1170J
121.083	1.6	141353	PRACTICE_WORD	n/a	n/a	BEAM	n/a	-1	-1	[0, 0, 0]	n/a	catFR1	1	R1170J
122.699	1.017	142969	PRACTICE_WORD_OFF	n/a	n/a	BEAM	n/a	-999	-1	[0, 0, 0]	n/a	catFR1	1	R1170J
123.716	1.6	143986	PRACTICE_WORD	n/a	n/a	FLOOD	n/a	-1	-1	[0, 0, 0]	n/a	catFR1	1	R1170J
125.332	0.835	145602	PRACTICE_WORD_OFF	n/a	n/a	FLOOD	n/a	-999	-1	[0, 0, 0]	n/a	catFR1	1	R1170J
126.167	1.6	146437	PRACTICE_WORD	n/a	n/a	RING	n/a	-1	-1	[0, 0, 0]	n/a	catFR1	1	R1170J
127.783	0.0	148053	ENCODING_END	n/a	n/a	n/a	n/a	-999	-1	[0, 0, 0]	n/a	catFR1	1	R1170J
127.783	0.001	148053	PRACTICE_WORD_OFF	n/a	n/a	RING	n/a	-999	-1	[0, 0, 0]	n/a	catFR1	1	R1170J
127.784	0.0	148054	DISTRACT_START	n/a	n/a	n/a	n/a	-999	-1	[0, 0, 0]	n/a	catFR1	1	R1170J
127.784	0.032	148054	START	n/a	n/a	n/a	n/a	-999	-1	[-999, -999, -999]	n/a	catFR1	1	R1170J
127.816	3.285	148086	PROB	3.252	n/a	n/a	n/a	-999	-1	[3, 5, 1]	9.0	catFR1	1	R1170J
131.101	2.266	151371	PROB	2.238	n/a	n/a	n/a	-999	-1	[5, 3, 1]	9.0	catFR1	1	R1170J
133.367	5.984	153637	PROB	5.947	n/a	n/a	n/a	-999	-1	[6, 9, 3]	18.0	catFR1	1	R1170J
139.351	3.835	159621	PROB	3.812	n/a	n/a	n/a	-999	-1	[4, 9, 1]	14.0	catFR1	1	R1170J
143.186	3.1	163456	PROB	3.065	n/a	n/a	n/a	-999	-1	[1, 2, 9]	12.0	catFR1	1	R1170J
146.286	3.852	166556	PROB	3.852	n/a	n/a	n/a	-999	-1	[9, 7, 2]	18.0	catFR1	1	R1170J
150.138	0.015	170408	STOP	n/a	n/a	n/a	n/a	-999	-1	[-999, -999, -999]	n/a	catFR1	1	R1170J
150.153	0.583	170423	DISTRACT_END	n/a	n/a	n/a	n/a	-999	-1	[0, 0, 0]	n/a	catFR1	1	R1170J
150.736	0.524	171006	RETRIEVAL_ORIENT	n/a	n/a	n/a	n/a	-999	-1	[0, 0, 0]	n/a	catFR1	1	R1170J
151.26	30.007	171530	PRACTICE_REC_START	n/a	n/a	n/a	n/a	-999	-1	[0, 0, 0]	n/a	catFR1	1	R1170J
181.267	13.776	201536	PRACTICE_REC_END	n/a	n/a	n/a	n/a	-999	-1	[0, 0, 0]	n/a	catFR1	1	R1170J
195.043	0.5	215312	TRIAL	n/a	n/a	n/a	n/a	-999	1	[0, 0, 0]	n/a	catFR1	1	R1170J
195.543	10.0	215812	COUNTDOWN_START	n/a	n/a	n/a	n/a	-999	1	[0, 0, 0]	n/a	catFR1	1	R1170J
205.971	0.023	226240	COUNTDOWN_END	n/a	n/a	n/a	n/a	-999	1	[0, 0, 0]	n/a	catFR1	1	R1170J
205.994	1.6	226263	ORIENT	n/a	n/a	n/a	n/a	-999	1	[0, 0, 0]	n/a	catFR1	1	R1170J
207.61	2.25	227879	ORIENT_OFF	n/a	n/a	n/a	n/a	-999	1	[0, 0, 0]	n/a	catFR1	1	R1170J
209.86	1.6	230129	WORD	n/a	wordpools/wordpool_categorized_EN.txt	STOVE	Appliances	1	1	[0, 0, 0]	n/a	catFR1	1	R1170J
211.477	1.0	231746	WORD_OFF	n/a	n/a	STOVE	n/a	1	1	[0, 0, 0]	n/a	catFR1	1	R1170J
212.477	1.6	232746	WORD	n/a	wordpools/wordpool_categorized_EN.txt	FREEZER	Appliances	2	1	[0, 0, 0]	n/a	catFR1	1	R1170J
214.095	0.884	234364	WORD_OFF	n/a	n/a	FREEZER	n/a	2	1	[0, 0, 0]	n/a	catFR1	1	R1170J
214.979	1.6	235248	WORD	n/a	wordpools/wordpool_categorized_EN.txt	VIOLIN	Instruments	3	1	[0, 0, 0]	n/a	catFR1	1	R1170J
216.595	0.816	236864	WORD_OFF	n/a	n/a	VIOLIN	n/a	3	1	[0, 0, 0]	n/a	catFR1	1	R1170J
217.411	1.6	237680	WORD	n/a	wordpools/wordpool_categorized_EN.txt	ORGAN	Instruments	4	1	[0, 0, 0]	n/a	catFR1	1	R1170J
219.029	0.799	239298	WORD_OFF	n/a	n/a	ORGAN	n/a	4	1	[0, 0, 0]	n/a	catFR1	1	R1170J
219.828	1.6	240097	WORD	n/a	wordpools/wordpool_categorized_EN.txt	LIGHTNING	Weather	5	1	[0, 0, 0]	n/a	catFR1	1	R1170J
221.445	0.9	241714	WORD_OFF	n/a	n/a	LIGHTNING	n/a	5	1	[0, 0, 0]	n/a	catFR1	1	R1170J
222.345	1.6	242614	WORD	n/a	wordpools/wordpool_categorized_EN.txt	DRIZZLE	Weather	6	1	[0, 0, 0]	n/a	catFR1	1	R1170J
223.963	0.866	244232	WORD_OFF	n/a	n/a	DRIZZLE	n/a	6	1	[0, 0, 0]	n/a	catFR1	1	R1170J
224.829	1.6	245098	WORD	n/a	wordpools/wordpool_categorized_EN.txt	BASS	Instruments	7	1	[0, 0, 0]	n/a	catFR1	1	R1170J
226.446	0.785	246715	WORD_OFF	n/a	n/a	BASS	n/a	7	1	[0, 0, 0]	n/a	catFR1	1	R1170J
227.231	1.6	247500	WORD	n/a	wordpools/wordpool_categorized_EN.txt	DRUM	Instruments	8	1	[0, 0, 0]	n/a	catFR1	1	R1170J
228.846	0.95	249115	WORD_OFF	n/a	n/a	DRUM	n/a	8	1	[0, 0, 0]	n/a	catFR1	1	R1170J
229.796	1.6	250065	WORD	n/a	wordpools/wordpool_categorized_EN.txt	MIXER	Appliances	9	1	[0, 0, 0]	n/a	catFR1	1	R1170J
231.413	0.95	251682	WORD_OFF	n/a	n/a	MIXER	n/a	9	1	[0, 0, 0]	n/a	catFR1	1	R1170J
232.363	1.6	252631	WORD	n/a	wordpools/wordpool_categorized_EN.txt	DISHWASHER	Appliances	10	1	[0, 0, 0]	n/a	catFR1	1	R1170J
233.981	0.799	254249	WORD_OFF	n/a	n/a	DISHWASHER	n/a	10	1	[0, 0, 0]	n/a	catFR1	1	R1170J
234.78	1.6	255048	WORD	n/a	wordpools/wordpool_categorized_EN.txt	HUMIDITY	Weather	11	1	[0, 0, 0]	n/a	catFR1	1	R1170J
236.397	0.984	256665	WORD_OFF	n/a	n/a	HUMIDITY	n/a	11	1	[0, 0, 0]	n/a	catFR1	1	R1170J
237.381	1.6	257649	WORD	n/a	wordpools/wordpool_categorized_EN.txt	FOG	Weather	12	1	[0, 0, 0]	n/a	catFR1	1	R1170J
238.998	0.001	259266	WORD_OFF	n/a	n/a	FOG	n/a	12	1	[0, 0, 0]	n/a	catFR1	1	R1170J
238.999	0.132	259267	ENCODING_END	n/a	n/a	n/a	n/a	-999	1	[0, 0, 0]	n/a	catFR1	1	R1170J
239.131	0.0	259399	DISTRACT_START	n/a	n/a	n/a	n/a	-999	1	[0, 0, 0]	n/a	catFR1	1	R1170J
239.131	0.018	259399	START	n/a	n/a	n/a	n/a	-999	1	[-999, -999, -999]	n/a	catFR1	1	R1170J
239.149	5.067	259417	PROB	5.042	n/a	n/a	n/a	-999	1	[6, 3, 1]	10.0	catFR1	1	R1170J
244.216	2.233	264484	PROB	2.199	n/a	n/a	n/a	-999	1	[2, 1, 6]	9.0	catFR1	1	R1170J
246.449	2.933	266717	PROB	2.894	n/a	n/a	n/a	-999	1	[4, 3, 1]	8.0	catFR1	1	R1170J
249.382	4.984	269650	PROB	4.961	n/a	n/a	n/a	-999	1	[1, 8, 7]	16.0	catFR1	1	R1170J
254.366	3.585	274634	PROB	3.552	n/a	n/a	n/a	-999	1	[2, 8, 8]	18.0	catFR1	1	R1170J
257.951	4.935	278219	PROB	4.935	n/a	n/a	n/a	-999	1	[1, 9, 9]	19.0	catFR1	1	R1170J
262.886	0.015	283154	STOP	n/a	n/a	n/a	n/a	-999	1	[-999, -999, -999]	n/a	catFR1	1	R1170J
262.901	0.633	283169	DISTRACT_END	n/a	n/a	n/a	n/a	-999	1	[0, 0, 0]	n/a	catFR1	1	R1170J
263.534	0.519	283802	RETRIEVAL_ORIENT	n/a	n/a	n/a	n/a	-999	1	[0, 0, 0]	n/a	catFR1	1	R1170J
264.053	1.481	284321	REC_START	n/a	n/a	n/a	n/a	-999	1	[0, 0, 0]	n/a	catFR1	1	R1170J
265.534	1.86	285802	REC_WORD	1.481	n/a	LOG	n/a	-999	1	[0, 0, 0]	n/a	catFR1	1	R1170J
267.394	1.843	287662	REC_WORD_VV	3.341	n/a	<>	n/a	-999	1	[0, 0, 0]	n/a	catFR1	1	R1170J
269.237	4.528	289505	REC_WORD	5.184	n/a	WOODS	n/a	-999	1	[0, 0, 0]	n/a	catFR1	1	R1170J
273.765	3.27	294033	REC_WORD	9.712	n/a	FROG	n/a	-999	1	[0, 0, 0]	n/a	catFR1	1	R1170J
277.035	3.846	297303	REC_WORD	12.982	n/a	ARM	n/a	-999	1	[0, 0, 0]	n/a	catFR1	1	R1170J
280.881	13.185	301149	REC_WORD_VV	16.828	n/a	<>	n/a	-999	1	[0, 0, 0]	n/a	catFR1	1	R1170J
294.066	5.556	314334	REC_END	n/a	n/a	n/a	n/a	-999	1	[0, 0, 0]	n/a	catFR1	1	R1170J
299.622	0.5	319889	TRIAL	n/a	n/a	n/a	n/a	-999	2	[0, 0, 0]	n/a	catFR1	1	R1170J
300.122	10.0	320389	COUNTDOWN_START	n/a	n/a	n/a	n/a	-999	2	[0, 0, 0]	n/a	catFR1	1	R1170J
310.55	0.007	330817	COUNTDOWN_END	n/a	n/a	n/a	n/a	-999	2	[0, 0, 0]	n/a	catFR1	1	R1170J
310.557	1.6	330824	ORIENT	n/a	n/a	n/a	n/a	-999	2	[0, 0, 0]	n/a	catFR1	1	R1170J
312.175	2.0	332442	ORIENT_OFF	n/a	n/a	n/a	n/a	-999	2	[0, 0, 0]	n/a	catFR1	1	R1170J
314.175	1.6	334442	WORD	n/a	wordpools/wordpool_categorized_EN.txt	CYPRESS	Trees	1	2	[0, 0, 0]	n/a	catFR1	1	R1170J
315.791	0.884	336058	WORD_OFF	n/a	n/a	CYPRESS	n/a	1	2	[0, 0, 0]	n/a	catFR1	1	R1170J
316.675	1.6	336942	WORD	n/a	wordpools/wordpool_categorized_EN.txt	SPRUCE	Trees	2	2	[0, 0, 0]	n/a	catFR1	1	R1170J
318.293	0.933	338560	WORD_OFF	n/a	n/a	SPRUCE	n/a	2	2	[0, 0, 0]	n/a	catFR1	1	R1170J
319.226	1.6	339493	WORD	n/a	wordpools/wordpool_categorized_EN.txt	FLOOR	Building	3	2	[0, 0, 0]	n/a	catFR1	1	R1170J
320.842	0.8	341109	WORD_OFF	n/a	n/a	FLOOR	n/a	3	2	[0, 0, 0]	n/a	catFR1	1	R1170J
321.642	1.6	341909	WORD	n/a	wordpools/wordpool_categorized_EN.txt	ATTIC	Building	4	2	[0, 0, 0]	n/a	catFR1	1	R1170J
323.26	0.833	343527	WORD_OFF	n/a	n/a	ATTIC	n/a	4	2	[0, 0, 0]	n/a	catFR1	1	R1170J
324.093	1.6	344360	WORD	n/a	wordpools/wordpool_categorized_EN.txt	BEE	Insects	5	2	[0, 0, 0]	n/a	catFR1	1	R1170J
325.709	0.817	345976	WORD_OFF	n/a	n/a	BEE	n/a	5	2	[0, 0, 0]	n/a	catFR1	1	R1170J
326.526	1.6	346793	WORD	n/a	wordpools/wordpool_categorized_EN.txt	BEETLE	Insects	6	2	[0, 0, 0]	n/a	catFR1	1	R1170J
328.144	0.95	348411	WORD_OFF	n/a	n/a	BEETLE	n/a	6	2	[0, 0, 0]	n/a	catFR1	1	R1170J
329.094	1.6	349361	WORD	n/a	wordpools/wordpool_categorized_EN.txt	CEDAR	Trees	7	2	[0, 0, 0]	n/a	catFR1	1	R1170J
330.71	0.866	350977	WORD_OFF	n/a	n/a	CEDAR	n/a	7	2	[0, 0, 0]	n/a	catFR1	1	R1170J
331.576	1.6	351843	WORD	n/a	wordpools/wordpool_categorized_EN.txt	WILLOW	Trees	8	2	[0, 0, 0]	n/a	catFR1	1	R1170J
333.194	0.934	353461	WORD_OFF	n/a	n/a	WILLOW	n/a	8	2	[0, 0, 0]	n/a	catFR1	1	R1170J
334.128	1.6	354395	WORD	n/a	wordpools/wordpool_categorized_EN.txt	WALL	Building	9	2	[0, 0, 0]	n/a	catFR1	1	R1170J
335.744	0.9	356011	WORD_OFF	n/a	n/a	WALL	n/a	9	2	[0, 0, 0]	n/a	catFR1	1	R1170J
336.644	1.6	356911	WORD	n/a	wordpools/wordpool_categorized_EN.txt	STAIRS	Building	10	2	[0, 0, 0]	n/a	catFR1	1	R1170J
338.262	0.883	358529	WORD_OFF	n/a	n/a	STAIRS	n/a	10	2	[0, 0, 0]	n/a	catFR1	1	R1170J
339.145	1.6	359412	WORD	n/a	wordpools/wordpool_categorized_EN.txt	GNAT	Insects	11	2	[0, 0, 0]	n/a	catFR1	1	R1170J
340.761	0.917	361028	WORD_OFF	n/a	n/a	GNAT	n/a	11	2	[0, 0, 0]	n/a	catFR1	1	R1170J
341.678	1.6	361945	WORD	n/a	wordpools/wordpool_categorized_EN.txt	ROACH	Insects	12	2	[0, 0, 0]	n/a	catFR1	1	R1170J
343.279	0.0	363546	ENCODING_END	n/a	n/a	n/a	n/a	-999	2	[0, 0, 0]	n/a	catFR1	1	R1170J
343.279	0.098	363546	WORD_OFF	n/a	n/a	ROACH	n/a	12	2	[0, 0, 0]	n/a	catFR1	1	R1170J
343.377	0.0	363644	DISTRACT_START	n/a	n/a	n/a	n/a	-999	2	[0, 0, 0]	n/a	catFR1	1	R1170J
343.377	0.018	363644	START	n/a	n/a	n/a	n/a	-999	2	[-999, -999, -999]	n/a	catFR1	1	R1170J
343.395	6.034	363662	PROB	6.008	n/a	n/a	n/a	-999	2	[2, 7, 7]	16.0	catFR1	1	R1170J
349.429	2.651	369696	PROB	2.624	n/a	n/a	n/a	-999	2	[2, 9, 1]	12.0	catFR1	1	R1170J
352.08	4.151	372347	PROB	4.123	n/a	n/a	n/a	-999	2	[9, 8, 9]	26.0	catFR1	1	R1170J
356.231	2.583	376498	PROB	2.555	n/a	n/a	n/a	-999	2	[9, 3, 7]	19.0	catFR1	1	R1170J
358.814	2.566	379081	PROB	2.532	n/a	n/a	n/a	-999	2	[1, 2, 2]	5.0	catFR1	1	R1170J
361.38	2.551	381647	PROB	2.551	n/a	n/a	n/a	-999	2	[5, 1, 6]	12.0	catFR1	1	R1170J
363.931	0.018	384198	STOP	n/a	n/a	n/a	n/a	-999	2	[-999, -999, -999]	n/a	catFR1	1	R1170J
363.949	0.632	384216	DISTRACT_END	n/a	n/a	n/a	n/a	-999	2	[0, 0, 0]	n/a	catFR1	1	R1170J
364.581	0.519	384848	RETRIEVAL_ORIENT	n/a	n/a	n/a	n/a	-999	2	[0, 0, 0]	n/a	catFR1	1	R1170J
365.1	7.467	385367	REC_START	n/a	n/a	n/a	n/a	-999	2	[0, 0, 0]	n/a	catFR1	1	R1170J
372.567	3.821	392833	REC_WORD	7.467	n/a	BACK	n/a	-999	2	[0, 0, 0]	n/a	catFR1	1	R1170J
376.388	18.725	396654	REC_WORD_VV	11.288	n/a	<>	n/a	-999	2	[0, 0, 0]	n/a	catFR1	1	R1170J
395.113	5.706	415379	REC_END	n/a	n/a	n/a	n/a	-999	2	[0, 0, 0]	n/a	catFR1	1	R1170J
400.819	0.5	421085	TRIAL	n/a	n/a	n/a	n/a	-999	3	[0, 0, 0]	n/a	catFR1	1	R1170J
401.319	10.0	421585	COUNTDOWN_START	n/a	n/a	n/a	n/a	-999	3	[0, 0, 0]	n/a	catFR1	1	R1170J
411.747	0.007	432013	COUNTDOWN_END	n/a	n/a	n/a	n/a	-999	3	[0, 0, 0]	n/a	catFR1	1	R1170J
411.754	1.6	432020	ORIENT	n/a	n/a	n/a	n/a	-999	3	[0, 0, 0]	n/a	catFR1	1	R1170J
413.371	2.15	433637	ORIENT_OFF	n/a	n/a	n/a	n/a	-999	3	[0, 0, 0]	n/a	catFR1	1	R1170J
415.521	1.6	435787	WORD	n/a	wordpools/wordpool_categorized_EN.txt	WIND	Weather	1	3	[0, 0, 0]	n/a	catFR1	1	R1170J
417.122	0.818	437388	WORD_OFF	n/a	n/a	WIND	n/a	1	3	[0, 0, 0]	n/a	catFR1	1	R1170J
417.94	1.6	438206	WORD	n/a	wordpools/wordpool_categorized_EN.txt	SNOW	Weather	2	3	[0, 0, 0]	n/a	catFR1	1	R1170J
419.555	0.95	439821	WORD_OFF	n/a	n/a	SNOW	n/a	2	3	[0, 0, 0]	n/a	catFR1	1	R1170J
420.505	1.6	440771	WORD	n/a	wordpools/wordpool_categorized_EN.txt	MOUNTAIN	Landscapes	3	3	[0, 0, 0]	n/a	catFR1	1	R1170J
422.123	0.95	442389	WORD_OFF	n/a	n/a	MOUNTAIN	n/a	3	3	[0, 0, 0]	n/a	catFR1	1	R1170J
423.073	1.6	443339	WORD	n/a	wordpools/wordpool_categorized_EN.txt	STREAM	Landscapes	4	3	[0, 0, 0]	n/a	catFR1	1	R1170J
424.689	0.9	444955	WORD_OFF	n/a	n/a	STREAM	n/a	4	3	[0, 0, 0]	n/a	catFR1	1	R1170J
425.589	1.6	445855	WORD	n/a	wordpools/wordpool_categorized_EN.txt	BLOUSE	Clothing	5	3	[0, 0, 0]	n/a	catFR1	1	R1170J
427.207	0.934	447473	WORD_OFF	n/a	n/a	BLOUSE	n/a	5	3	[0, 0, 0]	n/a	catFR1	1	R1170J
428.141	1.6	448407	WORD	n/a	wordpools/wordpool_categorized_EN.txt	JEANS	Clothing	6	3	[0, 0, 0]	n/a	catFR1	1	R1170J
429.756	0.867	450022	WORD_OFF	n/a	n/a	JEANS	n/a	6	3	[0, 0, 0]	n/a	catFR1	1	R1170J
430.623	1.6	450889	WORD	n/a	wordpools/wordpool_categorized_EN.txt	BEACH	Landscapes	7	3	[0, 0, 0]	n/a	catFR1	1	R1170J
432.224	0.817	452490	WORD_OFF	n/a	n/a	BEACH	n/a	7	3	[0, 0, 0]	n/a	catFR1	1	R1170J
433.041	1.6	453307	WORD	n/a	wordpools/wordpool_categorized_EN.txt	HILLS	Landscapes	8	3	[0, 0, 0]	n/a	catFR1	1	R1170J
434.657	0.934	454922	WORD_OFF	n/a	n/a	HILLS	n/a	8	3	[0, 0, 0]	n/a	catFR1	1	R1170J
435.591	1.6	455856	WORD	n/a	wordpools/wordpool_categorized_EN.txt	THUNDERSTORM	Weather	9	3	[0, 0, 0]	n/a	catFR1	1	R1170J
437.209	0.883	457474	WORD_OFF	n/a	n/a	THUNDERSTORM	n/a	9	3	[0, 0, 0]	n/a	catFR1	1	R1170J
438.092	1.6	458357	WORD	n/a	wordpools/wordpool_categorized_EN.txt	THUNDER	Weather	10	3	[0, 0, 0]	n/a	catFR1	1	R1170J
439.708	0.85	459973	WORD_OFF	n/a	n/a	THUNDER	n/a	10	3	[0, 0, 0]	n/a	catFR1	1	R1170J
440.558	1.6	460823	WORD	n/a	wordpools/wordpool_categorized_EN.txt	SOCKS	Clothing	11	3	[0, 0, 0]	n/a	catFR1	1	R1170J
442.176	0.866	462441	WORD_OFF	n/a	n/a	SOCKS	n/a	11	3	[0, 0, 0]	n/a	catFR1	1	R1170J
443.042	1.6	463307	WORD	n/a	wordpools/wordpool_categorized_EN.txt	SKIRT	Clothing	12	3	[0, 0, 0]	n/a	catFR1	1	R1170J
444.658	0.001	464923	WORD_OFF	n/a	n/a	SKIRT	n/a	12	3	[0, 0, 0]	n/a	catFR1	1	R1170J
444.659	0.097	464924	ENCODING_END	n/a	n/a	n/a	n/a	-999	3	[0, 0, 0]	n/a	catFR1	1	R1170J
444.756	0.0	465021	DISTRACT_START	n/a	n/a	n/a	n/a	-999	3	[0, 0, 0]	n/a	catFR1	1	R1170J
444.756	0.019	465021	START	n/a	n/a	n/a	n/a	-999	3	[-999, -999, -999]	n/a	catFR1	1	R1170J
444.775	5.701	465040	PROB	5.664	n/a	n/a	n/a	-999	3	[8, 8, 7]	23.0	catFR1	1	R1170J
450.476	2.267	470741	PROB	2.242	n/a	n/a	n/a	-999	3	[1, 8, 3]	12.0	catFR1	1	R1170J
452.743	2.418	473008	PROB	2.392	n/a	n/a	n/a	-999	3	[7, 1, 4]	12.0	catFR1	1	R1170J
455.161	2.917	475426	PROB	2.886	n/a	n/a	n/a	-999	3	[7, 8, 5]	20.0	catFR1	1	R1170J
458.078	7.617	478343	PROB	7.617	n/a	n/a	n/a	-999	3	[4, 9, 8]	21.0	catFR1	1	R1170J
465.695	0.017	485960	STOP	n/a	n/a	n/a	n/a	-999	3	[-999, -999, -999]	n/a	catFR1	1	R1170J
465.712	0.666	485977	DISTRACT_END	n/a	n/a	n/a	n/a	-999	3	[0, 0, 0]	n/a	catFR1	1	R1170J
466.378	0.518	486643	RETRIEVAL_ORIENT	n/a	n/a	n/a	n/a	-999	3	[0, 0, 0]	n/a	catFR1	1	R1170J
466.896	0.534	487161	REC_START	n/a	n/a	n/a	n/a	-999	3	[0, 0, 0]	n/a	catFR1	1	R1170J
467.43	3.806	487695	REC_WORD	0.534	n/a	THUNDERSTORM	Weather	9	3	[0, 0, 0]	n/a	catFR1	1	R1170J
471.236	0.35	491501	REC_WORD_VV	4.34	n/a	<>	n/a	-999	3	[0, 0, 0]	n/a	catFR1	1	R1170J
471.586	1.812	491851	REC_WORD	4.69	n/a	LIGHTNING	n/a	-999	3	[0, 0, 0]	n/a	catFR1	1	R1170J
473.398	4.762	493663	REC_WORD	6.502	n/a	THUNDER	Weather	10	3	[0, 0, 0]	n/a	catFR1	1	R1170J
478.16	8.767	498425	REC_WORD	11.264	n/a	COLD	n/a	-999	3	[0, 0, 0]	n/a	catFR1	1	R1170J
486.927	9.983	507192	REC_WORD	20.031	n/a	SHOCK	n/a	-999	3	[0, 0, 0]	n/a	catFR1	1	R1170J
496.91	4.274	517175	REC_END	n/a	n/a	n/a	n/a	-999	3	[0, 0, 0]	n/a	catFR1	1	R1170J
501.184	0.5	521448	TRIAL	n/a	n/a	n/a	n/a	-999	4	[0, 0, 0]	n/a	catFR1	1	R1170J
501.684	10.0	521948	COUNTDOWN_START	n/a	n/a	n/a	n/a	-999	4	[0, 0, 0]	n/a	catFR1	1	R1170J
512.112	0.006	532376	COUNTDOWN_END	n/a	n/a	n/a	n/a	-999	4	[0, 0, 0]	n/a	catFR1	1	R1170J
512.118	1.6	532382	ORIENT	n/a	n/a	n/a	n/a	-999	4	[0, 0, 0]	n/a	catFR1	1	R1170J
513.734	1.967	533998	ORIENT_OFF	n/a	n/a	n/a	n/a	-999	4	[0, 0, 0]	n/a	catFR1	1	R1170J
515.701	1.6	535965	WORD	n/a	wordpools/wordpool_categorized_EN.txt	RECLINER	Furniture	1	4	[0, 0, 0]	n/a	catFR1	1	R1170J
517.318	1.0	537582	WORD_OFF	n/a	n/a	RECLINER	n/a	1	4	[0, 0, 0]	n/a	catFR1	1	R1170J
518.318	1.6	538582	WORD	n/a	wordpools/wordpool_categorized_EN.txt	BOOKCASE	Furniture	2	4	[0, 0, 0]	n/a	catFR1	1	R1170J
519.919	1.017	540183	WORD_OFF	n/a	n/a	BOOKCASE	n/a	2	4	[0, 0, 0]	n/a	catFR1	1	R1170J
520.936	1.6	541200	WORD	n/a	wordpools/wordpool_categorized_EN.txt	CAR	Vehicles	3	4	[0, 0, 0]	n/a	catFR1	1	R1170J
522.552	0.951	542816	WORD_OFF	n/a	n/a	CAR	n/a	3	4	[0, 0, 0]	n/a	catFR1	1	R1170J
523.503	1.6	543767	WORD	n/a	wordpools/wordpool_categorized_EN.txt	TRUCK	Vehicles	4	4	[0, 0, 0]	n/a	catFR1	1	R1170J
525.121	0.8	545385	WORD_OFF	n/a	n/a	TRUCK	n/a	4	4	[0, 0, 0]	n/a	catFR1	1	R1170J
525.921	1.6	546185	WORD	n/a	wordpools/wordpool_categorized_EN.txt	RATCHET	Tools	5	4	[0, 0, 0]	n/a	catFR1	1	R1170J
527.537	0.85	547801	WORD_OFF	n/a	n/a	RATCHET	n/a	5	4	[0, 0, 0]	n/a	catFR1	1	R1170J
528.387	1.6	548651	WORD	n/a	wordpools/wordpool_categorized_EN.txt	HAMMER	Tools	6	4	[0, 0, 0]	n/a	catFR1	1	R1170J
530.004	0.816	550268	WORD_OFF	n/a	n/a	HAMMER	n/a	6	4	[0, 0, 0]	n/a	catFR1	1	R1170J
530.82	1.6	551084	WORD	n/a	wordpools/wordpool_categorized_EN.txt	BOAT	Vehicles	7	4	[0, 0, 0]	n/a	catFR1	1	R1170J
532.437	1.0	552701	WORD_OFF	n/a	n/a	BOAT	n/a	7	4	[0, 0, 0]	n/a	catFR1	1	R1170J
533.437	1.6	553701	WORD	n/a	wordpools/wordpool_categorized_EN.txt	BIKE	Vehicles	8	4	[0, 0, 0]	n/a	catFR1	1	R1170J
535.055	1.0	555319	WORD_OFF	n/a	n/a	BIKE	n/a	8	4	[0, 0, 0]	n/a	catFR1	1	R1170J
536.055	1.6	556319	WORD	n/a	wordpools/wordpool_categorized_EN.txt	CHAIR	Furniture	9	4	[0, 0, 0]	n/a	catFR1	1	R1170J
537.671	0.984	557935	WORD_OFF	n/a	n/a	CHAIR	n/a	9	4	[0, 0, 0]	n/a	catFR1	1	R1170J
538.655	1.6	558919	WORD	n/a	wordpools/wordpool_categorized_EN.txt	CABINET	Furniture	10	4	[0, 0, 0]	n/a	catFR1	1	R1170J
540.272	0.8	560536	WORD_OFF	n/a	n/a	CABINET	n/a	10	4	[0, 0, 0]	n/a	catFR1	1	R1170J
541.072	1.6	561336	WORD	n/a	wordpools/wordpool_categorized_EN.txt	SCREWDRIVER	Tools	11	4	[0, 0, 0]	n/a	catFR1	1	R1170J
542.688	0.884	562952	WORD_OFF	n/a	n/a	SCREWDRIVER	n/a	11	4	[0, 0, 0]	n/a	catFR1	1	R1170J
543.572	1.6	563836	WORD	n/a	wordpools/wordpool_categorized_EN.txt	PLIERS	Tools	12	4	[0, 0, 0]	n/a	catFR1	1	R1170J
545.19	0.0	565454	ENCODING_END	n/a	n/a	n/a	n/a	-999	4	[0, 0, 0]	n/a	catFR1	1	R1170J
545.19	0.128	565454	WORD_OFF	n/a	n/a	PLIERS	n/a	12	4	[0, 0, 0]	n/a	catFR1	1	R1170J
545.318	0.0	565582	DISTRACT_START	n/a	n/a	n/a	n/a	-999	4	[0, 0, 0]	n/a	catFR1	1	R1170J
545.318	0.021	565582	START	n/a	n/a	n/a	n/a	-999	4	[-999, -999, -999]	n/a	catFR1	1	R1170J
545.339	7.134	565603	PROB	7.106	n/a	n/a	n/a	-999	4	[9, 6, 9]	24.0	catFR1	1	R1170J
552.473	2.367	572737	PROB	2.33	n/a	n/a	n/a	-999	4	[7, 1, 4]	12.0	catFR1	1	R1170J
554.84	5.65	575104	PROB	5.611	n/a	n/a	n/a	-999	4	[4, 6, 6]	16.0	catFR1	1	R1170J
560.49	10.849	580754	PROB	10.849	n/a	n/a	n/a	-999	4	[3, 3, 8]	14.0	catFR1	1	R1170J
571.339	0.02	591602	STOP	n/a	n/a	n/a	n/a	-999	4	[-999, -999, -999]	n/a	catFR1	1	R1170J
571.359	0.651	591622	DISTRACT_END	n/a	n/a	n/a	n/a	-999	4	[0, 0, 0]	n/a	catFR1	1	R1170J
572.01	0.516	592273	RETRIEVAL_ORIENT	n/a	n/a	n/a	n/a	-999	4	[0, 0, 0]	n/a	catFR1	1	R1170J
572.526	1.811	592789	REC_START	n/a	n/a	n/a	n/a	-999	4	[0, 0, 0]	n/a	catFR1	1	R1170J
574.337	4.173	594600	REC_WORD	1.811	n/a	THUNDERSTORM	n/a	-999	4	[0, 0, 0]	n/a	catFR1	1	R1170J
578.51	2.899	598773	REC_WORD	5.984	n/a	LIGHT	n/a	-999	4	[0, 0, 0]	n/a	catFR1	1	R1170J
581.409	6.113	601672	REC_WORD	8.883	n/a	BREEZE	n/a	-999	4	[0, 0, 0]	n/a	catFR1	1	R1170J
587.522	3.538	607785	REC_WORD	14.996	n/a	SHOCK	n/a	-999	4	[0, 0, 0]	n/a	catFR1	1	R1170J
591.06	6.39	611323	REC_WORD	18.534	n/a	WRISTBAND	n/a	-999	4	[0, 0, 0]	n/a	catFR1	1	R1170J
597.45	5.088	617713	REC_WORD_VV	24.924	n/a	<>	n/a	-999	4	[0, 0, 0]	n/a	catFR1	1	R1170J
602.538	5.009	622801	REC_END	n/a	n/a	n/a	n/a	-999	4	[0, 0, 0]	n/a	catFR1	1	R1170J
607.547	0.5	627810	TRIAL	n/a	n/a	n/a	n/a	-999	5	[0, 0, 0]	n/a	catFR1	1	R1170J
608.047	10.0	628310	COUNTDOWN_START	n/a	n/a	n/a	n/a	-999	5	[0, 0, 0]	n/a	catFR1	1	R1170J
618.475	0.007	638738	COUNTDOWN_END	n/a	n/a	n/a	n/a	-999	5	[0, 0, 0]	n/a	catFR1	1	R1170J
618.482	1.6	638745	ORIENT	n/a	n/a	n/a	n/a	-999	5	[0, 0, 0]	n/a	catFR1	1	R1170J
620.099	2.001	640362	ORIENT_OFF	n/a	n/a	n/a	n/a	-999	5	[0, 0, 0]	n/a	catFR1	1	R1170J
622.1	1.6	642363	WORD	n/a	wordpools/wordpool_categorized_EN.txt	POTATO	Vegetables	1	5	[0, 0, 0]	n/a	catFR1	1	R1170J
623.716	0.883	643979	WORD_OFF	n/a	n/a	POTATO	n/a	1	5	[0, 0, 0]	n/a	catFR1	1	R1170J
624.599	1.6	644862	WORD	n/a	wordpools/wordpool_categorized_EN.txt	PEAS	Vegetables	2	5	[0, 0, 0]	n/a	catFR1	1	R1170J
626.217	0.834	646480	WORD_OFF	n/a	n/a	PEAS	n/a	2	5	[0, 0, 0]	n/a	catFR1	1	R1170J
627.051	1.6	647314	WORD	n/a	wordpools/wordpool_categorized_EN.txt	CALCULATOR	Electronics	3	5	[0, 0, 0]	n/a	catFR1	1	R1170J
628.666	0.95	648929	WORD_OFF	n/a	n/a	CALCULATOR	n/a	3	5	[0, 0, 0]	n/a	catFR1	1	R1170J
629.616	1.6	649879	WORD	n/a	wordpools/wordpool_categorized_EN.txt	HEADPHONES	Electronics	4	5	[0, 0, 0]	n/a	catFR1	1	R1170J
631.234	1.017	651497	WORD_OFF	n/a	n/a	HEADPHONES	n/a	4	5	[0, 0, 0]	n/a	catFR1	1	R1170J
632.251	1.6	652514	WORD	n/a	wordpools/wordpool_categorized_EN.txt	LAMB	FarmAnimals	5	5	[0, 0, 0]	n/a	catFR1	1	R1170J
633.867	0.767	654130	WORD_OFF	n/a	n/a	LAMB	n/a	5	5	[0, 0, 0]	n/a	catFR1	1	R1170J
634.634	1.6	654896	WORD	n/a	wordpools/wordpool_categorized_EN.txt	CALF	FarmAnimals	6	5	[0, 0, 0]	n/a	catFR1	1	R1170J
636.252	0.783	656514	WORD_OFF	n/a	n/a	CALF	n/a	6	5	[0, 0, 0]	n/a	catFR1	1	R1170J
637.035	1.6	657297	WORD	n/a	wordpools/wordpool_categorized_EN.txt	CAULIFLOWER	Vegetables	7	5	[0, 0, 0]	n/a	catFR1	1	R1170J
638.651	0.867	658913	WORD_OFF	n/a	n/a	CAULIFLOWER	n/a	7	5	[0, 0, 0]	n/a	catFR1	1	R1170J
639.518	1.6	659780	WORD	n/a	wordpools/wordpool_categorized_EN.txt	CELERY	Vegetables	8	5	[0, 0, 0]	n/a	catFR1	1	R1170J
641.119	1.0	661381	WORD_OFF	n/a	n/a	CELERY	n/a	8	5	[0, 0, 0]	n/a	catFR1	1	R1170J
642.119	1.6	662381	WORD	n/a	wordpools/wordpool_categorized_EN.txt	RADIO	Electronics	9	5	[0, 0, 0]	n/a	catFR1	1	R1170J
643.735	1.001	663997	WORD_OFF	n/a	n/a	RADIO	n/a	9	5	[0, 0, 0]	n/a	catFR1	1	R1170J
644.736	1.6	664998	WORD	n/a	wordpools/wordpool_categorized_EN.txt	COMPUTER	Electronics	10	5	[0, 0, 0]	n/a	catFR1	1	R1170J
646.353	1.0	666615	WORD_OFF	n/a	n/a	COMPUTER	n/a	10	5	[0, 0, 0]	n/a	catFR1	1	R1170J
647.353	1.6	667615	WORD	n/a	wordpools/wordpool_categorized_EN.txt	GOAT	FarmAnimals	11	5	[0, 0, 0]	n/a	catFR1	1	R1170J
648.97	1.0	669232	WORD_OFF	n/a	n/a	GOAT	n/a	11	5	[0, 0, 0]	n/a	catFR1	1	R1170J
649.97	1.6	670232	WORD	n/a	wordpools/wordpool_categorized_EN.txt	HORSE	FarmAnimals	12	5	[0, 0, 0]	n/a	catFR1	1	R1170J
651.586	0.001	671848	WORD_OFF	n/a	n/a	HORSE	n/a	12	5	[0, 0, 0]	n/a	catFR1	1	R1170J
651.587	0.096	671849	ENCODING_END	n/a	n/a	n/a	n/a	-999	5	[0, 0, 0]	n/a	catFR1	1	R1170J
651.683	0.0	671945	DISTRACT_START	n/a	n/a	n/a	n/a	-999	5	[0, 0, 0]	n/a	catFR1	1	R1170J
651.683	0.02	671945	START	n/a	n/a	n/a	n/a	-999	5	[-999, -999, -999]	n/a	catFR1	1	R1170J
651.703	4.918	671965	PROB	4.889	n/a	n/a	n/a	-999	5	[5, 5, 1]	11.0	catFR1	1	R1170J
656.621	3.384	676883	PROB	3.349	n/a	n/a	n/a	-999	5	[7, 1, 4]	12.0	catFR1	1	R1170J
660.005	3.001	680267	PROB	2.964	n/a	n/a	n/a	-999	5	[5, 1, 2]	8.0	catFR1	1	R1170J
663.006	3.582	683268	PROB	3.553	n/a	n/a	n/a	-999	5	[1, 7, 6]	14.0	catFR1	1	R1170J
666.588	2.851	686850	PROB	2.819	n/a	n/a	n/a	-999	5	[6, 9, 1]	16.0	catFR1	1	R1170J
669.439	2.817	689701	PROB	2.817	n/a	n/a	n/a	-999	5	[7, 2, 9]	18.0	catFR1	1	R1170J
672.256	0.018	692518	STOP	n/a	n/a	n/a	n/a	-999	5	[-999, -999, -999]	n/a	catFR1	1	R1170J
672.274	0.699	692536	DISTRACT_END	n/a	n/a	n/a	n/a	-999	5	[0, 0, 0]	n/a	catFR1	1	R1170J
672.973	0.517	693235	RETRIEVAL_ORIENT	n/a	n/a	n/a	n/a	-999	5	[0, 0, 0]	n/a	catFR1	1	R1170J
673.49	0.476	693752	REC_START	n/a	n/a	n/a	n/a	-999	5	[0, 0, 0]	n/a	catFR1	1	R1170J
673.966	6.601	694228	REC_WORD	0.476	n/a	CAULIFLOWER	Vegetables	7	5	[0, 0, 0]	n/a	catFR1	1	R1170J
680.567	2.875	700829	REC_WORD	7.077	n/a	GOAT	FarmAnimals	11	5	[0, 0, 0]	n/a	catFR1	1	R1170J
683.442	3.695	703704	REC_WORD	9.952	n/a	HORSE	FarmAnimals	12	5	[0, 0, 0]	n/a	catFR1	1	R1170J
687.137	0.453	707399	REC_WORD_VV	13.647	n/a	<>	n/a	-999	5	[0, 0, 0]	n/a	catFR1	1	R1170J
687.59	15.912	707852	REC_WORD	14.1	n/a	MUSHROOM	n/a	-999	5	[0, 0, 0]	n/a	catFR1	1	R1170J
703.502	6.392	723763	REC_END	n/a	n/a	n/a	n/a	-999	5	[0, 0, 0]	n/a	catFR1	1	R1170J
709.894	0.5	730155	TRIAL	n/a	n/a	n/a	n/a	-999	6	[0, 0, 0]	n/a	catFR1	1	R1170J
710.394	10.0	730655	COUNTDOWN_START	n/a	n/a	n/a	n/a	-999	6	[0, 0, 0]	n/a	catFR1	1	R1170J
720.822	0.007	741083	COUNTDOWN_END	n/a	n/a	n/a	n/a	-999	6	[0, 0, 0]	n/a	catFR1	1	R1170J
720.829	1.6	741090	ORIENT	n/a	n/a	n/a	n/a	-999	6	[0, 0, 0]	n/a	catFR1	1	R1170J
722.446	1.917	742707	ORIENT_OFF	n/a	n/a	n/a	n/a	-999	6	[0, 0, 0]	n/a	catFR1	1	R1170J
724.363	1.6	744624	WORD	n/a	wordpools/wordpool_categorized_EN.txt	FOOT	BodyParts	1	6	[0, 0, 0]	n/a	catFR1	1	R1170J
725.981	0.933	746242	WORD_OFF	n/a	n/a	FOOT	n/a	1	6	[0, 0, 0]	n/a	catFR1	1	R1170J
726.914	1.6	747175	WORD	n/a	wordpools/wordpool_categorized_EN.txt	ELBOW	BodyParts	2	6	[0, 0, 0]	n/a	catFR1	1	R1170J
728.53	0.8	748791	WORD_OFF	n/a	n/a	ELBOW	n/a	2	6	[0, 0, 0]	n/a	catFR1	1	R1170J
729.33	1.6	749591	WORD	n/a	wordpools/wordpool_categorized_EN.txt	IRON	Appliances	3	6	[0, 0, 0]	n/a	catFR1	1	R1170J
730.948	0.916	751209	WORD_OFF	n/a	n/a	IRON	n/a	3	6	[0, 0, 0]	n/a	catFR1	1	R1170J
731.864	1.6	752125	WORD	n/a	wordpools/wordpool_categorized_EN.txt	OVEN	Appliances	4	6	[0, 0, 0]	n/a	catFR1	1	R1170J
733.481	0.767	753742	WORD_OFF	n/a	n/a	OVEN	n/a	4	6	[0, 0, 0]	n/a	catFR1	1	R1170J
734.248	1.6	754509	WORD	n/a	wordpools/wordpool_categorized_EN.txt	BUTTERFLY	Insects	5	6	[0, 0, 0]	n/a	catFR1	1	R1170J
735.864	1.0	756125	WORD_OFF	n/a	n/a	BUTTERFLY	n/a	5	6	[0, 0, 0]	n/a	catFR1	1	R1170J
736.864	1.6	757125	WORD	n/a	wordpools/wordpool_categorized_EN.txt	LADYBUG	Insects	6	6	[0, 0, 0]	n/a	catFR1	1	R1170J
738.481	0.818	758742	WORD_OFF	n/a	n/a	LADYBUG	n/a	6	6	[0, 0, 0]	n/a	catFR1	1	R1170J
739.299	1.6	759560	WORD	n/a	wordpools/wordpool_categorized_EN.txt	KNEE	BodyParts	7	6	[0, 0, 0]	n/a	catFR1	1	R1170J
740.916	1.0	761177	WORD_OFF	n/a	n/a	KNEE	n/a	7	6	[0, 0, 0]	n/a	catFR1	1	R1170J
741.916	1.6	762177	WORD	n/a	wordpools/wordpool_categorized_EN.txt	EYE	BodyParts	8	6	[0, 0, 0]	n/a	catFR1	1	R1170J
743.532	0.867	763793	WORD_OFF	n/a	n/a	EYE	n/a	8	6	[0, 0, 0]	n/a	catFR1	1	R1170J
744.399	1.6	764660	WORD	n/a	wordpools/wordpool_categorized_EN.txt	WASHER	Appliances	9	6	[0, 0, 0]	n/a	catFR1	1	R1170J
746.017	0.983	766278	WORD_OFF	n/a	n/a	WASHER	n/a	9	6	[0, 0, 0]	n/a	catFR1	1	R1170J
747.0	1.6	767261	WORD	n/a	wordpools/wordpool_categorized_EN.txt	TOASTER	Appliances	10	6	[0, 0, 0]	n/a	catFR1	1	R1170J
748.616	1.0	768877	WORD_OFF	n/a	n/a	TOASTER	n/a	10	6	[0, 0, 0]	n/a	catFR1	1	R1170J
749.616	1.6	769877	WORD	n/a	wordpools/wordpool_categorized_EN.txt	CRICKET	Insects	11	6	[0, 0, 0]	n/a	catFR1	1	R1170J
751.234	0.983	771495	WORD_OFF	n/a	n/a	CRICKET	n/a	11	6	[0, 0, 0]	n/a	catFR1	1	R1170J
752.217	1.6	772478	WORD	n/a	wordpools/wordpool_categorized_EN.txt	FLY	Insects	12	6	[0, 0, 0]	n/a	catFR1	1	R1170J
753.833	0.0	774094	ENCODING_END	n/a	n/a	n/a	n/a	-999	6	[0, 0, 0]	n/a	catFR1	1	R1170J
753.833	0.128	774094	WORD_OFF	n/a	n/a	FLY	n/a	12	6	[0, 0, 0]	n/a	catFR1	1	R1170J
753.961	0.0	774222	DISTRACT_START	n/a	n/a	n/a	n/a	-999	6	[0, 0, 0]	n/a	catFR1	1	R1170J
753.961	0.023	774222	START	n/a	n/a	n/a	n/a	-999	6	[-999, -999, -999]	n/a	catFR1	1	R1170J
753.984	4.583	774245	PROB	4.55	n/a	n/a	n/a	-999	6	[3, 9, 9]	21.0	catFR1	1	R1170J
758.567	3.385	778828	PROB	3.36	n/a	n/a	n/a	-999	6	[3, 6, 9]	18.0	catFR1	1	R1170J
761.952	5.7	782213	PROB	5.661	n/a	n/a	n/a	-999	6	[2, 8, 3]	13.0	catFR1	1	R1170J
767.652	4.318	787913	PROB	4.29	n/a	n/a	n/a	-999	6	[5, 7, 4]	16.0	catFR1	1	R1170J
771.97	2.994	792230	PROB	2.994	n/a	n/a	n/a	-999	6	[7, 1, 1]	9.0	catFR1	1	R1170J
774.964	0.007	795224	STOP	n/a	n/a	n/a	n/a	-999	6	[-999, -999, -999]	n/a	catFR1	1	R1170J
774.971	0.699	795231	DISTRACT_END	n/a	n/a	n/a	n/a	-999	6	[0, 0, 0]	n/a	catFR1	1	R1170J
775.67	0.519	795930	RETRIEVAL_ORIENT	n/a	n/a	n/a	n/a	-999	6	[0, 0, 0]	n/a	catFR1	1	R1170J
776.189	6.658	796449	REC_START	n/a	n/a	n/a	n/a	-999	6	[0, 0, 0]	n/a	catFR1	1	R1170J
782.847	3.987	803107	REC_WORD	6.658	n/a	BACK	n/a	-999	6	[0, 0, 0]	n/a	catFR1	1	R1170J
786.834	10.316	807094	REC_WORD	10.645	n/a	TURNIP	n/a	-999	6	[0, 0, 0]	n/a	catFR1	1	R1170J
797.15	2.625	817410	REC_WORD	20.961	n/a	HOT	n/a	-999	6	[0, 0, 0]	n/a	catFR1	1	R1170J
799.775	6.425	820035	REC_WORD	23.586	n/a	STEAM	n/a	-999	6	[0, 0, 0]	n/a	catFR1	1	R1170J
806.2	5.508	826460	REC_END	n/a	n/a	n/a	n/a	-999	6	[0, 0, 0]	n/a	catFR1	1	R1170J
811.708	0.5	831968	TRIAL	n/a	n/a	n/a	n/a	-999	7	[0, 0, 0]	n/a	catFR1	1	R1170J
812.208	10.0	832468	COUNTDOWN_START	n/a	n/a	n/a	n/a	-999	7	[0, 0, 0]	n/a	catFR1	1	R1170J
822.636	0.007	842896	COUNTDOWN_END	n/a	n/a	n/a	n/a	-999	7	[0, 0, 0]	n/a	catFR1	1	R1170J
822.643	1.6	842903	ORIENT	n/a	n/a	n/a	n/a	-999	7	[0, 0, 0]	n/a	catFR1	1	R1170J
824.261	2.216	844521	ORIENT_OFF	n/a	n/a	n/a	n/a	-999	7	[0, 0, 0]	n/a	catFR1	1	R1170J
826.477	1.6	846737	WORD	n/a	wordpools/wordpool_categorized_EN.txt	KNIFE	KitchenTools	1	7	[0, 0, 0]	n/a	catFR1	1	R1170J
828.095	0.933	848355	WORD_OFF	n/a	n/a	KNIFE	n/a	1	7	[0, 0, 0]	n/a	catFR1	1	R1170J
829.028	1.6	849288	WORD	n/a	wordpools/wordpool_categorized_EN.txt	COLANDER	KitchenTools	2	7	[0, 0, 0]	n/a	catFR1	1	R1170J
830.644	0.783	850904	WORD_OFF	n/a	n/a	COLANDER	n/a	2	7	[0, 0, 0]	n/a	catFR1	1	R1170J
831.427	1.6	851687	WORD	n/a	wordpools/wordpool_categorized_EN.txt	HICKORY	Trees	3	7	[0, 0, 0]	n/a	catFR1	1	R1170J
833.028	0.917	853288	WORD_OFF	n/a	n/a	HICKORY	n/a	3	7	[0, 0, 0]	n/a	catFR1	1	R1170J
833.945	1.6	854205	WORD	n/a	wordpools/wordpool_categorized_EN.txt	WALNUT	Trees	4	7	[0, 0, 0]	n/a	catFR1	1	R1170J
835.561	0.9	855820	WORD_OFF	n/a	n/a	WALNUT	n/a	4	7	[0, 0, 0]	n/a	catFR1	1	R1170J
836.461	1.6	856720	WORD	n/a	wordpools/wordpool_categorized_EN.txt	DRILL	Tools	5	7	[0, 0, 0]	n/a	catFR1	1	R1170J
838.079	0.833	858338	WORD_OFF	n/a	n/a	DRILL	n/a	5	7	[0, 0, 0]	n/a	catFR1	1	R1170J
838.912	1.6	859171	WORD	n/a	wordpools/wordpool_categorized_EN.txt	SAW	Tools	6	7	[0, 0, 0]	n/a	catFR1	1	R1170J
840.528	0.85	860787	WORD_OFF	n/a	n/a	SAW	n/a	6	7	[0, 0, 0]	n/a	catFR1	1	R1170J
841.378	1.6	861637	WORD	n/a	wordpools/wordpool_categorized_EN.txt	STRAINER	KitchenTools	7	7	[0, 0, 0]	n/a	catFR1	1	R1170J
842.979	0.883	863238	WORD_OFF	n/a	n/a	STRAINER	n/a	7	7	[0, 0, 0]	n/a	catFR1	1	R1170J
843.862	1.6	864121	WORD	n/a	wordpools/wordpool_categorized_EN.txt	PEELER	KitchenTools	8	7	[0, 0, 0]	n/a	catFR1	1	R1170J
845.479	1.0	865738	WORD_OFF	n/a	n/a	PEELER	n/a	8	7	[0, 0, 0]	n/a	catFR1	1	R1170J
846.479	1.6	866738	WORD	n/a	wordpools/wordpool_categorized_EN.txt	PINE	Trees	9	7	[0, 0, 0]	n/a	catFR1	1	R1170J
848.08	0.967	868339	WORD_OFF	n/a	n/a	PINE	n/a	9	7	[0, 0, 0]	n/a	catFR1	1	R1170J
849.047	1.6	869306	WORD	n/a	wordpools/wordpool_categorized_EN.txt	BIRCH	Trees	10	7	[0, 0, 0]	n/a	catFR1	1	R1170J
850.663	0.767	870922	WORD_OFF	n/a	n/a	BIRCH	n/a	10	7	[0, 0, 0]	n/a	catFR1	1	R1170J
851.43	1.6	871689	WORD	n/a	wordpools/wordpool_categorized_EN.txt	AXE	Tools	11	7	[0, 0, 0]	n/a	catFR1	1	R1170J
853.048	1.0	873307	WORD_OFF	n/a	n/a	AXE	n/a	11	7	[0, 0, 0]	n/a	catFR1	1	R1170J
854.048	1.6	874307	WORD	n/a	wordpools/wordpool_categorized_EN.txt	SHOVEL	Tools	12	7	[0, 0, 0]	n/a	catFR1	1	R1170J
855.664	0.0	875923	ENCODING_END	n/a	n/a	n/a	n/a	-999	7	[0, 0, 0]	n/a	catFR1	1	R1170J
855.664	0.126	875923	WORD_OFF	n/a	n/a	SHOVEL	n/a	12	7	[0, 0, 0]	n/a	catFR1	1	R1170J
855.79	0.0	876049	DISTRACT_START	n/a	n/a	n/a	n/a	-999	7	[0, 0, 0]	n/a	catFR1	1	R1170J
855.79	0.007	876049	START	n/a	n/a	n/a	n/a	-999	7	[-999, -999, -999]	n/a	catFR1	1	R1170J
855.797	4.0	876056	PROB	3.971	n/a	n/a	n/a	-999	7	[9, 1, 4]	14.0	catFR1	1	R1170J
859.797	2.701	880056	PROB	2.677	n/a	n/a	n/a	-999	7	[4, 4, 4]	12.0	catFR1	1	R1170J
862.498	2.967	882757	PROB	2.944	n/a	n/a	n/a	-999	7	[9, 6, 4]	19.0	catFR1	1	R1170J
865.465	3.434	885724	PROB	3.399	n/a	n/a	n/a	-999	7	[7, 5, 4]	16.0	catFR1	1	R1170J
868.899	4.301	889158	PROB	4.271	n/a	n/a	n/a	-999	7	[2, 3, 9]	14.0	catFR1	1	R1170J
873.2	10.193	893459	PROB	10.193	n/a	n/a	n/a	-999	7	[9, 7, 5]	21.0	catFR1	1	R1170J
883.393	0.008	903652	STOP	n/a	n/a	n/a	n/a	-999	7	[-999, -999, -999]	n/a	catFR1	1	R1170J
883.401	0.551	903660	DISTRACT_END	n/a	n/a	n/a	n/a	-999	7	[0, 0, 0]	n/a	catFR1	1	R1170J
883.952	0.516	904211	RETRIEVAL_ORIENT	n/a	n/a	n/a	n/a	-999	7	[0, 0, 0]	n/a	catFR1	1	R1170J
884.468	0.638	904727	REC_START	n/a	n/a	n/a	n/a	-999	7	[0, 0, 0]	n/a	catFR1	1	R1170J
885.106	2.474	905365	REC_WORD	0.638	n/a	CAULIFLOWER	n/a	-999	7	[0, 0, 0]	n/a	catFR1	1	R1170J
887.58	2.669	907839	REC_WORD_VV	3.112	n/a	<>	n/a	-999	7	[0, 0, 0]	n/a	catFR1	1	R1170J
890.249	3.476	910508	REC_WORD	5.781	n/a	LEAF	n/a	-999	7	[0, 0, 0]	n/a	catFR1	1	R1170J
893.725	5.409	913984	REC_WORD	9.257	n/a	SPINACH	n/a	-999	7	[0, 0, 0]	n/a	catFR1	1	R1170J
899.134	4.303	919393	REC_WORD	14.666	n/a	RESTAURANT	n/a	-999	7	[0, 0, 0]	n/a	catFR1	1	R1170J
903.437	11.044	923695	REC_WORD_VV	18.969	n/a	<>	n/a	-999	7	[0, 0, 0]	n/a	catFR1	1	R1170J
914.481	5.374	934739	REC_END	n/a	n/a	n/a	n/a	-999	7	[0, 0, 0]	n/a	catFR1	1	R1170J
919.855	0.5	940113	TRIAL	n/a	n/a	n/a	n/a	-999	8	[0, 0, 0]	n/a	catFR1	1	R1170J
920.355	10.0	940613	COUNTDOWN_START	n/a	n/a	n/a	n/a	-999	8	[0, 0, 0]	n/a	catFR1	1	R1170J
930.783	0.007	951041	COUNTDOWN_END	n/a	n/a	n/a	n/a	-999	8	[0, 0, 0]	n/a	catFR1	1	R1170J
930.79	1.6	951048	ORIENT	n/a	n/a	n/a	n/a	-999	8	[0, 0, 0]	n/a	catFR1	1	R1170J
932.407	2.117	952665	ORIENT_OFF	n/a	n/a	n/a	n/a	-999	8	[0, 0, 0]	n/a	catFR1	1	R1170J
934.524	1.6	954782	WORD	n/a	wordpools/wordpool_categorized_EN.txt	CUCUMBER	Vegetables	1	8	[0, 0, 0]	n/a	catFR1	1	R1170J
936.142	0.833	956400	WORD_OFF	n/a	n/a	CUCUMBER	n/a	1	8	[0, 0, 0]	n/a	catFR1	1	R1170J
936.975	1.6	957233	WORD	n/a	wordpools/wordpool_categorized_EN.txt	BROCCOLI	Vegetables	2	8	[0, 0, 0]	n/a	catFR1	1	R1170J
938.591	0.917	958849	WORD_OFF	n/a	n/a	BROCCOLI	n/a	2	8	[0, 0, 0]	n/a	catFR1	1	R1170J
939.508	1.6	959766	WORD	n/a	wordpools/wordpool_categorized_EN.txt	CLOUD	Weather	3	8	[0, 0, 0]	n/a	catFR1	1	R1170J
941.126	0.983	961384	WORD_OFF	n/a	n/a	CLOUD	n/a	3	8	[0, 0, 0]	n/a	catFR1	1	R1170J
942.109	1.6	962367	WORD	n/a	wordpools/wordpool_categorized_EN.txt	HURRICANE	Weather	4	8	[0, 0, 0]	n/a	catFR1	1	R1170J
943.725	0.917	963983	WORD_OFF	n/a	n/a	HURRICANE	n/a	4	8	[0, 0, 0]	n/a	catFR1	1	R1170J
944.642	1.6	964900	WORD	n/a	wordpools/wordpool_categorized_EN.txt	BALL	Toys	5	8	[0, 0, 0]	n/a	catFR1	1	R1170J
946.26	0.984	966518	WORD_OFF	n/a	n/a	BALL	n/a	5	8	[0, 0, 0]	n/a	catFR1	1	R1170J
947.244	1.6	967502	WORD	n/a	wordpools/wordpool_categorized_EN.txt	BLOCKS	Toys	6	8	[0, 0, 0]	n/a	catFR1	1	R1170J
948.859	0.834	969117	WORD_OFF	n/a	n/a	BLOCKS	n/a	6	8	[0, 0, 0]	n/a	catFR1	1	R1170J
949.693	1.6	969951	WORD	n/a	wordpools/wordpool_categorized_EN.txt	LETTUCE	Vegetables	7	8	[0, 0, 0]	n/a	catFR1	1	R1170J
951.309	0.785	971567	WORD_OFF	n/a	n/a	LETTUCE	n/a	7	8	[0, 0, 0]	n/a	catFR1	1	R1170J
952.094	1.6	972352	WORD	n/a	wordpools/wordpool_categorized_EN.txt	ONION	Vegetables	8	8	[0, 0, 0]	n/a	catFR1	1	R1170J
953.71	0.95	973968	WORD_OFF	n/a	n/a	ONION	n/a	8	8	[0, 0, 0]	n/a	catFR1	1	R1170J
954.66	1.6	974918	WORD	n/a	wordpools/wordpool_categorized_EN.txt	TORNADO	Weather	9	8	[0, 0, 0]	n/a	catFR1	1	R1170J
956.278	0.95	976536	WORD_OFF	n/a	n/a	TORNADO	n/a	9	8	[0, 0, 0]	n/a	catFR1	1	R1170J
957.228	1.6	977486	WORD	n/a	wordpools/wordpool_categorized_EN.txt	RAIN	Weather	10	8	[0, 0, 0]	n/a	catFR1	1	R1170J
958.844	0.983	979102	WORD_OFF	n/a	n/a	RAIN	n/a	10	8	[0, 0, 0]	n/a	catFR1	1	R1170J
959.827	1.6	980085	WORD	n/a	wordpools/wordpool_categorized_EN.txt	BASKETBALL	Toys	11	8	[0, 0, 0]	n/a	catFR1	1	R1170J
961.444	0.835	981702	WORD_OFF	n/a	n/a	BASKETBALL	n/a	11	8	[0, 0, 0]	n/a	catFR1	1	R1170J
962.279	1.6	982537	WORD	n/a	wordpools/wordpool_categorized_EN.txt	PUZZLE	Toys	12	8	[0, 0, 0]	n/a	catFR1	1	R1170J
963.894	0.001	984152	WORD_OFF	n/a	n/a	PUZZLE	n/a	12	8	[0, 0, 0]	n/a	catFR1	1	R1170J
963.895	0.099	984153	ENCODING_END	n/a	n/a	n/a	n/a	-999	8	[0, 0, 0]	n/a	catFR1	1	R1170J
963.994	0.0	984252	DISTRACT_START	n/a	n/a	n/a	n/a	-999	8	[0, 0, 0]	n/a	catFR1	1	R1170J
963.994	0.018	984252	START	n/a	n/a	n/a	n/a	-999	8	[-999, -999, -999]	n/a	catFR1	1	R1170J
964.012	6.333	984270	PROB	6.297	n/a	n/a	n/a	-999	8	[9, 9, 8]	26.0	catFR1	1	R1170J
970.345	6.819	990602	PROB	6.789	n/a	n/a	n/a	-999	8	[3, 9, 4]	16.0	catFR1	1	R1170J
977.164	11.138	997421	PROB	11.138	n/a	n/a	n/a	-999	8	[4, 7, 7]	19.0	catFR1	1	R1170J
988.302	0.013	1008559	STOP	n/a	n/a	n/a	n/a	-999	8	[-999, -999, -999]	n/a	catFR1	1	R1170J
988.315	0.583	1008572	DISTRACT_END	n/a	n/a	n/a	n/a	-999	8	[0, 0, 0]	n/a	catFR1	1	R1170J
988.898	0.517	1009155	RETRIEVAL_ORIENT	n/a	n/a	n/a	n/a	-999	8	[0, 0, 0]	n/a	catFR1	1	R1170J
989.415	6.388	1009672	REC_START	n/a	n/a	n/a	n/a	-999	8	[0, 0, 0]	n/a	catFR1	1	R1170J
995.803	2.586	1016060	REC_WORD	6.388	n/a	CUCUMBER	Vegetables	1	8	[0, 0, 0]	n/a	catFR1	1	R1170J
998.389	7.37	1018646	REC_WORD	8.974	n/a	CAULIFLOWER	n/a	-999	8	[0, 0, 0]	n/a	catFR1	1	R1170J
1005.759	3.196	1026016	REC_WORD	16.344	n/a	ONION	Vegetables	8	8	[0, 0, 0]	n/a	catFR1	1	R1170J
1008.955	7.233	1029212	REC_WORD	19.54	n/a	PEPPER	n/a	-999	8	[0, 0, 0]	n/a	catFR1	1	R1170J
1016.188	3.239	1036445	REC_WORD	26.773	n/a	BASKETBALL	Toys	11	8	[0, 0, 0]	n/a	catFR1	1	R1170J
1019.427	5.159	1039684	REC_END	n/a	n/a	n/a	n/a	-999	8	[0, 0, 0]	n/a	catFR1	1	R1170J
1024.586	0.5	1044843	TRIAL	n/a	n/a	n/a	n/a	-999	9	[0, 0, 0]	n/a	catFR1	1	R1170J
1025.086	10.0	1045343	COUNTDOWN_START	n/a	n/a	n/a	n/a	-999	9	[0, 0, 0]	n/a	catFR1	1	R1170J
1035.514	0.007	1055771	COUNTDOWN_END	n/a	n/a	n/a	n/a	-999	9	[0, 0, 0]	n/a	catFR1	1	R1170J
1035.521	1.6	1055778	ORIENT	n/a	n/a	n/a	n/a	-999	9	[0, 0, 0]	n/a	catFR1	1	R1170J
1037.139	2.249	1057395	ORIENT_OFF	n/a	n/a	n/a	n/a	-999	9	[0, 0, 0]	n/a	catFR1	1	R1170J
1039.388	1.6	1059644	WORD	n/a	wordpools/wordpool_categorized_EN.txt	CHEESECAKE	Desserts	1	9	[0, 0, 0]	n/a	catFR1	1	R1170J
1041.006	0.95	1061262	WORD_OFF	n/a	n/a	CHEESECAKE	n/a	1	9	[0, 0, 0]	n/a	catFR1	1	R1170J
1041.956	1.6	1062212	WORD	n/a	wordpools/wordpool_categorized_EN.txt	FUDGE	Desserts	2	9	[0, 0, 0]	n/a	catFR1	1	R1170J
1043.572	0.917	1063828	WORD_OFF	n/a	n/a	FUDGE	n/a	2	9	[0, 0, 0]	n/a	catFR1	1	R1170J
1044.489	1.6	1064745	WORD	n/a	wordpools/wordpool_categorized_EN.txt	CABBAGE	Vegetables	3	9	[0, 0, 0]	n/a	catFR1	1	R1170J
1046.106	0.817	1066362	WORD_OFF	n/a	n/a	CABBAGE	n/a	3	9	[0, 0, 0]	n/a	catFR1	1	R1170J
1046.923	1.6	1067179	WORD	n/a	wordpools/wordpool_categorized_EN.txt	CORN	Vegetables	4	9	[0, 0, 0]	n/a	catFR1	1	R1170J
1048.539	0.883	1068795	WORD_OFF	n/a	n/a	CORN	n/a	4	9	[0, 0, 0]	n/a	catFR1	1	R1170J
1049.422	1.6	1069678	WORD	n/a	wordpools/wordpool_categorized_EN.txt	ROBIN	Birds	5	9	[0, 0, 0]	n/a	catFR1	1	R1170J
1051.04	0.967	1071296	WORD_OFF	n/a	n/a	ROBIN	n/a	5	9	[0, 0, 0]	n/a	catFR1	1	R1170J
1052.007	1.6	1072263	WORD	n/a	wordpools/wordpool_categorized_EN.txt	GOOSE	Birds	6	9	[0, 0, 0]	n/a	catFR1	1	R1170J
1053.623	0.833	1073879	WORD_OFF	n/a	n/a	GOOSE	n/a	6	9	[0, 0, 0]	n/a	catFR1	1	R1170J
1054.456	1.6	1074712	WORD	n/a	wordpools/wordpool_categorized_EN.txt	PIE	Desserts	7	9	[0, 0, 0]	n/a	catFR1	1	R1170J
1056.074	0.867	1076330	WORD_OFF	n/a	n/a	PIE	n/a	7	9	[0, 0, 0]	n/a	catFR1	1	R1170J
1056.941	1.6	1077197	WORD	n/a	wordpools/wordpool_categorized_EN.txt	CAKE	Desserts	8	9	[0, 0, 0]	n/a	catFR1	1	R1170J
1058.557	0.95	1078813	WORD_OFF	n/a	n/a	CAKE	n/a	8	9	[0, 0, 0]	n/a	catFR1	1	R1170J
1059.507	1.6	1079763	WORD	n/a	wordpools/wordpool_categorized_EN.txt	CARROT	Vegetables	9	9	[0, 0, 0]	n/a	catFR1	1	R1170J
1061.125	0.917	1081381	WORD_OFF	n/a	n/a	CARROT	n/a	9	9	[0, 0, 0]	n/a	catFR1	1	R1170J
1062.042	1.6	1082298	WORD	n/a	wordpools/wordpool_categorized_EN.txt	SPINACH	Vegetables	10	9	[0, 0, 0]	n/a	catFR1	1	R1170J
1063.658	0.884	1083914	WORD_OFF	n/a	n/a	SPINACH	n/a	10	9	[0, 0, 0]	n/a	catFR1	1	R1170J
1064.542	1.6	1084798	WORD	n/a	wordpools/wordpool_categorized_EN.txt	CARDINAL	Birds	11	9	[0, 0, 0]	n/a	catFR1	1	R1170J
1066.159	0.834	1086415	WORD_OFF	n/a	n/a	CARDINAL	n/a	11	9	[0, 0, 0]	n/a	catFR1	1	R1170J
1066.993	1.6	1087249	WORD	n/a	wordpools/wordpool_categorized_EN.txt	HAWK	Birds	12	9	[0, 0, 0]	n/a	catFR1	1	R1170J
1068.609	0.0	1088865	ENCODING_END	n/a	n/a	n/a	n/a	-999	9	[0, 0, 0]	n/a	catFR1	1	R1170J
1068.609	0.128	1088865	WORD_OFF	n/a	n/a	HAWK	n/a	12	9	[0, 0, 0]	n/a	catFR1	1	R1170J
1068.737	0.0	1088993	DISTRACT_START	n/a	n/a	n/a	n/a	-999	9	[0, 0, 0]	n/a	catFR1	1	R1170J
1068.737	0.021	1088993	START	n/a	n/a	n/a	n/a	-999	9	[-999, -999, -999]	n/a	catFR1	1	R1170J
1068.758	3.951	1089014	PROB	3.915	n/a	n/a	n/a	-999	9	[1, 7, 3]	11.0	catFR1	1	R1170J
1072.709	3.934	1092965	PROB	3.901	n/a	n/a	n/a	-999	9	[6, 5, 6]	17.0	catFR1	1	R1170J
1076.643	5.151	1096899	PROB	5.119	n/a	n/a	n/a	-999	9	[3, 3, 2]	8.0	catFR1	1	R1170J
1081.794	2.666	1102050	PROB	2.631	n/a	n/a	n/a	-999	9	[4, 1, 1]	6.0	catFR1	1	R1170J
1084.46	4.653	1104716	PROB	4.653	n/a	n/a	n/a	-999	9	[6, 2, 2]	10.0	catFR1	1	R1170J
1089.113	0.016	1109369	STOP	n/a	n/a	n/a	n/a	-999	9	[-999, -999, -999]	n/a	catFR1	1	R1170J
1089.129	0.566	1109385	DISTRACT_END	n/a	n/a	n/a	n/a	-999	9	[0, 0, 0]	n/a	catFR1	1	R1170J
1089.695	0.518	1109951	RETRIEVAL_ORIENT	n/a	n/a	n/a	n/a	-999	9	[0, 0, 0]	n/a	catFR1	1	R1170J
1090.213	1.653	1110469	REC_START	n/a	n/a	n/a	n/a	-999	9	[0, 0, 0]	n/a	catFR1	1	R1170J
1091.866	0.813	1112122	REC_WORD	1.653	n/a	CARDINAL	Birds	11	9	[0, 0, 0]	n/a	catFR1	1	R1170J
1092.679	2.429	1112935	REC_WORD	2.466	n/a	HAWK	Birds	12	9	[0, 0, 0]	n/a	catFR1	1	R1170J
1095.108	5.853	1115364	REC_WORD_VV	4.895	n/a	<>	n/a	-999	9	[0, 0, 0]	n/a	catFR1	1	R1170J
1100.961	7.15	1121217	REC_WORD	10.748	n/a	ROBIN	Birds	5	9	[0, 0, 0]	n/a	catFR1	1	R1170J
1108.111	11.543	1128366	REC_WORD	17.898	n/a	CHEESECAKE	Desserts	1	9	[0, 0, 0]	n/a	catFR1	1	R1170J
1119.654	0.572	1139909	REC_WORD_VV	29.441	n/a	<>	n/a	-999	9	[0, 0, 0]	n/a	catFR1	1	R1170J
1120.226	28.894	1140481	REC_END	n/a	n/a	n/a	n/a	-999	9	[0, 0, 0]	n/a	catFR1	1	R1170J
1149.12	0.5	1169375	TRIAL	n/a	n/a	n/a	n/a	-999	10	[0, 0, 0]	n/a	catFR1	1	R1170J
1149.62	10.0	1169875	COUNTDOWN_START	n/a	n/a	n/a	n/a	-999	10	[0, 0, 0]	n/a	catFR1	1	R1170J
1160.048	0.007	1180303	COUNTDOWN_END	n/a	n/a	n/a	n/a	-999	10	[0, 0, 0]	n/a	catFR1	1	R1170J
1160.055	1.6	1180310	ORIENT	n/a	n/a	n/a	n/a	-999	10	[0, 0, 0]	n/a	catFR1	1	R1170J
1161.671	2.167	1181926	ORIENT_OFF	n/a	n/a	n/a	n/a	-999	10	[0, 0, 0]	n/a	catFR1	1	R1170J
1163.838	1.6	1184093	WORD	n/a	wordpools/wordpool_categorized_EN.txt	SANDER	Tools	1	10	[0, 0, 0]	n/a	catFR1	1	R1170J
1165.455	0.983	1185710	WORD_OFF	n/a	n/a	SANDER	n/a	1	10	[0, 0, 0]	n/a	catFR1	1	R1170J
1166.438	1.6	1186693	WORD	n/a	wordpools/wordpool_categorized_EN.txt	LEVEL	Tools	2	10	[0, 0, 0]	n/a	catFR1	1	R1170J
1168.04	0.848	1188295	WORD_OFF	n/a	n/a	LEVEL	n/a	2	10	[0, 0, 0]	n/a	catFR1	1	R1170J
1168.888	1.6	1189143	WORD	n/a	wordpools/wordpool_categorized_EN.txt	TOE	BodyParts	3	10	[0, 0, 0]	n/a	catFR1	1	R1170J
1170.505	0.934	1190759	WORD_OFF	n/a	n/a	TOE	n/a	3	10	[0, 0, 0]	n/a	catFR1	1	R1170J
1171.439	1.6	1191693	WORD	n/a	wordpools/wordpool_categorized_EN.txt	EAR	BodyParts	4	10	[0, 0, 0]	n/a	catFR1	1	R1170J
1173.057	0.782	1193311	WORD_OFF	n/a	n/a	EAR	n/a	4	10	[0, 0, 0]	n/a	catFR1	1	R1170J
1173.839	1.6	1194093	WORD	n/a	wordpools/wordpool_categorized_EN.txt	CELLO	Instruments	5	10	[0, 0, 0]	n/a	catFR1	1	R1170J
1175.456	0.934	1195710	WORD_OFF	n/a	n/a	CELLO	n/a	5	10	[0, 0, 0]	n/a	catFR1	1	R1170J
1176.39	1.6	1196644	WORD	n/a	wordpools/wordpool_categorized_EN.txt	TROMBONE	Instruments	6	10	[0, 0, 0]	n/a	catFR1	1	R1170J
1178.008	0.966	1198262	WORD_OFF	n/a	n/a	TROMBONE	n/a	6	10	[0, 0, 0]	n/a	catFR1	1	R1170J
1178.974	1.6	1199228	WORD	n/a	wordpools/wordpool_categorized_EN.txt	HEAD	BodyParts	7	10	[0, 0, 0]	n/a	catFR1	1	R1170J
1180.59	0.851	1200844	WORD_OFF	n/a	n/a	HEAD	n/a	7	10	[0, 0, 0]	n/a	catFR1	1	R1170J
1181.441	1.6	1201695	WORD	n/a	wordpools/wordpool_categorized_EN.txt	HAND	BodyParts	8	10	[0, 0, 0]	n/a	catFR1	1	R1170J
1183.058	0.984	1203312	WORD_OFF	n/a	n/a	HAND	n/a	8	10	[0, 0, 0]	n/a	catFR1	1	R1170J
1184.042	1.6	1204296	WORD	n/a	wordpools/wordpool_categorized_EN.txt	WRENCH	Tools	9	10	[0, 0, 0]	n/a	catFR1	1	R1170J
1185.658	0.9	1205912	WORD_OFF	n/a	n/a	WRENCH	n/a	9	10	[0, 0, 0]	n/a	catFR1	1	R1170J
1186.558	1.6	1206812	WORD	n/a	wordpools/wordpool_categorized_EN.txt	CROWBAR	Tools	10	10	[0, 0, 0]	n/a	catFR1	1	R1170J
1188.176	0.95	1208430	WORD_OFF	n/a	n/a	CROWBAR	n/a	10	10	[0, 0, 0]	n/a	catFR1	1	R1170J
1189.126	1.6	1209380	WORD	n/a	wordpools/wordpool_categorized_EN.txt	PIANO	Instruments	11	10	[0, 0, 0]	n/a	catFR1	1	R1170J
1190.742	0.85	1210996	WORD_OFF	n/a	n/a	PIANO	n/a	11	10	[0, 0, 0]	n/a	catFR1	1	R1170J
1191.592	1.6	1211846	WORD	n/a	wordpools/wordpool_categorized_EN.txt	FLUTE	Instruments	12	10	[0, 0, 0]	n/a	catFR1	1	R1170J
1193.21	0.0	1213464	WORD_OFF	n/a	n/a	FLUTE	n/a	12	10	[0, 0, 0]	n/a	catFR1	1	R1170J
1193.21	0.096	1213464	ENCODING_END	n/a	n/a	n/a	n/a	-999	10	[0, 0, 0]	n/a	catFR1	1	R1170J
1193.306	0.0	1213560	DISTRACT_START	n/a	n/a	n/a	n/a	-999	10	[0, 0, 0]	n/a	catFR1	1	R1170J
1193.306	0.019	1213560	START	n/a	n/a	n/a	n/a	-999	10	[-999, -999, -999]	n/a	catFR1	1	R1170J
1193.325	8.301	1213579	PROB	8.264	n/a	n/a	n/a	-999	10	[5, 3, 4]	12.0	catFR1	1	R1170J
1201.626	4.118	1221880	PROB	4.082	n/a	n/a	n/a	-999	10	[3, 2, 6]	11.0	catFR1	1	R1170J
1205.744	3.75	1225998	PROB	3.724	n/a	n/a	n/a	-999	10	[6, 5, 5]	16.0	catFR1	1	R1170J
1209.494	3.768	1229748	PROB	3.744	n/a	n/a	n/a	-999	10	[2, 7, 9]	18.0	catFR1	1	R1170J
1213.262	4.92	1233516	PROB	4.92	n/a	n/a	n/a	-999	10	[1, 2, 1]	4.0	catFR1	1	R1170J
1218.182	0.015	1238436	STOP	n/a	n/a	n/a	n/a	-999	10	[-999, -999, -999]	n/a	catFR1	1	R1170J
1218.197	0.515	1238451	DISTRACT_END	n/a	n/a	n/a	n/a	-999	10	[0, 0, 0]	n/a	catFR1	1	R1170J
1218.712	0.518	1238966	RETRIEVAL_ORIENT	n/a	n/a	n/a	n/a	-999	10	[0, 0, 0]	n/a	catFR1	1	R1170J
1219.23	1.739	1239484	REC_START	n/a	n/a	n/a	n/a	-999	10	[0, 0, 0]	n/a	catFR1	1	R1170J
1220.969	6.918	1241223	REC_WORD_VV	1.739	n/a	<>	n/a	-999	10	[0, 0, 0]	n/a	catFR1	1	R1170J
1227.887	1.0	1248141	REC_WORD_VV	8.657	n/a	<>	n/a	-999	10	[0, 0, 0]	n/a	catFR1	1	R1170J
1228.887	4.184	1249141	REC_WORD_VV	9.657	n/a	<>	n/a	-999	10	[0, 0, 0]	n/a	catFR1	1	R1170J
1233.071	1.0	1253325	REC_WORD_VV	13.841	n/a	<>	n/a	-999	10	[0, 0, 0]	n/a	catFR1	1	R1170J
1234.071	7.277	1254325	REC_WORD_VV	14.841	n/a	<>	n/a	-999	10	[0, 0, 0]	n/a	catFR1	1	R1170J
1241.348	1.647	1261601	REC_WORD_VV	22.118	n/a	<>	n/a	-999	10	[0, 0, 0]	n/a	catFR1	1	R1170J
1242.995	1.0	1263248	REC_WORD_VV	23.765	n/a	<>	n/a	-999	10	[0, 0, 0]	n/a	catFR1	1	R1170J
1243.995	2.553	1264248	REC_WORD_VV	24.765	n/a	<>	n/a	-999	10	[0, 0, 0]	n/a	catFR1	1	R1170J
1246.548	2.694	1266801	REC_WORD_VV	27.318	n/a	<>	n/a	-999	10	[0, 0, 0]	n/a	catFR1	1	R1170J
1249.242	23.678	1269495	REC_END	n/a	n/a	n/a	n/a	-999	10	[0, 0, 0]	n/a	catFR1	1	R1170J
1272.92	0.5	1293173	TRIAL	n/a	n/a	n/a	n/a	-999	11	[0, 0, 0]	n/a	catFR1	1	R1170J
1273.42	10.0	1293673	COUNTDOWN_START	n/a	n/a	n/a	n/a	-999	11	[0, 0, 0]	n/a	catFR1	1	R1170J
1283.848	0.006	1304101	COUNTDOWN_END	n/a	n/a	n/a	n/a	-999	11	[0, 0, 0]	n/a	catFR1	1	R1170J
1283.854	1.6	1304107	ORIENT	n/a	n/a	n/a	n/a	-999	11	[0, 0, 0]	n/a	catFR1	1	R1170J
1285.47	2.201	1305723	ORIENT_OFF	n/a	n/a	n/a	n/a	-999	11	[0, 0, 0]	n/a	catFR1	1	R1170J
1287.671	1.6	1307924	WORD	n/a	wordpools/wordpool_categorized_EN.txt	UNDERWEAR	Clothing	1	11	[0, 0, 0]	n/a	catFR1	1	R1170J
1289.289	0.967	1309542	WORD_OFF	n/a	n/a	UNDERWEAR	n/a	1	11	[0, 0, 0]	n/a	catFR1	1	R1170J
1290.256	1.6	1310509	WORD	n/a	wordpools/wordpool_categorized_EN.txt	JACKET	Clothing	2	11	[0, 0, 0]	n/a	catFR1	1	R1170J
1291.872	0.783	1312125	WORD_OFF	n/a	n/a	JACKET	n/a	2	11	[0, 0, 0]	n/a	catFR1	1	R1170J
1292.655	1.6	1312908	WORD	n/a	wordpools/wordpool_categorized_EN.txt	NIGHTSTAND	Furniture	3	11	[0, 0, 0]	n/a	catFR1	1	R1170J
1294.273	0.983	1314526	WORD_OFF	n/a	n/a	NIGHTSTAND	n/a	3	11	[0, 0, 0]	n/a	catFR1	1	R1170J
1295.256	1.6	1315509	WORD	n/a	wordpools/wordpool_categorized_EN.txt	SHELF	Furniture	4	11	[0, 0, 0]	n/a	catFR1	1	R1170J
1296.872	0.967	1317125	WORD_OFF	n/a	n/a	SHELF	n/a	4	11	[0, 0, 0]	n/a	catFR1	1	R1170J
1297.839	1.6	1318092	WORD	n/a	wordpools/wordpool_categorized_EN.txt	LILAC	Flowers	5	11	[0, 0, 0]	n/a	catFR1	1	R1170J
1299.456	0.95	1319709	WORD_OFF	n/a	n/a	LILAC	n/a	5	11	[0, 0, 0]	n/a	catFR1	1	R1170J
1300.406	1.6	1320659	WORD	n/a	wordpools/wordpool_categorized_EN.txt	DAFFODIL	Flowers	6	11	[0, 0, 0]	n/a	catFR1	1	R1170J
1302.024	0.783	1322277	WORD_OFF	n/a	n/a	DAFFODIL	n/a	6	11	[0, 0, 0]	n/a	catFR1	1	R1170J
1302.807	1.6	1323060	WORD	n/a	wordpools/wordpool_categorized_EN.txt	SHOES	Clothing	7	11	[0, 0, 0]	n/a	catFR1	1	R1170J
1304.424	0.818	1324676	WORD_OFF	n/a	n/a	SHOES	n/a	7	11	[0, 0, 0]	n/a	catFR1	1	R1170J
1305.242	1.6	1325494	WORD	n/a	wordpools/wordpool_categorized_EN.txt	SHIRT	Clothing	8	11	[0, 0, 0]	n/a	catFR1	1	R1170J
1306.857	0.984	1327109	WORD_OFF	n/a	n/a	SHIRT	n/a	8	11	[0, 0, 0]	n/a	catFR1	1	R1170J
1307.841	1.6	1328093	WORD	n/a	wordpools/wordpool_categorized_EN.txt	DESK	Furniture	9	11	[0, 0, 0]	n/a	catFR1	1	R1170J
1309.457	0.867	1329709	WORD_OFF	n/a	n/a	DESK	n/a	9	11	[0, 0, 0]	n/a	catFR1	1	R1170J
1310.324	1.6	1330576	WORD	n/a	wordpools/wordpool_categorized_EN.txt	COUCH	Furniture	10	11	[0, 0, 0]	n/a	catFR1	1	R1170J
1311.942	0.833	1332194	WORD_OFF	n/a	n/a	COUCH	n/a	10	11	[0, 0, 0]	n/a	catFR1	1	R1170J
1312.775	1.6	1333027	WORD	n/a	wordpools/wordpool_categorized_EN.txt	ORCHID	Flowers	11	11	[0, 0, 0]	n/a	catFR1	1	R1170J
1314.392	0.851	1334644	WORD_OFF	n/a	n/a	ORCHID	n/a	11	11	[0, 0, 0]	n/a	catFR1	1	R1170J
1315.243	1.6	1335495	WORD	n/a	wordpools/wordpool_categorized_EN.txt	PETUNIA	Flowers	12	11	[0, 0, 0]	n/a	catFR1	1	R1170J
1316.859	0.0	1337111	ENCODING_END	n/a	n/a	n/a	n/a	-999	11	[0, 0, 0]	n/a	catFR1	1	R1170J
1316.859	0.099	1337111	WORD_OFF	n/a	n/a	PETUNIA	n/a	12	11	[0, 0, 0]	n/a	catFR1	1	R1170J
1316.958	0.0	1337210	DISTRACT_START	n/a	n/a	n/a	n/a	-999	11	[0, 0, 0]	n/a	catFR1	1	R1170J
1316.958	0.018	1337210	START	n/a	n/a	n/a	n/a	-999	11	[-999, -999, -999]	n/a	catFR1	1	R1170J
1316.976	3.45	1337228	PROB	3.425	n/a	n/a	n/a	-999	11	[2, 2, 7]	11.0	catFR1	1	R1170J
1320.426	3.818	1340678	PROB	3.791	n/a	n/a	n/a	-999	11	[9, 7, 3]	19.0	catFR1	1	R1170J
1324.244	3.233	1344496	PROB	3.206	n/a	n/a	n/a	-999	11	[2, 9, 3]	14.0	catFR1	1	R1170J
1327.477	2.283	1347729	PROB	2.244	n/a	n/a	n/a	-999	11	[5, 3, 3]	11.0	catFR1	1	R1170J
1329.76	4.651	1350012	PROB	4.617	n/a	n/a	n/a	-999	11	[6, 8, 3]	17.0	catFR1	1	R1170J
1334.411	4.191	1354663	PROB	4.191	n/a	n/a	n/a	-999	11	[1, 8, 3]	14.0	catFR1	1	R1170J
1338.602	0.01	1358854	STOP	n/a	n/a	n/a	n/a	-999	11	[-999, -999, -999]	n/a	catFR1	1	R1170J
1338.612	0.699	1358864	DISTRACT_END	n/a	n/a	n/a	n/a	-999	11	[0, 0, 0]	n/a	catFR1	1	R1170J
1339.311	0.518	1359563	RETRIEVAL_ORIENT	n/a	n/a	n/a	n/a	-999	11	[0, 0, 0]	n/a	catFR1	1	R1170J
1339.829	2.691	1360081	REC_START	n/a	n/a	n/a	n/a	-999	11	[0, 0, 0]	n/a	catFR1	1	R1170J
1342.52	2.963	1362772	REC_WORD_VV	2.691	n/a	<>	n/a	-999	11	[0, 0, 0]	n/a	catFR1	1	R1170J
1345.483	1.77	1365735	REC_WORD	5.654	n/a	SOCKS	n/a	-999	11	[0, 0, 0]	n/a	catFR1	1	R1170J
1347.253	2.538	1367505	REC_WORD	7.424	n/a	DRESS	n/a	-999	11	[0, 0, 0]	n/a	catFR1	1	R1170J
1349.791	1.222	1370043	REC_WORD_VV	9.962	n/a	<>	n/a	-999	11	[0, 0, 0]	n/a	catFR1	1	R1170J
1351.013	8.964	1371265	REC_WORD_VV	11.184	n/a	<>	n/a	-999	11	[0, 0, 0]	n/a	catFR1	1	R1170J
1359.977	1.0	1380229	REC_WORD_VV	20.148	n/a	<>	n/a	-999	11	[0, 0, 0]	n/a	catFR1	1	R1170J
1360.977	4.201	1381229	REC_WORD_VV	21.148	n/a	<>	n/a	-999	11	[0, 0, 0]	n/a	catFR1	1	R1170J
1365.178	1.0	1385430	REC_WORD_VV	25.349	n/a	<>	n/a	-999	11	[0, 0, 0]	n/a	catFR1	1	R1170J
1366.178	1.0	1386430	REC_WORD_VV	26.349	n/a	<>	n/a	-999	11	[0, 0, 0]	n/a	catFR1	1	R1170J
1367.178	2.665	1387430	REC_WORD_VV	27.349	n/a	<>	n/a	-999	11	[0, 0, 0]	n/a	catFR1	1	R1170J
1369.843	10.657	1390095	REC_END	n/a	n/a	n/a	n/a	-999	11	[0, 0, 0]	n/a	catFR1	1	R1170J
1380.5	0.5	1400751	TRIAL	n/a	n/a	n/a	n/a	-999	12	[0, 0, 0]	n/a	catFR1	1	R1170J
1381.0	10.0	1401251	COUNTDOWN_START	n/a	n/a	n/a	n/a	-999	12	[0, 0, 0]	n/a	catFR1	1	R1170J
1391.428	0.007	1411679	COUNTDOWN_END	n/a	n/a	n/a	n/a	-999	12	[0, 0, 0]	n/a	catFR1	1	R1170J
1391.435	1.6	1411686	ORIENT	n/a	n/a	n/a	n/a	-999	12	[0, 0, 0]	n/a	catFR1	1	R1170J
1393.053	2.034	1413304	ORIENT_OFF	n/a	n/a	n/a	n/a	-999	12	[0, 0, 0]	n/a	catFR1	1	R1170J
1395.087	1.6	1415338	WORD	n/a	wordpools/wordpool_categorized_EN.txt	CORKSCREW	KitchenTools	1	12	[0, 0, 0]	n/a	catFR1	1	R1170J
1396.703	0.867	1416954	WORD_OFF	n/a	n/a	CORKSCREW	n/a	1	12	[0, 0, 0]	n/a	catFR1	1	R1170J
1397.57	1.6	1417821	WORD	n/a	wordpools/wordpool_categorized_EN.txt	TONGS	KitchenTools	2	12	[0, 0, 0]	n/a	catFR1	1	R1170J
1399.187	0.917	1419438	WORD_OFF	n/a	n/a	TONGS	n/a	2	12	[0, 0, 0]	n/a	catFR1	1	R1170J
1400.104	1.6	1420355	WORD	n/a	wordpools/wordpool_categorized_EN.txt	TABLET	Electronics	3	12	[0, 0, 0]	n/a	catFR1	1	R1170J
1401.72	0.867	1421971	WORD_OFF	n/a	n/a	TABLET	n/a	3	12	[0, 0, 0]	n/a	catFR1	1	R1170J
1402.587	1.6	1422838	WORD	n/a	wordpools/wordpool_categorized_EN.txt	SPEAKER	Electronics	4	12	[0, 0, 0]	n/a	catFR1	1	R1170J
1404.204	0.951	1424455	WORD_OFF	n/a	n/a	SPEAKER	n/a	4	12	[0, 0, 0]	n/a	catFR1	1	R1170J
1405.155	1.6	1425406	WORD	n/a	wordpools/wordpool_categorized_EN.txt	ISLAND	Landscapes	5	12	[0, 0, 0]	n/a	catFR1	1	R1170J
1406.771	0.85	1427022	WORD_OFF	n/a	n/a	ISLAND	n/a	5	12	[0, 0, 0]	n/a	catFR1	1	R1170J
1407.621	1.6	1427872	WORD	n/a	wordpools/wordpool_categorized_EN.txt	FOREST	Landscapes	6	12	[0, 0, 0]	n/a	catFR1	1	R1170J
1409.238	0.984	1429489	WORD_OFF	n/a	n/a	FOREST	n/a	6	12	[0, 0, 0]	n/a	catFR1	1	R1170J
1410.222	1.6	1430473	WORD	n/a	wordpools/wordpool_categorized_EN.txt	STEREO	Electronics	7	12	[0, 0, 0]	n/a	catFR1	1	R1170J
1411.838	0.917	1432089	WORD_OFF	n/a	n/a	STEREO	n/a	7	12	[0, 0, 0]	n/a	catFR1	1	R1170J
1412.755	1.6	1433006	WORD	n/a	wordpools/wordpool_categorized_EN.txt	PRINTER	Electronics	8	12	[0, 0, 0]	n/a	catFR1	1	R1170J
1414.371	0.835	1434622	WORD_OFF	n/a	n/a	PRINTER	n/a	8	12	[0, 0, 0]	n/a	catFR1	1	R1170J
1415.206	1.6	1435457	WORD	n/a	wordpools/wordpool_categorized_EN.txt	SPOON	KitchenTools	9	12	[0, 0, 0]	n/a	catFR1	1	R1170J
1416.822	0.883	1437073	WORD_OFF	n/a	n/a	SPOON	n/a	9	12	[0, 0, 0]	n/a	catFR1	1	R1170J
1417.705	1.6	1437956	WORD	n/a	wordpools/wordpool_categorized_EN.txt	SPATULA	KitchenTools	10	12	[0, 0, 0]	n/a	catFR1	1	R1170J
1419.322	0.835	1439573	WORD_OFF	n/a	n/a	SPATULA	n/a	10	12	[0, 0, 0]	n/a	catFR1	1	R1170J
1420.157	1.6	1440408	WORD	n/a	wordpools/wordpool_categorized_EN.txt	RIVER	Landscapes	11	12	[0, 0, 0]	n/a	catFR1	1	R1170J
1421.773	0.883	1442024	WORD_OFF	n/a	n/a	RIVER	n/a	11	12	[0, 0, 0]	n/a	catFR1	1	R1170J
1422.656	1.6	1442907	WORD	n/a	wordpools/wordpool_categorized_EN.txt	WOODS	Landscapes	12	12	[0, 0, 0]	n/a	catFR1	1	R1170J
1424.274	0.0	1444525	ENCODING_END	n/a	n/a	n/a	n/a	-999	12	[0, 0, 0]	n/a	catFR1	1	R1170J
1424.274	0.125	1444525	WORD_OFF	n/a	n/a	WOODS	n/a	12	12	[0, 0, 0]	n/a	catFR1	1	R1170J
1424.399	0.0	1444650	DISTRACT_START	n/a	n/a	n/a	n/a	-999	12	[0, 0, 0]	n/a	catFR1	1	R1170J
1424.399	0.007	1444650	START	n/a	n/a	n/a	n/a	-999	12	[-999, -999, -999]	n/a	catFR1	1	R1170J
1424.406	7.385	1444657	PROB	7.351	n/a	n/a	n/a	-999	12	[5, 7, 9]	21.0	catFR1	1	R1170J
1431.791	4.084	1452042	PROB	4.055	n/a	n/a	n/a	-999	12	[1, 6, 2]	9.0	catFR1	1	R1170J
1435.875	4.667	1456126	PROB	4.633	n/a	n/a	n/a	-999	12	[5, 8, 6]	19.0	catFR1	1	R1170J
1440.542	4.376	1460792	PROB	4.376	n/a	n/a	n/a	-999	12	[3, 2, 4]	9.0	catFR1	1	R1170J
1444.918	0.009	1465168	STOP	n/a	n/a	n/a	n/a	-999	12	[-999, -999, -999]	n/a	catFR1	1	R1170J
1444.927	0.699	1465177	DISTRACT_END	n/a	n/a	n/a	n/a	-999	12	[0, 0, 0]	n/a	catFR1	1	R1170J
1445.626	0.518	1465876	RETRIEVAL_ORIENT	n/a	n/a	n/a	n/a	-999	12	[0, 0, 0]	n/a	catFR1	1	R1170J
1446.144	5.873	1466394	REC_START	n/a	n/a	n/a	n/a	-999	12	[0, 0, 0]	n/a	catFR1	1	R1170J
1452.017	24.142	1472267	REC_WORD_VV	5.873	n/a	<>	n/a	-999	12	[0, 0, 0]	n/a	catFR1	1	R1170J
1476.159	10.99	1496409	REC_END	n/a	n/a	n/a	n/a	-999	12	[0, 0, 0]	n/a	catFR1	1	R1170J
1487.149	0.5	1507399	TRIAL	n/a	n/a	n/a	n/a	-999	13	[0, 0, 0]	n/a	catFR1	1	R1170J
1487.649	10.0	1507899	COUNTDOWN_START	n/a	n/a	n/a	n/a	-999	13	[0, 0, 0]	n/a	catFR1	1	R1170J
1498.077	0.007	1518327	COUNTDOWN_END	n/a	n/a	n/a	n/a	-999	13	[0, 0, 0]	n/a	catFR1	1	R1170J
1498.084	1.6	1518334	ORIENT	n/a	n/a	n/a	n/a	-999	13	[0, 0, 0]	n/a	catFR1	1	R1170J
1499.7	1.933	1519950	ORIENT_OFF	n/a	n/a	n/a	n/a	-999	13	[0, 0, 0]	n/a	catFR1	1	R1170J
1501.633	1.6	1521883	WORD	n/a	wordpools/wordpool_categorized_EN.txt	TRAIN	Vehicles	1	13	[0, 0, 0]	n/a	catFR1	1	R1170J
1503.251	0.901	1523501	WORD_OFF	n/a	n/a	TRAIN	n/a	1	13	[0, 0, 0]	n/a	catFR1	1	R1170J
1504.152	1.6	1524402	WORD	n/a	wordpools/wordpool_categorized_EN.txt	BUS	Vehicles	2	13	[0, 0, 0]	n/a	catFR1	1	R1170J
1505.767	0.801	1526016	WORD_OFF	n/a	n/a	BUS	n/a	2	13	[0, 0, 0]	n/a	catFR1	1	R1170J
1506.568	1.6	1526817	WORD	n/a	wordpools/wordpool_categorized_EN.txt	DRYER	Appliances	3	13	[0, 0, 0]	n/a	catFR1	1	R1170J
1508.185	0.8	1528434	WORD_OFF	n/a	n/a	DRYER	n/a	3	13	[0, 0, 0]	n/a	catFR1	1	R1170J
1508.985	1.6	1529234	WORD	n/a	wordpools/wordpool_categorized_EN.txt	VACUUM	Appliances	4	13	[0, 0, 0]	n/a	catFR1	1	R1170J
1510.601	0.767	1530850	WORD_OFF	n/a	n/a	VACUUM	n/a	4	13	[0, 0, 0]	n/a	catFR1	1	R1170J
1511.368	1.6	1531617	WORD	n/a	wordpools/wordpool_categorized_EN.txt	ROSE	Flowers	5	13	[0, 0, 0]	n/a	catFR1	1	R1170J
1512.969	0.899	1533218	WORD_OFF	n/a	n/a	ROSE	n/a	5	13	[0, 0, 0]	n/a	catFR1	1	R1170J
1513.868	1.6	1534117	WORD	n/a	wordpools/wordpool_categorized_EN.txt	CARNATION	Flowers	6	13	[0, 0, 0]	n/a	catFR1	1	R1170J
1515.485	0.785	1535734	WORD_OFF	n/a	n/a	CARNATION	n/a	6	13	[0, 0, 0]	n/a	catFR1	1	R1170J
1516.27	1.6	1536519	WORD	n/a	wordpools/wordpool_categorized_EN.txt	REFRIGERATOR	Appliances	7	13	[0, 0, 0]	n/a	catFR1	1	R1170J
1517.886	0.949	1538135	WORD_OFF	n/a	n/a	REFRIGERATOR	n/a	7	13	[0, 0, 0]	n/a	catFR1	1	R1170J
1518.835	1.6	1539084	WORD	n/a	wordpools/wordpool_categorized_EN.txt	BLENDER	Appliances	8	13	[0, 0, 0]	n/a	catFR1	1	R1170J
1520.452	0.901	1540701	WORD_OFF	n/a	n/a	BLENDER	n/a	8	13	[0, 0, 0]	n/a	catFR1	1	R1170J
1521.353	1.6	1541602	WORD	n/a	wordpools/wordpool_categorized_EN.txt	PLANE	Vehicles	9	13	[0, 0, 0]	n/a	catFR1	1	R1170J
1522.97	0.916	1543219	WORD_OFF	n/a	n/a	PLANE	n/a	9	13	[0, 0, 0]	n/a	catFR1	1	R1170J
1523.886	1.6	1544135	WORD	n/a	wordpools/wordpool_categorized_EN.txt	MOTORCYCLE	Vehicles	10	13	[0, 0, 0]	n/a	catFR1	1	R1170J
1525.503	0.817	1545752	WORD_OFF	n/a	n/a	MOTORCYCLE	n/a	10	13	[0, 0, 0]	n/a	catFR1	1	R1170J
1526.32	1.6	1546569	WORD	n/a	wordpools/wordpool_categorized_EN.txt	TULIP	Flowers	11	13	[0, 0, 0]	n/a	catFR1	1	R1170J
1527.921	0.966	1548170	WORD_OFF	n/a	n/a	TULIP	n/a	11	13	[0, 0, 0]	n/a	catFR1	1	R1170J
1528.887	1.6	1549136	WORD	n/a	wordpools/wordpool_categorized_EN.txt	SUNFLOWER	Flowers	12	13	[0, 0, 0]	n/a	catFR1	1	R1170J
1530.504	0.0	1550753	ENCODING_END	n/a	n/a	n/a	n/a	-999	13	[0, 0, 0]	n/a	catFR1	1	R1170J
1530.504	0.098	1550753	WORD_OFF	n/a	n/a	SUNFLOWER	n/a	12	13	[0, 0, 0]	n/a	catFR1	1	R1170J
1530.602	0.0	1550851	DISTRACT_START	n/a	n/a	n/a	n/a	-999	13	[0, 0, 0]	n/a	catFR1	1	R1170J
1530.602	0.018	1550851	START	n/a	n/a	n/a	n/a	-999	13	[-999, -999, -999]	n/a	catFR1	1	R1170J
1530.62	11.069	1550869	PROB	11.046	n/a	n/a	n/a	-999	13	[3, 5, 2]	10.0	catFR1	1	R1170J
1541.689	4.585	1561938	PROB	4.553	n/a	n/a	n/a	-999	13	[7, 1, 9]	17.0	catFR1	1	R1170J
1546.274	24.078	1566523	PROB	24.078	n/a	n/a	n/a	-999	13	[2, 7, 4]	13.0	catFR1	1	R1170J
1570.352	0.007	1590601	STOP	n/a	n/a	n/a	n/a	-999	13	[-999, -999, -999]	n/a	catFR1	1	R1170J
1570.359	0.517	1590608	DISTRACT_END	n/a	n/a	n/a	n/a	-999	13	[0, 0, 0]	n/a	catFR1	1	R1170J
1570.876	0.517	1591125	RETRIEVAL_ORIENT	n/a	n/a	n/a	n/a	-999	13	[0, 0, 0]	n/a	catFR1	1	R1170J
1571.393	3.159	1591642	REC_START	n/a	n/a	n/a	n/a	-999	13	[0, 0, 0]	n/a	catFR1	1	R1170J
1574.552	1.0	1594800	REC_WORD_VV	3.159	n/a	<>	n/a	-999	13	[0, 0, 0]	n/a	catFR1	1	R1170J
1575.552	25.852	1595800	REC_WORD_VV	4.159	n/a	<>	n/a	-999	13	[0, 0, 0]	n/a	catFR1	1	R1170J
1601.404	7.994	1621652	REC_END	n/a	n/a	n/a	n/a	-999	13	[0, 0, 0]	n/a	catFR1	1	R1170J
1609.398	0.5	1629646	TRIAL	n/a	n/a	n/a	n/a	-999	14	[0, 0, 0]	n/a	catFR1	1	R1170J
1609.898	10.0	1630146	COUNTDOWN_START	n/a	n/a	n/a	n/a	-999	14	[0, 0, 0]	n/a	catFR1	1	R1170J
1620.326	0.007	1640574	COUNTDOWN_END	n/a	n/a	n/a	n/a	-999	14	[0, 0, 0]	n/a	catFR1	1	R1170J
1620.333	1.6	1640581	ORIENT	n/a	n/a	n/a	n/a	-999	14	[0, 0, 0]	n/a	catFR1	1	R1170J
1621.95	2.184	1642198	ORIENT_OFF	n/a	n/a	n/a	n/a	-999	14	[0, 0, 0]	n/a	catFR1	1	R1170J
1624.134	1.6	1644382	WORD	n/a	wordpools/wordpool_categorized_EN.txt	TEA	Beverages	1	14	[0, 0, 0]	n/a	catFR1	1	R1170J
1625.75	0.817	1645998	WORD_OFF	n/a	n/a	TEA	n/a	1	14	[0, 0, 0]	n/a	catFR1	1	R1170J
1626.567	1.6	1646815	WORD	n/a	wordpools/wordpool_categorized_EN.txt	BEER	Beverages	2	14	[0, 0, 0]	n/a	catFR1	1	R1170J
1628.185	0.783	1648433	WORD_OFF	n/a	n/a	BEER	n/a	2	14	[0, 0, 0]	n/a	catFR1	1	R1170J
1628.968	1.6	1649216	WORD	n/a	wordpools/wordpool_categorized_EN.txt	PAPER	OfficeSupplies	3	14	[0, 0, 0]	n/a	catFR1	1	R1170J
1630.584	0.767	1650832	WORD_OFF	n/a	n/a	PAPER	n/a	3	14	[0, 0, 0]	n/a	catFR1	1	R1170J
1631.351	1.6	1651599	WORD	n/a	wordpools/wordpool_categorized_EN.txt	FOLDER	OfficeSupplies	4	14	[0, 0, 0]	n/a	catFR1	1	R1170J
1632.969	0.882	1653217	WORD_OFF	n/a	n/a	FOLDER	n/a	4	14	[0, 0, 0]	n/a	catFR1	1	R1170J
1633.851	1.6	1654099	WORD	n/a	wordpools/wordpool_categorized_EN.txt	MOTH	Insects	5	14	[0, 0, 0]	n/a	catFR1	1	R1170J
1635.468	0.934	1655716	WORD_OFF	n/a	n/a	MOTH	n/a	5	14	[0, 0, 0]	n/a	catFR1	1	R1170J
1636.402	1.6	1656650	WORD	n/a	wordpools/wordpool_categorized_EN.txt	SPIDER	Insects	6	14	[0, 0, 0]	n/a	catFR1	1	R1170J
1638.02	0.933	1658268	WORD_OFF	n/a	n/a	SPIDER	n/a	6	14	[0, 0, 0]	n/a	catFR1	1	R1170J
1638.953	1.6	1659201	WORD	n/a	wordpools/wordpool_categorized_EN.txt	RUM	Beverages	7	14	[0, 0, 0]	n/a	catFR1	1	R1170J
1640.568	0.801	1660815	WORD_OFF	n/a	n/a	RUM	n/a	7	14	[0, 0, 0]	n/a	catFR1	1	R1170J
1641.369	1.6	1661616	WORD	n/a	wordpools/wordpool_categorized_EN.txt	COFFEE	Beverages	8	14	[0, 0, 0]	n/a	catFR1	1	R1170J
1642.987	0.933	1663234	WORD_OFF	n/a	n/a	COFFEE	n/a	8	14	[0, 0, 0]	n/a	catFR1	1	R1170J
1643.92	1.6	1664167	WORD	n/a	wordpools/wordpool_categorized_EN.txt	BINDER	OfficeSupplies	9	14	[0, 0, 0]	n/a	catFR1	1	R1170J
1645.536	0.984	1665783	WORD_OFF	n/a	n/a	BINDER	n/a	9	14	[0, 0, 0]	n/a	catFR1	1	R1170J
1646.52	1.6	1666767	WORD	n/a	wordpools/wordpool_categorized_EN.txt	RULER	OfficeSupplies	10	14	[0, 0, 0]	n/a	catFR1	1	R1170J
1648.137	0.867	1668384	WORD_OFF	n/a	n/a	RULER	n/a	10	14	[0, 0, 0]	n/a	catFR1	1	R1170J
1649.004	1.6	1669251	WORD	n/a	wordpools/wordpool_categorized_EN.txt	ANT	Insects	11	14	[0, 0, 0]	n/a	catFR1	1	R1170J
1650.62	0.833	1670867	WORD_OFF	n/a	n/a	ANT	n/a	11	14	[0, 0, 0]	n/a	catFR1	1	R1170J
1651.453	1.6	1671700	WORD	n/a	wordpools/wordpool_categorized_EN.txt	MOSQUITO	Insects	12	14	[0, 0, 0]	n/a	catFR1	1	R1170J
1653.071	0.001	1673318	WORD_OFF	n/a	n/a	MOSQUITO	n/a	12	14	[0, 0, 0]	n/a	catFR1	1	R1170J
1653.072	0.097	1673319	ENCODING_END	n/a	n/a	n/a	n/a	-999	14	[0, 0, 0]	n/a	catFR1	1	R1170J
1653.169	0.0	1673416	DISTRACT_START	n/a	n/a	n/a	n/a	-999	14	[0, 0, 0]	n/a	catFR1	1	R1170J
1653.169	0.019	1673416	START	n/a	n/a	n/a	n/a	-999	14	[-999, -999, -999]	n/a	catFR1	1	R1170J
1653.188	3.751	1673435	PROB	3.723	n/a	n/a	n/a	-999	14	[1, 6, 4]	11.0	catFR1	1	R1170J
1656.939	4.017	1677186	PROB	3.987	n/a	n/a	n/a	-999	14	[3, 3, 4]	10.0	catFR1	1	R1170J
1660.956	4.267	1681203	PROB	4.243	n/a	n/a	n/a	-999	14	[1, 7, 5]	13.0	catFR1	1	R1170J
1665.223	4.183	1685470	PROB	4.151	n/a	n/a	n/a	-999	14	[4, 7, 7]	18.0	catFR1	1	R1170J
1669.406	4.616	1689653	PROB	4.616	n/a	n/a	n/a	-999	14	[4, 1, 7]	15.0	catFR1	1	R1170J
1674.022	0.019	1694269	STOP	n/a	n/a	n/a	n/a	-999	14	[-999, -999, -999]	n/a	catFR1	1	R1170J
1674.041	0.699	1694288	DISTRACT_END	n/a	n/a	n/a	n/a	-999	14	[0, 0, 0]	n/a	catFR1	1	R1170J
1674.74	0.519	1694987	RETRIEVAL_ORIENT	n/a	n/a	n/a	n/a	-999	14	[0, 0, 0]	n/a	catFR1	1	R1170J
1675.259	2.736	1695506	REC_START	n/a	n/a	n/a	n/a	-999	14	[0, 0, 0]	n/a	catFR1	1	R1170J
1677.995	2.937	1698242	REC_WORD	2.736	n/a	SPIDER	Insects	6	14	[0, 0, 0]	n/a	catFR1	1	R1170J
1680.932	11.179	1701179	REC_WORD	5.673	n/a	STICK	n/a	-999	14	[0, 0, 0]	n/a	catFR1	1	R1170J
1692.111	11.503	1712358	REC_WORD	16.852	n/a	BUG	n/a	-999	14	[0, 0, 0]	n/a	catFR1	1	R1170J
1703.614	1.658	1723861	REC_WORD_VV	28.355	n/a	<>	n/a	-999	14	[0, 0, 0]	n/a	catFR1	1	R1170J
1705.272	44.595	1725519	REC_END	n/a	n/a	n/a	n/a	-999	14	[0, 0, 0]	n/a	catFR1	1	R1170J
1749.867	0.5	1770113	TRIAL	n/a	n/a	n/a	n/a	-999	15	[0, 0, 0]	n/a	catFR1	1	R1170J
1750.367	10.0	1770613	COUNTDOWN_START	n/a	n/a	n/a	n/a	-999	15	[0, 0, 0]	n/a	catFR1	1	R1170J
1760.795	0.006	1781041	COUNTDOWN_END	n/a	n/a	n/a	n/a	-999	15	[0, 0, 0]	n/a	catFR1	1	R1170J
1760.801	1.6	1781047	ORIENT	n/a	n/a	n/a	n/a	-999	15	[0, 0, 0]	n/a	catFR1	1	R1170J
1762.418	2.184	1782664	ORIENT_OFF	n/a	n/a	n/a	n/a	-999	15	[0, 0, 0]	n/a	catFR1	1	R1170J
1764.602	1.6	1784848	WORD	n/a	wordpools/wordpool_categorized_EN.txt	BLUEBIRD	Birds	1	15	[0, 0, 0]	n/a	catFR1	1	R1170J
1766.22	1.017	1786466	WORD_OFF	n/a	n/a	BLUEBIRD	n/a	1	15	[0, 0, 0]	n/a	catFR1	1	R1170J
1767.237	1.6	1787483	WORD	n/a	wordpools/wordpool_categorized_EN.txt	DOVE	Birds	2	15	[0, 0, 0]	n/a	catFR1	1	R1170J
1768.852	0.834	1789098	WORD_OFF	n/a	n/a	DOVE	n/a	2	15	[0, 0, 0]	n/a	catFR1	1	R1170J
1769.686	1.6	1789932	WORD	n/a	wordpools/wordpool_categorized_EN.txt	ORANGE	Fruit	3	15	[0, 0, 0]	n/a	catFR1	1	R1170J
1771.303	1.017	1791549	WORD_OFF	n/a	n/a	ORANGE	n/a	3	15	[0, 0, 0]	n/a	catFR1	1	R1170J
1772.32	1.6	1792566	WORD	n/a	wordpools/wordpool_categorized_EN.txt	GRAPE	Fruit	4	15	[0, 0, 0]	n/a	catFR1	1	R1170J
1773.937	0.816	1794182	WORD_OFF	n/a	n/a	GRAPE	n/a	4	15	[0, 0, 0]	n/a	catFR1	1	R1170J
1774.753	1.6	1794998	WORD	n/a	wordpools/wordpool_categorized_EN.txt	BASEBALL	Toys	5	15	[0, 0, 0]	n/a	catFR1	1	R1170J
1776.37	0.801	1796615	WORD_OFF	n/a	n/a	BASEBALL	n/a	5	15	[0, 0, 0]	n/a	catFR1	1	R1170J
1777.171	1.6	1797416	WORD	n/a	wordpools/wordpool_categorized_EN.txt	MARBLES	Toys	6	15	[0, 0, 0]	n/a	catFR1	1	R1170J
1778.787	0.95	1799032	WORD_OFF	n/a	n/a	MARBLES	n/a	6	15	[0, 0, 0]	n/a	catFR1	1	R1170J
1779.737	1.6	1799982	WORD	n/a	wordpools/wordpool_categorized_EN.txt	BLUEBERRY	Fruit	7	15	[0, 0, 0]	n/a	catFR1	1	R1170J
1781.354	0.818	1801599	WORD_OFF	n/a	n/a	BLUEBERRY	n/a	7	15	[0, 0, 0]	n/a	catFR1	1	R1170J
1782.172	1.6	1802417	WORD	n/a	wordpools/wordpool_categorized_EN.txt	PEAR	Fruit	8	15	[0, 0, 0]	n/a	catFR1	1	R1170J
1783.788	0.784	1804033	WORD_OFF	n/a	n/a	PEAR	n/a	8	15	[0, 0, 0]	n/a	catFR1	1	R1170J
1784.572	1.6	1804817	WORD	n/a	wordpools/wordpool_categorized_EN.txt	SEAGULL	Birds	9	15	[0, 0, 0]	n/a	catFR1	1	R1170J
1786.19	0.9	1806435	WORD_OFF	n/a	n/a	SEAGULL	n/a	9	15	[0, 0, 0]	n/a	catFR1	1	R1170J
1787.09	1.6	1807335	WORD	n/a	wordpools/wordpool_categorized_EN.txt	PIGEON	Birds	10	15	[0, 0, 0]	n/a	catFR1	1	R1170J
1788.705	0.85	1808950	WORD_OFF	n/a	n/a	PIGEON	n/a	10	15	[0, 0, 0]	n/a	catFR1	1	R1170J
1789.555	1.6	1809800	WORD	n/a	wordpools/wordpool_categorized_EN.txt	DOLLHOUSE	Toys	11	15	[0, 0, 0]	n/a	catFR1	1	R1170J
1791.156	0.851	1811401	WORD_OFF	n/a	n/a	DOLLHOUSE	n/a	11	15	[0, 0, 0]	n/a	catFR1	1	R1170J
1792.007	1.6	1812252	WORD	n/a	wordpools/wordpool_categorized_EN.txt	SLINKY	Toys	12	15	[0, 0, 0]	n/a	catFR1	1	R1170J
1793.623	0.0	1813868	ENCODING_END	n/a	n/a	n/a	n/a	-999	15	[0, 0, 0]	n/a	catFR1	1	R1170J
1793.623	0.131	1813868	WORD_OFF	n/a	n/a	SLINKY	n/a	12	15	[0, 0, 0]	n/a	catFR1	1	R1170J
1793.754	0.001	1813999	DISTRACT_START	n/a	n/a	n/a	n/a	-999	15	[0, 0, 0]	n/a	catFR1	1	R1170J
1793.755	0.018	1814000	START	n/a	n/a	n/a	n/a	-999	15	[-999, -999, -999]	n/a	catFR1	1	R1170J
1793.773	3.934	1814018	PROB	3.901	n/a	n/a	n/a	-999	15	[5, 9, 9]	24.0	catFR1	1	R1170J
1797.707	3.617	1817952	PROB	3.59	n/a	n/a	n/a	-999	15	[6, 4, 8]	18.0	catFR1	1	R1170J
1801.324	2.835	1821569	PROB	2.798	n/a	n/a	n/a	-999	15	[9, 1, 9]	19.0	catFR1	1	R1170J
1804.159	2.883	1824404	PROB	2.858	n/a	n/a	n/a	-999	15	[2, 9, 1]	12.0	catFR1	1	R1170J
1807.042	2.649	1827287	PROB	2.614	n/a	n/a	n/a	-999	15	[4, 9, 9]	22.0	catFR1	1	R1170J
1809.691	3.751	1829936	PROB	3.725	n/a	n/a	n/a	-999	15	[7, 1, 8]	16.0	catFR1	1	R1170J
1813.442	6.223	1833687	PROB	6.223	n/a	n/a	n/a	-999	15	[3, 6, 8]	17.0	catFR1	1	R1170J
1819.665	0.011	1839910	STOP	n/a	n/a	n/a	n/a	-999	15	[-999, -999, -999]	n/a	catFR1	1	R1170J
1819.676	0.568	1839921	DISTRACT_END	n/a	n/a	n/a	n/a	-999	15	[0, 0, 0]	n/a	catFR1	1	R1170J
1820.244	0.517	1840489	RETRIEVAL_ORIENT	n/a	n/a	n/a	n/a	-999	15	[0, 0, 0]	n/a	catFR1	1	R1170J
1820.761	1.11	1841006	REC_START	n/a	n/a	n/a	n/a	-999	15	[0, 0, 0]	n/a	catFR1	1	R1170J
1821.871	1.586	1842116	REC_WORD	1.11	n/a	SEAGULL	Birds	9	15	[0, 0, 0]	n/a	catFR1	1	R1170J
1823.457	3.705	1843702	REC_WORD_VV	2.696	n/a	<>	n/a	-999	15	[0, 0, 0]	n/a	catFR1	1	R1170J
1827.162	23.611	1847407	REC_WORD	6.401	n/a	PENGUIN	n/a	-999	15	[0, 0, 0]	n/a	catFR1	1	R1170J
1850.773	8.725	1871017	REC_END	n/a	n/a	n/a	n/a	-999	15	[0, 0, 0]	n/a	catFR1	1	R1170J
1859.498	0.5	1879742	TRIAL	n/a	n/a	n/a	n/a	-999	16	[0, 0, 0]	n/a	catFR1	1	R1170J
1859.998	10.0	1880242	COUNTDOWN_START	n/a	n/a	n/a	n/a	-999	16	[0, 0, 0]	n/a	catFR1	1	R1170J
1870.426	0.007	1890670	COUNTDOWN_END	n/a	n/a	n/a	n/a	-999	16	[0, 0, 0]	n/a	catFR1	1	R1170J
1870.433	1.6	1890677	ORIENT	n/a	n/a	n/a	n/a	-999	16	[0, 0, 0]	n/a	catFR1	1	R1170J
1872.051	2.217	1892295	ORIENT_OFF	n/a	n/a	n/a	n/a	-999	16	[0, 0, 0]	n/a	catFR1	1	R1170J
1874.268	1.6	1894512	WORD	n/a	wordpools/wordpool_categorized_EN.txt	LADLE	KitchenTools	1	16	[0, 0, 0]	n/a	catFR1	1	R1170J
1875.884	0.833	1896128	WORD_OFF	n/a	n/a	LADLE	n/a	1	16	[0, 0, 0]	n/a	catFR1	1	R1170J
1876.717	1.6	1896961	WORD	n/a	wordpools/wordpool_categorized_EN.txt	FORK	KitchenTools	2	16	[0, 0, 0]	n/a	catFR1	1	R1170J
1878.334	0.983	1898578	WORD_OFF	n/a	n/a	FORK	n/a	2	16	[0, 0, 0]	n/a	catFR1	1	R1170J
1879.317	1.6	1899561	WORD	n/a	wordpools/wordpool_categorized_EN.txt	PANTS	Clothing	3	16	[0, 0, 0]	n/a	catFR1	1	R1170J
1880.935	0.899	1901179	WORD_OFF	n/a	n/a	PANTS	n/a	3	16	[0, 0, 0]	n/a	catFR1	1	R1170J
1881.834	1.6	1902078	WORD	n/a	wordpools/wordpool_categorized_EN.txt	SHORTS	Clothing	4	16	[0, 0, 0]	n/a	catFR1	1	R1170J
1883.451	0.835	1903695	WORD_OFF	n/a	n/a	SHORTS	n/a	4	16	[0, 0, 0]	n/a	catFR1	1	R1170J
1884.286	1.6	1904530	WORD	n/a	wordpools/wordpool_categorized_EN.txt	GUITAR	Instruments	5	16	[0, 0, 0]	n/a	catFR1	1	R1170J
1885.902	0.8	1906146	WORD_OFF	n/a	n/a	GUITAR	n/a	5	16	[0, 0, 0]	n/a	catFR1	1	R1170J
1886.702	1.6	1906946	WORD	n/a	wordpools/wordpool_categorized_EN.txt	TUBA	Instruments	6	16	[0, 0, 0]	n/a	catFR1	1	R1170J
1888.319	0.917	1908563	WORD_OFF	n/a	n/a	TUBA	n/a	6	16	[0, 0, 0]	n/a	catFR1	1	R1170J
1889.236	1.6	1909480	WORD	n/a	wordpools/wordpool_categorized_EN.txt	GRATER	KitchenTools	7	16	[0, 0, 0]	n/a	catFR1	1	R1170J
1890.852	0.817	1911096	WORD_OFF	n/a	n/a	GRATER	n/a	7	16	[0, 0, 0]	n/a	catFR1	1	R1170J
1891.669	1.6	1911913	WORD	n/a	wordpools/wordpool_categorized_EN.txt	WHISK	KitchenTools	8	16	[0, 0, 0]	n/a	catFR1	1	R1170J
1893.287	0.85	1913531	WORD_OFF	n/a	n/a	WHISK	n/a	8	16	[0, 0, 0]	n/a	catFR1	1	R1170J
1894.137	1.6	1914381	WORD	n/a	wordpools/wordpool_categorized_EN.txt	DRESS	Clothing	9	16	[0, 0, 0]	n/a	catFR1	1	R1170J
1895.753	0.767	1915997	WORD_OFF	n/a	n/a	DRESS	n/a	9	16	[0, 0, 0]	n/a	catFR1	1	R1170J
1896.52	1.6	1916764	WORD	n/a	wordpools/wordpool_categorized_EN.txt	COAT	Clothing	10	16	[0, 0, 0]	n/a	catFR1	1	R1170J
1898.138	0.766	1918382	WORD_OFF	n/a	n/a	COAT	n/a	10	16	[0, 0, 0]	n/a	catFR1	1	R1170J
1898.904	1.6	1919148	WORD	n/a	wordpools/wordpool_categorized_EN.txt	TRUMPET	Instruments	11	16	[0, 0, 0]	n/a	catFR1	1	R1170J
1900.52	0.784	1920764	WORD_OFF	n/a	n/a	TRUMPET	n/a	11	16	[0, 0, 0]	n/a	catFR1	1	R1170J
1901.304	1.6	1921548	WORD	n/a	wordpools/wordpool_categorized_EN.txt	BANJO	Instruments	12	16	[0, 0, 0]	n/a	catFR1	1	R1170J
1902.922	0.0	1923166	ENCODING_END	n/a	n/a	n/a	n/a	-999	16	[0, 0, 0]	n/a	catFR1	1	R1170J
1902.922	0.097	1923166	WORD_OFF	n/a	n/a	BANJO	n/a	12	16	[0, 0, 0]	n/a	catFR1	1	R1170J
1903.019	0.0	1923263	DISTRACT_START	n/a	n/a	n/a	n/a	-999	16	[0, 0, 0]	n/a	catFR1	1	R1170J
1903.019	0.02	1923263	START	n/a	n/a	n/a	n/a	-999	16	[-999, -999, -999]	n/a	catFR1	1	R1170J
1903.039	4.666	1923283	PROB	4.63	n/a	n/a	n/a	-999	16	[1, 9, 7]	17.0	catFR1	1	R1170J
1907.705	14.685	1927948	PROB	14.652	n/a	n/a	n/a	-999	16	[8, 8, 8]	24.0	catFR1	1	R1170J
1922.39	5.792	1942633	PROB	5.792	n/a	n/a	n/a	-999	16	[9, 5, 3]	17.0	catFR1	1	R1170J
1928.182	0.01	1948425	STOP	n/a	n/a	n/a	n/a	-999	16	[-999, -999, -999]	n/a	catFR1	1	R1170J
1928.192	0.699	1948435	DISTRACT_END	n/a	n/a	n/a	n/a	-999	16	[0, 0, 0]	n/a	catFR1	1	R1170J
1928.891	0.517	1949134	RETRIEVAL_ORIENT	n/a	n/a	n/a	n/a	-999	16	[0, 0, 0]	n/a	catFR1	1	R1170J
1929.408	2.404	1949651	REC_START	n/a	n/a	n/a	n/a	-999	16	[0, 0, 0]	n/a	catFR1	1	R1170J
1931.812	4.18	1952055	REC_WORD	2.404	n/a	CHEESECAKE	n/a	-999	16	[0, 0, 0]	n/a	catFR1	1	R1170J
1935.992	3.233	1956235	REC_WORD_VV	6.584	n/a	<>	n/a	-999	16	[0, 0, 0]	n/a	catFR1	1	R1170J
1939.225	20.195	1959468	REC_WORD	9.817	n/a	BUTTERFLY	n/a	-999	16	[0, 0, 0]	n/a	catFR1	1	R1170J
1959.42	9.027	1979663	REC_END	n/a	n/a	n/a	n/a	-999	16	[0, 0, 0]	n/a	catFR1	1	R1170J
1968.447	0.5	1988690	TRIAL	n/a	n/a	n/a	n/a	-999	17	[0, 0, 0]	n/a	catFR1	1	R1170J
1968.947	10.0	1989190	COUNTDOWN_START	n/a	n/a	n/a	n/a	-999	17	[0, 0, 0]	n/a	catFR1	1	R1170J
1979.375	0.006	1999617	COUNTDOWN_END	n/a	n/a	n/a	n/a	-999	17	[0, 0, 0]	n/a	catFR1	1	R1170J
1979.381	1.6	1999623	ORIENT	n/a	n/a	n/a	n/a	-999	17	[0, 0, 0]	n/a	catFR1	1	R1170J
1980.999	2.067	2001241	ORIENT_OFF	n/a	n/a	n/a	n/a	-999	17	[0, 0, 0]	n/a	catFR1	1	R1170J
1983.066	1.6	2003308	WORD	n/a	wordpools/wordpool_categorized_EN.txt	TABLE	Furniture	1	17	[0, 0, 0]	n/a	catFR1	1	R1170J
1984.682	0.85	2004924	WORD_OFF	n/a	n/a	TABLE	n/a	1	17	[0, 0, 0]	n/a	catFR1	1	R1170J
1985.532	1.6	2005774	WORD	n/a	wordpools/wordpool_categorized_EN.txt	BED	Furniture	2	17	[0, 0, 0]	n/a	catFR1	1	R1170J
1987.15	0.85	2007392	WORD_OFF	n/a	n/a	BED	n/a	2	17	[0, 0, 0]	n/a	catFR1	1	R1170J
1988.0	1.6	2008242	WORD	n/a	wordpools/wordpool_categorized_EN.txt	LOBSTER	OceanAnimals	3	17	[0, 0, 0]	n/a	catFR1	1	R1170J
1989.616	0.833	2009858	WORD_OFF	n/a	n/a	LOBSTER	n/a	3	17	[0, 0, 0]	n/a	catFR1	1	R1170J
1990.449	1.6	2010691	WORD	n/a	wordpools/wordpool_categorized_EN.txt	FISH	OceanAnimals	4	17	[0, 0, 0]	n/a	catFR1	1	R1170J
1992.067	0.933	2012309	WORD_OFF	n/a	n/a	FISH	n/a	4	17	[0, 0, 0]	n/a	catFR1	1	R1170J
1993.0	1.6	2013242	WORD	n/a	wordpools/wordpool_categorized_EN.txt	MARKER	OfficeSupplies	5	17	[0, 0, 0]	n/a	catFR1	1	R1170J
1994.616	1.017	2014858	WORD_OFF	n/a	n/a	MARKER	n/a	5	17	[0, 0, 0]	n/a	catFR1	1	R1170J
1995.633	1.6	2015875	WORD	n/a	wordpools/wordpool_categorized_EN.txt	ERASER	OfficeSupplies	6	17	[0, 0, 0]	n/a	catFR1	1	R1170J
1997.234	0.884	2017476	WORD_OFF	n/a	n/a	ERASER	n/a	6	17	[0, 0, 0]	n/a	catFR1	1	R1170J
1998.118	1.6	2018360	WORD	n/a	wordpools/wordpool_categorized_EN.txt	SHRIMP	OceanAnimals	7	17	[0, 0, 0]	n/a	catFR1	1	R1170J
1999.734	0.933	2019976	WORD_OFF	n/a	n/a	SHRIMP	n/a	7	17	[0, 0, 0]	n/a	catFR1	1	R1170J
2000.667	1.6	2020909	WORD	n/a	wordpools/wordpool_categorized_EN.txt	WHALE	OceanAnimals	8	17	[0, 0, 0]	n/a	catFR1	1	R1170J
2002.285	0.834	2022527	WORD_OFF	n/a	n/a	WHALE	n/a	8	17	[0, 0, 0]	n/a	catFR1	1	R1170J
2003.119	1.6	2023361	WORD	n/a	wordpools/wordpool_categorized_EN.txt	DRESSER	Furniture	9	17	[0, 0, 0]	n/a	catFR1	1	R1170J
2004.734	0.784	2024976	WORD_OFF	n/a	n/a	DRESSER	n/a	9	17	[0, 0, 0]	n/a	catFR1	1	R1170J
2005.518	1.6	2025760	WORD	n/a	wordpools/wordpool_categorized_EN.txt	SOFA	Furniture	10	17	[0, 0, 0]	n/a	catFR1	1	R1170J
2007.136	0.867	2027378	WORD_OFF	n/a	n/a	SOFA	n/a	10	17	[0, 0, 0]	n/a	catFR1	1	R1170J
2008.003	1.6	2028245	WORD	n/a	wordpools/wordpool_categorized_EN.txt	NOTEBOOK	OfficeSupplies	11	17	[0, 0, 0]	n/a	catFR1	1	R1170J
2009.618	0.95	2029860	WORD_OFF	n/a	n/a	NOTEBOOK	n/a	11	17	[0, 0, 0]	n/a	catFR1	1	R1170J
2010.568	1.6	2030810	WORD	n/a	wordpools/wordpool_categorized_EN.txt	STAPLER	OfficeSupplies	12	17	[0, 0, 0]	n/a	catFR1	1	R1170J
2012.186	0.0	2032428	ENCODING_END	n/a	n/a	n/a	n/a	-999	17	[0, 0, 0]	n/a	catFR1	1	R1170J
2012.186	0.095	2032428	WORD_OFF	n/a	n/a	STAPLER	n/a	12	17	[0, 0, 0]	n/a	catFR1	1	R1170J
2012.281	0.0	2032523	DISTRACT_START	n/a	n/a	n/a	n/a	-999	17	[0, 0, 0]	n/a	catFR1	1	R1170J
2012.281	0.021	2032523	START	n/a	n/a	n/a	n/a	-999	17	[-999, -999, -999]	n/a	catFR1	1	R1170J
2012.302	5.635	2032544	PROB	5.604	n/a	n/a	n/a	-999	17	[2, 9, 4]	15.0	catFR1	1	R1170J
2017.937	7.951	2038179	PROB	7.912	n/a	n/a	n/a	-999	17	[8, 3, 2]	13.0	catFR1	1	R1170J
2025.888	3.6	2046130	PROB	3.568	n/a	n/a	n/a	-999	17	[5, 2, 4]	11.0	catFR1	1	R1170J
2029.488	5.833	2049730	PROB	5.833	n/a	n/a	n/a	-999	17	[9, 6, 1]	16.0	catFR1	1	R1170J
2035.321	0.018	2055563	STOP	n/a	n/a	n/a	n/a	-999	17	[-999, -999, -999]	n/a	catFR1	1	R1170J
2035.339	0.667	2055581	DISTRACT_END	n/a	n/a	n/a	n/a	-999	17	[0, 0, 0]	n/a	catFR1	1	R1170J
2036.006	0.517	2056248	RETRIEVAL_ORIENT	n/a	n/a	n/a	n/a	-999	17	[0, 0, 0]	n/a	catFR1	1	R1170J
2036.523	1.414	2056765	REC_START	n/a	n/a	n/a	n/a	-999	17	[0, 0, 0]	n/a	catFR1	1	R1170J
2037.937	28.598	2058179	REC_WORD_VV	1.414	n/a	<>	n/a	-999	17	[0, 0, 0]	n/a	catFR1	1	R1170J
2066.535	6.842	2086776	REC_END	n/a	n/a	n/a	n/a	-999	17	[0, 0, 0]	n/a	catFR1	1	R1170J
2073.377	0.5	2093618	TRIAL	n/a	n/a	n/a	n/a	-999	18	[0, 0, 0]	n/a	catFR1	1	R1170J
2073.877	10.0	2094118	COUNTDOWN_START	n/a	n/a	n/a	n/a	-999	18	[0, 0, 0]	n/a	catFR1	1	R1170J
2084.305	0.007	2104546	COUNTDOWN_END	n/a	n/a	n/a	n/a	-999	18	[0, 0, 0]	n/a	catFR1	1	R1170J
2084.312	1.6	2104553	ORIENT	n/a	n/a	n/a	n/a	-999	18	[0, 0, 0]	n/a	catFR1	1	R1170J
2085.93	2.034	2106171	ORIENT_OFF	n/a	n/a	n/a	n/a	-999	18	[0, 0, 0]	n/a	catFR1	1	R1170J
2087.964	1.6	2108205	WORD	n/a	wordpools/wordpool_categorized_EN.txt	TAPE	OfficeSupplies	1	18	[0, 0, 0]	n/a	catFR1	1	R1170J
2089.579	0.95	2109820	WORD_OFF	n/a	n/a	TAPE	n/a	1	18	[0, 0, 0]	n/a	catFR1	1	R1170J
2090.529	1.6	2110770	WORD	n/a	wordpools/wordpool_categorized_EN.txt	GLUE	OfficeSupplies	2	18	[0, 0, 0]	n/a	catFR1	1	R1170J
2092.13	0.884	2112371	WORD_OFF	n/a	n/a	GLUE	n/a	2	18	[0, 0, 0]	n/a	catFR1	1	R1170J
2093.014	1.6	2113255	WORD	n/a	wordpools/wordpool_categorized_EN.txt	LEG	BodyParts	3	18	[0, 0, 0]	n/a	catFR1	1	R1170J
2094.63	0.967	2114871	WORD_OFF	n/a	n/a	LEG	n/a	3	18	[0, 0, 0]	n/a	catFR1	1	R1170J
2095.597	1.6	2115838	WORD	n/a	wordpools/wordpool_categorized_EN.txt	ARM	BodyParts	4	18	[0, 0, 0]	n/a	catFR1	1	R1170J
2097.215	0.917	2117456	WORD_OFF	n/a	n/a	ARM	n/a	4	18	[0, 0, 0]	n/a	catFR1	1	R1170J
2098.132	1.6	2118373	WORD	n/a	wordpools/wordpool_categorized_EN.txt	WINDOW	Building	5	18	[0, 0, 0]	n/a	catFR1	1	R1170J
2099.747	0.884	2119988	WORD_OFF	n/a	n/a	WINDOW	n/a	5	18	[0, 0, 0]	n/a	catFR1	1	R1170J
2100.631	1.6	2120872	WORD	n/a	wordpools/wordpool_categorized_EN.txt	BATHROOM	Building	6	18	[0, 0, 0]	n/a	catFR1	1	R1170J
2102.249	0.949	2122490	WORD_OFF	n/a	n/a	BATHROOM	n/a	6	18	[0, 0, 0]	n/a	catFR1	1	R1170J
2103.198	1.6	2123439	WORD	n/a	wordpools/wordpool_categorized_EN.txt	PENCIL	OfficeSupplies	7	18	[0, 0, 0]	n/a	catFR1	1	R1170J
2104.815	0.883	2125056	WORD_OFF	n/a	n/a	PENCIL	n/a	7	18	[0, 0, 0]	n/a	catFR1	1	R1170J
2105.698	1.6	2125939	WORD	n/a	wordpools/wordpool_categorized_EN.txt	PEN	OfficeSupplies	8	18	[0, 0, 0]	n/a	catFR1	1	R1170J
2107.315	0.951	2127556	WORD_OFF	n/a	n/a	PEN	n/a	8	18	[0, 0, 0]	n/a	catFR1	1	R1170J
2108.266	1.6	2128507	WORD	n/a	wordpools/wordpool_categorized_EN.txt	NOSE	BodyParts	9	18	[0, 0, 0]	n/a	catFR1	1	R1170J
2109.882	1.017	2130122	WORD_OFF	n/a	n/a	NOSE	n/a	9	18	[0, 0, 0]	n/a	catFR1	1	R1170J
2110.899	1.6	2131139	WORD	n/a	wordpools/wordpool_categorized_EN.txt	FINGERS	BodyParts	10	18	[0, 0, 0]	n/a	catFR1	1	R1170J
2112.516	0.9	2132756	WORD_OFF	n/a	n/a	FINGERS	n/a	10	18	[0, 0, 0]	n/a	catFR1	1	R1170J
2113.416	1.6	2133656	WORD	n/a	wordpools/wordpool_categorized_EN.txt	HALLWAY	Building	11	18	[0, 0, 0]	n/a	catFR1	1	R1170J
2115.034	0.832	2135274	WORD_OFF	n/a	n/a	HALLWAY	n/a	11	18	[0, 0, 0]	n/a	catFR1	1	R1170J
2115.866	1.6	2136106	WORD	n/a	wordpools/wordpool_categorized_EN.txt	ROOF	Building	12	18	[0, 0, 0]	n/a	catFR1	1	R1170J
2117.483	0.0	2137723	WORD_OFF	n/a	n/a	ROOF	n/a	12	18	[0, 0, 0]	n/a	catFR1	1	R1170J
2117.483	0.125	2137723	ENCODING_END	n/a	n/a	n/a	n/a	-999	18	[0, 0, 0]	n/a	catFR1	1	R1170J
2117.608	0.0	2137848	DISTRACT_START	n/a	n/a	n/a	n/a	-999	18	[0, 0, 0]	n/a	catFR1	1	R1170J
2117.608	0.008	2137848	START	n/a	n/a	n/a	n/a	-999	18	[-999, -999, -999]	n/a	catFR1	1	R1170J
2117.616	5.352	2137856	PROB	5.327	n/a	n/a	n/a	-999	18	[5, 8, 9]	21.0	catFR1	1	R1170J
2122.968	4.301	2143208	PROB	4.27	n/a	n/a	n/a	-999	18	[3, 6, 6]	15.0	catFR1	1	R1170J
2127.269	3.0	2147509	PROB	2.977	n/a	n/a	n/a	-999	18	[5, 8, 2]	15.0	catFR1	1	R1170J
2130.269	11.287	2150509	PROB	11.287	n/a	n/a	n/a	-999	18	[6, 5, 4]	15.0	catFR1	1	R1170J
2141.556	0.014	2161796	STOP	n/a	n/a	n/a	n/a	-999	18	[-999, -999, -999]	n/a	catFR1	1	R1170J
2141.57	0.6	2161810	DISTRACT_END	n/a	n/a	n/a	n/a	-999	18	[0, 0, 0]	n/a	catFR1	1	R1170J
2142.17	0.517	2162410	RETRIEVAL_ORIENT	n/a	n/a	n/a	n/a	-999	18	[0, 0, 0]	n/a	catFR1	1	R1170J
2142.687	4.033	2162927	REC_START	n/a	n/a	n/a	n/a	-999	18	[0, 0, 0]	n/a	catFR1	1	R1170J
2146.72	0.847	2166960	REC_WORD	4.033	n/a	PEN	OfficeSupplies	8	18	[0, 0, 0]	n/a	catFR1	1	R1170J
2147.567	5.362	2167807	REC_WORD	4.88	n/a	PENCIL	OfficeSupplies	7	18	[0, 0, 0]	n/a	catFR1	1	R1170J
2152.929	13.086	2173169	REC_WORD	10.242	n/a	HALLWAY	Building	11	18	[0, 0, 0]	n/a	catFR1	1	R1170J
2166.015	1.321	2186255	REC_WORD	23.328	n/a	FINGERNAILS	n/a	-999	18	[0, 0, 0]	n/a	catFR1	1	R1170J
2167.336	2.415	2187576	REC_WORD	24.649	n/a	FINGERS	BodyParts	10	18	[0, 0, 0]	n/a	catFR1	1	R1170J
2169.751	1.091	2189991	REC_WORD	27.064	n/a	ARM	BodyParts	4	18	[0, 0, 0]	n/a	catFR1	1	R1170J
2170.842	1.855	2191082	REC_WORD	28.155	n/a	LEG	BodyParts	3	18	[0, 0, 0]	n/a	catFR1	1	R1170J
2172.697	6.744	2192937	REC_END	n/a	n/a	n/a	n/a	-999	18	[0, 0, 0]	n/a	catFR1	1	R1170J
2179.441	0.5	2199680	TRIAL	n/a	n/a	n/a	n/a	-999	19	[0, 0, 0]	n/a	catFR1	1	R1170J
2179.941	10.0	2200180	COUNTDOWN_START	n/a	n/a	n/a	n/a	-999	19	[0, 0, 0]	n/a	catFR1	1	R1170J
2190.369	0.006	2210608	COUNTDOWN_END	n/a	n/a	n/a	n/a	-999	19	[0, 0, 0]	n/a	catFR1	1	R1170J
2190.375	1.6	2210614	ORIENT	n/a	n/a	n/a	n/a	-999	19	[0, 0, 0]	n/a	catFR1	1	R1170J
2191.993	2.017	2212232	ORIENT_OFF	n/a	n/a	n/a	n/a	-999	19	[0, 0, 0]	n/a	catFR1	1	R1170J
2194.01	1.6	2214249	WORD	n/a	wordpools/wordpool_categorized_EN.txt	TURTLE	OceanAnimals	1	19	[0, 0, 0]	n/a	catFR1	1	R1170J
2195.626	0.884	2215865	WORD_OFF	n/a	n/a	TURTLE	n/a	1	19	[0, 0, 0]	n/a	catFR1	1	R1170J
2196.51	1.6	2216749	WORD	n/a	wordpools/wordpool_categorized_EN.txt	PLANKTON	OceanAnimals	2	19	[0, 0, 0]	n/a	catFR1	1	R1170J
2198.128	0.883	2218367	WORD_OFF	n/a	n/a	PLANKTON	n/a	2	19	[0, 0, 0]	n/a	catFR1	1	R1170J
2199.011	1.6	2219250	WORD	n/a	wordpools/wordpool_categorized_EN.txt	EVERGREEN	Trees	3	19	[0, 0, 0]	n/a	catFR1	1	R1170J
2200.627	0.9	2220866	WORD_OFF	n/a	n/a	EVERGREEN	n/a	3	19	[0, 0, 0]	n/a	catFR1	1	R1170J
2201.527	1.6	2221766	WORD	n/a	wordpools/wordpool_categorized_EN.txt	MAPLE	Trees	4	19	[0, 0, 0]	n/a	catFR1	1	R1170J
2203.128	0.766	2223367	WORD_OFF	n/a	n/a	MAPLE	n/a	4	19	[0, 0, 0]	n/a	catFR1	1	R1170J
2203.894	1.6	2224133	WORD	n/a	wordpools/wordpool_categorized_EN.txt	MARIGOLD	Flowers	5	19	[0, 0, 0]	n/a	catFR1	1	R1170J
2205.511	0.834	2225750	WORD_OFF	n/a	n/a	MARIGOLD	n/a	5	19	[0, 0, 0]	n/a	catFR1	1	R1170J
2206.345	1.6	2226584	WORD	n/a	wordpools/wordpool_categorized_EN.txt	VIOLET	Flowers	6	19	[0, 0, 0]	n/a	catFR1	1	R1170J
2207.963	0.815	2228202	WORD_OFF	n/a	n/a	VIOLET	n/a	6	19	[0, 0, 0]	n/a	catFR1	1	R1170J
2208.778	1.6	2229017	WORD	n/a	wordpools/wordpool_categorized_EN.txt	OAK	Trees	7	19	[0, 0, 0]	n/a	catFR1	1	R1170J
2210.395	0.835	2230634	WORD_OFF	n/a	n/a	OAK	n/a	7	19	[0, 0, 0]	n/a	catFR1	1	R1170J
2211.23	1.6	2231469	WORD	n/a	wordpools/wordpool_categorized_EN.txt	ELM	Trees	8	19	[0, 0, 0]	n/a	catFR1	1	R1170J
2212.845	0.767	2233084	WORD_OFF	n/a	n/a	ELM	n/a	8	19	[0, 0, 0]	n/a	catFR1	1	R1170J
2213.612	1.6	2233851	WORD	n/a	wordpools/wordpool_categorized_EN.txt	JELLYFISH	OceanAnimals	9	19	[0, 0, 0]	n/a	catFR1	1	R1170J
2215.23	0.784	2235469	WORD_OFF	n/a	n/a	JELLYFISH	n/a	9	19	[0, 0, 0]	n/a	catFR1	1	R1170J
2216.014	1.6	2236253	WORD	n/a	wordpools/wordpool_categorized_EN.txt	DOLPHIN	OceanAnimals	10	19	[0, 0, 0]	n/a	catFR1	1	R1170J
2217.63	1.016	2237869	WORD_OFF	n/a	n/a	DOLPHIN	n/a	10	19	[0, 0, 0]	n/a	catFR1	1	R1170J
2218.646	1.6	2238885	WORD	n/a	wordpools/wordpool_categorized_EN.txt	DAISY	Flowers	11	19	[0, 0, 0]	n/a	catFR1	1	R1170J
2220.264	0.917	2240503	WORD_OFF	n/a	n/a	DAISY	n/a	11	19	[0, 0, 0]	n/a	catFR1	1	R1170J
2221.181	1.6	2241420	WORD	n/a	wordpools/wordpool_categorized_EN.txt	LILY	Flowers	12	19	[0, 0, 0]	n/a	catFR1	1	R1170J
2222.797	0.0	2243036	ENCODING_END	n/a	n/a	n/a	n/a	-999	19	[0, 0, 0]	n/a	catFR1	1	R1170J
2222.797	0.097	2243036	WORD_OFF	n/a	n/a	LILY	n/a	12	19	[0, 0, 0]	n/a	catFR1	1	R1170J
2222.894	0.0	2243133	DISTRACT_START	n/a	n/a	n/a	n/a	-999	19	[0, 0, 0]	n/a	catFR1	1	R1170J
2222.894	0.02	2243133	START	n/a	n/a	n/a	n/a	-999	19	[-999, -999, -999]	n/a	catFR1	1	R1170J
2222.914	4.433	2243153	PROB	4.399	n/a	n/a	n/a	-999	19	[1, 9, 3]	13.0	catFR1	1	R1170J
2227.347	5.501	2247586	PROB	5.463	n/a	n/a	n/a	-999	19	[3, 8, 6]	17.0	catFR1	1	R1170J
2232.848	2.65	2253087	PROB	2.624	n/a	n/a	n/a	-999	19	[2, 8, 1]	11.0	catFR1	1	R1170J
2235.498	10.575	2255737	PROB	10.575	n/a	n/a	n/a	-999	19	[8, 5, 6]	19.0	catFR1	1	R1170J
2246.073	0.011	2266311	STOP	n/a	n/a	n/a	n/a	-999	19	[-999, -999, -999]	n/a	catFR1	1	R1170J
2246.084	0.633	2266322	DISTRACT_END	n/a	n/a	n/a	n/a	-999	19	[0, 0, 0]	n/a	catFR1	1	R1170J
2246.717	0.519	2266955	RETRIEVAL_ORIENT	n/a	n/a	n/a	n/a	-999	19	[0, 0, 0]	n/a	catFR1	1	R1170J
2247.236	0.618	2267474	REC_START	n/a	n/a	n/a	n/a	-999	19	[0, 0, 0]	n/a	catFR1	1	R1170J
2247.854	0.616	2268092	REC_WORD	0.618	n/a	DAISY	Flowers	11	19	[0, 0, 0]	n/a	catFR1	1	R1170J
2248.47	3.505	2268708	REC_WORD	1.234	n/a	LILY	Flowers	12	19	[0, 0, 0]	n/a	catFR1	1	R1170J
2251.975	5.439	2272213	REC_WORD_VV	4.739	n/a	<>	n/a	-999	19	[0, 0, 0]	n/a	catFR1	1	R1170J
2257.414	19.834	2277652	REC_WORD	10.178	n/a	FLOWER	n/a	-999	19	[0, 0, 0]	n/a	catFR1	1	R1170J
2277.248	14.425	2297486	REC_END	n/a	n/a	n/a	n/a	-999	19	[0, 0, 0]	n/a	catFR1	1	R1170J
2291.673	0.5	2311911	TRIAL	n/a	n/a	n/a	n/a	-999	20	[0, 0, 0]	n/a	catFR1	1	R1170J
2292.173	10.0	2312411	COUNTDOWN_START	n/a	n/a	n/a	n/a	-999	20	[0, 0, 0]	n/a	catFR1	1	R1170J
2302.601	0.006	2322839	COUNTDOWN_END	n/a	n/a	n/a	n/a	-999	20	[0, 0, 0]	n/a	catFR1	1	R1170J
2302.607	1.6	2322845	ORIENT	n/a	n/a	n/a	n/a	-999	20	[0, 0, 0]	n/a	catFR1	1	R1170J
2304.225	2.3	2324463	ORIENT_OFF	n/a	n/a	n/a	n/a	-999	20	[0, 0, 0]	n/a	catFR1	1	R1170J
2306.525	1.6	2326763	WORD	n/a	wordpools/wordpool_categorized_EN.txt	TELEVISION	Electronics	1	20	[0, 0, 0]	n/a	catFR1	1	R1170J
2308.143	0.816	2328381	WORD_OFF	n/a	n/a	TELEVISION	n/a	1	20	[0, 0, 0]	n/a	catFR1	1	R1170J
2308.959	1.6	2329197	WORD	n/a	wordpools/wordpool_categorized_EN.txt	MICROWAVE	Electronics	2	20	[0, 0, 0]	n/a	catFR1	1	R1170J
2310.575	0.833	2330812	WORD_OFF	n/a	n/a	MICROWAVE	n/a	2	20	[0, 0, 0]	n/a	catFR1	1	R1170J
2311.408	1.6	2331645	WORD	n/a	wordpools/wordpool_categorized_EN.txt	WATER	Beverages	3	20	[0, 0, 0]	n/a	catFR1	1	R1170J
2313.009	1.001	2333246	WORD_OFF	n/a	n/a	WATER	n/a	3	20	[0, 0, 0]	n/a	catFR1	1	R1170J
2314.01	1.6	2334247	WORD	n/a	wordpools/wordpool_categorized_EN.txt	LEMONADE	Beverages	4	20	[0, 0, 0]	n/a	catFR1	1	R1170J
2315.626	0.8	2335863	WORD_OFF	n/a	n/a	LEMONADE	n/a	4	20	[0, 0, 0]	n/a	catFR1	1	R1170J
2316.426	1.6	2336663	WORD	n/a	wordpools/wordpool_categorized_EN.txt	CUPCAKE	Desserts	5	20	[0, 0, 0]	n/a	catFR1	1	R1170J
2318.044	0.883	2338281	WORD_OFF	n/a	n/a	CUPCAKE	n/a	5	20	[0, 0, 0]	n/a	catFR1	1	R1170J
2318.927	1.6	2339164	WORD	n/a	wordpools/wordpool_categorized_EN.txt	PUDDING	Desserts	6	20	[0, 0, 0]	n/a	catFR1	1	R1170J
2320.543	0.834	2340780	WORD_OFF	n/a	n/a	PUDDING	n/a	6	20	[0, 0, 0]	n/a	catFR1	1	R1170J
2321.377	1.6	2341614	WORD	n/a	wordpools/wordpool_categorized_EN.txt	SODA	Beverages	7	20	[0, 0, 0]	n/a	catFR1	1	R1170J
2322.995	1.0	2343232	WORD_OFF	n/a	n/a	SODA	n/a	7	20	[0, 0, 0]	n/a	catFR1	1	R1170J
2323.995	1.6	2344232	WORD	n/a	wordpools/wordpool_categorized_EN.txt	MILK	Beverages	8	20	[0, 0, 0]	n/a	catFR1	1	R1170J
2325.611	0.95	2345848	WORD_OFF	n/a	n/a	MILK	n/a	8	20	[0, 0, 0]	n/a	catFR1	1	R1170J
2326.561	1.6	2346798	WORD	n/a	wordpools/wordpool_categorized_EN.txt	PHONE	Electronics	9	20	[0, 0, 0]	n/a	catFR1	1	R1170J
2328.179	0.8	2348416	WORD_OFF	n/a	n/a	PHONE	n/a	9	20	[0, 0, 0]	n/a	catFR1	1	R1170J
2328.979	1.6	2349216	WORD	n/a	wordpools/wordpool_categorized_EN.txt	SCANNER	Electronics	10	20	[0, 0, 0]	n/a	catFR1	1	R1170J
2330.595	0.9	2350832	WORD_OFF	n/a	n/a	SCANNER	n/a	10	20	[0, 0, 0]	n/a	catFR1	1	R1170J
2331.495	1.6	2351732	WORD	n/a	wordpools/wordpool_categorized_EN.txt	MOUSSE	Desserts	11	20	[0, 0, 0]	n/a	catFR1	1	R1170J
2333.096	0.934	2353333	WORD_OFF	n/a	n/a	MOUSSE	n/a	11	20	[0, 0, 0]	n/a	catFR1	1	R1170J
2334.03	1.6	2354267	WORD	n/a	wordpools/wordpool_categorized_EN.txt	JELLO	Desserts	12	20	[0, 0, 0]	n/a	catFR1	1	R1170J
2335.645	0.001	2355882	WORD_OFF	n/a	n/a	JELLO	n/a	12	20	[0, 0, 0]	n/a	catFR1	1	R1170J
2335.646	0.098	2355883	ENCODING_END	n/a	n/a	n/a	n/a	-999	20	[0, 0, 0]	n/a	catFR1	1	R1170J
2335.744	0.0	2355981	DISTRACT_START	n/a	n/a	n/a	n/a	-999	20	[0, 0, 0]	n/a	catFR1	1	R1170J
2335.744	0.018	2355981	START	n/a	n/a	n/a	n/a	-999	20	[-999, -999, -999]	n/a	catFR1	1	R1170J
2335.762	10.602	2355999	PROB	10.571	n/a	n/a	n/a	-999	20	[4, 8, 3]	15.0	catFR1	1	R1170J
2346.364	3.25	2366601	PROB	3.225	n/a	n/a	n/a	-999	20	[3, 7, 4]	14.0	catFR1	1	R1170J
2349.614	2.95	2369851	PROB	2.927	n/a	n/a	n/a	-999	20	[3, 4, 6]	13.0	catFR1	1	R1170J
2352.564	4.29	2372801	PROB	4.29	n/a	n/a	n/a	-999	20	[8, 6, 4]	18.0	catFR1	1	R1170J
2356.854	0.011	2377091	STOP	n/a	n/a	n/a	n/a	-999	20	[-999, -999, -999]	n/a	catFR1	1	R1170J
2356.865	0.616	2377102	DISTRACT_END	n/a	n/a	n/a	n/a	-999	20	[0, 0, 0]	n/a	catFR1	1	R1170J
2357.481	0.519	2377718	RETRIEVAL_ORIENT	n/a	n/a	n/a	n/a	-999	20	[0, 0, 0]	n/a	catFR1	1	R1170J
2358.0	0.208	2378237	REC_START	n/a	n/a	n/a	n/a	-999	20	[0, 0, 0]	n/a	catFR1	1	R1170J
2358.208	1.0	2378445	REC_WORD_VV	0.208	n/a	<>	n/a	-999	20	[0, 0, 0]	n/a	catFR1	1	R1170J
2359.208	28.805	2379445	REC_WORD_VV	1.208	n/a	<>	n/a	-999	20	[0, 0, 0]	n/a	catFR1	1	R1170J
2388.013	100.669	2408249	REC_END	n/a	n/a	n/a	n/a	-999	20	[0, 0, 0]	n/a	catFR1	1	R1170J
2488.682	0.0	2508917	TRIAL	n/a	n/a	n/a	n/a	-999	21	[0, 0, 0]	n/a	catFR1	1	R1170J
