onset	duration	sample	trial_type	response_time	stim_file	item_name	category	serialpos	list	test	answer	experiment	session	subject
0.0	0.0	786397	INSTRUCT_START	n/a	n/a	n/a	n/a	-999	-999	[0, 0, 0]	n/a	catFR1	0	R1236J
0.0	11.177	786397	INSTRUCT_END	n/a	n/a	n/a	n/a	-999	-999	[0, 0, 0]	n/a	catFR1	0	R1236J
11.177	0.0	797574	SESS_START	n/a	n/a	n/a	n/a	-999	-999	[0, 0, 0]	n/a	catFR1	0	R1236J
11.177	86.011	797574	MIC_TEST	n/a	n/a	n/a	n/a	-999	-999	[0, 0, 0]	n/a	catFR1	0	R1236J
97.188	7.325	883585	PRACTICE_TRIAL	n/a	n/a	n/a	n/a	-999	-1	[0, 0, 0]	n/a	catFR1	0	R1236J
104.513	10.428	890910	COUNTDOWN_START	n/a	n/a	n/a	n/a	-999	-1	[0, 0, 0]	n/a	catFR1	0	R1236J
114.941	0.023	901338	COUNTDOWN_END	n/a	n/a	n/a	n/a	-999	-1	[0, 0, 0]	n/a	catFR1	0	R1236J
114.964	1.617	901361	PRACTICE_ORIENT	n/a	n/a	n/a	n/a	-999	-1	[0, 0, 0]	n/a	catFR1	0	R1236J
116.581	2.283	902978	PRACTICE_ORIENT_OFF	n/a	n/a	n/a	n/a	-999	-1	[0, 0, 0]	n/a	catFR1	0	R1236J
118.864	1.617	905261	PRACTICE_WORD	n/a	n/a	ATTIC	n/a	-1	-1	[0, 0, 0]	n/a	catFR1	0	R1236J
120.481	0.884	906878	PRACTICE_WORD_OFF	n/a	n/a	ATTIC	n/a	-999	-1	[0, 0, 0]	n/a	catFR1	0	R1236J
121.365	1.618	907762	PRACTICE_WORD	n/a	n/a	RING	n/a	-1	-1	[0, 0, 0]	n/a	catFR1	0	R1236J
122.983	0.766	909380	PRACTICE_WORD_OFF	n/a	n/a	RING	n/a	-999	-1	[0, 0, 0]	n/a	catFR1	0	R1236J
123.749	1.617	910146	PRACTICE_WORD	n/a	n/a	IRON	n/a	-1	-1	[0, 0, 0]	n/a	catFR1	0	R1236J
125.366	0.784	911763	PRACTICE_WORD_OFF	n/a	n/a	IRON	n/a	-999	-1	[0, 0, 0]	n/a	catFR1	0	R1236J
126.15	1.616	912547	PRACTICE_WORD	n/a	n/a	COTTON	n/a	-1	-1	[0, 0, 0]	n/a	catFR1	0	R1236J
127.766	0.949	914163	PRACTICE_WORD_OFF	n/a	n/a	COTTON	n/a	-999	-1	[0, 0, 0]	n/a	catFR1	0	R1236J
128.715	1.618	915112	PRACTICE_WORD	n/a	n/a	CAMEL	n/a	-1	-1	[0, 0, 0]	n/a	catFR1	0	R1236J
130.333	0.917	916730	PRACTICE_WORD_OFF	n/a	n/a	CAMEL	n/a	-999	-1	[0, 0, 0]	n/a	catFR1	0	R1236J
131.25	1.616	917647	PRACTICE_WORD	n/a	n/a	RHINO	n/a	-1	-1	[0, 0, 0]	n/a	catFR1	0	R1236J
132.866	0.967	919263	PRACTICE_WORD_OFF	n/a	n/a	RHINO	n/a	-999	-1	[0, 0, 0]	n/a	catFR1	0	R1236J
133.833	1.617	920230	PRACTICE_WORD	n/a	n/a	FLOOD	n/a	-1	-1	[0, 0, 0]	n/a	catFR1	0	R1236J
135.45	0.767	921847	PRACTICE_WORD_OFF	n/a	n/a	FLOOD	n/a	-999	-1	[0, 0, 0]	n/a	catFR1	0	R1236J
136.217	1.617	922614	PRACTICE_WORD	n/a	n/a	BEAM	n/a	-1	-1	[0, 0, 0]	n/a	catFR1	0	R1236J
137.834	0.766	924231	PRACTICE_WORD_OFF	n/a	n/a	BEAM	n/a	-999	-1	[0, 0, 0]	n/a	catFR1	0	R1236J
138.6	1.618	924997	PRACTICE_WORD	n/a	n/a	WATCH	n/a	-1	-1	[0, 0, 0]	n/a	catFR1	0	R1236J
140.218	0.95	926615	PRACTICE_WORD_OFF	n/a	n/a	WATCH	n/a	-999	-1	[0, 0, 0]	n/a	catFR1	0	R1236J
141.168	1.616	927565	PRACTICE_WORD	n/a	n/a	CHEST	n/a	-1	-1	[0, 0, 0]	n/a	catFR1	0	R1236J
142.784	0.784	929181	PRACTICE_WORD_OFF	n/a	n/a	CHEST	n/a	-999	-1	[0, 0, 0]	n/a	catFR1	0	R1236J
143.568	1.601	929965	PRACTICE_WORD	n/a	n/a	TONGUE	n/a	-1	-1	[0, 0, 0]	n/a	catFR1	0	R1236J
145.169	1.0	931566	PRACTICE_WORD_OFF	n/a	n/a	TONGUE	n/a	-999	-1	[0, 0, 0]	n/a	catFR1	0	R1236J
146.169	1.616	932566	PRACTICE_WORD	n/a	n/a	WAGON	n/a	-1	-1	[0, 0, 0]	n/a	catFR1	0	R1236J
147.785	0.0	934182	PRACTICE_WORD_OFF	n/a	n/a	WAGON	n/a	-999	-1	[0, 0, 0]	n/a	catFR1	0	R1236J
147.785	0.001	934182	ENCODING_END	n/a	n/a	n/a	n/a	-999	-1	[0, 0, 0]	n/a	catFR1	0	R1236J
147.786	0.0	934183	DISTRACT_START	n/a	n/a	n/a	n/a	-999	-1	[0, 0, 0]	n/a	catFR1	0	R1236J
147.786	0.016	934183	START	n/a	n/a	n/a	n/a	-999	-1	[-999, -999, -999]	n/a	catFR1	0	R1236J
147.802	5.834	934199	PROB	5.834	n/a	n/a	n/a	-999	-1	[8, 7, 4]	19	catFR1	0	R1236J
153.636	3.8	940033	PROB	3.8	n/a	n/a	n/a	-999	-1	[6, 1, 3]	10	catFR1	0	R1236J
157.436	3.785	943833	PROB	3.785	n/a	n/a	n/a	-999	-1	[5, 8, 3]	16	catFR1	0	R1236J
161.221	2.566	947618	PROB	2.566	n/a	n/a	n/a	-999	-1	[2, 8, 3]	13	catFR1	0	R1236J
163.787	2.301	950184	PROB	2.301	n/a	n/a	n/a	-999	-1	[5, 4, 2]	11	catFR1	0	R1236J
166.088	3.443	952485	PROB	3.443	n/a	n/a	n/a	-999	-1	[4, 5, 7]	16	catFR1	0	R1236J
169.531	0.007	955928	STOP	n/a	n/a	n/a	n/a	-999	-1	[-999, -999, -999]	n/a	catFR1	0	R1236J
169.538	0.584	955935	DISTRACT_END	n/a	n/a	n/a	n/a	-999	-1	[0, 0, 0]	n/a	catFR1	0	R1236J
170.122	0.517	956519	RETRIEVAL_ORIENT	n/a	n/a	n/a	n/a	-999	-1	[0, 0, 0]	n/a	catFR1	0	R1236J
170.639	30.011	957036	PRACTICE_REC_START	n/a	n/a	n/a	n/a	-999	-1	[0, 0, 0]	n/a	catFR1	0	R1236J
200.65	8.127	987047	PRACTICE_REC_END	n/a	n/a	n/a	n/a	-999	-1	[0, 0, 0]	n/a	catFR1	0	R1236J
208.777	0.5	995174	TRIAL	n/a	n/a	n/a	n/a	-999	1	[0, 0, 0]	n/a	catFR1	0	R1236J
209.277	10.428	995674	COUNTDOWN_START	n/a	n/a	n/a	n/a	-999	1	[0, 0, 0]	n/a	catFR1	0	R1236J
219.705	0.006	1006102	COUNTDOWN_END	n/a	n/a	n/a	n/a	-999	1	[0, 0, 0]	n/a	catFR1	0	R1236J
219.711	1.617	1006108	ORIENT	n/a	n/a	n/a	n/a	-999	1	[0, 0, 0]	n/a	catFR1	0	R1236J
221.328	1.984	1007725	ORIENT_OFF	n/a	n/a	n/a	n/a	-999	1	[0, 0, 0]	n/a	catFR1	0	R1236J
223.312	1.617	1009709	WORD	n/a	wordpools/wordpool_categorized_EN.txt	HEAD	BodyParts	1	1	[0, 0, 0]	n/a	catFR1	0	R1236J
224.929	0.866	1011326	WORD_OFF	n/a	n/a	HEAD	n/a	1	1	[0, 0, 0]	n/a	catFR1	0	R1236J
225.795	1.617	1012192	WORD	n/a	wordpools/wordpool_categorized_EN.txt	HAND	BodyParts	2	1	[0, 0, 0]	n/a	catFR1	0	R1236J
227.412	0.818	1013809	WORD_OFF	n/a	n/a	HAND	n/a	2	1	[0, 0, 0]	n/a	catFR1	0	R1236J
228.23	1.616	1014627	WORD	n/a	wordpools/wordpool_categorized_EN.txt	MOTH	Insects	3	1	[0, 0, 0]	n/a	catFR1	0	R1236J
229.846	0.967	1016243	WORD_OFF	n/a	n/a	MOTH	n/a	3	1	[0, 0, 0]	n/a	catFR1	0	R1236J
230.813	1.617	1017210	WORD	n/a	wordpools/wordpool_categorized_EN.txt	FLY	Insects	4	1	[0, 0, 0]	n/a	catFR1	0	R1236J
232.43	0.834	1018827	WORD_OFF	n/a	n/a	FLY	n/a	4	1	[0, 0, 0]	n/a	catFR1	0	R1236J
233.264	1.616	1019661	WORD	n/a	wordpools/wordpool_categorized_EN.txt	GOOSE	Birds	5	1	[0, 0, 0]	n/a	catFR1	0	R1236J
234.88	0.85	1021277	WORD_OFF	n/a	n/a	GOOSE	n/a	5	1	[0, 0, 0]	n/a	catFR1	0	R1236J
235.73	1.617	1022127	WORD	n/a	wordpools/wordpool_categorized_EN.txt	SPARROW	Birds	6	1	[0, 0, 0]	n/a	catFR1	0	R1236J
237.347	0.851	1023744	WORD_OFF	n/a	n/a	SPARROW	n/a	6	1	[0, 0, 0]	n/a	catFR1	0	R1236J
238.198	1.616	1024595	WORD	n/a	wordpools/wordpool_categorized_EN.txt	CRICKET	Insects	7	1	[0, 0, 0]	n/a	catFR1	0	R1236J
239.814	0.95	1026210	WORD_OFF	n/a	n/a	CRICKET	n/a	7	1	[0, 0, 0]	n/a	catFR1	0	R1236J
240.764	1.617	1027160	WORD	n/a	wordpools/wordpool_categorized_EN.txt	GNAT	Insects	8	1	[0, 0, 0]	n/a	catFR1	0	R1236J
242.381	0.967	1028777	WORD_OFF	n/a	n/a	GNAT	n/a	8	1	[0, 0, 0]	n/a	catFR1	0	R1236J
243.348	1.617	1029744	WORD	n/a	wordpools/wordpool_categorized_EN.txt	FOOT	BodyParts	9	1	[0, 0, 0]	n/a	catFR1	0	R1236J
244.965	1.0	1031361	WORD_OFF	n/a	n/a	FOOT	n/a	9	1	[0, 0, 0]	n/a	catFR1	0	R1236J
245.965	1.617	1032361	WORD	n/a	wordpools/wordpool_categorized_EN.txt	EYE	BodyParts	10	1	[0, 0, 0]	n/a	catFR1	0	R1236J
247.582	0.917	1033978	WORD_OFF	n/a	n/a	EYE	n/a	10	1	[0, 0, 0]	n/a	catFR1	0	R1236J
248.499	1.618	1034895	WORD	n/a	wordpools/wordpool_categorized_EN.txt	DOVE	Birds	11	1	[0, 0, 0]	n/a	catFR1	0	R1236J
250.117	0.983	1036513	WORD_OFF	n/a	n/a	DOVE	n/a	11	1	[0, 0, 0]	n/a	catFR1	0	R1236J
251.1	1.616	1037496	WORD	n/a	wordpools/wordpool_categorized_EN.txt	CARDINAL	Birds	12	1	[0, 0, 0]	n/a	catFR1	0	R1236J
252.716	0.0	1039112	ENCODING_END	n/a	n/a	n/a	n/a	-999	1	[0, 0, 0]	n/a	catFR1	0	R1236J
252.716	0.132	1039112	WORD_OFF	n/a	n/a	CARDINAL	n/a	12	1	[0, 0, 0]	n/a	catFR1	0	R1236J
252.848	0.0	1039244	DISTRACT_START	n/a	n/a	n/a	n/a	-999	1	[0, 0, 0]	n/a	catFR1	0	R1236J
252.848	0.018	1039244	START	n/a	n/a	n/a	n/a	-999	1	[-999, -999, -999]	n/a	catFR1	0	R1236J
252.866	3.834	1039262	PROB	3.834	n/a	n/a	n/a	-999	1	[8, 4, 3]	15	catFR1	0	R1236J
256.7	4.401	1043096	PROB	4.401	n/a	n/a	n/a	-999	1	[9, 5, 4]	18	catFR1	0	R1236J
261.101	2.984	1047497	PROB	2.984	n/a	n/a	n/a	-999	1	[3, 9, 9]	21	catFR1	0	R1236J
264.085	7.55	1050481	PROB	7.55	n/a	n/a	n/a	-999	1	[7, 9, 8]	24	catFR1	0	R1236J
271.635	3.356	1058031	PROB	3.356	n/a	n/a	n/a	-999	1	[9, 8, 1]	18	catFR1	0	R1236J
274.991	0.012	1061387	STOP	n/a	n/a	n/a	n/a	-999	1	[-999, -999, -999]	n/a	catFR1	0	R1236J
275.003	0.616	1061399	DISTRACT_END	n/a	n/a	n/a	n/a	-999	1	[0, 0, 0]	n/a	catFR1	0	R1236J
275.619	0.518	1062015	RETRIEVAL_ORIENT	n/a	n/a	n/a	n/a	-999	1	[0, 0, 0]	n/a	catFR1	0	R1236J
276.137	1.454	1062533	REC_START	n/a	n/a	n/a	n/a	-999	1	[0, 0, 0]	n/a	catFR1	0	R1236J
277.591	1.713	1063987	REC_WORD	1.713	n/a	SPARROW	Birds	6	1	[0, 0, 0]	n/a	catFR1	0	R1236J
279.304	1.176	1065700	REC_WORD	1.176	n/a	CRICKET	Insects	7	1	[0, 0, 0]	n/a	catFR1	0	R1236J
280.48	2.474	1066876	REC_WORD	2.474	n/a	MOTH	Insects	3	1	[0, 0, 0]	n/a	catFR1	0	R1236J
282.954	1.399	1069350	REC_WORD	1.399	n/a	HAND	BodyParts	2	1	[0, 0, 0]	n/a	catFR1	0	R1236J
284.353	9.198	1070749	REC_WORD	9.198	n/a	HEAD	BodyParts	1	1	[0, 0, 0]	n/a	catFR1	0	R1236J
293.551	11.656	1079947	REC_WORD	11.656	n/a	FLY	Insects	4	1	[0, 0, 0]	n/a	catFR1	0	R1236J
305.207	0.942	1091603	REC_WORD	0.942	n/a	CARDINAL	Birds	12	1	[0, 0, 0]	n/a	catFR1	0	R1236J
306.149	4.942	1092545	REC_END	n/a	n/a	n/a	n/a	-999	1	[0, 0, 0]	n/a	catFR1	0	R1236J
311.091	0.5	1097487	TRIAL	n/a	n/a	n/a	n/a	-999	2	[0, 0, 0]	n/a	catFR1	0	R1236J
311.591	10.428	1097987	COUNTDOWN_START	n/a	n/a	n/a	n/a	-999	2	[0, 0, 0]	n/a	catFR1	0	R1236J
322.019	0.007	1108415	COUNTDOWN_END	n/a	n/a	n/a	n/a	-999	2	[0, 0, 0]	n/a	catFR1	0	R1236J
322.026	1.616	1108422	ORIENT	n/a	n/a	n/a	n/a	-999	2	[0, 0, 0]	n/a	catFR1	0	R1236J
323.642	2.05	1110038	ORIENT_OFF	n/a	n/a	n/a	n/a	-999	2	[0, 0, 0]	n/a	catFR1	0	R1236J
325.692	1.617	1112088	WORD	n/a	wordpools/wordpool_categorized_EN.txt	DOLL	Toys	1	2	[0, 0, 0]	n/a	catFR1	0	R1236J
327.309	0.835	1113705	WORD_OFF	n/a	n/a	DOLL	n/a	1	2	[0, 0, 0]	n/a	catFR1	0	R1236J
328.144	1.616	1114540	WORD	n/a	wordpools/wordpool_categorized_EN.txt	PUZZLE	Toys	2	2	[0, 0, 0]	n/a	catFR1	0	R1236J
329.76	0.849	1116156	WORD_OFF	n/a	n/a	PUZZLE	n/a	2	2	[0, 0, 0]	n/a	catFR1	0	R1236J
330.609	1.618	1117005	WORD	n/a	wordpools/wordpool_categorized_EN.txt	SCREWDRIVER	Tools	3	2	[0, 0, 0]	n/a	catFR1	0	R1236J
332.227	0.95	1118623	WORD_OFF	n/a	n/a	SCREWDRIVER	n/a	3	2	[0, 0, 0]	n/a	catFR1	0	R1236J
333.177	1.616	1119573	WORD	n/a	wordpools/wordpool_categorized_EN.txt	PLIERS	Tools	4	2	[0, 0, 0]	n/a	catFR1	0	R1236J
334.793	0.784	1121189	WORD_OFF	n/a	n/a	PLIERS	n/a	4	2	[0, 0, 0]	n/a	catFR1	0	R1236J
335.577	1.618	1121973	WORD	n/a	wordpools/wordpool_categorized_EN.txt	ERASER	OfficeSupplies	5	2	[0, 0, 0]	n/a	catFR1	0	R1236J
337.195	0.933	1123591	WORD_OFF	n/a	n/a	ERASER	n/a	5	2	[0, 0, 0]	n/a	catFR1	0	R1236J
338.128	1.616	1124524	WORD	n/a	wordpools/wordpool_categorized_EN.txt	RULER	OfficeSupplies	6	2	[0, 0, 0]	n/a	catFR1	0	R1236J
339.744	0.817	1126140	WORD_OFF	n/a	n/a	RULER	n/a	6	2	[0, 0, 0]	n/a	catFR1	0	R1236J
340.561	1.618	1126957	WORD	n/a	wordpools/wordpool_categorized_EN.txt	FOOTBALL	Toys	7	2	[0, 0, 0]	n/a	catFR1	0	R1236J
342.179	0.85	1128575	WORD_OFF	n/a	n/a	FOOTBALL	n/a	7	2	[0, 0, 0]	n/a	catFR1	0	R1236J
343.029	1.616	1129425	WORD	n/a	wordpools/wordpool_categorized_EN.txt	BLOCKS	Toys	8	2	[0, 0, 0]	n/a	catFR1	0	R1236J
344.645	0.933	1131041	WORD_OFF	n/a	n/a	BLOCKS	n/a	8	2	[0, 0, 0]	n/a	catFR1	0	R1236J
345.578	1.601	1131974	WORD	n/a	wordpools/wordpool_categorized_EN.txt	SHOVEL	Tools	9	2	[0, 0, 0]	n/a	catFR1	0	R1236J
347.179	0.934	1133575	WORD_OFF	n/a	n/a	SHOVEL	n/a	9	2	[0, 0, 0]	n/a	catFR1	0	R1236J
348.113	1.616	1134509	WORD	n/a	wordpools/wordpool_categorized_EN.txt	RATCHET	Tools	10	2	[0, 0, 0]	n/a	catFR1	0	R1236J
349.729	0.833	1136125	WORD_OFF	n/a	n/a	RATCHET	n/a	10	2	[0, 0, 0]	n/a	catFR1	0	R1236J
350.562	1.618	1136958	WORD	n/a	wordpools/wordpool_categorized_EN.txt	FOLDER	OfficeSupplies	11	2	[0, 0, 0]	n/a	catFR1	0	R1236J
352.18	0.782	1138576	WORD_OFF	n/a	n/a	FOLDER	n/a	11	2	[0, 0, 0]	n/a	catFR1	0	R1236J
352.962	1.617	1139358	WORD	n/a	wordpools/wordpool_categorized_EN.txt	BINDER	OfficeSupplies	12	2	[0, 0, 0]	n/a	catFR1	0	R1236J
354.579	0.001	1140975	WORD_OFF	n/a	n/a	BINDER	n/a	12	2	[0, 0, 0]	n/a	catFR1	0	R1236J
354.58	0.098	1140976	ENCODING_END	n/a	n/a	n/a	n/a	-999	2	[0, 0, 0]	n/a	catFR1	0	R1236J
354.678	0.0	1141074	DISTRACT_START	n/a	n/a	n/a	n/a	-999	2	[0, 0, 0]	n/a	catFR1	0	R1236J
354.678	0.018	1141074	START	n/a	n/a	n/a	n/a	-999	2	[-999, -999, -999]	n/a	catFR1	0	R1236J
354.696	5.302	1141092	PROB	5.302	n/a	n/a	n/a	-999	2	[7, 5, 2]	14	catFR1	0	R1236J
359.998	3.816	1146394	PROB	3.816	n/a	n/a	n/a	-999	2	[3, 7, 8]	18	catFR1	0	R1236J
363.814	4.068	1150210	PROB	4.068	n/a	n/a	n/a	-999	2	[5, 9, 3]	17	catFR1	0	R1236J
367.882	3.334	1154278	PROB	3.334	n/a	n/a	n/a	-999	2	[4, 5, 5]	14	catFR1	0	R1236J
371.216	5.005	1157612	PROB	5.005	n/a	n/a	n/a	-999	2	[8, 3, 4]	15	catFR1	0	R1236J
376.221	0.013	1162617	STOP	n/a	n/a	n/a	n/a	-999	2	[-999, -999, -999]	n/a	catFR1	0	R1236J
376.234	0.532	1162630	DISTRACT_END	n/a	n/a	n/a	n/a	-999	2	[0, 0, 0]	n/a	catFR1	0	R1236J
376.766	0.502	1163162	RETRIEVAL_ORIENT	n/a	n/a	n/a	n/a	-999	2	[0, 0, 0]	n/a	catFR1	0	R1236J
377.268	1.16	1163664	REC_START	n/a	n/a	n/a	n/a	-999	2	[0, 0, 0]	n/a	catFR1	0	R1236J
378.428	1.13	1164824	REC_WORD	1.13	n/a	SCREWDRIVER	Tools	3	2	[0, 0, 0]	n/a	catFR1	0	R1236J
379.558	0.813	1165954	REC_WORD	0.813	n/a	RATCHET	Tools	10	2	[0, 0, 0]	n/a	catFR1	0	R1236J
380.371	1.365	1166767	REC_WORD	1.365	n/a	PLIERS	Tools	4	2	[0, 0, 0]	n/a	catFR1	0	R1236J
381.736	1.259	1168132	REC_WORD	1.259	n/a	ERASER	OfficeSupplies	5	2	[0, 0, 0]	n/a	catFR1	0	R1236J
382.995	24.283	1169391	REC_WORD	24.283	n/a	BLOCKS	Toys	8	2	[0, 0, 0]	n/a	catFR1	0	R1236J
407.278	4.009	1193674	REC_END	n/a	n/a	n/a	n/a	-999	2	[0, 0, 0]	n/a	catFR1	0	R1236J
411.287	0.5	1197683	TRIAL	n/a	n/a	n/a	n/a	-999	3	[0, 0, 0]	n/a	catFR1	0	R1236J
411.787	10.428	1198183	COUNTDOWN_START	n/a	n/a	n/a	n/a	-999	3	[0, 0, 0]	n/a	catFR1	0	R1236J
422.215	0.008	1208611	COUNTDOWN_END	n/a	n/a	n/a	n/a	-999	3	[0, 0, 0]	n/a	catFR1	0	R1236J
422.223	1.616	1208619	ORIENT	n/a	n/a	n/a	n/a	-999	3	[0, 0, 0]	n/a	catFR1	0	R1236J
423.839	2.235	1210235	ORIENT_OFF	n/a	n/a	n/a	n/a	-999	3	[0, 0, 0]	n/a	catFR1	0	R1236J
426.074	1.616	1212470	WORD	n/a	wordpools/wordpool_categorized_EN.txt	CEDAR	Trees	1	3	[0, 0, 0]	n/a	catFR1	0	R1236J
427.69	0.85	1214086	WORD_OFF	n/a	n/a	CEDAR	n/a	1	3	[0, 0, 0]	n/a	catFR1	0	R1236J
428.54	1.618	1214936	WORD	n/a	wordpools/wordpool_categorized_EN.txt	SPRUCE	Trees	2	3	[0, 0, 0]	n/a	catFR1	0	R1236J
430.158	0.983	1216554	WORD_OFF	n/a	n/a	SPRUCE	n/a	2	3	[0, 0, 0]	n/a	catFR1	0	R1236J
431.141	1.616	1217537	WORD	n/a	wordpools/wordpool_categorized_EN.txt	OYSTER	OceanAnimals	3	3	[0, 0, 0]	n/a	catFR1	0	R1236J
432.757	0.866	1219153	WORD_OFF	n/a	n/a	OYSTER	n/a	3	3	[0, 0, 0]	n/a	catFR1	0	R1236J
433.623	1.601	1220019	WORD	n/a	wordpools/wordpool_categorized_EN.txt	OCTOPUS	OceanAnimals	4	3	[0, 0, 0]	n/a	catFR1	0	R1236J
435.224	0.834	1221620	WORD_OFF	n/a	n/a	OCTOPUS	n/a	4	3	[0, 0, 0]	n/a	catFR1	0	R1236J
436.058	1.616	1222454	WORD	n/a	wordpools/wordpool_categorized_EN.txt	SODA	Beverages	5	3	[0, 0, 0]	n/a	catFR1	0	R1236J
437.674	0.784	1224070	WORD_OFF	n/a	n/a	SODA	n/a	5	3	[0, 0, 0]	n/a	catFR1	0	R1236J
438.458	1.618	1224854	WORD	n/a	wordpools/wordpool_categorized_EN.txt	WATER	Beverages	6	3	[0, 0, 0]	n/a	catFR1	0	R1236J
440.076	0.982	1226472	WORD_OFF	n/a	n/a	WATER	n/a	6	3	[0, 0, 0]	n/a	catFR1	0	R1236J
441.058	1.617	1227454	WORD	n/a	wordpools/wordpool_categorized_EN.txt	TURTLE	OceanAnimals	7	3	[0, 0, 0]	n/a	catFR1	0	R1236J
442.675	0.8	1229071	WORD_OFF	n/a	n/a	TURTLE	n/a	7	3	[0, 0, 0]	n/a	catFR1	0	R1236J
443.475	1.618	1229871	WORD	n/a	wordpools/wordpool_categorized_EN.txt	LOBSTER	OceanAnimals	8	3	[0, 0, 0]	n/a	catFR1	0	R1236J
445.093	0.866	1231489	WORD_OFF	n/a	n/a	LOBSTER	n/a	8	3	[0, 0, 0]	n/a	catFR1	0	R1236J
445.959	1.617	1232355	WORD	n/a	wordpools/wordpool_categorized_EN.txt	MAPLE	Trees	9	3	[0, 0, 0]	n/a	catFR1	0	R1236J
447.576	0.816	1233972	WORD_OFF	n/a	n/a	MAPLE	n/a	9	3	[0, 0, 0]	n/a	catFR1	0	R1236J
448.392	1.618	1234788	WORD	n/a	wordpools/wordpool_categorized_EN.txt	ELM	Trees	10	3	[0, 0, 0]	n/a	catFR1	0	R1236J
450.01	0.983	1236406	WORD_OFF	n/a	n/a	ELM	n/a	10	3	[0, 0, 0]	n/a	catFR1	0	R1236J
450.993	1.616	1237389	WORD	n/a	wordpools/wordpool_categorized_EN.txt	WINE	Beverages	11	3	[0, 0, 0]	n/a	catFR1	0	R1236J
452.609	0.867	1239005	WORD_OFF	n/a	n/a	WINE	n/a	11	3	[0, 0, 0]	n/a	catFR1	0	R1236J
453.476	1.618	1239872	WORD	n/a	wordpools/wordpool_categorized_EN.txt	COFFEE	Beverages	12	3	[0, 0, 0]	n/a	catFR1	0	R1236J
455.094	0.0	1241490	WORD_OFF	n/a	n/a	COFFEE	n/a	12	3	[0, 0, 0]	n/a	catFR1	0	R1236J
455.094	0.1	1241490	ENCODING_END	n/a	n/a	n/a	n/a	-999	3	[0, 0, 0]	n/a	catFR1	0	R1236J
455.194	0.0	1241590	DISTRACT_START	n/a	n/a	n/a	n/a	-999	3	[0, 0, 0]	n/a	catFR1	0	R1236J
455.194	0.017	1241590	START	n/a	n/a	n/a	n/a	-999	3	[-999, -999, -999]	n/a	catFR1	0	R1236J
455.211	4.516	1241607	PROB	4.516	n/a	n/a	n/a	-999	3	[7, 9, 9]	25	catFR1	0	R1236J
459.727	2.95	1246123	PROB	2.95	n/a	n/a	n/a	-999	3	[1, 7, 9]	17	catFR1	0	R1236J
462.677	3.834	1249073	PROB	3.834	n/a	n/a	n/a	-999	3	[7, 2, 9]	18	catFR1	0	R1236J
466.511	4.752	1252907	PROB	4.752	n/a	n/a	n/a	-999	3	[4, 7, 8]	19	catFR1	0	R1236J
471.263	4.448	1257659	PROB	4.448	n/a	n/a	n/a	-999	3	[1, 7, 6]	14	catFR1	0	R1236J
475.711	0.018	1262107	STOP	n/a	n/a	n/a	n/a	-999	3	[-999, -999, -999]	n/a	catFR1	0	R1236J
475.729	0.633	1262125	DISTRACT_END	n/a	n/a	n/a	n/a	-999	3	[0, 0, 0]	n/a	catFR1	0	R1236J
476.362	0.518	1262758	RETRIEVAL_ORIENT	n/a	n/a	n/a	n/a	-999	3	[0, 0, 0]	n/a	catFR1	0	R1236J
476.88	1.847	1263276	REC_START	n/a	n/a	n/a	n/a	-999	3	[0, 0, 0]	n/a	catFR1	0	R1236J
478.727	1.231	1265123	REC_WORD	1.231	n/a	CEDAR	Trees	1	3	[0, 0, 0]	n/a	catFR1	0	R1236J
479.958	4.001	1266354	REC_WORD	4.001	n/a	ELM	Trees	10	3	[0, 0, 0]	n/a	catFR1	0	R1236J
483.959	4.199	1270354	REC_WORD	4.199	n/a	MAPLE	Trees	9	3	[0, 0, 0]	n/a	catFR1	0	R1236J
488.158	7.54	1274553	REC_WORD	7.54	n/a	OYSTER	OceanAnimals	3	3	[0, 0, 0]	n/a	catFR1	0	R1236J
495.698	11.192	1282093	REC_WORD_VV	11.192	n/a	<>	n/a	-999	3	[0, 0, 0]	n/a	catFR1	0	R1236J
506.89	5.094	1293285	REC_END	n/a	n/a	n/a	n/a	-999	3	[0, 0, 0]	n/a	catFR1	0	R1236J
511.984	0.5	1298379	TRIAL	n/a	n/a	n/a	n/a	-999	4	[0, 0, 0]	n/a	catFR1	0	R1236J
512.484	10.428	1298879	COUNTDOWN_START	n/a	n/a	n/a	n/a	-999	4	[0, 0, 0]	n/a	catFR1	0	R1236J
522.912	0.006	1309307	COUNTDOWN_END	n/a	n/a	n/a	n/a	-999	4	[0, 0, 0]	n/a	catFR1	0	R1236J
522.918	1.617	1309313	ORIENT	n/a	n/a	n/a	n/a	-999	4	[0, 0, 0]	n/a	catFR1	0	R1236J
524.535	2.001	1310930	ORIENT_OFF	n/a	n/a	n/a	n/a	-999	4	[0, 0, 0]	n/a	catFR1	0	R1236J
526.536	1.617	1312931	WORD	n/a	wordpools/wordpool_categorized_EN.txt	HAMMER	Tools	1	4	[0, 0, 0]	n/a	catFR1	0	R1236J
528.153	0.816	1314548	WORD_OFF	n/a	n/a	HAMMER	n/a	1	4	[0, 0, 0]	n/a	catFR1	0	R1236J
528.969	1.617	1315364	WORD	n/a	wordpools/wordpool_categorized_EN.txt	WRENCH	Tools	2	4	[0, 0, 0]	n/a	catFR1	0	R1236J
530.586	0.9	1316981	WORD_OFF	n/a	n/a	WRENCH	n/a	2	4	[0, 0, 0]	n/a	catFR1	0	R1236J
531.486	1.618	1317881	WORD	n/a	wordpools/wordpool_categorized_EN.txt	MONKEY	Zoo	3	4	[0, 0, 0]	n/a	catFR1	0	R1236J
533.104	0.967	1319499	WORD_OFF	n/a	n/a	MONKEY	n/a	3	4	[0, 0, 0]	n/a	catFR1	0	R1236J
534.071	1.616	1320466	WORD	n/a	wordpools/wordpool_categorized_EN.txt	PANDA	Zoo	4	4	[0, 0, 0]	n/a	catFR1	0	R1236J
535.687	0.883	1322082	WORD_OFF	n/a	n/a	PANDA	n/a	4	4	[0, 0, 0]	n/a	catFR1	0	R1236J
536.57	1.618	1322965	WORD	n/a	wordpools/wordpool_categorized_EN.txt	ROACH	Insects	5	4	[0, 0, 0]	n/a	catFR1	0	R1236J
538.188	0.95	1324583	WORD_OFF	n/a	n/a	ROACH	n/a	5	4	[0, 0, 0]	n/a	catFR1	0	R1236J
539.138	1.616	1325533	WORD	n/a	wordpools/wordpool_categorized_EN.txt	SPIDER	Insects	6	4	[0, 0, 0]	n/a	catFR1	0	R1236J
540.754	0.883	1327149	WORD_OFF	n/a	n/a	SPIDER	n/a	6	4	[0, 0, 0]	n/a	catFR1	0	R1236J
541.637	1.618	1328032	WORD	n/a	wordpools/wordpool_categorized_EN.txt	LION	Zoo	7	4	[0, 0, 0]	n/a	catFR1	0	R1236J
543.255	0.834	1329650	WORD_OFF	n/a	n/a	LION	n/a	7	4	[0, 0, 0]	n/a	catFR1	0	R1236J
544.089	1.616	1330484	WORD	n/a	wordpools/wordpool_categorized_EN.txt	ORANGUTAN	Zoo	8	4	[0, 0, 0]	n/a	catFR1	0	R1236J
545.705	0.983	1332100	WORD_OFF	n/a	n/a	ORANGUTAN	n/a	8	4	[0, 0, 0]	n/a	catFR1	0	R1236J
546.688	1.617	1333083	WORD	n/a	wordpools/wordpool_categorized_EN.txt	LEVEL	Tools	9	4	[0, 0, 0]	n/a	catFR1	0	R1236J
548.305	1.0	1334700	WORD_OFF	n/a	n/a	LEVEL	n/a	9	4	[0, 0, 0]	n/a	catFR1	0	R1236J
549.305	1.617	1335700	WORD	n/a	wordpools/wordpool_categorized_EN.txt	DRILL	Tools	10	4	[0, 0, 0]	n/a	catFR1	0	R1236J
550.922	0.783	1337317	WORD_OFF	n/a	n/a	DRILL	n/a	10	4	[0, 0, 0]	n/a	catFR1	0	R1236J
551.705	1.617	1338100	WORD	n/a	wordpools/wordpool_categorized_EN.txt	BUTTERFLY	Insects	11	4	[0, 0, 0]	n/a	catFR1	0	R1236J
553.322	0.901	1339717	WORD_OFF	n/a	n/a	BUTTERFLY	n/a	11	4	[0, 0, 0]	n/a	catFR1	0	R1236J
554.223	1.616	1340618	WORD	n/a	wordpools/wordpool_categorized_EN.txt	BEE	Insects	12	4	[0, 0, 0]	n/a	catFR1	0	R1236J
555.839	0.0	1342234	ENCODING_END	n/a	n/a	n/a	n/a	-999	4	[0, 0, 0]	n/a	catFR1	0	R1236J
555.839	0.122	1342234	WORD_OFF	n/a	n/a	BEE	n/a	12	4	[0, 0, 0]	n/a	catFR1	0	R1236J
555.961	0.0	1342356	DISTRACT_START	n/a	n/a	n/a	n/a	-999	4	[0, 0, 0]	n/a	catFR1	0	R1236J
555.961	0.012	1342356	START	n/a	n/a	n/a	n/a	-999	4	[-999, -999, -999]	n/a	catFR1	0	R1236J
555.973	3.068	1342368	PROB	3.068	n/a	n/a	n/a	-999	4	[1, 1, 1]	3	catFR1	0	R1236J
559.041	3.682	1345436	PROB	3.682	n/a	n/a	n/a	-999	4	[1, 5, 2]	8	catFR1	0	R1236J
562.723	4.452	1349118	PROB	4.452	n/a	n/a	n/a	-999	4	[3, 6, 7]	16	catFR1	0	R1236J
567.175	5.166	1353570	PROB	5.166	n/a	n/a	n/a	-999	4	[5, 6, 7]	18	catFR1	0	R1236J
572.341	3.151	1358736	PROB	3.151	n/a	n/a	n/a	-999	4	[9, 9, 2]	20	catFR1	0	R1236J
575.492	4.744	1361887	PROB	4.744	n/a	n/a	n/a	-999	4	[3, 9, 8]	20	catFR1	0	R1236J
580.236	0.008	1366631	STOP	n/a	n/a	n/a	n/a	-999	4	[-999, -999, -999]	n/a	catFR1	0	R1236J
580.244	0.648	1366639	DISTRACT_END	n/a	n/a	n/a	n/a	-999	4	[0, 0, 0]	n/a	catFR1	0	R1236J
580.892	0.518	1367287	RETRIEVAL_ORIENT	n/a	n/a	n/a	n/a	-999	4	[0, 0, 0]	n/a	catFR1	0	R1236J
581.41	1.288	1367805	REC_START	n/a	n/a	n/a	n/a	-999	4	[0, 0, 0]	n/a	catFR1	0	R1236J
582.698	0.982	1369093	REC_WORD	0.982	n/a	LEVEL	Tools	9	4	[0, 0, 0]	n/a	catFR1	0	R1236J
583.68	2.108	1370075	REC_WORD	2.108	n/a	HAMMER	Tools	1	4	[0, 0, 0]	n/a	catFR1	0	R1236J
585.788	9.012	1372183	REC_WORD	9.012	n/a	WRENCH	Tools	2	4	[0, 0, 0]	n/a	catFR1	0	R1236J
594.8	0.443	1381195	REC_WORD_VV	0.443	n/a	<>	n/a	-999	4	[0, 0, 0]	n/a	catFR1	0	R1236J
595.243	5.191	1381638	REC_WORD	5.191	n/a	ROACH	Insects	5	4	[0, 0, 0]	n/a	catFR1	0	R1236J
600.434	3.03	1386829	REC_WORD_VV	3.03	n/a	<>	n/a	-999	4	[0, 0, 0]	n/a	catFR1	0	R1236J
603.464	6.642	1389859	REC_WORD	6.642	n/a	MONKEY	Zoo	3	4	[0, 0, 0]	n/a	catFR1	0	R1236J
610.106	1.313	1396501	REC_WORD	1.313	n/a	BUTTERFLY	Insects	11	4	[0, 0, 0]	n/a	catFR1	0	R1236J
611.419	4.412	1397814	REC_END	n/a	n/a	n/a	n/a	-999	4	[0, 0, 0]	n/a	catFR1	0	R1236J
615.831	0.5	1402226	TRIAL	n/a	n/a	n/a	n/a	-999	5	[0, 0, 0]	n/a	catFR1	0	R1236J
616.331	10.428	1402726	COUNTDOWN_START	n/a	n/a	n/a	n/a	-999	5	[0, 0, 0]	n/a	catFR1	0	R1236J
626.759	0.006	1413154	COUNTDOWN_END	n/a	n/a	n/a	n/a	-999	5	[0, 0, 0]	n/a	catFR1	0	R1236J
626.765	1.617	1413160	ORIENT	n/a	n/a	n/a	n/a	-999	5	[0, 0, 0]	n/a	catFR1	0	R1236J
628.382	2.05	1414777	ORIENT_OFF	n/a	n/a	n/a	n/a	-999	5	[0, 0, 0]	n/a	catFR1	0	R1236J
630.432	1.601	1416827	WORD	n/a	wordpools/wordpool_categorized_EN.txt	BUS	Vehicles	1	5	[0, 0, 0]	n/a	catFR1	0	R1236J
632.033	0.951	1418428	WORD_OFF	n/a	n/a	BUS	n/a	1	5	[0, 0, 0]	n/a	catFR1	0	R1236J
632.984	1.616	1419379	WORD	n/a	wordpools/wordpool_categorized_EN.txt	VAN	Vehicles	2	5	[0, 0, 0]	n/a	catFR1	0	R1236J
634.6	0.866	1420995	WORD_OFF	n/a	n/a	VAN	n/a	2	5	[0, 0, 0]	n/a	catFR1	0	R1236J
635.466	1.618	1421861	WORD	n/a	wordpools/wordpool_categorized_EN.txt	ROSE	Flowers	3	5	[0, 0, 0]	n/a	catFR1	0	R1236J
637.084	0.866	1423479	WORD_OFF	n/a	n/a	ROSE	n/a	3	5	[0, 0, 0]	n/a	catFR1	0	R1236J
637.95	1.617	1424345	WORD	n/a	wordpools/wordpool_categorized_EN.txt	DAFFODIL	Flowers	4	5	[0, 0, 0]	n/a	catFR1	0	R1236J
639.567	0.95	1425962	WORD_OFF	n/a	n/a	DAFFODIL	n/a	4	5	[0, 0, 0]	n/a	catFR1	0	R1236J
640.517	1.618	1426912	WORD	n/a	wordpools/wordpool_categorized_EN.txt	ANT	Insects	5	5	[0, 0, 0]	n/a	catFR1	0	R1236J
642.135	0.9	1428530	WORD_OFF	n/a	n/a	ANT	n/a	5	5	[0, 0, 0]	n/a	catFR1	0	R1236J
643.035	1.616	1429430	WORD	n/a	wordpools/wordpool_categorized_EN.txt	MOSQUITO	Insects	6	5	[0, 0, 0]	n/a	catFR1	0	R1236J
644.651	0.967	1431046	WORD_OFF	n/a	n/a	MOSQUITO	n/a	6	5	[0, 0, 0]	n/a	catFR1	0	R1236J
645.618	1.618	1432013	WORD	n/a	wordpools/wordpool_categorized_EN.txt	MARIGOLD	Flowers	7	5	[0, 0, 0]	n/a	catFR1	0	R1236J
647.236	0.933	1433631	WORD_OFF	n/a	n/a	MARIGOLD	n/a	7	5	[0, 0, 0]	n/a	catFR1	0	R1236J
648.169	1.616	1434564	WORD	n/a	wordpools/wordpool_categorized_EN.txt	LILY	Flowers	8	5	[0, 0, 0]	n/a	catFR1	0	R1236J
649.785	0.983	1436180	WORD_OFF	n/a	n/a	LILY	n/a	8	5	[0, 0, 0]	n/a	catFR1	0	R1236J
650.768	1.617	1437163	WORD	n/a	wordpools/wordpool_categorized_EN.txt	MOPED	Vehicles	9	5	[0, 0, 0]	n/a	catFR1	0	R1236J
652.385	0.868	1438780	WORD_OFF	n/a	n/a	MOPED	n/a	9	5	[0, 0, 0]	n/a	catFR1	0	R1236J
653.253	1.616	1439648	WORD	n/a	wordpools/wordpool_categorized_EN.txt	BOAT	Vehicles	10	5	[0, 0, 0]	n/a	catFR1	0	R1236J
654.869	0.85	1441264	WORD_OFF	n/a	n/a	BOAT	n/a	10	5	[0, 0, 0]	n/a	catFR1	0	R1236J
655.719	1.617	1442114	WORD	n/a	wordpools/wordpool_categorized_EN.txt	LADYBUG	Insects	11	5	[0, 0, 0]	n/a	catFR1	0	R1236J
657.336	0.851	1443731	WORD_OFF	n/a	n/a	LADYBUG	n/a	11	5	[0, 0, 0]	n/a	catFR1	0	R1236J
658.187	1.616	1444582	WORD	n/a	wordpools/wordpool_categorized_EN.txt	BEETLE	Insects	12	5	[0, 0, 0]	n/a	catFR1	0	R1236J
659.803	0.0	1446198	WORD_OFF	n/a	n/a	BEETLE	n/a	12	5	[0, 0, 0]	n/a	catFR1	0	R1236J
659.803	0.099	1446198	ENCODING_END	n/a	n/a	n/a	n/a	-999	5	[0, 0, 0]	n/a	catFR1	0	R1236J
659.902	0.0	1446297	DISTRACT_START	n/a	n/a	n/a	n/a	-999	5	[0, 0, 0]	n/a	catFR1	0	R1236J
659.902	0.018	1446297	START	n/a	n/a	n/a	n/a	-999	5	[-999, -999, -999]	n/a	catFR1	0	R1236J
659.92	2.984	1446315	PROB	2.984	n/a	n/a	n/a	-999	5	[1, 6, 4]	11	catFR1	0	R1236J
662.904	5.851	1449299	PROB	5.851	n/a	n/a	n/a	-999	5	[7, 5, 4]	16	catFR1	0	R1236J
668.755	13.18	1455150	PROB	13.18	n/a	n/a	n/a	-999	5	[7, 9, 5]	21	catFR1	0	R1236J
681.935	0.021	1468330	STOP	n/a	n/a	n/a	n/a	-999	5	[-999, -999, -999]	n/a	catFR1	0	R1236J
681.956	0.533	1468351	DISTRACT_END	n/a	n/a	n/a	n/a	-999	5	[0, 0, 0]	n/a	catFR1	0	R1236J
682.489	0.519	1468884	RETRIEVAL_ORIENT	n/a	n/a	n/a	n/a	-999	5	[0, 0, 0]	n/a	catFR1	0	R1236J
683.008	0.748	1469403	REC_START	n/a	n/a	n/a	n/a	-999	5	[0, 0, 0]	n/a	catFR1	0	R1236J
683.756	1.0	1470151	REC_WORD_VV	1.0	n/a	<>	n/a	-999	5	[0, 0, 0]	n/a	catFR1	0	R1236J
684.756	12.869	1471151	REC_WORD_VV	12.869	n/a	<>	n/a	-999	5	[0, 0, 0]	n/a	catFR1	0	R1236J
697.625	2.691	1484020	REC_WORD	2.691	n/a	LADYBUG	Insects	11	5	[0, 0, 0]	n/a	catFR1	0	R1236J
700.316	12.702	1486711	REC_WORD	12.702	n/a	BEE	n/a	-999	5	[0, 0, 0]	n/a	catFR1	0	R1236J
713.018	4.726	1499413	REC_END	n/a	n/a	n/a	n/a	-999	5	[0, 0, 0]	n/a	catFR1	0	R1236J
717.744	0.5	1504139	TRIAL	n/a	n/a	n/a	n/a	-999	6	[0, 0, 0]	n/a	catFR1	0	R1236J
718.244	10.428	1504639	COUNTDOWN_START	n/a	n/a	n/a	n/a	-999	6	[0, 0, 0]	n/a	catFR1	0	R1236J
728.672	0.007	1515066	COUNTDOWN_END	n/a	n/a	n/a	n/a	-999	6	[0, 0, 0]	n/a	catFR1	0	R1236J
728.679	1.617	1515073	ORIENT	n/a	n/a	n/a	n/a	-999	6	[0, 0, 0]	n/a	catFR1	0	R1236J
730.296	1.918	1516690	ORIENT_OFF	n/a	n/a	n/a	n/a	-999	6	[0, 0, 0]	n/a	catFR1	0	R1236J
732.214	1.616	1518608	WORD	n/a	wordpools/wordpool_categorized_EN.txt	COW	FarmAnimals	1	6	[0, 0, 0]	n/a	catFR1	0	R1236J
733.83	0.783	1520224	WORD_OFF	n/a	n/a	COW	n/a	1	6	[0, 0, 0]	n/a	catFR1	0	R1236J
734.613	1.618	1521007	WORD	n/a	wordpools/wordpool_categorized_EN.txt	CHICKEN	FarmAnimals	2	6	[0, 0, 0]	n/a	catFR1	0	R1236J
736.231	1.0	1522625	WORD_OFF	n/a	n/a	CHICKEN	n/a	2	6	[0, 0, 0]	n/a	catFR1	0	R1236J
737.231	1.616	1523625	WORD	n/a	wordpools/wordpool_categorized_EN.txt	GLUE	OfficeSupplies	3	6	[0, 0, 0]	n/a	catFR1	0	R1236J
738.847	0.95	1525241	WORD_OFF	n/a	n/a	GLUE	n/a	3	6	[0, 0, 0]	n/a	catFR1	0	R1236J
739.797	1.617	1526191	WORD	n/a	wordpools/wordpool_categorized_EN.txt	TAPE	OfficeSupplies	4	6	[0, 0, 0]	n/a	catFR1	0	R1236J
741.414	0.851	1527808	WORD_OFF	n/a	n/a	TAPE	n/a	4	6	[0, 0, 0]	n/a	catFR1	0	R1236J
742.265	1.616	1528659	WORD	n/a	wordpools/wordpool_categorized_EN.txt	FORK	KitchenTools	5	6	[0, 0, 0]	n/a	catFR1	0	R1236J
743.881	0.783	1530275	WORD_OFF	n/a	n/a	FORK	n/a	5	6	[0, 0, 0]	n/a	catFR1	0	R1236J
744.664	1.617	1531058	WORD	n/a	wordpools/wordpool_categorized_EN.txt	KNIFE	KitchenTools	6	6	[0, 0, 0]	n/a	catFR1	0	R1236J
746.281	0.801	1532675	WORD_OFF	n/a	n/a	KNIFE	n/a	6	6	[0, 0, 0]	n/a	catFR1	0	R1236J
747.082	1.617	1533476	WORD	n/a	wordpools/wordpool_categorized_EN.txt	MARKER	OfficeSupplies	7	6	[0, 0, 0]	n/a	catFR1	0	R1236J
748.699	0.85	1535093	WORD_OFF	n/a	n/a	MARKER	n/a	7	6	[0, 0, 0]	n/a	catFR1	0	R1236J
749.549	1.617	1535943	WORD	n/a	wordpools/wordpool_categorized_EN.txt	PEN	OfficeSupplies	8	6	[0, 0, 0]	n/a	catFR1	0	R1236J
751.166	0.799	1537560	WORD_OFF	n/a	n/a	PEN	n/a	8	6	[0, 0, 0]	n/a	catFR1	0	R1236J
751.965	1.617	1538359	WORD	n/a	wordpools/wordpool_categorized_EN.txt	HEN	FarmAnimals	9	6	[0, 0, 0]	n/a	catFR1	0	R1236J
753.582	0.967	1539976	WORD_OFF	n/a	n/a	HEN	n/a	9	6	[0, 0, 0]	n/a	catFR1	0	R1236J
754.549	1.601	1540943	WORD	n/a	wordpools/wordpool_categorized_EN.txt	GOAT	FarmAnimals	10	6	[0, 0, 0]	n/a	catFR1	0	R1236J
756.15	0.884	1542544	WORD_OFF	n/a	n/a	GOAT	n/a	10	6	[0, 0, 0]	n/a	catFR1	0	R1236J
757.034	1.616	1543428	WORD	n/a	wordpools/wordpool_categorized_EN.txt	WHISK	KitchenTools	11	6	[0, 0, 0]	n/a	catFR1	0	R1236J
758.65	0.967	1545044	WORD_OFF	n/a	n/a	WHISK	n/a	11	6	[0, 0, 0]	n/a	catFR1	0	R1236J
759.617	1.617	1546011	WORD	n/a	wordpools/wordpool_categorized_EN.txt	COLANDER	KitchenTools	12	6	[0, 0, 0]	n/a	catFR1	0	R1236J
761.234	0.0	1547628	ENCODING_END	n/a	n/a	n/a	n/a	-999	6	[0, 0, 0]	n/a	catFR1	0	R1236J
761.234	0.13	1547628	WORD_OFF	n/a	n/a	COLANDER	n/a	12	6	[0, 0, 0]	n/a	catFR1	0	R1236J
761.364	0.001	1547758	DISTRACT_START	n/a	n/a	n/a	n/a	-999	6	[0, 0, 0]	n/a	catFR1	0	R1236J
761.365	0.018	1547759	START	n/a	n/a	n/a	n/a	-999	6	[-999, -999, -999]	n/a	catFR1	0	R1236J
761.383	3.501	1547777	PROB	3.501	n/a	n/a	n/a	-999	6	[7, 2, 8]	17	catFR1	0	R1236J
764.884	3.667	1551278	PROB	3.667	n/a	n/a	n/a	-999	6	[2, 5, 3]	10	catFR1	0	R1236J
768.551	3.067	1554945	PROB	3.067	n/a	n/a	n/a	-999	6	[7, 6, 4]	17	catFR1	0	R1236J
771.618	4.568	1558012	PROB	4.568	n/a	n/a	n/a	-999	6	[9, 6, 4]	19	catFR1	0	R1236J
776.186	4.683	1562580	PROB	4.683	n/a	n/a	n/a	-999	6	[2, 4, 7]	14	catFR1	0	R1236J
780.869	3.2	1567263	PROB	3.2	n/a	n/a	n/a	-999	6	[9, 1, 8]	18	catFR1	0	R1236J
784.069	0.019	1570463	STOP	n/a	n/a	n/a	n/a	-999	6	[-999, -999, -999]	n/a	catFR1	0	R1236J
784.088	0.532	1570482	DISTRACT_END	n/a	n/a	n/a	n/a	-999	6	[0, 0, 0]	n/a	catFR1	0	R1236J
784.62	0.518	1571014	RETRIEVAL_ORIENT	n/a	n/a	n/a	n/a	-999	6	[0, 0, 0]	n/a	catFR1	0	R1236J
785.138	2.26	1571532	REC_START	n/a	n/a	n/a	n/a	-999	6	[0, 0, 0]	n/a	catFR1	0	R1236J
787.398	1.034	1573792	REC_WORD	1.034	n/a	WHISK	KitchenTools	11	6	[0, 0, 0]	n/a	catFR1	0	R1236J
788.432	0.917	1574826	REC_WORD	0.917	n/a	KNIFE	KitchenTools	6	6	[0, 0, 0]	n/a	catFR1	0	R1236J
789.349	1.456	1575743	REC_WORD	1.456	n/a	FORK	KitchenTools	5	6	[0, 0, 0]	n/a	catFR1	0	R1236J
790.805	1.257	1577199	REC_WORD	1.257	n/a	PEN	OfficeSupplies	8	6	[0, 0, 0]	n/a	catFR1	0	R1236J
792.062	9.554	1578456	REC_WORD	9.554	n/a	MARKER	OfficeSupplies	7	6	[0, 0, 0]	n/a	catFR1	0	R1236J
801.616	13.534	1588010	REC_WORD	13.534	n/a	COLANDER	KitchenTools	12	6	[0, 0, 0]	n/a	catFR1	0	R1236J
815.15	4.241	1601544	REC_END	n/a	n/a	n/a	n/a	-999	6	[0, 0, 0]	n/a	catFR1	0	R1236J
819.391	0.5	1605785	TRIAL	n/a	n/a	n/a	n/a	-999	7	[0, 0, 0]	n/a	catFR1	0	R1236J
819.891	10.428	1606285	COUNTDOWN_START	n/a	n/a	n/a	n/a	-999	7	[0, 0, 0]	n/a	catFR1	0	R1236J
830.319	0.007	1616713	COUNTDOWN_END	n/a	n/a	n/a	n/a	-999	7	[0, 0, 0]	n/a	catFR1	0	R1236J
830.326	1.616	1616720	ORIENT	n/a	n/a	n/a	n/a	-999	7	[0, 0, 0]	n/a	catFR1	0	R1236J
831.942	2.235	1618336	ORIENT_OFF	n/a	n/a	n/a	n/a	-999	7	[0, 0, 0]	n/a	catFR1	0	R1236J
834.177	1.616	1620571	WORD	n/a	wordpools/wordpool_categorized_EN.txt	CABINET	Furniture	1	7	[0, 0, 0]	n/a	catFR1	0	R1236J
835.793	0.984	1622187	WORD_OFF	n/a	n/a	CABINET	n/a	1	7	[0, 0, 0]	n/a	catFR1	0	R1236J
836.777	1.617	1623171	WORD	n/a	wordpools/wordpool_categorized_EN.txt	BOOKCASE	Furniture	2	7	[0, 0, 0]	n/a	catFR1	0	R1236J
838.394	0.784	1624788	WORD_OFF	n/a	n/a	BOOKCASE	n/a	2	7	[0, 0, 0]	n/a	catFR1	0	R1236J
839.178	1.616	1625572	WORD	n/a	wordpools/wordpool_categorized_EN.txt	HAWK	Birds	3	7	[0, 0, 0]	n/a	catFR1	0	R1236J
840.794	0.817	1627188	WORD_OFF	n/a	n/a	HAWK	n/a	3	7	[0, 0, 0]	n/a	catFR1	0	R1236J
841.611	1.618	1628005	WORD	n/a	wordpools/wordpool_categorized_EN.txt	FINCH	Birds	4	7	[0, 0, 0]	n/a	catFR1	0	R1236J
843.229	0.95	1629623	WORD_OFF	n/a	n/a	FINCH	n/a	4	7	[0, 0, 0]	n/a	catFR1	0	R1236J
844.179	1.616	1630573	WORD	n/a	wordpools/wordpool_categorized_EN.txt	GUITAR	Instruments	5	7	[0, 0, 0]	n/a	catFR1	0	R1236J
845.795	0.933	1632189	WORD_OFF	n/a	n/a	GUITAR	n/a	5	7	[0, 0, 0]	n/a	catFR1	0	R1236J
846.728	1.617	1633122	WORD	n/a	wordpools/wordpool_categorized_EN.txt	PIANO	Instruments	6	7	[0, 0, 0]	n/a	catFR1	0	R1236J
848.345	0.95	1634739	WORD_OFF	n/a	n/a	PIANO	n/a	6	7	[0, 0, 0]	n/a	catFR1	0	R1236J
849.295	1.617	1635689	WORD	n/a	wordpools/wordpool_categorized_EN.txt	TABLE	Furniture	7	7	[0, 0, 0]	n/a	catFR1	0	R1236J
850.912	0.9	1637306	WORD_OFF	n/a	n/a	TABLE	n/a	7	7	[0, 0, 0]	n/a	catFR1	0	R1236J
851.812	1.617	1638206	WORD	n/a	wordpools/wordpool_categorized_EN.txt	DESK	Furniture	8	7	[0, 0, 0]	n/a	catFR1	0	R1236J
853.429	0.95	1639823	WORD_OFF	n/a	n/a	DESK	n/a	8	7	[0, 0, 0]	n/a	catFR1	0	R1236J
854.379	1.618	1640773	WORD	n/a	wordpools/wordpool_categorized_EN.txt	ROBIN	Birds	9	7	[0, 0, 0]	n/a	catFR1	0	R1236J
855.997	0.949	1642391	WORD_OFF	n/a	n/a	ROBIN	n/a	9	7	[0, 0, 0]	n/a	catFR1	0	R1236J
856.946	1.617	1643340	WORD	n/a	wordpools/wordpool_categorized_EN.txt	CROW	Birds	10	7	[0, 0, 0]	n/a	catFR1	0	R1236J
858.563	0.95	1644957	WORD_OFF	n/a	n/a	CROW	n/a	10	7	[0, 0, 0]	n/a	catFR1	0	R1236J
859.513	1.618	1645907	WORD	n/a	wordpools/wordpool_categorized_EN.txt	BANJO	Instruments	11	7	[0, 0, 0]	n/a	catFR1	0	R1236J
861.131	0.766	1647525	WORD_OFF	n/a	n/a	BANJO	n/a	11	7	[0, 0, 0]	n/a	catFR1	0	R1236J
861.897	1.617	1648291	WORD	n/a	wordpools/wordpool_categorized_EN.txt	DRUM	Instruments	12	7	[0, 0, 0]	n/a	catFR1	0	R1236J
863.514	0.0	1649908	ENCODING_END	n/a	n/a	n/a	n/a	-999	7	[0, 0, 0]	n/a	catFR1	0	R1236J
863.514	0.129	1649908	WORD_OFF	n/a	n/a	DRUM	n/a	12	7	[0, 0, 0]	n/a	catFR1	0	R1236J
863.643	0.0	1650037	DISTRACT_START	n/a	n/a	n/a	n/a	-999	7	[0, 0, 0]	n/a	catFR1	0	R1236J
863.643	0.021	1650037	START	n/a	n/a	n/a	n/a	-999	7	[-999, -999, -999]	n/a	catFR1	0	R1236J
863.664	4.684	1650058	PROB	4.684	n/a	n/a	n/a	-999	7	[9, 4, 3]	16	catFR1	0	R1236J
868.348	3.5	1654742	PROB	3.5	n/a	n/a	n/a	-999	7	[4, 5, 8]	17	catFR1	0	R1236J
871.848	2.45	1658242	PROB	2.45	n/a	n/a	n/a	-999	7	[8, 1, 2]	11	catFR1	0	R1236J
874.298	4.551	1660692	PROB	4.551	n/a	n/a	n/a	-999	7	[4, 7, 7]	18	catFR1	0	R1236J
878.849	2.984	1665243	PROB	2.984	n/a	n/a	n/a	-999	7	[9, 9, 3]	21	catFR1	0	R1236J
881.833	4.2	1668227	PROB	4.2	n/a	n/a	n/a	-999	7	[1, 5, 8]	14	catFR1	0	R1236J
886.033	0.018	1672427	STOP	n/a	n/a	n/a	n/a	-999	7	[-999, -999, -999]	n/a	catFR1	0	R1236J
886.051	0.516	1672445	DISTRACT_END	n/a	n/a	n/a	n/a	-999	7	[0, 0, 0]	n/a	catFR1	0	R1236J
886.567	0.518	1672961	RETRIEVAL_ORIENT	n/a	n/a	n/a	n/a	-999	7	[0, 0, 0]	n/a	catFR1	0	R1236J
887.085	2.413	1673479	REC_START	n/a	n/a	n/a	n/a	-999	7	[0, 0, 0]	n/a	catFR1	0	R1236J
889.498	1.015	1675892	REC_WORD	1.015	n/a	FINCH	Birds	4	7	[0, 0, 0]	n/a	catFR1	0	R1236J
890.513	1.888	1676907	REC_WORD	1.888	n/a	SPARROW	n/a	-999	7	[0, 0, 0]	n/a	catFR1	0	R1236J
892.401	3.581	1678795	REC_WORD	3.581	n/a	FORK	n/a	-999	7	[0, 0, 0]	n/a	catFR1	0	R1236J
895.982	12.092	1682376	REC_WORD	12.092	n/a	KNIFE	n/a	-999	7	[0, 0, 0]	n/a	catFR1	0	R1236J
908.074	2.31	1694468	REC_WORD	2.31	n/a	DESK	Furniture	8	7	[0, 0, 0]	n/a	catFR1	0	R1236J
910.384	1.302	1696778	REC_WORD	1.302	n/a	TABLE	Furniture	7	7	[0, 0, 0]	n/a	catFR1	0	R1236J
911.686	3.759	1698080	REC_WORD	3.759	n/a	BOOKCASE	Furniture	2	7	[0, 0, 0]	n/a	catFR1	0	R1236J
915.445	1.649	1701839	REC_WORD	1.649	n/a	CABINET	Furniture	1	7	[0, 0, 0]	n/a	catFR1	0	R1236J
917.094	4.461	1703488	REC_END	n/a	n/a	n/a	n/a	-999	7	[0, 0, 0]	n/a	catFR1	0	R1236J
921.555	0.5	1707949	TRIAL	n/a	n/a	n/a	n/a	-999	8	[0, 0, 0]	n/a	catFR1	0	R1236J
922.055	10.428	1708449	COUNTDOWN_START	n/a	n/a	n/a	n/a	-999	8	[0, 0, 0]	n/a	catFR1	0	R1236J
932.483	0.007	1718877	COUNTDOWN_END	n/a	n/a	n/a	n/a	-999	8	[0, 0, 0]	n/a	catFR1	0	R1236J
932.49	1.618	1718884	ORIENT	n/a	n/a	n/a	n/a	-999	8	[0, 0, 0]	n/a	catFR1	0	R1236J
934.108	2.332	1720502	ORIENT_OFF	n/a	n/a	n/a	n/a	-999	8	[0, 0, 0]	n/a	catFR1	0	R1236J
936.44	1.601	1722834	WORD	n/a	wordpools/wordpool_categorized_EN.txt	PENCIL	OfficeSupplies	1	8	[0, 0, 0]	n/a	catFR1	0	R1236J
938.041	0.951	1724435	WORD_OFF	n/a	n/a	PENCIL	n/a	1	8	[0, 0, 0]	n/a	catFR1	0	R1236J
938.992	1.615	1725386	WORD	n/a	wordpools/wordpool_categorized_EN.txt	PAPER	OfficeSupplies	2	8	[0, 0, 0]	n/a	catFR1	0	R1236J
940.607	0.917	1727001	WORD_OFF	n/a	n/a	PAPER	n/a	2	8	[0, 0, 0]	n/a	catFR1	0	R1236J
941.524	1.601	1727918	WORD	n/a	wordpools/wordpool_categorized_EN.txt	CRAB	OceanAnimals	3	8	[0, 0, 0]	n/a	catFR1	0	R1236J
943.125	0.816	1729519	WORD_OFF	n/a	n/a	CRAB	n/a	3	8	[0, 0, 0]	n/a	catFR1	0	R1236J
943.941	1.617	1730335	WORD	n/a	wordpools/wordpool_categorized_EN.txt	WHALE	OceanAnimals	4	8	[0, 0, 0]	n/a	catFR1	0	R1236J
945.558	0.767	1731952	WORD_OFF	n/a	n/a	WHALE	n/a	4	8	[0, 0, 0]	n/a	catFR1	0	R1236J
946.325	1.617	1732719	WORD	n/a	wordpools/wordpool_categorized_EN.txt	JEEP	Vehicles	5	8	[0, 0, 0]	n/a	catFR1	0	R1236J
947.942	0.783	1734336	WORD_OFF	n/a	n/a	JEEP	n/a	5	8	[0, 0, 0]	n/a	catFR1	0	R1236J
948.725	1.617	1735119	WORD	n/a	wordpools/wordpool_categorized_EN.txt	TRAIN	Vehicles	6	8	[0, 0, 0]	n/a	catFR1	0	R1236J
950.342	1.0	1736736	WORD_OFF	n/a	n/a	TRAIN	n/a	6	8	[0, 0, 0]	n/a	catFR1	0	R1236J
951.342	1.617	1737736	WORD	n/a	wordpools/wordpool_categorized_EN.txt	NOTEBOOK	OfficeSupplies	7	8	[0, 0, 0]	n/a	catFR1	0	R1236J
952.959	0.917	1739353	WORD_OFF	n/a	n/a	NOTEBOOK	n/a	7	8	[0, 0, 0]	n/a	catFR1	0	R1236J
953.876	1.617	1740270	WORD	n/a	wordpools/wordpool_categorized_EN.txt	STAPLER	OfficeSupplies	8	8	[0, 0, 0]	n/a	catFR1	0	R1236J
955.493	0.9	1741887	WORD_OFF	n/a	n/a	STAPLER	n/a	8	8	[0, 0, 0]	n/a	catFR1	0	R1236J
956.393	1.618	1742787	WORD	n/a	wordpools/wordpool_categorized_EN.txt	FISH	OceanAnimals	9	8	[0, 0, 0]	n/a	catFR1	0	R1236J
958.011	0.799	1744405	WORD_OFF	n/a	n/a	FISH	n/a	9	8	[0, 0, 0]	n/a	catFR1	0	R1236J
958.81	1.617	1745204	WORD	n/a	wordpools/wordpool_categorized_EN.txt	SQUID	OceanAnimals	10	8	[0, 0, 0]	n/a	catFR1	0	R1236J
960.427	0.767	1746821	WORD_OFF	n/a	n/a	SQUID	n/a	10	8	[0, 0, 0]	n/a	catFR1	0	R1236J
961.194	1.617	1747588	WORD	n/a	wordpools/wordpool_categorized_EN.txt	BIKE	Vehicles	11	8	[0, 0, 0]	n/a	catFR1	0	R1236J
962.811	0.916	1749205	WORD_OFF	n/a	n/a	BIKE	n/a	11	8	[0, 0, 0]	n/a	catFR1	0	R1236J
963.727	1.617	1750121	WORD	n/a	wordpools/wordpool_categorized_EN.txt	PLANE	Vehicles	12	8	[0, 0, 0]	n/a	catFR1	0	R1236J
965.344	0.001	1751738	WORD_OFF	n/a	n/a	PLANE	n/a	12	8	[0, 0, 0]	n/a	catFR1	0	R1236J
965.345	0.099	1751739	ENCODING_END	n/a	n/a	n/a	n/a	-999	8	[0, 0, 0]	n/a	catFR1	0	R1236J
965.444	0.0	1751838	DISTRACT_START	n/a	n/a	n/a	n/a	-999	8	[0, 0, 0]	n/a	catFR1	0	R1236J
965.444	0.017	1751838	START	n/a	n/a	n/a	n/a	-999	8	[-999, -999, -999]	n/a	catFR1	0	R1236J
965.461	3.934	1751855	PROB	3.934	n/a	n/a	n/a	-999	8	[3, 6, 6]	15	catFR1	0	R1236J
969.395	2.95	1755789	PROB	2.95	n/a	n/a	n/a	-999	8	[1, 1, 7]	9	catFR1	0	R1236J
972.345	4.501	1758738	PROB	4.501	n/a	n/a	n/a	-999	8	[5, 6, 8]	19	catFR1	0	R1236J
976.846	4.867	1763239	PROB	4.867	n/a	n/a	n/a	-999	8	[4, 5, 4]	13	catFR1	0	R1236J
981.713	5.132	1768106	PROB	5.132	n/a	n/a	n/a	-999	8	[5, 6, 7]	18	catFR1	0	R1236J
986.845	0.019	1773238	STOP	n/a	n/a	n/a	n/a	-999	8	[-999, -999, -999]	n/a	catFR1	0	R1236J
986.864	0.55	1773257	DISTRACT_END	n/a	n/a	n/a	n/a	-999	8	[0, 0, 0]	n/a	catFR1	0	R1236J
987.414	0.517	1773807	RETRIEVAL_ORIENT	n/a	n/a	n/a	n/a	-999	8	[0, 0, 0]	n/a	catFR1	0	R1236J
987.931	1.278	1774324	REC_START	n/a	n/a	n/a	n/a	-999	8	[0, 0, 0]	n/a	catFR1	0	R1236J
989.209	1.065	1775602	REC_WORD	1.065	n/a	PENCIL	OfficeSupplies	1	8	[0, 0, 0]	n/a	catFR1	0	R1236J
990.274	1.235	1776667	REC_WORD	1.235	n/a	PAPER	OfficeSupplies	2	8	[0, 0, 0]	n/a	catFR1	0	R1236J
991.509	3.398	1777902	REC_WORD	3.398	n/a	NOTEBOOK	OfficeSupplies	7	8	[0, 0, 0]	n/a	catFR1	0	R1236J
994.907	7.51	1781300	REC_WORD	7.51	n/a	CRAB	OceanAnimals	3	8	[0, 0, 0]	n/a	catFR1	0	R1236J
1002.417	3.538	1788810	REC_WORD	3.538	n/a	CLAM	n/a	-999	8	[0, 0, 0]	n/a	catFR1	0	R1236J
1005.955	2.415	1792348	REC_WORD	2.415	n/a	PLANE	Vehicles	12	8	[0, 0, 0]	n/a	catFR1	0	R1236J
1008.37	7.166	1794763	REC_WORD	7.166	n/a	TRAIN	Vehicles	6	8	[0, 0, 0]	n/a	catFR1	0	R1236J
1015.536	2.407	1801929	REC_WORD	2.407	n/a	BOAT	n/a	-999	8	[0, 0, 0]	n/a	catFR1	0	R1236J
1017.943	4.227	1804336	REC_END	n/a	n/a	n/a	n/a	-999	8	[0, 0, 0]	n/a	catFR1	0	R1236J
1022.17	0.5	1808563	TRIAL	n/a	n/a	n/a	n/a	-999	9	[0, 0, 0]	n/a	catFR1	0	R1236J
1022.67	10.428	1809063	COUNTDOWN_START	n/a	n/a	n/a	n/a	-999	9	[0, 0, 0]	n/a	catFR1	0	R1236J
1033.098	0.006	1819491	COUNTDOWN_END	n/a	n/a	n/a	n/a	-999	9	[0, 0, 0]	n/a	catFR1	0	R1236J
1033.104	1.616	1819497	ORIENT	n/a	n/a	n/a	n/a	-999	9	[0, 0, 0]	n/a	catFR1	0	R1236J
1034.72	1.934	1821113	ORIENT_OFF	n/a	n/a	n/a	n/a	-999	9	[0, 0, 0]	n/a	catFR1	0	R1236J
1036.654	1.618	1823047	WORD	n/a	wordpools/wordpool_categorized_EN.txt	BATHROOM	Building	1	9	[0, 0, 0]	n/a	catFR1	0	R1236J
1038.272	0.817	1824665	WORD_OFF	n/a	n/a	BATHROOM	n/a	1	9	[0, 0, 0]	n/a	catFR1	0	R1236J
1039.089	1.615	1825482	WORD	n/a	wordpools/wordpool_categorized_EN.txt	WALL	Building	2	9	[0, 0, 0]	n/a	catFR1	0	R1236J
1040.704	0.867	1827097	WORD_OFF	n/a	n/a	WALL	n/a	2	9	[0, 0, 0]	n/a	catFR1	0	R1236J
1041.571	1.618	1827964	WORD	n/a	wordpools/wordpool_categorized_EN.txt	PHONE	Electronics	3	9	[0, 0, 0]	n/a	catFR1	0	R1236J
1043.189	0.95	1829582	WORD_OFF	n/a	n/a	PHONE	n/a	3	9	[0, 0, 0]	n/a	catFR1	0	R1236J
1044.139	1.616	1830532	WORD	n/a	wordpools/wordpool_categorized_EN.txt	MICROWAVE	Electronics	4	9	[0, 0, 0]	n/a	catFR1	0	R1236J
1045.755	0.95	1832148	WORD_OFF	n/a	n/a	MICROWAVE	n/a	4	9	[0, 0, 0]	n/a	catFR1	0	R1236J
1046.705	1.617	1833098	WORD	n/a	wordpools/wordpool_categorized_EN.txt	ORCHID	Flowers	5	9	[0, 0, 0]	n/a	catFR1	0	R1236J
1048.322	0.785	1834715	WORD_OFF	n/a	n/a	ORCHID	n/a	5	9	[0, 0, 0]	n/a	catFR1	0	R1236J
1049.107	1.615	1835500	WORD	n/a	wordpools/wordpool_categorized_EN.txt	LILAC	Flowers	6	9	[0, 0, 0]	n/a	catFR1	0	R1236J
1050.722	0.85	1837115	WORD_OFF	n/a	n/a	LILAC	n/a	6	9	[0, 0, 0]	n/a	catFR1	0	R1236J
1051.572	1.618	1837965	WORD	n/a	wordpools/wordpool_categorized_EN.txt	CEILING	Building	7	9	[0, 0, 0]	n/a	catFR1	0	R1236J
1053.19	0.884	1839583	WORD_OFF	n/a	n/a	CEILING	n/a	7	9	[0, 0, 0]	n/a	catFR1	0	R1236J
1054.074	1.616	1840467	WORD	n/a	wordpools/wordpool_categorized_EN.txt	ROOM	Building	8	9	[0, 0, 0]	n/a	catFR1	0	R1236J
1055.69	0.9	1842083	WORD_OFF	n/a	n/a	ROOM	n/a	8	9	[0, 0, 0]	n/a	catFR1	0	R1236J
1056.59	1.618	1842983	WORD	n/a	wordpools/wordpool_categorized_EN.txt	SPEAKER	Electronics	9	9	[0, 0, 0]	n/a	catFR1	0	R1236J
1058.208	0.95	1844601	WORD_OFF	n/a	n/a	SPEAKER	n/a	9	9	[0, 0, 0]	n/a	catFR1	0	R1236J
1059.158	1.615	1845551	WORD	n/a	wordpools/wordpool_categorized_EN.txt	SCANNER	Electronics	10	9	[0, 0, 0]	n/a	catFR1	0	R1236J
1060.773	0.934	1847166	WORD_OFF	n/a	n/a	SCANNER	n/a	10	9	[0, 0, 0]	n/a	catFR1	0	R1236J
1061.707	1.617	1848100	WORD	n/a	wordpools/wordpool_categorized_EN.txt	PETUNIA	Flowers	11	9	[0, 0, 0]	n/a	catFR1	0	R1236J
1063.324	0.834	1849717	WORD_OFF	n/a	n/a	PETUNIA	n/a	11	9	[0, 0, 0]	n/a	catFR1	0	R1236J
1064.158	1.616	1850551	WORD	n/a	wordpools/wordpool_categorized_EN.txt	DAISY	Flowers	12	9	[0, 0, 0]	n/a	catFR1	0	R1236J
1065.774	0.001	1852167	WORD_OFF	n/a	n/a	DAISY	n/a	12	9	[0, 0, 0]	n/a	catFR1	0	R1236J
1065.775	0.128	1852168	ENCODING_END	n/a	n/a	n/a	n/a	-999	9	[0, 0, 0]	n/a	catFR1	0	R1236J
1065.903	0.0	1852296	DISTRACT_START	n/a	n/a	n/a	n/a	-999	9	[0, 0, 0]	n/a	catFR1	0	R1236J
1065.903	0.021	1852296	START	n/a	n/a	n/a	n/a	-999	9	[-999, -999, -999]	n/a	catFR1	0	R1236J
1065.924	3.668	1852317	PROB	3.668	n/a	n/a	n/a	-999	9	[3, 8, 2]	13	catFR1	0	R1236J
1069.592	3.434	1855985	PROB	3.434	n/a	n/a	n/a	-999	9	[6, 5, 1]	12	catFR1	0	R1236J
1073.026	5.467	1859419	PROB	5.467	n/a	n/a	n/a	-999	9	[7, 5, 8]	20	catFR1	0	R1236J
1078.493	3.967	1864886	PROB	3.967	n/a	n/a	n/a	-999	9	[4, 5, 5]	14	catFR1	0	R1236J
1082.46	3.15	1868853	PROB	3.15	n/a	n/a	n/a	-999	9	[3, 6, 6]	15	catFR1	0	R1236J
1085.61	3.183	1872003	PROB	3.183	n/a	n/a	n/a	-999	9	[4, 4, 2]	10	catFR1	0	R1236J
1088.793	0.018	1875186	STOP	n/a	n/a	n/a	n/a	-999	9	[-999, -999, -999]	n/a	catFR1	0	R1236J
1088.811	0.7	1875204	DISTRACT_END	n/a	n/a	n/a	n/a	-999	9	[0, 0, 0]	n/a	catFR1	0	R1236J
1089.511	0.519	1875904	RETRIEVAL_ORIENT	n/a	n/a	n/a	n/a	-999	9	[0, 0, 0]	n/a	catFR1	0	R1236J
1090.03	1.671	1876423	REC_START	n/a	n/a	n/a	n/a	-999	9	[0, 0, 0]	n/a	catFR1	0	R1236J
1091.701	1.032	1878094	REC_WORD	1.032	n/a	ORCHID	Flowers	5	9	[0, 0, 0]	n/a	catFR1	0	R1236J
1092.733	5.254	1879126	REC_WORD	5.254	n/a	LILAC	Flowers	6	9	[0, 0, 0]	n/a	catFR1	0	R1236J
1097.987	1.298	1884380	REC_WORD	1.298	n/a	WALL	Building	2	9	[0, 0, 0]	n/a	catFR1	0	R1236J
1099.285	1.89	1885678	REC_WORD	1.89	n/a	ROOM	Building	8	9	[0, 0, 0]	n/a	catFR1	0	R1236J
1101.175	1.774	1887568	REC_WORD	1.774	n/a	BATHROOM	Building	1	9	[0, 0, 0]	n/a	catFR1	0	R1236J
1102.949	1.871	1889342	REC_WORD	1.871	n/a	MICROWAVE	Electronics	4	9	[0, 0, 0]	n/a	catFR1	0	R1236J
1104.82	5.786	1891213	REC_WORD	5.786	n/a	SCANNER	Electronics	10	9	[0, 0, 0]	n/a	catFR1	0	R1236J
1110.606	9.434	1896999	REC_WORD	9.434	n/a	PHONE	Electronics	3	9	[0, 0, 0]	n/a	catFR1	0	R1236J
1120.04	5.077	1906433	REC_END	n/a	n/a	n/a	n/a	-999	9	[0, 0, 0]	n/a	catFR1	0	R1236J
1125.117	0.5	1911510	TRIAL	n/a	n/a	n/a	n/a	-999	10	[0, 0, 0]	n/a	catFR1	0	R1236J
1125.617	10.428	1912010	COUNTDOWN_START	n/a	n/a	n/a	n/a	-999	10	[0, 0, 0]	n/a	catFR1	0	R1236J
1136.045	0.006	1922438	COUNTDOWN_END	n/a	n/a	n/a	n/a	-999	10	[0, 0, 0]	n/a	catFR1	0	R1236J
1136.051	1.616	1922444	ORIENT	n/a	n/a	n/a	n/a	-999	10	[0, 0, 0]	n/a	catFR1	0	R1236J
1137.667	1.984	1924060	ORIENT_OFF	n/a	n/a	n/a	n/a	-999	10	[0, 0, 0]	n/a	catFR1	0	R1236J
1139.651	1.618	1926044	WORD	n/a	wordpools/wordpool_categorized_EN.txt	CALF	FarmAnimals	1	10	[0, 0, 0]	n/a	catFR1	0	R1236J
1141.269	0.783	1927662	WORD_OFF	n/a	n/a	CALF	n/a	1	10	[0, 0, 0]	n/a	catFR1	0	R1236J
1142.052	1.616	1928445	WORD	n/a	wordpools/wordpool_categorized_EN.txt	PIG	FarmAnimals	2	10	[0, 0, 0]	n/a	catFR1	0	R1236J
1143.668	0.967	1930061	WORD_OFF	n/a	n/a	PIG	n/a	2	10	[0, 0, 0]	n/a	catFR1	0	R1236J
1144.635	1.618	1931028	WORD	n/a	wordpools/wordpool_categorized_EN.txt	BLUEBERRY	Fruit	3	10	[0, 0, 0]	n/a	catFR1	0	R1236J
1146.253	0.934	1932646	WORD_OFF	n/a	n/a	BLUEBERRY	n/a	3	10	[0, 0, 0]	n/a	catFR1	0	R1236J
1147.187	1.615	1933580	WORD	n/a	wordpools/wordpool_categorized_EN.txt	PEACH	Fruit	4	10	[0, 0, 0]	n/a	catFR1	0	R1236J
1148.802	0.834	1935195	WORD_OFF	n/a	n/a	PEACH	n/a	4	10	[0, 0, 0]	n/a	catFR1	0	R1236J
1149.636	1.617	1936029	WORD	n/a	wordpools/wordpool_categorized_EN.txt	CAKE	Desserts	5	10	[0, 0, 0]	n/a	catFR1	0	R1236J
1151.253	0.967	1937646	WORD_OFF	n/a	n/a	CAKE	n/a	5	10	[0, 0, 0]	n/a	catFR1	0	R1236J
1152.22	1.616	1938613	WORD	n/a	wordpools/wordpool_categorized_EN.txt	MOUSSE	Desserts	6	10	[0, 0, 0]	n/a	catFR1	0	R1236J
1153.836	0.917	1940229	WORD_OFF	n/a	n/a	MOUSSE	n/a	6	10	[0, 0, 0]	n/a	catFR1	0	R1236J
1154.753	1.617	1941146	WORD	n/a	wordpools/wordpool_categorized_EN.txt	PEAR	Fruit	7	10	[0, 0, 0]	n/a	catFR1	0	R1236J
1156.37	0.917	1942763	WORD_OFF	n/a	n/a	PEAR	n/a	7	10	[0, 0, 0]	n/a	catFR1	0	R1236J
1157.287	1.617	1943680	WORD	n/a	wordpools/wordpool_categorized_EN.txt	ORANGE	Fruit	8	10	[0, 0, 0]	n/a	catFR1	0	R1236J
1158.904	0.767	1945297	WORD_OFF	n/a	n/a	ORANGE	n/a	8	10	[0, 0, 0]	n/a	catFR1	0	R1236J
1159.671	1.616	1946064	WORD	n/a	wordpools/wordpool_categorized_EN.txt	HORSE	FarmAnimals	9	10	[0, 0, 0]	n/a	catFR1	0	R1236J
1161.287	1.0	1947680	WORD_OFF	n/a	n/a	HORSE	n/a	9	10	[0, 0, 0]	n/a	catFR1	0	R1236J
1162.287	1.617	1948680	WORD	n/a	wordpools/wordpool_categorized_EN.txt	TURKEY	FarmAnimals	10	10	[0, 0, 0]	n/a	catFR1	0	R1236J
1163.904	1.017	1950297	WORD_OFF	n/a	n/a	TURKEY	n/a	10	10	[0, 0, 0]	n/a	catFR1	0	R1236J
1164.921	1.617	1951314	WORD	n/a	wordpools/wordpool_categorized_EN.txt	PIE	Desserts	11	10	[0, 0, 0]	n/a	catFR1	0	R1236J
1166.538	0.85	1952931	WORD_OFF	n/a	n/a	PIE	n/a	11	10	[0, 0, 0]	n/a	catFR1	0	R1236J
1167.388	1.618	1953781	WORD	n/a	wordpools/wordpool_categorized_EN.txt	FUDGE	Desserts	12	10	[0, 0, 0]	n/a	catFR1	0	R1236J
1169.006	0.0	1955399	ENCODING_END	n/a	n/a	n/a	n/a	-999	10	[0, 0, 0]	n/a	catFR1	0	R1236J
1169.006	0.099	1955399	WORD_OFF	n/a	n/a	FUDGE	n/a	12	10	[0, 0, 0]	n/a	catFR1	0	R1236J
1169.105	0.0	1955498	DISTRACT_START	n/a	n/a	n/a	n/a	-999	10	[0, 0, 0]	n/a	catFR1	0	R1236J
1169.105	0.018	1955498	START	n/a	n/a	n/a	n/a	-999	10	[-999, -999, -999]	n/a	catFR1	0	R1236J
1169.123	3.399	1955516	PROB	3.399	n/a	n/a	n/a	-999	10	[9, 9, 5]	23	catFR1	0	R1236J
1172.522	6.168	1958915	PROB	6.168	n/a	n/a	n/a	-999	10	[9, 3, 4]	16	catFR1	0	R1236J
1178.69	10.385	1965083	PROB	10.385	n/a	n/a	n/a	-999	10	[5, 9, 5]	19	catFR1	0	R1236J
1189.075	4.163	1975468	PROB	4.163	n/a	n/a	n/a	-999	10	[3, 5, 1]	9	catFR1	0	R1236J
1193.238	0.021	1979631	STOP	n/a	n/a	n/a	n/a	-999	10	[-999, -999, -999]	n/a	catFR1	0	R1236J
1193.259	0.566	1979652	DISTRACT_END	n/a	n/a	n/a	n/a	-999	10	[0, 0, 0]	n/a	catFR1	0	R1236J
1193.825	0.517	1980218	RETRIEVAL_ORIENT	n/a	n/a	n/a	n/a	-999	10	[0, 0, 0]	n/a	catFR1	0	R1236J
1194.342	1.321	1980735	REC_START	n/a	n/a	n/a	n/a	-999	10	[0, 0, 0]	n/a	catFR1	0	R1236J
1195.663	13.748	1982056	REC_WORD	13.748	n/a	TURKEY	FarmAnimals	10	10	[0, 0, 0]	n/a	catFR1	0	R1236J
1209.411	8.138	1995804	REC_WORD	8.138	n/a	ORANGE	Fruit	8	10	[0, 0, 0]	n/a	catFR1	0	R1236J
1217.549	5.759	2003941	REC_WORD	5.759	n/a	CALF	FarmAnimals	1	10	[0, 0, 0]	n/a	catFR1	0	R1236J
1223.308	1.043	2009700	REC_WORD	1.043	n/a	HORSE	FarmAnimals	9	10	[0, 0, 0]	n/a	catFR1	0	R1236J
1224.351	4.379	2010743	REC_END	n/a	n/a	n/a	n/a	-999	10	[0, 0, 0]	n/a	catFR1	0	R1236J
1228.73	0.5	2015122	TRIAL	n/a	n/a	n/a	n/a	-999	11	[0, 0, 0]	n/a	catFR1	0	R1236J
1229.23	10.428	2015622	COUNTDOWN_START	n/a	n/a	n/a	n/a	-999	11	[0, 0, 0]	n/a	catFR1	0	R1236J
1239.658	0.007	2026050	COUNTDOWN_END	n/a	n/a	n/a	n/a	-999	11	[0, 0, 0]	n/a	catFR1	0	R1236J
1239.665	1.616	2026057	ORIENT	n/a	n/a	n/a	n/a	-999	11	[0, 0, 0]	n/a	catFR1	0	R1236J
1241.281	1.934	2027673	ORIENT_OFF	n/a	n/a	n/a	n/a	-999	11	[0, 0, 0]	n/a	catFR1	0	R1236J
1243.215	1.617	2029607	WORD	n/a	wordpools/wordpool_categorized_EN.txt	PLANKTON	OceanAnimals	1	11	[0, 0, 0]	n/a	catFR1	0	R1236J
1244.832	0.866	2031224	WORD_OFF	n/a	n/a	PLANKTON	n/a	1	11	[0, 0, 0]	n/a	catFR1	0	R1236J
1245.698	1.617	2032090	WORD	n/a	wordpools/wordpool_categorized_EN.txt	SHRIMP	OceanAnimals	2	11	[0, 0, 0]	n/a	catFR1	0	R1236J
1247.315	0.902	2033707	WORD_OFF	n/a	n/a	SHRIMP	n/a	2	11	[0, 0, 0]	n/a	catFR1	0	R1236J
1248.217	1.615	2034609	WORD	n/a	wordpools/wordpool_categorized_EN.txt	RAIN	Weather	3	11	[0, 0, 0]	n/a	catFR1	0	R1236J
1249.832	0.784	2036224	WORD_OFF	n/a	n/a	RAIN	n/a	3	11	[0, 0, 0]	n/a	catFR1	0	R1236J
1250.616	1.617	2037008	WORD	n/a	wordpools/wordpool_categorized_EN.txt	CLOUD	Weather	4	11	[0, 0, 0]	n/a	catFR1	0	R1236J
1252.233	1.001	2038625	WORD_OFF	n/a	n/a	CLOUD	n/a	4	11	[0, 0, 0]	n/a	catFR1	0	R1236J
1253.234	1.616	2039626	WORD	n/a	wordpools/wordpool_categorized_EN.txt	VIOLET	Flowers	5	11	[0, 0, 0]	n/a	catFR1	0	R1236J
1254.85	0.816	2041242	WORD_OFF	n/a	n/a	VIOLET	n/a	5	11	[0, 0, 0]	n/a	catFR1	0	R1236J
1255.666	1.601	2042058	WORD	n/a	wordpools/wordpool_categorized_EN.txt	CARNATION	Flowers	6	11	[0, 0, 0]	n/a	catFR1	0	R1236J
1257.267	0.884	2043659	WORD_OFF	n/a	n/a	CARNATION	n/a	6	11	[0, 0, 0]	n/a	catFR1	0	R1236J
1258.151	1.616	2044543	WORD	n/a	wordpools/wordpool_categorized_EN.txt	THUNDERSTORM	Weather	7	11	[0, 0, 0]	n/a	catFR1	0	R1236J
1259.767	0.783	2046159	WORD_OFF	n/a	n/a	THUNDERSTORM	n/a	7	11	[0, 0, 0]	n/a	catFR1	0	R1236J
1260.55	1.618	2046942	WORD	n/a	wordpools/wordpool_categorized_EN.txt	SNOW	Weather	8	11	[0, 0, 0]	n/a	catFR1	0	R1236J
1262.168	0.783	2048560	WORD_OFF	n/a	n/a	SNOW	n/a	8	11	[0, 0, 0]	n/a	catFR1	0	R1236J
1262.951	1.617	2049343	WORD	n/a	wordpools/wordpool_categorized_EN.txt	DOLPHIN	OceanAnimals	9	11	[0, 0, 0]	n/a	catFR1	0	R1236J
1264.568	0.95	2050960	WORD_OFF	n/a	n/a	DOLPHIN	n/a	9	11	[0, 0, 0]	n/a	catFR1	0	R1236J
1265.518	1.601	2051910	WORD	n/a	wordpools/wordpool_categorized_EN.txt	JELLYFISH	OceanAnimals	10	11	[0, 0, 0]	n/a	catFR1	0	R1236J
1267.119	0.917	2053511	WORD_OFF	n/a	n/a	JELLYFISH	n/a	10	11	[0, 0, 0]	n/a	catFR1	0	R1236J
1268.036	1.616	2054428	WORD	n/a	wordpools/wordpool_categorized_EN.txt	SUNFLOWER	Flowers	11	11	[0, 0, 0]	n/a	catFR1	0	R1236J
1269.652	0.933	2056044	WORD_OFF	n/a	n/a	SUNFLOWER	n/a	11	11	[0, 0, 0]	n/a	catFR1	0	R1236J
1270.585	1.618	2056977	WORD	n/a	wordpools/wordpool_categorized_EN.txt	TULIP	Flowers	12	11	[0, 0, 0]	n/a	catFR1	0	R1236J
1272.203	0.0	2058595	WORD_OFF	n/a	n/a	TULIP	n/a	12	11	[0, 0, 0]	n/a	catFR1	0	R1236J
1272.203	0.1	2058595	ENCODING_END	n/a	n/a	n/a	n/a	-999	11	[0, 0, 0]	n/a	catFR1	0	R1236J
1272.303	0.001	2058695	DISTRACT_START	n/a	n/a	n/a	n/a	-999	11	[0, 0, 0]	n/a	catFR1	0	R1236J
1272.304	0.015	2058696	START	n/a	n/a	n/a	n/a	-999	11	[-999, -999, -999]	n/a	catFR1	0	R1236J
1272.319	3.55	2058711	PROB	3.55	n/a	n/a	n/a	-999	11	[1, 3, 7]	11	catFR1	0	R1236J
1275.869	3.135	2062261	PROB	3.135	n/a	n/a	n/a	-999	11	[9, 4, 9]	22	catFR1	0	R1236J
1279.004	4.433	2065396	PROB	4.433	n/a	n/a	n/a	-999	11	[8, 7, 3]	18	catFR1	0	R1236J
1283.437	3.134	2069829	PROB	3.134	n/a	n/a	n/a	-999	11	[2, 8, 7]	17	catFR1	0	R1236J
1286.571	7.24	2072963	PROB	7.24	n/a	n/a	n/a	-999	11	[2, 9, 5]	16	catFR1	0	R1236J
1293.811	0.011	2080203	STOP	n/a	n/a	n/a	n/a	-999	11	[-999, -999, -999]	n/a	catFR1	0	R1236J
1293.822	0.6	2080214	DISTRACT_END	n/a	n/a	n/a	n/a	-999	11	[0, 0, 0]	n/a	catFR1	0	R1236J
1294.422	0.517	2080814	RETRIEVAL_ORIENT	n/a	n/a	n/a	n/a	-999	11	[0, 0, 0]	n/a	catFR1	0	R1236J
1294.939	2.256	2081331	REC_START	n/a	n/a	n/a	n/a	-999	11	[0, 0, 0]	n/a	catFR1	0	R1236J
1297.195	1.66	2083587	REC_WORD	1.66	n/a	PLANKTON	OceanAnimals	1	11	[0, 0, 0]	n/a	catFR1	0	R1236J
1298.855	5.081	2085247	REC_WORD	5.081	n/a	SHRIMP	OceanAnimals	2	11	[0, 0, 0]	n/a	catFR1	0	R1236J
1303.936	2.005	2090328	REC_WORD	2.005	n/a	VIOLET	Flowers	5	11	[0, 0, 0]	n/a	catFR1	0	R1236J
1305.941	5.231	2092333	REC_WORD	5.231	n/a	TULIP	Flowers	12	11	[0, 0, 0]	n/a	catFR1	0	R1236J
1311.172	9.076	2097564	REC_WORD	9.076	n/a	SUNFLOWER	Flowers	11	11	[0, 0, 0]	n/a	catFR1	0	R1236J
1320.248	1.0	2106640	REC_WORD	1.0	n/a	SNOW	Weather	8	11	[0, 0, 0]	n/a	catFR1	0	R1236J
1321.248	2.793	2107640	REC_WORD_VV	2.793	n/a	<>	n/a	-999	11	[0, 0, 0]	n/a	catFR1	0	R1236J
1324.041	0.909	2110433	REC_WORD	0.909	n/a	RAIN	Weather	3	11	[0, 0, 0]	n/a	catFR1	0	R1236J
1324.95	5.843	2111342	REC_END	n/a	n/a	n/a	n/a	-999	11	[0, 0, 0]	n/a	catFR1	0	R1236J
1330.793	0.5	2117185	TRIAL	n/a	n/a	n/a	n/a	-999	12	[0, 0, 0]	n/a	catFR1	0	R1236J
1331.293	10.428	2117685	COUNTDOWN_START	n/a	n/a	n/a	n/a	-999	12	[0, 0, 0]	n/a	catFR1	0	R1236J
1341.721	0.007	2128113	COUNTDOWN_END	n/a	n/a	n/a	n/a	-999	12	[0, 0, 0]	n/a	catFR1	0	R1236J
1341.728	1.617	2128120	ORIENT	n/a	n/a	n/a	n/a	-999	12	[0, 0, 0]	n/a	catFR1	0	R1236J
1343.345	2.017	2129737	ORIENT_OFF	n/a	n/a	n/a	n/a	-999	12	[0, 0, 0]	n/a	catFR1	0	R1236J
1345.362	1.618	2131754	WORD	n/a	wordpools/wordpool_categorized_EN.txt	HALLWAY	Building	1	12	[0, 0, 0]	n/a	catFR1	0	R1236J
1346.98	0.882	2133372	WORD_OFF	n/a	n/a	HALLWAY	n/a	1	12	[0, 0, 0]	n/a	catFR1	0	R1236J
1347.862	1.617	2134254	WORD	n/a	wordpools/wordpool_categorized_EN.txt	DOOR	Building	2	12	[0, 0, 0]	n/a	catFR1	0	R1236J
1349.479	0.768	2135871	WORD_OFF	n/a	n/a	DOOR	n/a	2	12	[0, 0, 0]	n/a	catFR1	0	R1236J
1350.247	1.616	2136639	WORD	n/a	wordpools/wordpool_categorized_EN.txt	EVERGREEN	Trees	3	12	[0, 0, 0]	n/a	catFR1	0	R1236J
1351.863	0.833	2138255	WORD_OFF	n/a	n/a	EVERGREEN	n/a	3	12	[0, 0, 0]	n/a	catFR1	0	R1236J
1352.696	1.617	2139088	WORD	n/a	wordpools/wordpool_categorized_EN.txt	PINE	Trees	4	12	[0, 0, 0]	n/a	catFR1	0	R1236J
1354.313	0.935	2140705	WORD_OFF	n/a	n/a	PINE	n/a	4	12	[0, 0, 0]	n/a	catFR1	0	R1236J
1355.248	1.615	2141640	WORD	n/a	wordpools/wordpool_categorized_EN.txt	BLUEBIRD	Birds	5	12	[0, 0, 0]	n/a	catFR1	0	R1236J
1356.863	0.884	2143255	WORD_OFF	n/a	n/a	BLUEBIRD	n/a	5	12	[0, 0, 0]	n/a	catFR1	0	R1236J
1357.747	1.617	2144139	WORD	n/a	wordpools/wordpool_categorized_EN.txt	DUCK	Birds	6	12	[0, 0, 0]	n/a	catFR1	0	R1236J
1359.364	0.851	2145756	WORD_OFF	n/a	n/a	DUCK	n/a	6	12	[0, 0, 0]	n/a	catFR1	0	R1236J
1360.215	1.616	2146607	WORD	n/a	wordpools/wordpool_categorized_EN.txt	FLOOR	Building	7	12	[0, 0, 0]	n/a	catFR1	0	R1236J
1361.831	0.833	2148223	WORD_OFF	n/a	n/a	FLOOR	n/a	7	12	[0, 0, 0]	n/a	catFR1	0	R1236J
1362.664	1.617	2149056	WORD	n/a	wordpools/wordpool_categorized_EN.txt	FOUNDATION	Building	8	12	[0, 0, 0]	n/a	catFR1	0	R1236J
1364.281	0.951	2150673	WORD_OFF	n/a	n/a	FOUNDATION	n/a	8	12	[0, 0, 0]	n/a	catFR1	0	R1236J
1365.232	1.616	2151624	WORD	n/a	wordpools/wordpool_categorized_EN.txt	WALNUT	Trees	9	12	[0, 0, 0]	n/a	catFR1	0	R1236J
1366.848	0.917	2153240	WORD_OFF	n/a	n/a	WALNUT	n/a	9	12	[0, 0, 0]	n/a	catFR1	0	R1236J
1367.765	1.617	2154157	WORD	n/a	wordpools/wordpool_categorized_EN.txt	HICKORY	Trees	10	12	[0, 0, 0]	n/a	catFR1	0	R1236J
1369.382	1.016	2155774	WORD_OFF	n/a	n/a	HICKORY	n/a	10	12	[0, 0, 0]	n/a	catFR1	0	R1236J
1370.398	1.618	2156790	WORD	n/a	wordpools/wordpool_categorized_EN.txt	PIGEON	Birds	11	12	[0, 0, 0]	n/a	catFR1	0	R1236J
1372.016	0.866	2158408	WORD_OFF	n/a	n/a	PIGEON	n/a	11	12	[0, 0, 0]	n/a	catFR1	0	R1236J
1372.882	1.617	2159274	WORD	n/a	wordpools/wordpool_categorized_EN.txt	SEAGULL	Birds	12	12	[0, 0, 0]	n/a	catFR1	0	R1236J
1374.499	0.0	2160891	ENCODING_END	n/a	n/a	n/a	n/a	-999	12	[0, 0, 0]	n/a	catFR1	0	R1236J
1374.499	0.125	2160891	WORD_OFF	n/a	n/a	SEAGULL	n/a	12	12	[0, 0, 0]	n/a	catFR1	0	R1236J
1374.624	0.0	2161016	DISTRACT_START	n/a	n/a	n/a	n/a	-999	12	[0, 0, 0]	n/a	catFR1	0	R1236J
1374.624	0.008	2161016	START	n/a	n/a	n/a	n/a	-999	12	[-999, -999, -999]	n/a	catFR1	0	R1236J
1374.632	4.968	2161024	PROB	4.968	n/a	n/a	n/a	-999	12	[9, 7, 8]	23	catFR1	0	R1236J
1379.6	3.535	2165992	PROB	3.535	n/a	n/a	n/a	-999	12	[8, 3, 7]	18	catFR1	0	R1236J
1383.135	4.0	2169527	PROB	4.0	n/a	n/a	n/a	-999	12	[5, 3, 8]	16	catFR1	0	R1236J
1387.135	3.483	2173527	PROB	3.483	n/a	n/a	n/a	-999	12	[8, 3, 1]	12	catFR1	0	R1236J
1390.618	8.109	2177010	PROB	8.109	n/a	n/a	n/a	-999	12	[8, 4, 7]	19	catFR1	0	R1236J
1398.727	0.009	2185119	STOP	n/a	n/a	n/a	n/a	-999	12	[-999, -999, -999]	n/a	catFR1	0	R1236J
1398.736	0.518	2185128	DISTRACT_END	n/a	n/a	n/a	n/a	-999	12	[0, 0, 0]	n/a	catFR1	0	R1236J
1399.254	0.516	2185646	RETRIEVAL_ORIENT	n/a	n/a	n/a	n/a	-999	12	[0, 0, 0]	n/a	catFR1	0	R1236J
1399.77	3.022	2186162	REC_START	n/a	n/a	n/a	n/a	-999	12	[0, 0, 0]	n/a	catFR1	0	R1236J
1402.792	0.496	2189184	REC_WORD_VV	0.496	n/a	<>	n/a	-999	12	[0, 0, 0]	n/a	catFR1	0	R1236J
1403.288	1.135	2189680	REC_WORD	1.135	n/a	PINE	Trees	4	12	[0, 0, 0]	n/a	catFR1	0	R1236J
1404.423	5.38	2190815	REC_WORD	5.38	n/a	EVERGREEN	Trees	3	12	[0, 0, 0]	n/a	catFR1	0	R1236J
1409.803	1.826	2196195	REC_WORD	1.826	n/a	FOUNDATION	Building	8	12	[0, 0, 0]	n/a	catFR1	0	R1236J
1411.629	1.547	2198021	REC_WORD	1.547	n/a	FLOOR	Building	7	12	[0, 0, 0]	n/a	catFR1	0	R1236J
1413.176	1.488	2199568	REC_WORD	1.488	n/a	DOOR	Building	2	12	[0, 0, 0]	n/a	catFR1	0	R1236J
1414.664	10.592	2201056	REC_WORD	10.592	n/a	HALLWAY	Building	1	12	[0, 0, 0]	n/a	catFR1	0	R1236J
1425.256	3.301	2211648	REC_WORD	3.301	n/a	SEAGULL	Birds	12	12	[0, 0, 0]	n/a	catFR1	0	R1236J
1428.557	1.221	2214949	REC_WORD	1.221	n/a	PIGEON	Birds	11	12	[0, 0, 0]	n/a	catFR1	0	R1236J
1429.778	5.179	2216170	REC_END	n/a	n/a	n/a	n/a	-999	12	[0, 0, 0]	n/a	catFR1	0	R1236J
1434.957	0.5	2221349	TRIAL	n/a	n/a	n/a	n/a	-999	13	[0, 0, 0]	n/a	catFR1	0	R1236J
1435.457	10.428	2221849	COUNTDOWN_START	n/a	n/a	n/a	n/a	-999	13	[0, 0, 0]	n/a	catFR1	0	R1236J
1445.885	0.007	2232277	COUNTDOWN_END	n/a	n/a	n/a	n/a	-999	13	[0, 0, 0]	n/a	catFR1	0	R1236J
1445.892	1.617	2232284	ORIENT	n/a	n/a	n/a	n/a	-999	13	[0, 0, 0]	n/a	catFR1	0	R1236J
1447.509	1.934	2233901	ORIENT_OFF	n/a	n/a	n/a	n/a	-999	13	[0, 0, 0]	n/a	catFR1	0	R1236J
1449.443	1.617	2235835	WORD	n/a	wordpools/wordpool_categorized_EN.txt	BALL	Toys	1	13	[0, 0, 0]	n/a	catFR1	0	R1236J
1451.06	0.934	2237452	WORD_OFF	n/a	n/a	BALL	n/a	1	13	[0, 0, 0]	n/a	catFR1	0	R1236J
1451.994	1.616	2238386	WORD	n/a	wordpools/wordpool_categorized_EN.txt	BASEBALL	Toys	2	13	[0, 0, 0]	n/a	catFR1	0	R1236J
1453.61	0.883	2240002	WORD_OFF	n/a	n/a	BASEBALL	n/a	2	13	[0, 0, 0]	n/a	catFR1	0	R1236J
1454.493	1.618	2240885	WORD	n/a	wordpools/wordpool_categorized_EN.txt	BED	Furniture	3	13	[0, 0, 0]	n/a	catFR1	0	R1236J
1456.111	0.782	2242503	WORD_OFF	n/a	n/a	BED	n/a	3	13	[0, 0, 0]	n/a	catFR1	0	R1236J
1456.893	1.618	2243284	WORD	n/a	wordpools/wordpool_categorized_EN.txt	DRESSER	Furniture	4	13	[0, 0, 0]	n/a	catFR1	0	R1236J
1458.511	0.9	2244902	WORD_OFF	n/a	n/a	DRESSER	n/a	4	13	[0, 0, 0]	n/a	catFR1	0	R1236J
1459.411	1.617	2245802	WORD	n/a	wordpools/wordpool_categorized_EN.txt	CORN	Vegetables	5	13	[0, 0, 0]	n/a	catFR1	0	R1236J
1461.028	0.916	2247419	WORD_OFF	n/a	n/a	CORN	n/a	5	13	[0, 0, 0]	n/a	catFR1	0	R1236J
1461.944	1.617	2248335	WORD	n/a	wordpools/wordpool_categorized_EN.txt	CUCUMBER	Vegetables	6	13	[0, 0, 0]	n/a	catFR1	0	R1236J
1463.561	0.8	2249952	WORD_OFF	n/a	n/a	CUCUMBER	n/a	6	13	[0, 0, 0]	n/a	catFR1	0	R1236J
1464.361	1.618	2250752	WORD	n/a	wordpools/wordpool_categorized_EN.txt	RECLINER	Furniture	7	13	[0, 0, 0]	n/a	catFR1	0	R1236J
1465.979	0.983	2252370	WORD_OFF	n/a	n/a	RECLINER	n/a	7	13	[0, 0, 0]	n/a	catFR1	0	R1236J
1466.962	1.617	2253353	WORD	n/a	wordpools/wordpool_categorized_EN.txt	SHELF	Furniture	8	13	[0, 0, 0]	n/a	catFR1	0	R1236J
1468.579	0.983	2254970	WORD_OFF	n/a	n/a	SHELF	n/a	8	13	[0, 0, 0]	n/a	catFR1	0	R1236J
1469.562	1.618	2255953	WORD	n/a	wordpools/wordpool_categorized_EN.txt	MARBLES	Toys	9	13	[0, 0, 0]	n/a	catFR1	0	R1236J
1471.18	0.983	2257571	WORD_OFF	n/a	n/a	MARBLES	n/a	9	13	[0, 0, 0]	n/a	catFR1	0	R1236J
1472.163	1.616	2258554	WORD	n/a	wordpools/wordpool_categorized_EN.txt	BASKETBALL	Toys	10	13	[0, 0, 0]	n/a	catFR1	0	R1236J
1473.779	0.85	2260170	WORD_OFF	n/a	n/a	BASKETBALL	n/a	10	13	[0, 0, 0]	n/a	catFR1	0	R1236J
1474.629	1.618	2261020	WORD	n/a	wordpools/wordpool_categorized_EN.txt	SPINACH	Vegetables	11	13	[0, 0, 0]	n/a	catFR1	0	R1236J
1476.247	0.8	2262638	WORD_OFF	n/a	n/a	SPINACH	n/a	11	13	[0, 0, 0]	n/a	catFR1	0	R1236J
1477.047	1.616	2263438	WORD	n/a	wordpools/wordpool_categorized_EN.txt	ONION	Vegetables	12	13	[0, 0, 0]	n/a	catFR1	0	R1236J
1478.663	0.001	2265054	WORD_OFF	n/a	n/a	ONION	n/a	12	13	[0, 0, 0]	n/a	catFR1	0	R1236J
1478.664	0.098	2265055	ENCODING_END	n/a	n/a	n/a	n/a	-999	13	[0, 0, 0]	n/a	catFR1	0	R1236J
1478.762	0.001	2265153	DISTRACT_START	n/a	n/a	n/a	n/a	-999	13	[0, 0, 0]	n/a	catFR1	0	R1236J
1478.763	0.017	2265154	START	n/a	n/a	n/a	n/a	-999	13	[-999, -999, -999]	n/a	catFR1	0	R1236J
1478.78	4.385	2265171	PROB	4.385	n/a	n/a	n/a	-999	13	[3, 2, 4]	9	catFR1	0	R1236J
1483.165	2.95	2269556	PROB	2.95	n/a	n/a	n/a	-999	13	[1, 4, 3]	8	catFR1	0	R1236J
1486.115	3.166	2272506	PROB	3.166	n/a	n/a	n/a	-999	13	[3, 9, 1]	13	catFR1	0	R1236J
1489.281	2.2	2275672	PROB	2.2	n/a	n/a	n/a	-999	13	[5, 5, 1]	11	catFR1	0	R1236J
1491.481	2.967	2277872	PROB	2.967	n/a	n/a	n/a	-999	13	[1, 3, 8]	12	catFR1	0	R1236J
1494.448	3.735	2280839	PROB	3.735	n/a	n/a	n/a	-999	13	[2, 4, 7]	13	catFR1	0	R1236J
1498.183	3.132	2284574	PROB	3.132	n/a	n/a	n/a	-999	13	[2, 3, 8]	13	catFR1	0	R1236J
1501.315	0.018	2287706	STOP	n/a	n/a	n/a	n/a	-999	13	[-999, -999, -999]	n/a	catFR1	0	R1236J
1501.333	0.651	2287724	DISTRACT_END	n/a	n/a	n/a	n/a	-999	13	[0, 0, 0]	n/a	catFR1	0	R1236J
1501.984	0.517	2288375	RETRIEVAL_ORIENT	n/a	n/a	n/a	n/a	-999	13	[0, 0, 0]	n/a	catFR1	0	R1236J
1502.501	1.901	2288892	REC_START	n/a	n/a	n/a	n/a	-999	13	[0, 0, 0]	n/a	catFR1	0	R1236J
1504.402	1.92	2290793	REC_WORD	1.92	n/a	BASEBALL	Toys	2	13	[0, 0, 0]	n/a	catFR1	0	R1236J
1506.322	1.123	2292713	REC_WORD	1.123	n/a	BALL	Toys	1	13	[0, 0, 0]	n/a	catFR1	0	R1236J
1507.445	14.983	2293836	REC_WORD	14.983	n/a	BASKETBALL	Toys	10	13	[0, 0, 0]	n/a	catFR1	0	R1236J
1522.428	5.148	2308819	REC_WORD	5.148	n/a	SHELF	Furniture	8	13	[0, 0, 0]	n/a	catFR1	0	R1236J
1527.576	4.936	2313967	REC_WORD	4.936	n/a	BOOKCASE	n/a	-999	13	[0, 0, 0]	n/a	catFR1	0	R1236J
1532.512	4.593	2318903	REC_END	n/a	n/a	n/a	n/a	-999	13	[0, 0, 0]	n/a	catFR1	0	R1236J
1537.105	0.5	2323496	TRIAL	n/a	n/a	n/a	n/a	-999	14	[0, 0, 0]	n/a	catFR1	0	R1236J
1537.605	10.428	2323996	COUNTDOWN_START	n/a	n/a	n/a	n/a	-999	14	[0, 0, 0]	n/a	catFR1	0	R1236J
1548.033	0.007	2334424	COUNTDOWN_END	n/a	n/a	n/a	n/a	-999	14	[0, 0, 0]	n/a	catFR1	0	R1236J
1548.04	1.616	2334431	ORIENT	n/a	n/a	n/a	n/a	-999	14	[0, 0, 0]	n/a	catFR1	0	R1236J
1549.656	1.883	2336047	ORIENT_OFF	n/a	n/a	n/a	n/a	-999	14	[0, 0, 0]	n/a	catFR1	0	R1236J
1551.539	1.601	2337930	WORD	n/a	wordpools/wordpool_categorized_EN.txt	MOTORCYCLE	Vehicles	1	14	[0, 0, 0]	n/a	catFR1	0	R1236J
1553.14	0.867	2339531	WORD_OFF	n/a	n/a	MOTORCYCLE	n/a	1	14	[0, 0, 0]	n/a	catFR1	0	R1236J
1554.007	1.616	2340398	WORD	n/a	wordpools/wordpool_categorized_EN.txt	SCOOTER	Vehicles	2	14	[0, 0, 0]	n/a	catFR1	0	R1236J
1555.623	0.851	2342014	WORD_OFF	n/a	n/a	SCOOTER	n/a	2	14	[0, 0, 0]	n/a	catFR1	0	R1236J
1556.474	1.617	2342865	WORD	n/a	wordpools/wordpool_categorized_EN.txt	CAULIFLOWER	Vegetables	3	14	[0, 0, 0]	n/a	catFR1	0	R1236J
1558.091	0.766	2344482	WORD_OFF	n/a	n/a	CAULIFLOWER	n/a	3	14	[0, 0, 0]	n/a	catFR1	0	R1236J
1558.857	1.617	2345248	WORD	n/a	wordpools/wordpool_categorized_EN.txt	PEAS	Vegetables	4	14	[0, 0, 0]	n/a	catFR1	0	R1236J
1560.474	0.834	2346865	WORD_OFF	n/a	n/a	PEAS	n/a	4	14	[0, 0, 0]	n/a	catFR1	0	R1236J
1561.308	1.617	2347699	WORD	n/a	wordpools/wordpool_categorized_EN.txt	SOCKS	Clothing	5	14	[0, 0, 0]	n/a	catFR1	0	R1236J
1562.925	0.799	2349316	WORD_OFF	n/a	n/a	SOCKS	n/a	5	14	[0, 0, 0]	n/a	catFR1	0	R1236J
1563.724	1.601	2350115	WORD	n/a	wordpools/wordpool_categorized_EN.txt	DRESS	Clothing	6	14	[0, 0, 0]	n/a	catFR1	0	R1236J
1565.325	0.984	2351716	WORD_OFF	n/a	n/a	DRESS	n/a	6	14	[0, 0, 0]	n/a	catFR1	0	R1236J
1566.309	1.616	2352700	WORD	n/a	wordpools/wordpool_categorized_EN.txt	TRUCK	Vehicles	7	14	[0, 0, 0]	n/a	catFR1	0	R1236J
1567.925	0.984	2354316	WORD_OFF	n/a	n/a	TRUCK	n/a	7	14	[0, 0, 0]	n/a	catFR1	0	R1236J
1568.909	1.616	2355300	WORD	n/a	wordpools/wordpool_categorized_EN.txt	CAR	Vehicles	8	14	[0, 0, 0]	n/a	catFR1	0	R1236J
1570.525	0.917	2356916	WORD_OFF	n/a	n/a	CAR	n/a	8	14	[0, 0, 0]	n/a	catFR1	0	R1236J
1571.442	1.618	2357833	WORD	n/a	wordpools/wordpool_categorized_EN.txt	BROCCOLI	Vegetables	9	14	[0, 0, 0]	n/a	catFR1	0	R1236J
1573.06	0.916	2359451	WORD_OFF	n/a	n/a	BROCCOLI	n/a	9	14	[0, 0, 0]	n/a	catFR1	0	R1236J
1573.976	1.617	2360367	WORD	n/a	wordpools/wordpool_categorized_EN.txt	CARROT	Vegetables	10	14	[0, 0, 0]	n/a	catFR1	0	R1236J
1575.593	0.883	2361984	WORD_OFF	n/a	n/a	CARROT	n/a	10	14	[0, 0, 0]	n/a	catFR1	0	R1236J
1576.476	1.601	2362867	WORD	n/a	wordpools/wordpool_categorized_EN.txt	UNDERWEAR	Clothing	11	14	[0, 0, 0]	n/a	catFR1	0	R1236J
1578.077	0.85	2364468	WORD_OFF	n/a	n/a	UNDERWEAR	n/a	11	14	[0, 0, 0]	n/a	catFR1	0	R1236J
1578.927	1.616	2365318	WORD	n/a	wordpools/wordpool_categorized_EN.txt	SHOES	Clothing	12	14	[0, 0, 0]	n/a	catFR1	0	R1236J
1580.543	0.001	2366934	WORD_OFF	n/a	n/a	SHOES	n/a	12	14	[0, 0, 0]	n/a	catFR1	0	R1236J
1580.544	0.098	2366935	ENCODING_END	n/a	n/a	n/a	n/a	-999	14	[0, 0, 0]	n/a	catFR1	0	R1236J
1580.642	0.0	2367033	DISTRACT_START	n/a	n/a	n/a	n/a	-999	14	[0, 0, 0]	n/a	catFR1	0	R1236J
1580.642	0.018	2367033	START	n/a	n/a	n/a	n/a	-999	14	[-999, -999, -999]	n/a	catFR1	0	R1236J
1580.66	4.234	2367051	PROB	4.234	n/a	n/a	n/a	-999	14	[3, 1, 4]	8	catFR1	0	R1236J
1584.894	4.801	2371285	PROB	4.801	n/a	n/a	n/a	-999	14	[8, 3, 9]	20	catFR1	0	R1236J
1589.695	2.617	2376086	PROB	2.617	n/a	n/a	n/a	-999	14	[6, 4, 1]	11	catFR1	0	R1236J
1592.312	3.751	2378703	PROB	3.751	n/a	n/a	n/a	-999	14	[6, 2, 5]	13	catFR1	0	R1236J
1596.063	3.283	2382454	PROB	3.283	n/a	n/a	n/a	-999	14	[9, 2, 9]	20	catFR1	0	R1236J
1599.346	3.309	2385737	PROB	3.309	n/a	n/a	n/a	-999	14	[1, 2, 4]	7	catFR1	0	R1236J
1602.655	0.008	2389046	STOP	n/a	n/a	n/a	n/a	-999	14	[-999, -999, -999]	n/a	catFR1	0	R1236J
1602.663	0.683	2389054	DISTRACT_END	n/a	n/a	n/a	n/a	-999	14	[0, 0, 0]	n/a	catFR1	0	R1236J
1603.346	0.518	2389737	RETRIEVAL_ORIENT	n/a	n/a	n/a	n/a	-999	14	[0, 0, 0]	n/a	catFR1	0	R1236J
1603.864	2.339	2390255	REC_START	n/a	n/a	n/a	n/a	-999	14	[0, 0, 0]	n/a	catFR1	0	R1236J
1606.203	1.356	2392594	REC_WORD_VV	1.356	n/a	<>	n/a	-999	14	[0, 0, 0]	n/a	catFR1	0	R1236J
1607.559	7.351	2393950	REC_WORD	7.351	n/a	DRESS	Clothing	6	14	[0, 0, 0]	n/a	catFR1	0	R1236J
1614.91	3.037	2401301	REC_WORD	3.037	n/a	CAULIFLOWER	Vegetables	3	14	[0, 0, 0]	n/a	catFR1	0	R1236J
1617.947	1.731	2404338	REC_WORD	1.731	n/a	ONION	n/a	-999	14	[0, 0, 0]	n/a	catFR1	0	R1236J
1619.678	14.197	2406069	REC_WORD	14.197	n/a	CORN	n/a	-999	14	[0, 0, 0]	n/a	catFR1	0	R1236J
1633.875	4.277	2420266	REC_END	n/a	n/a	n/a	n/a	-999	14	[0, 0, 0]	n/a	catFR1	0	R1236J
1638.152	0.5	2424543	TRIAL	n/a	n/a	n/a	n/a	-999	15	[0, 0, 0]	n/a	catFR1	0	R1236J
1638.652	10.428	2425043	COUNTDOWN_START	n/a	n/a	n/a	n/a	-999	15	[0, 0, 0]	n/a	catFR1	0	R1236J
1649.08	0.007	2435471	COUNTDOWN_END	n/a	n/a	n/a	n/a	-999	15	[0, 0, 0]	n/a	catFR1	0	R1236J
1649.087	1.616	2435478	ORIENT	n/a	n/a	n/a	n/a	-999	15	[0, 0, 0]	n/a	catFR1	0	R1236J
1650.703	2.084	2437094	ORIENT_OFF	n/a	n/a	n/a	n/a	-999	15	[0, 0, 0]	n/a	catFR1	0	R1236J
1652.787	1.616	2439178	WORD	n/a	wordpools/wordpool_categorized_EN.txt	TEA	Beverages	1	15	[0, 0, 0]	n/a	catFR1	0	R1236J
1654.403	0.984	2440794	WORD_OFF	n/a	n/a	TEA	n/a	1	15	[0, 0, 0]	n/a	catFR1	0	R1236J
1655.387	1.618	2441778	WORD	n/a	wordpools/wordpool_categorized_EN.txt	CIDER	Beverages	2	15	[0, 0, 0]	n/a	catFR1	0	R1236J
1657.005	0.932	2443396	WORD_OFF	n/a	n/a	CIDER	n/a	2	15	[0, 0, 0]	n/a	catFR1	0	R1236J
1657.937	1.617	2444328	WORD	n/a	wordpools/wordpool_categorized_EN.txt	RADIO	Electronics	3	15	[0, 0, 0]	n/a	catFR1	0	R1236J
1659.554	0.833	2445945	WORD_OFF	n/a	n/a	RADIO	n/a	3	15	[0, 0, 0]	n/a	catFR1	0	R1236J
1660.387	1.618	2446778	WORD	n/a	wordpools/wordpool_categorized_EN.txt	TELEVISION	Electronics	4	15	[0, 0, 0]	n/a	catFR1	0	R1236J
1662.005	0.783	2448396	WORD_OFF	n/a	n/a	TELEVISION	n/a	4	15	[0, 0, 0]	n/a	catFR1	0	R1236J
1662.788	1.617	2449179	WORD	n/a	wordpools/wordpool_categorized_EN.txt	COUCH	Furniture	5	15	[0, 0, 0]	n/a	catFR1	0	R1236J
1664.405	0.784	2450796	WORD_OFF	n/a	n/a	COUCH	n/a	5	15	[0, 0, 0]	n/a	catFR1	0	R1236J
1665.189	1.616	2451580	WORD	n/a	wordpools/wordpool_categorized_EN.txt	NIGHTSTAND	Furniture	6	15	[0, 0, 0]	n/a	catFR1	0	R1236J
1666.805	0.783	2453196	WORD_OFF	n/a	n/a	NIGHTSTAND	n/a	6	15	[0, 0, 0]	n/a	catFR1	0	R1236J
1667.588	1.618	2453979	WORD	n/a	wordpools/wordpool_categorized_EN.txt	COLA	Beverages	7	15	[0, 0, 0]	n/a	catFR1	0	R1236J
1669.206	0.884	2455597	WORD_OFF	n/a	n/a	COLA	n/a	7	15	[0, 0, 0]	n/a	catFR1	0	R1236J
1670.09	1.616	2456481	WORD	n/a	wordpools/wordpool_categorized_EN.txt	MILK	Beverages	8	15	[0, 0, 0]	n/a	catFR1	0	R1236J
1671.706	0.816	2458097	WORD_OFF	n/a	n/a	MILK	n/a	8	15	[0, 0, 0]	n/a	catFR1	0	R1236J
1672.522	1.618	2458913	WORD	n/a	wordpools/wordpool_categorized_EN.txt	TABLET	Electronics	9	15	[0, 0, 0]	n/a	catFR1	0	R1236J
1674.14	0.799	2460531	WORD_OFF	n/a	n/a	TABLET	n/a	9	15	[0, 0, 0]	n/a	catFR1	0	R1236J
1674.939	1.617	2461330	WORD	n/a	wordpools/wordpool_categorized_EN.txt	STEREO	Electronics	10	15	[0, 0, 0]	n/a	catFR1	0	R1236J
1676.556	0.95	2462947	WORD_OFF	n/a	n/a	STEREO	n/a	10	15	[0, 0, 0]	n/a	catFR1	0	R1236J
1677.506	1.602	2463897	WORD	n/a	wordpools/wordpool_categorized_EN.txt	SOFA	Furniture	11	15	[0, 0, 0]	n/a	catFR1	0	R1236J
1679.108	0.782	2465499	WORD_OFF	n/a	n/a	SOFA	n/a	11	15	[0, 0, 0]	n/a	catFR1	0	R1236J
1679.89	1.617	2466281	WORD	n/a	wordpools/wordpool_categorized_EN.txt	CHAIR	Furniture	12	15	[0, 0, 0]	n/a	catFR1	0	R1236J
1681.507	0.0	2467898	ENCODING_END	n/a	n/a	n/a	n/a	-999	15	[0, 0, 0]	n/a	catFR1	0	R1236J
1681.507	0.133	2467898	WORD_OFF	n/a	n/a	CHAIR	n/a	12	15	[0, 0, 0]	n/a	catFR1	0	R1236J
1681.64	0.0	2468031	DISTRACT_START	n/a	n/a	n/a	n/a	-999	15	[0, 0, 0]	n/a	catFR1	0	R1236J
1681.64	0.017	2468031	START	n/a	n/a	n/a	n/a	-999	15	[-999, -999, -999]	n/a	catFR1	0	R1236J
1681.657	5.018	2468048	PROB	5.018	n/a	n/a	n/a	-999	15	[7, 9, 4]	20	catFR1	0	R1236J
1686.675	4.933	2473066	PROB	4.933	n/a	n/a	n/a	-999	15	[6, 7, 1]	14	catFR1	0	R1236J
1691.608	3.851	2477999	PROB	3.851	n/a	n/a	n/a	-999	15	[8, 7, 1]	16	catFR1	0	R1236J
1695.459	3.802	2481850	PROB	3.802	n/a	n/a	n/a	-999	15	[7, 6, 4]	17	catFR1	0	R1236J
1699.261	4.001	2485652	PROB	4.001	n/a	n/a	n/a	-999	15	[3, 8, 6]	17	catFR1	0	R1236J
1703.262	0.015	2489652	STOP	n/a	n/a	n/a	n/a	-999	15	[-999, -999, -999]	n/a	catFR1	0	R1236J
1703.277	0.6	2489667	DISTRACT_END	n/a	n/a	n/a	n/a	-999	15	[0, 0, 0]	n/a	catFR1	0	R1236J
1703.877	0.517	2490267	RETRIEVAL_ORIENT	n/a	n/a	n/a	n/a	-999	15	[0, 0, 0]	n/a	catFR1	0	R1236J
1704.394	1.399	2490784	REC_START	n/a	n/a	n/a	n/a	-999	15	[0, 0, 0]	n/a	catFR1	0	R1236J
1705.793	1.323	2492183	REC_WORD	1.323	n/a	CHAIR	Furniture	12	15	[0, 0, 0]	n/a	catFR1	0	R1236J
1707.116	3.61	2493506	REC_WORD	3.61	n/a	BOOKCASE	n/a	-999	15	[0, 0, 0]	n/a	catFR1	0	R1236J
1710.726	23.68	2497116	REC_WORD_VV	23.68	n/a	<>	n/a	-999	15	[0, 0, 0]	n/a	catFR1	0	R1236J
1734.406	24.962	2520796	REC_END	n/a	n/a	n/a	n/a	-999	15	[0, 0, 0]	n/a	catFR1	0	R1236J
1759.368	0.5	2545758	TRIAL	n/a	n/a	n/a	n/a	-999	16	[0, 0, 0]	n/a	catFR1	0	R1236J
1759.868	10.428	2546258	COUNTDOWN_START	n/a	n/a	n/a	n/a	-999	16	[0, 0, 0]	n/a	catFR1	0	R1236J
1770.296	0.006	2556686	COUNTDOWN_END	n/a	n/a	n/a	n/a	-999	16	[0, 0, 0]	n/a	catFR1	0	R1236J
1770.302	1.617	2556692	ORIENT	n/a	n/a	n/a	n/a	-999	16	[0, 0, 0]	n/a	catFR1	0	R1236J
1771.919	2.335	2558309	ORIENT_OFF	n/a	n/a	n/a	n/a	-999	16	[0, 0, 0]	n/a	catFR1	0	R1236J
1774.254	1.616	2560644	WORD	n/a	wordpools/wordpool_categorized_EN.txt	BEER	Beverages	1	16	[0, 0, 0]	n/a	catFR1	0	R1236J
1775.87	0.85	2562260	WORD_OFF	n/a	n/a	BEER	n/a	1	16	[0, 0, 0]	n/a	catFR1	0	R1236J
1776.72	1.617	2563110	WORD	n/a	wordpools/wordpool_categorized_EN.txt	RUM	Beverages	2	16	[0, 0, 0]	n/a	catFR1	0	R1236J
1778.337	0.901	2564727	WORD_OFF	n/a	n/a	RUM	n/a	2	16	[0, 0, 0]	n/a	catFR1	0	R1236J
1779.238	1.616	2565628	WORD	n/a	wordpools/wordpool_categorized_EN.txt	PUDDING	Desserts	3	16	[0, 0, 0]	n/a	catFR1	0	R1236J
1780.854	0.916	2567244	WORD_OFF	n/a	n/a	PUDDING	n/a	3	16	[0, 0, 0]	n/a	catFR1	0	R1236J
1781.77	1.617	2568160	WORD	n/a	wordpools/wordpool_categorized_EN.txt	COOKIE	Desserts	4	16	[0, 0, 0]	n/a	catFR1	0	R1236J
1783.387	0.885	2569777	WORD_OFF	n/a	n/a	COOKIE	n/a	4	16	[0, 0, 0]	n/a	catFR1	0	R1236J
1784.272	1.616	2570662	WORD	n/a	wordpools/wordpool_categorized_EN.txt	CROWBAR	Tools	5	16	[0, 0, 0]	n/a	catFR1	0	R1236J
1785.888	0.917	2572278	WORD_OFF	n/a	n/a	CROWBAR	n/a	5	16	[0, 0, 0]	n/a	catFR1	0	R1236J
1786.805	1.617	2573195	WORD	n/a	wordpools/wordpool_categorized_EN.txt	SAW	Tools	6	16	[0, 0, 0]	n/a	catFR1	0	R1236J
1788.422	0.916	2574812	WORD_OFF	n/a	n/a	SAW	n/a	6	16	[0, 0, 0]	n/a	catFR1	0	R1236J
1789.338	1.617	2575728	WORD	n/a	wordpools/wordpool_categorized_EN.txt	LEMONADE	Beverages	7	16	[0, 0, 0]	n/a	catFR1	0	R1236J
1790.955	0.983	2577345	WORD_OFF	n/a	n/a	LEMONADE	n/a	7	16	[0, 0, 0]	n/a	catFR1	0	R1236J
1791.938	1.617	2578328	WORD	n/a	wordpools/wordpool_categorized_EN.txt	JUICE	Beverages	8	16	[0, 0, 0]	n/a	catFR1	0	R1236J
1793.555	0.8	2579945	WORD_OFF	n/a	n/a	JUICE	n/a	8	16	[0, 0, 0]	n/a	catFR1	0	R1236J
1794.355	1.617	2580745	WORD	n/a	wordpools/wordpool_categorized_EN.txt	BROWNIES	Desserts	9	16	[0, 0, 0]	n/a	catFR1	0	R1236J
1795.972	0.884	2582362	WORD_OFF	n/a	n/a	BROWNIES	n/a	9	16	[0, 0, 0]	n/a	catFR1	0	R1236J
1796.856	1.617	2583246	WORD	n/a	wordpools/wordpool_categorized_EN.txt	PASTRY	Desserts	10	16	[0, 0, 0]	n/a	catFR1	0	R1236J
1798.473	0.784	2584863	WORD_OFF	n/a	n/a	PASTRY	n/a	10	16	[0, 0, 0]	n/a	catFR1	0	R1236J
1799.257	1.616	2585647	WORD	n/a	wordpools/wordpool_categorized_EN.txt	SANDER	Tools	11	16	[0, 0, 0]	n/a	catFR1	0	R1236J
1800.873	0.884	2587263	WORD_OFF	n/a	n/a	SANDER	n/a	11	16	[0, 0, 0]	n/a	catFR1	0	R1236J
1801.757	1.617	2588147	WORD	n/a	wordpools/wordpool_categorized_EN.txt	AXE	Tools	12	16	[0, 0, 0]	n/a	catFR1	0	R1236J
1803.374	0.0	2589764	ENCODING_END	n/a	n/a	n/a	n/a	-999	16	[0, 0, 0]	n/a	catFR1	0	R1236J
1803.374	0.1	2589764	WORD_OFF	n/a	n/a	AXE	n/a	12	16	[0, 0, 0]	n/a	catFR1	0	R1236J
1803.474	0.001	2589864	DISTRACT_START	n/a	n/a	n/a	n/a	-999	16	[0, 0, 0]	n/a	catFR1	0	R1236J
1803.475	0.015	2589865	START	n/a	n/a	n/a	n/a	-999	16	[-999, -999, -999]	n/a	catFR1	0	R1236J
1803.49	4.234	2589880	PROB	4.234	n/a	n/a	n/a	-999	16	[8, 8, 2]	18	catFR1	0	R1236J
1807.724	2.75	2594114	PROB	2.75	n/a	n/a	n/a	-999	16	[2, 2, 1]	5	catFR1	0	R1236J
1810.474	3.451	2596864	PROB	3.451	n/a	n/a	n/a	-999	16	[8, 7, 1]	16	catFR1	0	R1236J
1813.925	2.817	2600315	PROB	2.817	n/a	n/a	n/a	-999	16	[3, 1, 1]	5	catFR1	0	R1236J
1816.742	3.167	2603132	PROB	3.167	n/a	n/a	n/a	-999	16	[5, 2, 1]	8	catFR1	0	R1236J
1819.909	5.69	2606299	PROB	5.69	n/a	n/a	n/a	-999	16	[9, 8, 5]	20	catFR1	0	R1236J
1825.599	0.011	2611989	STOP	n/a	n/a	n/a	n/a	-999	16	[-999, -999, -999]	n/a	catFR1	0	R1236J
1825.61	0.618	2612000	DISTRACT_END	n/a	n/a	n/a	n/a	-999	16	[0, 0, 0]	n/a	catFR1	0	R1236J
1826.228	0.517	2612618	RETRIEVAL_ORIENT	n/a	n/a	n/a	n/a	-999	16	[0, 0, 0]	n/a	catFR1	0	R1236J
1826.745	1.457	2613135	REC_START	n/a	n/a	n/a	n/a	-999	16	[0, 0, 0]	n/a	catFR1	0	R1236J
1828.202	1.076	2614592	REC_WORD	1.076	n/a	CROWBAR	Tools	5	16	[0, 0, 0]	n/a	catFR1	0	R1236J
1829.278	1.511	2615668	REC_WORD	1.511	n/a	SANDER	Tools	11	16	[0, 0, 0]	n/a	catFR1	0	R1236J
1830.789	4.949	2617179	REC_WORD	4.949	n/a	BEER	Beverages	1	16	[0, 0, 0]	n/a	catFR1	0	R1236J
1835.738	21.014	2622128	REC_WORD	21.014	n/a	TEA	n/a	-999	16	[0, 0, 0]	n/a	catFR1	0	R1236J
1856.752	4.563	2643142	REC_END	n/a	n/a	n/a	n/a	-999	16	[0, 0, 0]	n/a	catFR1	0	R1236J
1861.315	0.5	2647705	TRIAL	n/a	n/a	n/a	n/a	-999	17	[0, 0, 0]	n/a	catFR1	0	R1236J
1861.815	10.428	2648205	COUNTDOWN_START	n/a	n/a	n/a	n/a	-999	17	[0, 0, 0]	n/a	catFR1	0	R1236J
1872.243	0.007	2658633	COUNTDOWN_END	n/a	n/a	n/a	n/a	-999	17	[0, 0, 0]	n/a	catFR1	0	R1236J
1872.25	1.616	2658640	ORIENT	n/a	n/a	n/a	n/a	-999	17	[0, 0, 0]	n/a	catFR1	0	R1236J
1873.866	1.934	2660256	ORIENT_OFF	n/a	n/a	n/a	n/a	-999	17	[0, 0, 0]	n/a	catFR1	0	R1236J
1875.8	1.617	2662190	WORD	n/a	wordpools/wordpool_categorized_EN.txt	JACKET	Clothing	1	17	[0, 0, 0]	n/a	catFR1	0	R1236J
1877.417	0.818	2663807	WORD_OFF	n/a	n/a	JACKET	n/a	1	17	[0, 0, 0]	n/a	catFR1	0	R1236J
1878.235	1.616	2664625	WORD	n/a	wordpools/wordpool_categorized_EN.txt	JEANS	Clothing	2	17	[0, 0, 0]	n/a	catFR1	0	R1236J
1879.851	0.916	2666241	WORD_OFF	n/a	n/a	JEANS	n/a	2	17	[0, 0, 0]	n/a	catFR1	0	R1236J
1880.767	1.617	2667157	WORD	n/a	wordpools/wordpool_categorized_EN.txt	GRATER	KitchenTools	3	17	[0, 0, 0]	n/a	catFR1	0	R1236J
1882.384	0.95	2668774	WORD_OFF	n/a	n/a	GRATER	n/a	3	17	[0, 0, 0]	n/a	catFR1	0	R1236J
1883.334	1.617	2669724	WORD	n/a	wordpools/wordpool_categorized_EN.txt	CORKSCREW	KitchenTools	4	17	[0, 0, 0]	n/a	catFR1	0	R1236J
1884.951	1.0	2671341	WORD_OFF	n/a	n/a	CORKSCREW	n/a	4	17	[0, 0, 0]	n/a	catFR1	0	R1236J
1885.951	1.617	2672341	WORD	n/a	wordpools/wordpool_categorized_EN.txt	CHEESECAKE	Desserts	5	17	[0, 0, 0]	n/a	catFR1	0	R1236J
1887.568	0.767	2673958	WORD_OFF	n/a	n/a	CHEESECAKE	n/a	5	17	[0, 0, 0]	n/a	catFR1	0	R1236J
1888.335	1.617	2674725	WORD	n/a	wordpools/wordpool_categorized_EN.txt	COBBLER	Desserts	6	17	[0, 0, 0]	n/a	catFR1	0	R1236J
1889.952	0.783	2676342	WORD_OFF	n/a	n/a	COBBLER	n/a	6	17	[0, 0, 0]	n/a	catFR1	0	R1236J
1890.735	1.617	2677125	WORD	n/a	wordpools/wordpool_categorized_EN.txt	COAT	Clothing	7	17	[0, 0, 0]	n/a	catFR1	0	R1236J
1892.352	0.901	2678742	WORD_OFF	n/a	n/a	COAT	n/a	7	17	[0, 0, 0]	n/a	catFR1	0	R1236J
1893.253	1.616	2679643	WORD	n/a	wordpools/wordpool_categorized_EN.txt	SHORTS	Clothing	8	17	[0, 0, 0]	n/a	catFR1	0	R1236J
1894.869	0.984	2681259	WORD_OFF	n/a	n/a	SHORTS	n/a	8	17	[0, 0, 0]	n/a	catFR1	0	R1236J
1895.853	1.617	2682243	WORD	n/a	wordpools/wordpool_categorized_EN.txt	PEELER	KitchenTools	9	17	[0, 0, 0]	n/a	catFR1	0	R1236J
1897.47	0.801	2683860	WORD_OFF	n/a	n/a	PEELER	n/a	9	17	[0, 0, 0]	n/a	catFR1	0	R1236J
1898.271	1.616	2684661	WORD	n/a	wordpools/wordpool_categorized_EN.txt	SPOON	KitchenTools	10	17	[0, 0, 0]	n/a	catFR1	0	R1236J
1899.887	0.949	2686277	WORD_OFF	n/a	n/a	SPOON	n/a	10	17	[0, 0, 0]	n/a	catFR1	0	R1236J
1900.836	1.617	2687226	WORD	n/a	wordpools/wordpool_categorized_EN.txt	CUPCAKE	Desserts	11	17	[0, 0, 0]	n/a	catFR1	0	R1236J
1902.453	0.85	2688843	WORD_OFF	n/a	n/a	CUPCAKE	n/a	11	17	[0, 0, 0]	n/a	catFR1	0	R1236J
1903.303	1.617	2689693	WORD	n/a	wordpools/wordpool_categorized_EN.txt	JELLO	Desserts	12	17	[0, 0, 0]	n/a	catFR1	0	R1236J
1904.92	0.001	2691310	WORD_OFF	n/a	n/a	JELLO	n/a	12	17	[0, 0, 0]	n/a	catFR1	0	R1236J
1904.921	0.098	2691311	ENCODING_END	n/a	n/a	n/a	n/a	-999	17	[0, 0, 0]	n/a	catFR1	0	R1236J
1905.019	0.0	2691409	DISTRACT_START	n/a	n/a	n/a	n/a	-999	17	[0, 0, 0]	n/a	catFR1	0	R1236J
1905.019	0.019	2691409	START	n/a	n/a	n/a	n/a	-999	17	[-999, -999, -999]	n/a	catFR1	0	R1236J
1905.038	5.068	2691428	PROB	5.068	n/a	n/a	n/a	-999	17	[4, 5, 7]	16	catFR1	0	R1236J
1910.106	3.565	2696496	PROB	3.565	n/a	n/a	n/a	-999	17	[5, 3, 4]	12	catFR1	0	R1236J
1913.671	3.352	2700061	PROB	3.352	n/a	n/a	n/a	-999	17	[7, 3, 6]	16	catFR1	0	R1236J
1917.023	6.018	2703413	PROB	6.018	n/a	n/a	n/a	-999	17	[9, 5, 8]	22	catFR1	0	R1236J
1923.041	2.589	2709431	PROB	2.589	n/a	n/a	n/a	-999	17	[2, 1, 2]	5	catFR1	0	R1236J
1925.63	0.01	2712020	STOP	n/a	n/a	n/a	n/a	-999	17	[-999, -999, -999]	n/a	catFR1	0	R1236J
1925.64	0.551	2712030	DISTRACT_END	n/a	n/a	n/a	n/a	-999	17	[0, 0, 0]	n/a	catFR1	0	R1236J
1926.191	0.517	2712581	RETRIEVAL_ORIENT	n/a	n/a	n/a	n/a	-999	17	[0, 0, 0]	n/a	catFR1	0	R1236J
1926.708	1.323	2713098	REC_START	n/a	n/a	n/a	n/a	-999	17	[0, 0, 0]	n/a	catFR1	0	R1236J
1928.031	1.059	2714421	REC_WORD	1.059	n/a	JACKET	Clothing	1	17	[0, 0, 0]	n/a	catFR1	0	R1236J
1929.09	6.05	2715480	REC_WORD	6.05	n/a	COAT	Clothing	7	17	[0, 0, 0]	n/a	catFR1	0	R1236J
1935.14	1.3	2721530	REC_WORD	1.3	n/a	JELLO	Desserts	12	17	[0, 0, 0]	n/a	catFR1	0	R1236J
1936.44	5.521	2722830	REC_WORD	5.521	n/a	CHEESECAKE	Desserts	5	17	[0, 0, 0]	n/a	catFR1	0	R1236J
1941.961	14.758	2728351	REC_WORD	14.758	n/a	PUDDING	n/a	-999	17	[0, 0, 0]	n/a	catFR1	0	R1236J
1956.719	4.025	2743108	REC_END	n/a	n/a	n/a	n/a	-999	17	[0, 0, 0]	n/a	catFR1	0	R1236J
1960.744	0.5	2747133	TRIAL	n/a	n/a	n/a	n/a	-999	18	[0, 0, 0]	n/a	catFR1	0	R1236J
1961.244	10.428	2747633	COUNTDOWN_START	n/a	n/a	n/a	n/a	-999	18	[0, 0, 0]	n/a	catFR1	0	R1236J
1971.672	0.007	2758061	COUNTDOWN_END	n/a	n/a	n/a	n/a	-999	18	[0, 0, 0]	n/a	catFR1	0	R1236J
1971.679	1.617	2758068	ORIENT	n/a	n/a	n/a	n/a	-999	18	[0, 0, 0]	n/a	catFR1	0	R1236J
1973.296	2.384	2759685	ORIENT_OFF	n/a	n/a	n/a	n/a	-999	18	[0, 0, 0]	n/a	catFR1	0	R1236J
1975.68	1.617	2762069	WORD	n/a	wordpools/wordpool_categorized_EN.txt	SKIRT	Clothing	1	18	[0, 0, 0]	n/a	catFR1	0	R1236J
1977.297	0.968	2763686	WORD_OFF	n/a	n/a	SKIRT	n/a	1	18	[0, 0, 0]	n/a	catFR1	0	R1236J
1978.265	1.616	2764654	WORD	n/a	wordpools/wordpool_categorized_EN.txt	SHIRT	Clothing	2	18	[0, 0, 0]	n/a	catFR1	0	R1236J
1979.881	0.883	2766270	WORD_OFF	n/a	n/a	SHIRT	n/a	2	18	[0, 0, 0]	n/a	catFR1	0	R1236J
1980.764	1.617	2767153	WORD	n/a	wordpools/wordpool_categorized_EN.txt	OAK	Trees	3	18	[0, 0, 0]	n/a	catFR1	0	R1236J
1982.381	0.867	2768770	WORD_OFF	n/a	n/a	OAK	n/a	3	18	[0, 0, 0]	n/a	catFR1	0	R1236J
1983.248	1.616	2769637	WORD	n/a	wordpools/wordpool_categorized_EN.txt	WILLOW	Trees	4	18	[0, 0, 0]	n/a	catFR1	0	R1236J
1984.864	0.984	2771253	WORD_OFF	n/a	n/a	WILLOW	n/a	4	18	[0, 0, 0]	n/a	catFR1	0	R1236J
1985.848	1.617	2772237	WORD	n/a	wordpools/wordpool_categorized_EN.txt	TIGER	Zoo	5	18	[0, 0, 0]	n/a	catFR1	0	R1236J
1987.465	0.967	2773854	WORD_OFF	n/a	n/a	TIGER	n/a	5	18	[0, 0, 0]	n/a	catFR1	0	R1236J
1988.432	1.618	2774821	WORD	n/a	wordpools/wordpool_categorized_EN.txt	ELEPHANT	Zoo	6	18	[0, 0, 0]	n/a	catFR1	0	R1236J
1990.05	0.848	2776439	WORD_OFF	n/a	n/a	ELEPHANT	n/a	6	18	[0, 0, 0]	n/a	catFR1	0	R1236J
1990.898	1.617	2777287	WORD	n/a	wordpools/wordpool_categorized_EN.txt	PANTS	Clothing	7	18	[0, 0, 0]	n/a	catFR1	0	R1236J
1992.515	1.0	2778904	WORD_OFF	n/a	n/a	PANTS	n/a	7	18	[0, 0, 0]	n/a	catFR1	0	R1236J
1993.515	1.618	2779904	WORD	n/a	wordpools/wordpool_categorized_EN.txt	BLOUSE	Clothing	8	18	[0, 0, 0]	n/a	catFR1	0	R1236J
1995.133	0.917	2781522	WORD_OFF	n/a	n/a	BLOUSE	n/a	8	18	[0, 0, 0]	n/a	catFR1	0	R1236J
1996.05	1.616	2782439	WORD	n/a	wordpools/wordpool_categorized_EN.txt	CYPRESS	Trees	9	18	[0, 0, 0]	n/a	catFR1	0	R1236J
1997.666	0.984	2784055	WORD_OFF	n/a	n/a	CYPRESS	n/a	9	18	[0, 0, 0]	n/a	catFR1	0	R1236J
1998.65	1.617	2785039	WORD	n/a	wordpools/wordpool_categorized_EN.txt	BIRCH	Trees	10	18	[0, 0, 0]	n/a	catFR1	0	R1236J
2000.267	0.767	2786656	WORD_OFF	n/a	n/a	BIRCH	n/a	10	18	[0, 0, 0]	n/a	catFR1	0	R1236J
2001.034	1.616	2787423	WORD	n/a	wordpools/wordpool_categorized_EN.txt	GORILLA	Zoo	11	18	[0, 0, 0]	n/a	catFR1	0	R1236J
2002.65	0.967	2789039	WORD_OFF	n/a	n/a	GORILLA	n/a	11	18	[0, 0, 0]	n/a	catFR1	0	R1236J
2003.617	1.618	2790006	WORD	n/a	wordpools/wordpool_categorized_EN.txt	CHIMPANZEE	Zoo	12	18	[0, 0, 0]	n/a	catFR1	0	R1236J
2005.235	0.0	2791624	ENCODING_END	n/a	n/a	n/a	n/a	-999	18	[0, 0, 0]	n/a	catFR1	0	R1236J
2005.235	0.131	2791624	WORD_OFF	n/a	n/a	CHIMPANZEE	n/a	12	18	[0, 0, 0]	n/a	catFR1	0	R1236J
2005.366	0.0	2791755	DISTRACT_START	n/a	n/a	n/a	n/a	-999	18	[0, 0, 0]	n/a	catFR1	0	R1236J
2005.366	0.018	2791755	START	n/a	n/a	n/a	n/a	-999	18	[-999, -999, -999]	n/a	catFR1	0	R1236J
2005.384	8.984	2791773	PROB	8.984	n/a	n/a	n/a	-999	18	[7, 7, 5]	19	catFR1	0	R1236J
2014.368	3.334	2800757	PROB	3.334	n/a	n/a	n/a	-999	18	[2, 7, 2]	11	catFR1	0	R1236J
2017.702	4.634	2804091	PROB	4.634	n/a	n/a	n/a	-999	18	[5, 7, 5]	17	catFR1	0	R1236J
2022.336	4.272	2808725	PROB	4.272	n/a	n/a	n/a	-999	18	[5, 3, 9]	17	catFR1	0	R1236J
2026.608	0.012	2812997	STOP	n/a	n/a	n/a	n/a	-999	18	[-999, -999, -999]	n/a	catFR1	0	R1236J
2026.62	0.617	2813009	DISTRACT_END	n/a	n/a	n/a	n/a	-999	18	[0, 0, 0]	n/a	catFR1	0	R1236J
2027.237	0.517	2813626	RETRIEVAL_ORIENT	n/a	n/a	n/a	n/a	-999	18	[0, 0, 0]	n/a	catFR1	0	R1236J
2027.754	1.416	2814143	REC_START	n/a	n/a	n/a	n/a	-999	18	[0, 0, 0]	n/a	catFR1	0	R1236J
2029.17	1.0	2815559	REC_WORD	1.0	n/a	CHIMPANZEE	Zoo	12	18	[0, 0, 0]	n/a	catFR1	0	R1236J
2030.17	1.955	2816559	REC_WORD_VV	1.955	n/a	<>	n/a	-999	18	[0, 0, 0]	n/a	catFR1	0	R1236J
2032.125	4.418	2818514	REC_WORD	4.418	n/a	APE	n/a	-999	18	[0, 0, 0]	n/a	catFR1	0	R1236J
2036.543	1.786	2822932	REC_WORD	1.786	n/a	WILLOW	Trees	4	18	[0, 0, 0]	n/a	catFR1	0	R1236J
2038.329	3.171	2824718	REC_WORD	3.171	n/a	SPRUCE	n/a	-999	18	[0, 0, 0]	n/a	catFR1	0	R1236J
2041.5	3.237	2827889	REC_WORD	3.237	n/a	OAK	Trees	3	18	[0, 0, 0]	n/a	catFR1	0	R1236J
2044.737	4.89	2831126	REC_WORD	4.89	n/a	CEDAR	n/a	-999	18	[0, 0, 0]	n/a	catFR1	0	R1236J
2049.627	3.132	2836016	REC_WORD	3.132	n/a	SHIRT	Clothing	2	18	[0, 0, 0]	n/a	catFR1	0	R1236J
2052.759	2.414	2839148	REC_WORD	2.414	n/a	JACKET	n/a	-999	18	[0, 0, 0]	n/a	catFR1	0	R1236J
2055.173	2.097	2841562	REC_WORD	2.097	n/a	SKIRT	Clothing	1	18	[0, 0, 0]	n/a	catFR1	0	R1236J
2057.27	0.494	2843659	REC_WORD	0.494	n/a	PANTS	Clothing	7	18	[0, 0, 0]	n/a	catFR1	0	R1236J
2057.764	3.877	2844153	REC_END	n/a	n/a	n/a	n/a	-999	18	[0, 0, 0]	n/a	catFR1	0	R1236J
2061.641	0.5	2848030	TRIAL	n/a	n/a	n/a	n/a	-999	19	[0, 0, 0]	n/a	catFR1	0	R1236J
2062.141	10.428	2848530	COUNTDOWN_START	n/a	n/a	n/a	n/a	-999	19	[0, 0, 0]	n/a	catFR1	0	R1236J
2072.569	0.007	2858958	COUNTDOWN_END	n/a	n/a	n/a	n/a	-999	19	[0, 0, 0]	n/a	catFR1	0	R1236J
2072.576	1.618	2858965	ORIENT	n/a	n/a	n/a	n/a	-999	19	[0, 0, 0]	n/a	catFR1	0	R1236J
2074.194	2.082	2860583	ORIENT_OFF	n/a	n/a	n/a	n/a	-999	19	[0, 0, 0]	n/a	catFR1	0	R1236J
2076.276	1.617	2862665	WORD	n/a	wordpools/wordpool_categorized_EN.txt	SHEEP	FarmAnimals	1	19	[0, 0, 0]	n/a	catFR1	0	R1236J
2077.893	1.001	2864282	WORD_OFF	n/a	n/a	SHEEP	n/a	1	19	[0, 0, 0]	n/a	catFR1	0	R1236J
2078.894	1.616	2865283	WORD	n/a	wordpools/wordpool_categorized_EN.txt	ROOSTER	FarmAnimals	2	19	[0, 0, 0]	n/a	catFR1	0	R1236J
2080.51	0.85	2866899	WORD_OFF	n/a	n/a	ROOSTER	n/a	2	19	[0, 0, 0]	n/a	catFR1	0	R1236J
2081.36	1.618	2867749	WORD	n/a	wordpools/wordpool_categorized_EN.txt	STREAM	Landscapes	3	19	[0, 0, 0]	n/a	catFR1	0	R1236J
2082.978	0.966	2869367	WORD_OFF	n/a	n/a	STREAM	n/a	3	19	[0, 0, 0]	n/a	catFR1	0	R1236J
2083.944	1.617	2870333	WORD	n/a	wordpools/wordpool_categorized_EN.txt	HILLS	Landscapes	4	19	[0, 0, 0]	n/a	catFR1	0	R1236J
2085.561	0.967	2871950	WORD_OFF	n/a	n/a	HILLS	n/a	4	19	[0, 0, 0]	n/a	catFR1	0	R1236J
2086.528	1.618	2872917	WORD	n/a	wordpools/wordpool_categorized_EN.txt	LEG	BodyParts	5	19	[0, 0, 0]	n/a	catFR1	0	R1236J
2088.146	0.782	2874535	WORD_OFF	n/a	n/a	LEG	n/a	5	19	[0, 0, 0]	n/a	catFR1	0	R1236J
2088.928	1.617	2875317	WORD	n/a	wordpools/wordpool_categorized_EN.txt	ELBOW	BodyParts	6	19	[0, 0, 0]	n/a	catFR1	0	R1236J
2090.545	0.783	2876934	WORD_OFF	n/a	n/a	ELBOW	n/a	6	19	[0, 0, 0]	n/a	catFR1	0	R1236J
2091.328	1.617	2877717	WORD	n/a	wordpools/wordpool_categorized_EN.txt	CREEK	Landscapes	7	19	[0, 0, 0]	n/a	catFR1	0	R1236J
2092.945	0.967	2879334	WORD_OFF	n/a	n/a	CREEK	n/a	7	19	[0, 0, 0]	n/a	catFR1	0	R1236J
2093.912	1.617	2880301	WORD	n/a	wordpools/wordpool_categorized_EN.txt	RIVER	Landscapes	8	19	[0, 0, 0]	n/a	catFR1	0	R1236J
2095.529	0.967	2881918	WORD_OFF	n/a	n/a	RIVER	n/a	8	19	[0, 0, 0]	n/a	catFR1	0	R1236J
2096.496	1.618	2882885	WORD	n/a	wordpools/wordpool_categorized_EN.txt	LAMB	FarmAnimals	9	19	[0, 0, 0]	n/a	catFR1	0	R1236J
2098.114	0.866	2884503	WORD_OFF	n/a	n/a	LAMB	n/a	9	19	[0, 0, 0]	n/a	catFR1	0	R1236J
2098.98	1.616	2885369	WORD	n/a	wordpools/wordpool_categorized_EN.txt	BULL	FarmAnimals	10	19	[0, 0, 0]	n/a	catFR1	0	R1236J
2100.596	1.0	2886985	WORD_OFF	n/a	n/a	BULL	n/a	10	19	[0, 0, 0]	n/a	catFR1	0	R1236J
2101.596	1.619	2887985	WORD	n/a	wordpools/wordpool_categorized_EN.txt	FINGERS	BodyParts	11	19	[0, 0, 0]	n/a	catFR1	0	R1236J
2103.215	0.8	2889604	WORD_OFF	n/a	n/a	FINGERS	n/a	11	19	[0, 0, 0]	n/a	catFR1	0	R1236J
2104.015	1.616	2890404	WORD	n/a	wordpools/wordpool_categorized_EN.txt	KNEE	BodyParts	12	19	[0, 0, 0]	n/a	catFR1	0	R1236J
2105.631	0.0	2892020	ENCODING_END	n/a	n/a	n/a	n/a	-999	19	[0, 0, 0]	n/a	catFR1	0	R1236J
2105.631	0.097	2892020	WORD_OFF	n/a	n/a	KNEE	n/a	12	19	[0, 0, 0]	n/a	catFR1	0	R1236J
2105.728	0.0	2892117	DISTRACT_START	n/a	n/a	n/a	n/a	-999	19	[0, 0, 0]	n/a	catFR1	0	R1236J
2105.728	0.019	2892117	START	n/a	n/a	n/a	n/a	-999	19	[-999, -999, -999]	n/a	catFR1	0	R1236J
2105.747	7.084	2892136	PROB	7.084	n/a	n/a	n/a	-999	19	[3, 9, 4]	16	catFR1	0	R1236J
2112.831	2.651	2899220	PROB	2.651	n/a	n/a	n/a	-999	19	[9, 1, 1]	11	catFR1	0	R1236J
2115.482	6.801	2901871	PROB	6.801	n/a	n/a	n/a	-999	19	[7, 5, 6]	18	catFR1	0	R1236J
2122.283	3.45	2908672	PROB	3.45	n/a	n/a	n/a	-999	19	[4, 9, 2]	16	catFR1	0	R1236J
2125.733	5.137	2912122	PROB	5.137	n/a	n/a	n/a	-999	19	[9, 6, 4]	19	catFR1	0	R1236J
2130.87	0.014	2917259	STOP	n/a	n/a	n/a	n/a	-999	19	[-999, -999, -999]	n/a	catFR1	0	R1236J
2130.884	0.65	2917273	DISTRACT_END	n/a	n/a	n/a	n/a	-999	19	[0, 0, 0]	n/a	catFR1	0	R1236J
2131.534	0.519	2917923	RETRIEVAL_ORIENT	n/a	n/a	n/a	n/a	-999	19	[0, 0, 0]	n/a	catFR1	0	R1236J
2132.053	5.149	2918442	REC_START	n/a	n/a	n/a	n/a	-999	19	[0, 0, 0]	n/a	catFR1	0	R1236J
2137.202	1.903	2923591	REC_WORD	1.903	n/a	LEG	BodyParts	5	19	[0, 0, 0]	n/a	catFR1	0	R1236J
2139.105	2.147	2925494	REC_WORD_VV	2.147	n/a	<>	n/a	-999	19	[0, 0, 0]	n/a	catFR1	0	R1236J
2141.252	1.042	2927641	REC_WORD	1.042	n/a	ELBOW	BodyParts	6	19	[0, 0, 0]	n/a	catFR1	0	R1236J
2142.294	4.931	2928683	REC_WORD	4.931	n/a	KNEE	BodyParts	12	19	[0, 0, 0]	n/a	catFR1	0	R1236J
2147.225	7.082	2933614	REC_WORD	7.082	n/a	FINGERS	BodyParts	11	19	[0, 0, 0]	n/a	catFR1	0	R1236J
2154.307	1.471	2940696	REC_WORD	1.471	n/a	RAIN	n/a	-999	19	[0, 0, 0]	n/a	catFR1	0	R1236J
2155.778	6.283	2942167	REC_WORD	6.283	n/a	STREAM	Landscapes	3	19	[0, 0, 0]	n/a	catFR1	0	R1236J
2162.061	4.461	2948450	REC_END	n/a	n/a	n/a	n/a	-999	19	[0, 0, 0]	n/a	catFR1	0	R1236J
2166.522	0.5	2952911	TRIAL	n/a	n/a	n/a	n/a	-999	20	[0, 0, 0]	n/a	catFR1	0	R1236J
2167.022	10.428	2953411	COUNTDOWN_START	n/a	n/a	n/a	n/a	-999	20	[0, 0, 0]	n/a	catFR1	0	R1236J
2177.45	0.007	2963839	COUNTDOWN_END	n/a	n/a	n/a	n/a	-999	20	[0, 0, 0]	n/a	catFR1	0	R1236J
2177.457	1.618	2963846	ORIENT	n/a	n/a	n/a	n/a	-999	20	[0, 0, 0]	n/a	catFR1	0	R1236J
2179.075	2.166	2965464	ORIENT_OFF	n/a	n/a	n/a	n/a	-999	20	[0, 0, 0]	n/a	catFR1	0	R1236J
2181.241	1.616	2967630	WORD	n/a	wordpools/wordpool_categorized_EN.txt	STOVE	Appliances	1	20	[0, 0, 0]	n/a	catFR1	0	R1236J
2182.857	0.951	2969246	WORD_OFF	n/a	n/a	STOVE	n/a	1	20	[0, 0, 0]	n/a	catFR1	0	R1236J
2183.808	1.617	2970197	WORD	n/a	wordpools/wordpool_categorized_EN.txt	IRON	Appliances	2	20	[0, 0, 0]	n/a	catFR1	0	R1236J
2185.425	0.966	2971814	WORD_OFF	n/a	n/a	IRON	n/a	2	20	[0, 0, 0]	n/a	catFR1	0	R1236J
2186.391	1.618	2972780	WORD	n/a	wordpools/wordpool_categorized_EN.txt	ATTIC	Building	3	20	[0, 0, 0]	n/a	catFR1	0	R1236J
2188.009	1.0	2974397	WORD_OFF	n/a	n/a	ATTIC	n/a	3	20	[0, 0, 0]	n/a	catFR1	0	R1236J
2189.009	1.616	2975397	WORD	n/a	wordpools/wordpool_categorized_EN.txt	WINDOW	Building	4	20	[0, 0, 0]	n/a	catFR1	0	R1236J
2190.625	0.983	2977013	WORD_OFF	n/a	n/a	WINDOW	n/a	4	20	[0, 0, 0]	n/a	catFR1	0	R1236J
2191.608	1.601	2977996	WORD	n/a	wordpools/wordpool_categorized_EN.txt	MOUNTAIN	Landscapes	5	20	[0, 0, 0]	n/a	catFR1	0	R1236J
2193.209	0.834	2979597	WORD_OFF	n/a	n/a	MOUNTAIN	n/a	5	20	[0, 0, 0]	n/a	catFR1	0	R1236J
2194.043	1.616	2980431	WORD	n/a	wordpools/wordpool_categorized_EN.txt	WOODS	Landscapes	6	20	[0, 0, 0]	n/a	catFR1	0	R1236J
2195.659	1.0	2982047	WORD_OFF	n/a	n/a	WOODS	n/a	6	20	[0, 0, 0]	n/a	catFR1	0	R1236J
2196.659	1.617	2983047	WORD	n/a	wordpools/wordpool_categorized_EN.txt	DISHWASHER	Appliances	7	20	[0, 0, 0]	n/a	catFR1	0	R1236J
2198.276	0.985	2984664	WORD_OFF	n/a	n/a	DISHWASHER	n/a	7	20	[0, 0, 0]	n/a	catFR1	0	R1236J
2199.261	1.615	2985649	WORD	n/a	wordpools/wordpool_categorized_EN.txt	VACUUM	Appliances	8	20	[0, 0, 0]	n/a	catFR1	0	R1236J
2200.876	0.834	2987264	WORD_OFF	n/a	n/a	VACUUM	n/a	8	20	[0, 0, 0]	n/a	catFR1	0	R1236J
2201.71	1.617	2988098	WORD	n/a	wordpools/wordpool_categorized_EN.txt	STAIRS	Building	9	20	[0, 0, 0]	n/a	catFR1	0	R1236J
2203.327	0.966	2989715	WORD_OFF	n/a	n/a	STAIRS	n/a	9	20	[0, 0, 0]	n/a	catFR1	0	R1236J
2204.293	1.617	2990681	WORD	n/a	wordpools/wordpool_categorized_EN.txt	ROOF	Building	10	20	[0, 0, 0]	n/a	catFR1	0	R1236J
2205.91	0.901	2992298	WORD_OFF	n/a	n/a	ROOF	n/a	10	20	[0, 0, 0]	n/a	catFR1	0	R1236J
2206.811	1.617	2993199	WORD	n/a	wordpools/wordpool_categorized_EN.txt	LAKE	Landscapes	11	20	[0, 0, 0]	n/a	catFR1	0	R1236J
2208.428	0.784	2994816	WORD_OFF	n/a	n/a	LAKE	n/a	11	20	[0, 0, 0]	n/a	catFR1	0	R1236J
2209.212	1.616	2995600	WORD	n/a	wordpools/wordpool_categorized_EN.txt	OCEAN	Landscapes	12	20	[0, 0, 0]	n/a	catFR1	0	R1236J
2210.828	0.0	2997216	ENCODING_END	n/a	n/a	n/a	n/a	-999	20	[0, 0, 0]	n/a	catFR1	0	R1236J
2210.828	0.13	2997216	WORD_OFF	n/a	n/a	OCEAN	n/a	12	20	[0, 0, 0]	n/a	catFR1	0	R1236J
2210.958	0.0	2997346	DISTRACT_START	n/a	n/a	n/a	n/a	-999	20	[0, 0, 0]	n/a	catFR1	0	R1236J
2210.958	0.021	2997346	START	n/a	n/a	n/a	n/a	-999	20	[-999, -999, -999]	n/a	catFR1	0	R1236J
2210.979	5.583	2997367	PROB	5.583	n/a	n/a	n/a	-999	20	[9, 7, 3]	19	catFR1	0	R1236J
2216.562	4.017	3002950	PROB	4.017	n/a	n/a	n/a	-999	20	[2, 7, 4]	13	catFR1	0	R1236J
2220.579	3.784	3006967	PROB	3.784	n/a	n/a	n/a	-999	20	[5, 2, 9]	16	catFR1	0	R1236J
2224.363	6.051	3010751	PROB	6.051	n/a	n/a	n/a	-999	20	[9, 2, 5]	16	catFR1	0	R1236J
2230.414	4.116	3016802	PROB	4.116	n/a	n/a	n/a	-999	20	[4, 2, 3]	9	catFR1	0	R1236J
2234.53	0.018	3020918	STOP	n/a	n/a	n/a	n/a	-999	20	[-999, -999, -999]	n/a	catFR1	0	R1236J
2234.548	0.618	3020936	DISTRACT_END	n/a	n/a	n/a	n/a	-999	20	[0, 0, 0]	n/a	catFR1	0	R1236J
2235.166	0.516	3021554	RETRIEVAL_ORIENT	n/a	n/a	n/a	n/a	-999	20	[0, 0, 0]	n/a	catFR1	0	R1236J
2235.682	2.003	3022070	REC_START	n/a	n/a	n/a	n/a	-999	20	[0, 0, 0]	n/a	catFR1	0	R1236J
2237.685	2.184	3024073	REC_WORD	2.184	n/a	LAKE	Landscapes	11	20	[0, 0, 0]	n/a	catFR1	0	R1236J
2239.869	2.187	3026257	REC_WORD	2.187	n/a	WOODS	Landscapes	6	20	[0, 0, 0]	n/a	catFR1	0	R1236J
2242.056	2.954	3028444	REC_WORD	2.954	n/a	MOUNTAIN	Landscapes	5	20	[0, 0, 0]	n/a	catFR1	0	R1236J
2245.01	9.738	3031398	REC_WORD	9.738	n/a	STAIRS	Building	9	20	[0, 0, 0]	n/a	catFR1	0	R1236J
2254.748	1.449	3041136	REC_WORD	1.449	n/a	LAMB	n/a	-999	20	[0, 0, 0]	n/a	catFR1	0	R1236J
2256.197	3.065	3042585	REC_WORD	3.065	n/a	BOWL	n/a	-999	20	[0, 0, 0]	n/a	catFR1	0	R1236J
2259.262	2.161	3045650	REC_WORD	2.161	n/a	CHICKEN	n/a	-999	20	[0, 0, 0]	n/a	catFR1	0	R1236J
2261.423	4.27	3047811	REC_WORD	4.27	n/a	SHEEP	n/a	-999	20	[0, 0, 0]	n/a	catFR1	0	R1236J
2265.693	5.109	3052081	REC_END	n/a	n/a	n/a	n/a	-999	20	[0, 0, 0]	n/a	catFR1	0	R1236J
2270.802	0.5	3057190	TRIAL	n/a	n/a	n/a	n/a	-999	21	[0, 0, 0]	n/a	catFR1	0	R1236J
2271.302	10.428	3057690	COUNTDOWN_START	n/a	n/a	n/a	n/a	-999	21	[0, 0, 0]	n/a	catFR1	0	R1236J
2281.73	0.007	3068118	COUNTDOWN_END	n/a	n/a	n/a	n/a	-999	21	[0, 0, 0]	n/a	catFR1	0	R1236J
2281.737	1.617	3068125	ORIENT	n/a	n/a	n/a	n/a	-999	21	[0, 0, 0]	n/a	catFR1	0	R1236J
2283.354	2.117	3069742	ORIENT_OFF	n/a	n/a	n/a	n/a	-999	21	[0, 0, 0]	n/a	catFR1	0	R1236J
2285.471	1.618	3071859	WORD	n/a	wordpools/wordpool_categorized_EN.txt	STRAINER	KitchenTools	1	21	[0, 0, 0]	n/a	catFR1	0	R1236J
2287.089	0.816	3073477	WORD_OFF	n/a	n/a	STRAINER	n/a	1	21	[0, 0, 0]	n/a	catFR1	0	R1236J
2287.905	1.617	3074293	WORD	n/a	wordpools/wordpool_categorized_EN.txt	LADLE	KitchenTools	2	21	[0, 0, 0]	n/a	catFR1	0	R1236J
2289.522	0.916	3075910	WORD_OFF	n/a	n/a	LADLE	n/a	2	21	[0, 0, 0]	n/a	catFR1	0	R1236J
2290.438	1.601	3076826	WORD	n/a	wordpools/wordpool_categorized_EN.txt	NOSE	BodyParts	3	21	[0, 0, 0]	n/a	catFR1	0	R1236J
2292.039	0.951	3078427	WORD_OFF	n/a	n/a	NOSE	n/a	3	21	[0, 0, 0]	n/a	catFR1	0	R1236J
2292.99	1.616	3079378	WORD	n/a	wordpools/wordpool_categorized_EN.txt	TOE	BodyParts	4	21	[0, 0, 0]	n/a	catFR1	0	R1236J
2294.606	0.817	3080994	WORD_OFF	n/a	n/a	TOE	n/a	4	21	[0, 0, 0]	n/a	catFR1	0	R1236J
2295.423	1.618	3081811	WORD	n/a	wordpools/wordpool_categorized_EN.txt	BARBIE	Toys	5	21	[0, 0, 0]	n/a	catFR1	0	R1236J
2297.041	0.765	3083429	WORD_OFF	n/a	n/a	BARBIE	n/a	5	21	[0, 0, 0]	n/a	catFR1	0	R1236J
2297.806	1.617	3084194	WORD	n/a	wordpools/wordpool_categorized_EN.txt	DOLLHOUSE	Toys	6	21	[0, 0, 0]	n/a	catFR1	0	R1236J
2299.423	0.85	3085811	WORD_OFF	n/a	n/a	DOLLHOUSE	n/a	6	21	[0, 0, 0]	n/a	catFR1	0	R1236J
2300.273	1.617	3086661	WORD	n/a	wordpools/wordpool_categorized_EN.txt	EAR	BodyParts	7	21	[0, 0, 0]	n/a	catFR1	0	R1236J
2301.89	0.983	3088278	WORD_OFF	n/a	n/a	EAR	n/a	7	21	[0, 0, 0]	n/a	catFR1	0	R1236J
2302.873	1.617	3089261	WORD	n/a	wordpools/wordpool_categorized_EN.txt	ARM	BodyParts	8	21	[0, 0, 0]	n/a	catFR1	0	R1236J
2304.49	0.768	3090878	WORD_OFF	n/a	n/a	ARM	n/a	8	21	[0, 0, 0]	n/a	catFR1	0	R1236J
2305.258	1.616	3091646	WORD	n/a	wordpools/wordpool_categorized_EN.txt	TONGS	KitchenTools	9	21	[0, 0, 0]	n/a	catFR1	0	R1236J
2306.874	0.884	3093262	WORD_OFF	n/a	n/a	TONGS	n/a	9	21	[0, 0, 0]	n/a	catFR1	0	R1236J
2307.758	1.617	3094146	WORD	n/a	wordpools/wordpool_categorized_EN.txt	SPATULA	KitchenTools	10	21	[0, 0, 0]	n/a	catFR1	0	R1236J
2309.375	0.933	3095763	WORD_OFF	n/a	n/a	SPATULA	n/a	10	21	[0, 0, 0]	n/a	catFR1	0	R1236J
2310.308	1.617	3096696	WORD	n/a	wordpools/wordpool_categorized_EN.txt	SLINKY	Toys	11	21	[0, 0, 0]	n/a	catFR1	0	R1236J
2311.925	0.916	3098313	WORD_OFF	n/a	n/a	SLINKY	n/a	11	21	[0, 0, 0]	n/a	catFR1	0	R1236J
2312.841	1.617	3099229	WORD	n/a	wordpools/wordpool_categorized_EN.txt	FRISBEE	Toys	12	21	[0, 0, 0]	n/a	catFR1	0	R1236J
2314.458	0.001	3100846	WORD_OFF	n/a	n/a	FRISBEE	n/a	12	21	[0, 0, 0]	n/a	catFR1	0	R1236J
2314.459	0.127	3100847	ENCODING_END	n/a	n/a	n/a	n/a	-999	21	[0, 0, 0]	n/a	catFR1	0	R1236J
2314.586	0.0	3100974	DISTRACT_START	n/a	n/a	n/a	n/a	-999	21	[0, 0, 0]	n/a	catFR1	0	R1236J
2314.586	0.022	3100974	START	n/a	n/a	n/a	n/a	-999	21	[-999, -999, -999]	n/a	catFR1	0	R1236J
2314.608	3.485	3100996	PROB	3.485	n/a	n/a	n/a	-999	21	[1, 3, 4]	8	catFR1	0	R1236J
2318.093	7.317	3104481	PROB	7.317	n/a	n/a	n/a	-999	21	[6, 6, 6]	18	catFR1	0	R1236J
2325.41	4.884	3111798	PROB	4.884	n/a	n/a	n/a	-999	21	[4, 9, 7]	20	catFR1	0	R1236J
