onset	duration	sample	trial_type	response_time	stim_file	item_name	category	serialpos	list	test	answer	experiment	session	subject
0.0	164.858	11782	INSTRUCT_START	n/a	n/a	n/a	n/a	-999	-999	[0, 0, 0]	n/a	catFR1	3	R1659A
164.858	21.472	176642	INSTRUCT_END	n/a	n/a	n/a	n/a	-999	-999	[0, 0, 0]	n/a	catFR1	3	R1659A
186.33	10.352	198113	COUNTDOWN_START	n/a	n/a	n/a	n/a	-999	-999	[0, 0, 0]	n/a	catFR1	3	R1659A
196.682	0.0	208463	COUNTDOWN_END	n/a	n/a	n/a	n/a	-999	-999	[0, 0, 0]	n/a	catFR1	3	R1659A
196.682	2.171	208463	ENCODING_START	n/a	n/a	n/a	n/a	-999	-1	[0, 0, 0]	n/a	catFR1	3	R1659A
198.853	1.595	210634	WORD	n/a	n/a	MARIGOLD	Flowers	1	-1	[0, 0, 0]	n/a	catFR1	3	R1659A
200.448	0.816	212232	WORD_OFF	n/a	n/a	MARIGOLD	Flowers	1	-1	[0, 0, 0]	n/a	catFR1	3	R1659A
201.264	1.6	213048	WORD	n/a	n/a	ORCHID	Flowers	2	-1	[0, 0, 0]	n/a	catFR1	3	R1659A
202.864	0.891	214646	WORD_OFF	n/a	n/a	ORCHID	Flowers	2	-1	[0, 0, 0]	n/a	catFR1	3	R1659A
203.755	1.6	215539	WORD	n/a	n/a	GRAPE	Fruit	3	-1	[0, 0, 0]	n/a	catFR1	3	R1659A
205.355	0.933	217137	WORD_OFF	n/a	n/a	GRAPE	Fruit	3	-1	[0, 0, 0]	n/a	catFR1	3	R1659A
206.288	1.601	218074	WORD	n/a	n/a	STRAWBERRY	Fruit	4	-1	[0, 0, 0]	n/a	catFR1	3	R1659A
207.889	0.767	219672	WORD_OFF	n/a	n/a	STRAWBERRY	Fruit	4	-1	[0, 0, 0]	n/a	catFR1	3	R1659A
208.656	1.608	220444	WORD	n/a	n/a	NOSE	BodyParts	5	-1	[0, 0, 0]	n/a	catFR1	3	R1659A
210.264	0.899	222042	WORD_OFF	n/a	n/a	NOSE	BodyParts	5	-1	[0, 0, 0]	n/a	catFR1	3	R1659A
211.163	1.609	222946	WORD	n/a	n/a	LEG	BodyParts	6	-1	[0, 0, 0]	n/a	catFR1	3	R1659A
212.772	0.876	224555	WORD_OFF	n/a	n/a	LEG	BodyParts	6	-1	[0, 0, 0]	n/a	catFR1	3	R1659A
213.648	1.607	225426	WORD	n/a	n/a	ORANGE	Fruit	7	-1	[0, 0, 0]	n/a	catFR1	3	R1659A
215.255	0.867	227035	WORD_OFF	n/a	n/a	ORANGE	Fruit	7	-1	[0, 0, 0]	n/a	catFR1	3	R1659A
216.122	1.609	227906	WORD	n/a	n/a	LIME	Fruit	8	-1	[0, 0, 0]	n/a	catFR1	3	R1659A
217.731	0.874	229515	WORD_OFF	n/a	n/a	LIME	Fruit	8	-1	[0, 0, 0]	n/a	catFR1	3	R1659A
218.605	1.609	230386	WORD	n/a	n/a	FINGERS	BodyParts	9	-1	[0, 0, 0]	n/a	catFR1	3	R1659A
220.214	0.949	231995	WORD_OFF	n/a	n/a	FINGERS	BodyParts	9	-1	[0, 0, 0]	n/a	catFR1	3	R1659A
221.163	1.601	232943	WORD	n/a	n/a	HAND	BodyParts	10	-1	[0, 0, 0]	n/a	catFR1	3	R1659A
222.764	0.825	234541	WORD_OFF	n/a	n/a	HAND	BodyParts	10	-1	[0, 0, 0]	n/a	catFR1	3	R1659A
223.589	1.608	235368	WORD	n/a	n/a	LILAC	Flowers	11	-1	[0, 0, 0]	n/a	catFR1	3	R1659A
225.197	0.817	236977	WORD_OFF	n/a	n/a	LILAC	Flowers	11	-1	[0, 0, 0]	n/a	catFR1	3	R1659A
226.014	1.608	237793	WORD	n/a	n/a	DAISY	Flowers	12	-1	[0, 0, 0]	n/a	catFR1	3	R1659A
227.622	0.003	239402	WORD_OFF	n/a	n/a	DAISY	Flowers	12	-1	[0, 0, 0]	n/a	catFR1	3	R1659A
227.625	0.0	239402	ENCODING_END	n/a	n/a	n/a	n/a	-999	-1	[0, 0, 0]	n/a	catFR1	3	R1659A
227.625	0.0	239413	DISTRACT_START	n/a	n/a	n/a	n/a	-999	-1	[0, 0, 0]	n/a	catFR1	3	R1659A
227.625	0.003	239413	START	n/a	n/a	n/a	n/a	-999	-1	[-999, -999, -999]	n/a	catFR1	3	R1659A
227.628	2.48	239416	PROB	2.466	n/a	n/a	n/a	-999	-1	[3, 5, 1]	9.0	catFR1	3	R1659A
230.108	3.873	241896	PROB	3.867	n/a	n/a	n/a	-999	-1	[3, 6, 2]	10.0	catFR1	3	R1659A
233.981	3.366	245769	PROB	3.358	n/a	n/a	n/a	-999	-1	[3, 1, 2]	6.0	catFR1	3	R1659A
237.347	1.768	249135	PROB	1.758	n/a	n/a	n/a	-999	-1	[1, 4, 3]	8.0	catFR1	3	R1659A
239.115	3.732	250903	PROB	3.725	n/a	n/a	n/a	-999	-1	[8, 7, 3]	18.0	catFR1	3	R1659A
242.847	2.908	254635	PROB	2.9	n/a	n/a	n/a	-999	-1	[1, 2, 5]	8.0	catFR1	3	R1659A
245.755	3.325	257543	PROB	3.316	n/a	n/a	n/a	-999	-1	[6, 3, 1]	10.0	catFR1	3	R1659A
249.08	0.0	260862	DISTRACT_END	n/a	n/a	n/a	n/a	-999	-1	[0, 0, 0]	n/a	catFR1	3	R1659A
249.08	2.16	260868	STOP	n/a	n/a	n/a	n/a	-999	-1	[-999, -999, -999]	n/a	catFR1	3	R1659A
251.24	1.641	263023	REC_START	n/a	n/a	n/a	n/a	-999	-1	[0, 0, 0]	n/a	catFR1	3	R1659A
252.881	9.97	264669	REC_WORD	1.641	n/a	ORCHARD	n/a	-999	-1	[0, 0, 0]	n/a	catFR1	3	R1659A
262.851	18.541	274639	REC_WORD_VV	11.611	n/a	<>	n/a	-999	-1	[0, 0, 0]	n/a	catFR1	3	R1659A
281.392	2.98	293179	REC_END	n/a	n/a	n/a	n/a	-999	-1	[0, 0, 0]	n/a	catFR1	3	R1659A
284.372	10.341	296155	COUNTDOWN_START	n/a	n/a	n/a	n/a	-999	1	[0, 0, 0]	n/a	catFR1	3	R1659A
294.713	0.0	306494	COUNTDOWN_END	n/a	n/a	n/a	n/a	-999	1	[0, 0, 0]	n/a	catFR1	3	R1659A
294.713	2.194	306494	ENCODING_START	n/a	n/a	n/a	n/a	-999	1	[0, 0, 0]	n/a	catFR1	3	R1659A
296.907	1.607	308688	WORD	n/a	wordpools/wordpool_categorized_EN.txt	PEELER	KitchenTools	1	1	[0, 0, 0]	n/a	catFR1	3	R1659A
298.514	0.951	310297	WORD_OFF	n/a	n/a	PEELER	KitchenTools	1	1	[0, 0, 0]	n/a	catFR1	3	R1659A
299.465	1.608	311245	WORD	n/a	wordpools/wordpool_categorized_EN.txt	GRATER	KitchenTools	2	1	[0, 0, 0]	n/a	catFR1	3	R1659A
301.073	0.95	312854	WORD_OFF	n/a	n/a	GRATER	KitchenTools	2	1	[0, 0, 0]	n/a	catFR1	3	R1659A
302.023	1.608	313802	WORD	n/a	wordpools/wordpool_categorized_EN.txt	CIDER	Beverages	3	1	[0, 0, 0]	n/a	catFR1	3	R1659A
303.631	0.883	315411	WORD_OFF	n/a	n/a	CIDER	Beverages	3	1	[0, 0, 0]	n/a	catFR1	3	R1659A
304.514	1.601	316293	WORD	n/a	wordpools/wordpool_categorized_EN.txt	TEA	Beverages	4	1	[0, 0, 0]	n/a	catFR1	3	R1659A
306.115	0.84	317902	WORD_OFF	n/a	n/a	TEA	Beverages	4	1	[0, 0, 0]	n/a	catFR1	3	R1659A
306.955	1.601	318740	WORD	n/a	wordpools/wordpool_categorized_EN.txt	DRUM	Instruments	5	1	[0, 0, 0]	n/a	catFR1	3	R1659A
308.556	0.983	320338	WORD_OFF	n/a	n/a	DRUM	Instruments	5	1	[0, 0, 0]	n/a	catFR1	3	R1659A
309.539	1.609	321319	WORD	n/a	wordpools/wordpool_categorized_EN.txt	ORGAN	Instruments	6	1	[0, 0, 0]	n/a	catFR1	3	R1659A
311.148	0.875	322928	WORD_OFF	n/a	n/a	ORGAN	Instruments	6	1	[0, 0, 0]	n/a	catFR1	3	R1659A
312.023	1.608	323810	WORD	n/a	wordpools/wordpool_categorized_EN.txt	COLANDER	KitchenTools	7	1	[0, 0, 0]	n/a	catFR1	3	R1659A
313.631	0.907	325419	WORD_OFF	n/a	n/a	COLANDER	KitchenTools	7	1	[0, 0, 0]	n/a	catFR1	3	R1659A
314.538	1.61	326323	WORD	n/a	wordpools/wordpool_categorized_EN.txt	STRAINER	KitchenTools	8	1	[0, 0, 0]	n/a	catFR1	3	R1659A
316.148	0.834	327932	WORD_OFF	n/a	n/a	STRAINER	KitchenTools	8	1	[0, 0, 0]	n/a	catFR1	3	R1659A
316.982	1.606	328759	WORD	n/a	wordpools/wordpool_categorized_EN.txt	MILK	Beverages	9	1	[0, 0, 0]	n/a	catFR1	3	R1659A
318.588	0.934	330368	WORD_OFF	n/a	n/a	MILK	Beverages	9	1	[0, 0, 0]	n/a	catFR1	3	R1659A
319.522	1.601	331305	WORD	n/a	wordpools/wordpool_categorized_EN.txt	BEER	Beverages	10	1	[0, 0, 0]	n/a	catFR1	3	R1659A
321.123	0.966	332903	WORD_OFF	n/a	n/a	BEER	Beverages	10	1	[0, 0, 0]	n/a	catFR1	3	R1659A
322.089	1.607	333873	WORD	n/a	wordpools/wordpool_categorized_EN.txt	CELLO	Instruments	11	1	[0, 0, 0]	n/a	catFR1	3	R1659A
323.696	0.785	335483	WORD_OFF	n/a	n/a	CELLO	Instruments	11	1	[0, 0, 0]	n/a	catFR1	3	R1659A
324.481	1.608	336265	WORD	n/a	wordpools/wordpool_categorized_EN.txt	VIOLIN	Instruments	12	1	[0, 0, 0]	n/a	catFR1	3	R1659A
326.089	0.008	337874	WORD_OFF	n/a	n/a	VIOLIN	Instruments	12	1	[0, 0, 0]	n/a	catFR1	3	R1659A
326.097	0.0	337874	ENCODING_END	n/a	n/a	n/a	n/a	-999	1	[0, 0, 0]	n/a	catFR1	3	R1659A
326.09	0.007	337878	PROB	5.2	n/a	n/a	n/a	-999	1	[3, 6, 3]	12.0	catFR1	3	R1659A
326.097	0.0	337885	START	n/a	n/a	n/a	n/a	-999	1	[-999, -999, -999]	n/a	catFR1	3	R1659A
326.097	5.2	337886	DISTRACT_START	n/a	n/a	n/a	n/a	-999	1	[0, 0, 0]	n/a	catFR1	3	R1659A
331.297	2.459	343085	PROB	2.449	n/a	n/a	n/a	-999	1	[5, 2, 7]	17.0	catFR1	3	R1659A
333.756	5.3	345544	PROB	5.291	n/a	n/a	n/a	-999	1	[1, 8, 7]	16.0	catFR1	3	R1659A
339.056	2.099	350844	PROB	2.091	n/a	n/a	n/a	-999	1	[8, 2, 3]	13.0	catFR1	3	R1659A
341.155	2.669	352943	PROB	2.658	n/a	n/a	n/a	-999	1	[3, 2, 1]	6.0	catFR1	3	R1659A
343.824	2.797	355612	PROB	2.791	n/a	n/a	n/a	-999	1	[7, 6, 2]	15.0	catFR1	3	R1659A
346.621	0.0	358398	DISTRACT_END	n/a	n/a	n/a	n/a	-999	1	[0, 0, 0]	n/a	catFR1	3	R1659A
346.621	2.342	358409	STOP	n/a	n/a	n/a	n/a	-999	1	[-999, -999, -999]	n/a	catFR1	3	R1659A
348.963	0.565	360746	REC_START	n/a	n/a	n/a	n/a	-999	1	[0, 0, 0]	n/a	catFR1	3	R1659A
349.528	1.466	361316	REC_WORD	0.565	n/a	COLANDER	KitchenTools	7	1	[0, 0, 0]	n/a	catFR1	3	R1659A
350.994	1.021	362782	REC_WORD	2.031	n/a	MILK	Beverages	9	1	[0, 0, 0]	n/a	catFR1	3	R1659A
352.015	6.011	363803	REC_WORD	3.052	n/a	BEER	Beverages	10	1	[0, 0, 0]	n/a	catFR1	3	R1659A
358.026	6.859	369814	REC_WORD	9.063	n/a	PEELER	KitchenTools	1	1	[0, 0, 0]	n/a	catFR1	3	R1659A
364.885	14.224	376673	REC_WORD	15.922	n/a	STRAINER	KitchenTools	8	1	[0, 0, 0]	n/a	catFR1	3	R1659A
379.109	1.654	390891	REC_END	n/a	n/a	n/a	n/a	-999	1	[0, 0, 0]	n/a	catFR1	3	R1659A
380.763	10.342	392545	COUNTDOWN_START	n/a	n/a	n/a	n/a	-999	2	[0, 0, 0]	n/a	catFR1	3	R1659A
391.105	0.0	402884	COUNTDOWN_END	n/a	n/a	n/a	n/a	-999	2	[0, 0, 0]	n/a	catFR1	3	R1659A
391.105	1.984	402895	ENCODING_START	n/a	n/a	n/a	n/a	-999	2	[0, 0, 0]	n/a	catFR1	3	R1659A
393.089	1.608	404868	WORD	n/a	wordpools/wordpool_categorized_EN.txt	PANTS	Clothing	1	2	[0, 0, 0]	n/a	catFR1	3	R1659A
394.697	0.758	406477	WORD_OFF	n/a	n/a	PANTS	Clothing	1	2	[0, 0, 0]	n/a	catFR1	3	R1659A
395.455	1.6	407237	WORD	n/a	wordpools/wordpool_categorized_EN.txt	SHORTS	Clothing	2	2	[0, 0, 0]	n/a	catFR1	3	R1659A
397.055	0.876	408836	WORD_OFF	n/a	n/a	SHORTS	Clothing	2	2	[0, 0, 0]	n/a	catFR1	3	R1659A
397.931	1.608	409717	WORD	n/a	wordpools/wordpool_categorized_EN.txt	MOUNTAIN	Landscapes	3	2	[0, 0, 0]	n/a	catFR1	3	R1659A
399.539	0.958	411327	WORD_OFF	n/a	n/a	MOUNTAIN	Landscapes	3	2	[0, 0, 0]	n/a	catFR1	3	R1659A
400.497	1.601	412274	WORD	n/a	wordpools/wordpool_categorized_EN.txt	BEACH	Landscapes	4	2	[0, 0, 0]	n/a	catFR1	3	R1659A
402.098	0.99	413884	WORD_OFF	n/a	n/a	BEACH	Landscapes	4	2	[0, 0, 0]	n/a	catFR1	3	R1659A
403.088	1.602	414865	WORD	n/a	wordpools/wordpool_categorized_EN.txt	THUNDER	Weather	5	2	[0, 0, 0]	n/a	catFR1	3	R1659A
404.69	0.966	416474	WORD_OFF	n/a	n/a	THUNDER	Weather	5	2	[0, 0, 0]	n/a	catFR1	3	R1659A
405.656	1.6	417433	WORD	n/a	wordpools/wordpool_categorized_EN.txt	FOG	Weather	6	2	[0, 0, 0]	n/a	catFR1	3	R1659A
407.256	0.766	419042	WORD_OFF	n/a	n/a	FOG	Weather	6	2	[0, 0, 0]	n/a	catFR1	3	R1659A
408.022	1.601	419803	WORD	n/a	wordpools/wordpool_categorized_EN.txt	ISLAND	Landscapes	7	2	[0, 0, 0]	n/a	catFR1	3	R1659A
409.623	0.958	421401	WORD_OFF	n/a	n/a	ISLAND	Landscapes	7	2	[0, 0, 0]	n/a	catFR1	3	R1659A
410.581	1.609	422360	WORD	n/a	wordpools/wordpool_categorized_EN.txt	WOODS	Landscapes	8	2	[0, 0, 0]	n/a	catFR1	3	R1659A
412.19	0.883	423969	WORD_OFF	n/a	n/a	WOODS	Landscapes	8	2	[0, 0, 0]	n/a	catFR1	3	R1659A
413.073	1.607	424851	WORD	n/a	wordpools/wordpool_categorized_EN.txt	THUNDERSTORM	Weather	9	2	[0, 0, 0]	n/a	catFR1	3	R1659A
414.68	0.926	426460	WORD_OFF	n/a	n/a	THUNDERSTORM	Weather	9	2	[0, 0, 0]	n/a	catFR1	3	R1659A
415.606	1.609	427386	WORD	n/a	wordpools/wordpool_categorized_EN.txt	SNOW	Weather	10	2	[0, 0, 0]	n/a	catFR1	3	R1659A
417.215	0.766	428995	WORD_OFF	n/a	n/a	SNOW	Weather	10	2	[0, 0, 0]	n/a	catFR1	3	R1659A
417.981	1.609	429767	WORD	n/a	wordpools/wordpool_categorized_EN.txt	COAT	Clothing	11	2	[0, 0, 0]	n/a	catFR1	3	R1659A
419.59	0.808	431376	WORD_OFF	n/a	n/a	COAT	Clothing	11	2	[0, 0, 0]	n/a	catFR1	3	R1659A
420.398	1.6	432181	WORD	n/a	wordpools/wordpool_categorized_EN.txt	SOCKS	Clothing	12	2	[0, 0, 0]	n/a	catFR1	3	R1659A
421.998	0.004	433779	WORD_OFF	n/a	n/a	SOCKS	Clothing	12	2	[0, 0, 0]	n/a	catFR1	3	R1659A
422.002	0.0	433779	ENCODING_END	n/a	n/a	n/a	n/a	-999	2	[0, 0, 0]	n/a	catFR1	3	R1659A
421.997	0.005	433785	PROB	6.083	n/a	n/a	n/a	-999	2	[8, 1, 3]	12.0	catFR1	3	R1659A
422.002	0.0	433790	DISTRACT_START	n/a	n/a	n/a	n/a	-999	2	[0, 0, 0]	n/a	catFR1	3	R1659A
422.002	6.087	433790	START	n/a	n/a	n/a	n/a	-999	2	[-999, -999, -999]	n/a	catFR1	3	R1659A
428.089	5.667	439876	PROB	5.657	n/a	n/a	n/a	-999	2	[5, 6, 5]	17.0	catFR1	3	R1659A
433.756	4.724	445543	PROB	4.716	n/a	n/a	n/a	-999	2	[5, 7, 8]	20.0	catFR1	3	R1659A
438.48	4.926	450267	PROB	4.916	n/a	n/a	n/a	-999	2	[7, 6, 2]	15.0	catFR1	3	R1659A
443.406	0.0	455184	DISTRACT_END	n/a	n/a	n/a	n/a	-999	2	[0, 0, 0]	n/a	catFR1	3	R1659A
443.406	2.034	455193	STOP	n/a	n/a	n/a	n/a	-999	2	[-999, -999, -999]	n/a	catFR1	3	R1659A
445.44	1.67	457234	REC_START	n/a	n/a	n/a	n/a	-999	2	[0, 0, 0]	n/a	catFR1	3	R1659A
447.11	28.471	458897	REC_WORD	1.67	n/a	SHORTS	Clothing	2	2	[0, 0, 0]	n/a	catFR1	3	R1659A
475.581	2.265	487358	REC_END	n/a	n/a	n/a	n/a	-999	2	[0, 0, 0]	n/a	catFR1	3	R1659A
477.846	10.334	489628	COUNTDOWN_START	n/a	n/a	n/a	n/a	-999	3	[0, 0, 0]	n/a	catFR1	3	R1659A
488.18	0.0	499956	COUNTDOWN_END	n/a	n/a	n/a	n/a	-999	3	[0, 0, 0]	n/a	catFR1	3	R1659A
488.18	1.858	499967	ENCODING_START	n/a	n/a	n/a	n/a	-999	3	[0, 0, 0]	n/a	catFR1	3	R1659A
490.038	1.6	501819	WORD	n/a	wordpools/wordpool_categorized_EN.txt	ROACH	Insects	1	3	[0, 0, 0]	n/a	catFR1	3	R1659A
491.638	0.96	503417	WORD_OFF	n/a	n/a	ROACH	Insects	1	3	[0, 0, 0]	n/a	catFR1	3	R1659A
492.598	1.599	504376	WORD	n/a	wordpools/wordpool_categorized_EN.txt	CRICKET	Insects	2	3	[0, 0, 0]	n/a	catFR1	3	R1659A
494.197	0.791	505974	WORD_OFF	n/a	n/a	CRICKET	Insects	2	3	[0, 0, 0]	n/a	catFR1	3	R1659A
494.988	1.601	506768	WORD	n/a	wordpools/wordpool_categorized_EN.txt	LIGHTNING	Weather	3	3	[0, 0, 0]	n/a	catFR1	3	R1659A
496.589	0.908	508366	WORD_OFF	n/a	n/a	LIGHTNING	Weather	3	3	[0, 0, 0]	n/a	catFR1	3	R1659A
497.497	1.6	509281	WORD	n/a	wordpools/wordpool_categorized_EN.txt	HURRICANE	Weather	4	3	[0, 0, 0]	n/a	catFR1	3	R1659A
499.097	0.966	510879	WORD_OFF	n/a	n/a	HURRICANE	Weather	4	3	[0, 0, 0]	n/a	catFR1	3	R1659A
500.063	1.601	511849	WORD	n/a	wordpools/wordpool_categorized_EN.txt	TUBA	Instruments	5	3	[0, 0, 0]	n/a	catFR1	3	R1659A
501.664	0.758	513447	WORD_OFF	n/a	n/a	TUBA	Instruments	5	3	[0, 0, 0]	n/a	catFR1	3	R1659A
502.422	1.6	514208	WORD	n/a	wordpools/wordpool_categorized_EN.txt	TRUMPET	Instruments	6	3	[0, 0, 0]	n/a	catFR1	3	R1659A
504.022	0.759	515806	WORD_OFF	n/a	n/a	TRUMPET	Instruments	6	3	[0, 0, 0]	n/a	catFR1	3	R1659A
504.781	1.608	516567	WORD	n/a	wordpools/wordpool_categorized_EN.txt	SPIDER	Insects	7	3	[0, 0, 0]	n/a	catFR1	3	R1659A
506.389	0.775	518165	WORD_OFF	n/a	n/a	SPIDER	Insects	7	3	[0, 0, 0]	n/a	catFR1	3	R1659A
507.164	1.609	518947	WORD	n/a	wordpools/wordpool_categorized_EN.txt	BEE	Insects	8	3	[0, 0, 0]	n/a	catFR1	3	R1659A
508.773	0.882	520557	WORD_OFF	n/a	n/a	BEE	Insects	8	3	[0, 0, 0]	n/a	catFR1	3	R1659A
509.655	1.599	521438	WORD	n/a	wordpools/wordpool_categorized_EN.txt	TORNADO	Weather	9	3	[0, 0, 0]	n/a	catFR1	3	R1659A
511.254	0.817	523037	WORD_OFF	n/a	n/a	TORNADO	Weather	9	3	[0, 0, 0]	n/a	catFR1	3	R1659A
512.071	1.601	523852	WORD	n/a	wordpools/wordpool_categorized_EN.txt	RAIN	Weather	10	3	[0, 0, 0]	n/a	catFR1	3	R1659A
513.672	0.799	525451	WORD_OFF	n/a	n/a	RAIN	Weather	10	3	[0, 0, 0]	n/a	catFR1	3	R1659A
514.471	1.6	526255	WORD	n/a	wordpools/wordpool_categorized_EN.txt	BANJO	Instruments	11	3	[0, 0, 0]	n/a	catFR1	3	R1659A
516.071	0.877	527853	WORD_OFF	n/a	n/a	BANJO	Instruments	11	3	[0, 0, 0]	n/a	catFR1	3	R1659A
516.948	1.608	528724	WORD	n/a	wordpools/wordpool_categorized_EN.txt	GUITAR	Instruments	12	3	[0, 0, 0]	n/a	catFR1	3	R1659A
518.556	0.0	530333	WORD_OFF	n/a	n/a	GUITAR	Instruments	12	3	[0, 0, 0]	n/a	catFR1	3	R1659A
518.556	0.003	530343	PROB	2.833	n/a	n/a	n/a	-999	3	[4, 1, 4]	9.0	catFR1	3	R1659A
518.559	0.0	530344	ENCODING_END	n/a	n/a	n/a	n/a	-999	3	[0, 0, 0]	n/a	catFR1	3	R1659A
518.559	0.0	530344	DISTRACT_START	n/a	n/a	n/a	n/a	-999	3	[0, 0, 0]	n/a	catFR1	3	R1659A
518.559	2.839	530346	START	n/a	n/a	n/a	n/a	-999	3	[-999, -999, -999]	n/a	catFR1	3	R1659A
521.398	2.466	533185	PROB	2.458	n/a	n/a	n/a	-999	3	[6, 5, 2]	13.0	catFR1	3	R1659A
523.864	3.307	535651	PROB	3.299	n/a	n/a	n/a	-999	3	[6, 5, 6]	17.0	catFR1	3	R1659A
527.171	2.192	538958	PROB	2.183	n/a	n/a	n/a	-999	3	[1, 3, 3]	5.0	catFR1	3	R1659A
529.363	4.55	541150	PROB	4.541	n/a	n/a	n/a	-999	3	[1, 1, 7]	9.0	catFR1	3	R1659A
533.913	2.375	545700	PROB	2.367	n/a	n/a	n/a	-999	3	[3, 4, 7]	14.0	catFR1	3	R1659A
536.288	3.042	548075	PROB	3.033	n/a	n/a	n/a	-999	3	[8, 1, 3]	14.0	catFR1	3	R1659A
539.33	0.0	551110	DISTRACT_END	n/a	n/a	n/a	n/a	-999	3	[0, 0, 0]	n/a	catFR1	3	R1659A
539.33	2.033	551117	STOP	n/a	n/a	n/a	n/a	-999	3	[-999, -999, -999]	n/a	catFR1	3	R1659A
541.363	1.783	553149	REC_START	n/a	n/a	n/a	n/a	-999	3	[0, 0, 0]	n/a	catFR1	3	R1659A
543.146	0.497	554933	REC_WORD_VV	1.783	n/a	<>	n/a	-999	3	[0, 0, 0]	n/a	catFR1	3	R1659A
543.643	3.438	555430	REC_WORD	2.28	n/a	TRUMPET	Instruments	6	3	[0, 0, 0]	n/a	catFR1	3	R1659A
547.081	24.415	558868	REC_WORD	5.718	n/a	CRICKET	Insects	2	3	[0, 0, 0]	n/a	catFR1	3	R1659A
571.496	1.852	583273	REC_END	n/a	n/a	n/a	n/a	-999	3	[0, 0, 0]	n/a	catFR1	3	R1659A
573.348	10.342	585136	COUNTDOWN_START	n/a	n/a	n/a	n/a	-999	4	[0, 0, 0]	n/a	catFR1	3	R1659A
583.69	0.0	595475	COUNTDOWN_END	n/a	n/a	n/a	n/a	-999	4	[0, 0, 0]	n/a	catFR1	3	R1659A
583.69	2.265	595475	ENCODING_START	n/a	n/a	n/a	n/a	-999	4	[0, 0, 0]	n/a	catFR1	3	R1659A
585.955	1.601	597734	WORD	n/a	wordpools/wordpool_categorized_EN.txt	FLUTE	Instruments	1	4	[0, 0, 0]	n/a	catFR1	3	R1659A
587.556	0.916	599332	WORD_OFF	n/a	n/a	FLUTE	Instruments	1	4	[0, 0, 0]	n/a	catFR1	3	R1659A
588.472	1.608	600258	WORD	n/a	wordpools/wordpool_categorized_EN.txt	TROMBONE	Instruments	2	4	[0, 0, 0]	n/a	catFR1	3	R1659A
590.08	0.759	601856	WORD_OFF	n/a	n/a	TROMBONE	Instruments	2	4	[0, 0, 0]	n/a	catFR1	3	R1659A
590.839	1.6	602617	WORD	n/a	wordpools/wordpool_categorized_EN.txt	WINDOW	Building	3	4	[0, 0, 0]	n/a	catFR1	3	R1659A
592.439	0.767	604226	WORD_OFF	n/a	n/a	WINDOW	Building	3	4	[0, 0, 0]	n/a	catFR1	3	R1659A
593.206	1.608	604987	WORD	n/a	wordpools/wordpool_categorized_EN.txt	HALLWAY	Building	4	4	[0, 0, 0]	n/a	catFR1	3	R1659A
594.814	1.001	606596	WORD_OFF	n/a	n/a	HALLWAY	Building	4	4	[0, 0, 0]	n/a	catFR1	3	R1659A
595.815	1.608	607599	WORD	n/a	wordpools/wordpool_categorized_EN.txt	TOASTER	Appliances	5	4	[0, 0, 0]	n/a	catFR1	3	R1659A
597.423	0.808	609208	WORD_OFF	n/a	n/a	TOASTER	Appliances	5	4	[0, 0, 0]	n/a	catFR1	3	R1659A
598.231	1.6	610013	WORD	n/a	wordpools/wordpool_categorized_EN.txt	DISHWASHER	Appliances	6	4	[0, 0, 0]	n/a	catFR1	3	R1659A
599.831	0.94	611611	WORD_OFF	n/a	n/a	DISHWASHER	Appliances	6	4	[0, 0, 0]	n/a	catFR1	3	R1659A
600.771	1.604	612548	WORD	n/a	wordpools/wordpool_categorized_EN.txt	PIANO	Instruments	7	4	[0, 0, 0]	n/a	catFR1	3	R1659A
602.375	0.897	614157	WORD_OFF	n/a	n/a	PIANO	Instruments	7	4	[0, 0, 0]	n/a	catFR1	3	R1659A
603.272	1.601	615050	WORD	n/a	wordpools/wordpool_categorized_EN.txt	BASS	Instruments	8	4	[0, 0, 0]	n/a	catFR1	3	R1659A
604.873	0.931	616659	WORD_OFF	n/a	n/a	BASS	Instruments	8	4	[0, 0, 0]	n/a	catFR1	3	R1659A
605.804	1.602	617585	WORD	n/a	wordpools/wordpool_categorized_EN.txt	FOUNDATION	Building	9	4	[0, 0, 0]	n/a	catFR1	3	R1659A
607.406	0.882	619183	WORD_OFF	n/a	n/a	FOUNDATION	Building	9	4	[0, 0, 0]	n/a	catFR1	3	R1659A
608.288	1.601	620065	WORD	n/a	wordpools/wordpool_categorized_EN.txt	WALL	Building	10	4	[0, 0, 0]	n/a	catFR1	3	R1659A
609.889	0.758	621674	WORD_OFF	n/a	n/a	WALL	Building	10	4	[0, 0, 0]	n/a	catFR1	3	R1659A
610.647	1.599	622424	WORD	n/a	wordpools/wordpool_categorized_EN.txt	WASHER	Appliances	11	4	[0, 0, 0]	n/a	catFR1	3	R1659A
612.246	0.967	624022	WORD_OFF	n/a	n/a	WASHER	Appliances	11	4	[0, 0, 0]	n/a	catFR1	3	R1659A
613.213	1.601	624992	WORD	n/a	wordpools/wordpool_categorized_EN.txt	BLENDER	Appliances	12	4	[0, 0, 0]	n/a	catFR1	3	R1659A
614.814	0.003	626590	WORD_OFF	n/a	n/a	BLENDER	Appliances	12	4	[0, 0, 0]	n/a	catFR1	3	R1659A
614.817	0.0	626601	ENCODING_END	n/a	n/a	n/a	n/a	-999	4	[0, 0, 0]	n/a	catFR1	3	R1659A
614.817	0.0	626601	DISTRACT_START	n/a	n/a	n/a	n/a	-999	4	[0, 0, 0]	n/a	catFR1	3	R1659A
614.815	0.002	626602	PROB	3.324	n/a	n/a	n/a	-999	4	[2, 2, 6]	10.0	catFR1	3	R1659A
614.817	3.331	626604	START	n/a	n/a	n/a	n/a	-999	4	[-999, -999, -999]	n/a	catFR1	3	R1659A
618.148	2.632	629935	PROB	2.625	n/a	n/a	n/a	-999	4	[2, 2, 1]	5.0	catFR1	3	R1659A
620.78	5.417	632567	PROB	5.408	n/a	n/a	n/a	-999	4	[3, 3, 8]	14.0	catFR1	3	R1659A
626.197	7.984	637984	PROB	7.974	n/a	n/a	n/a	-999	4	[8, 8, 7]	23.0	catFR1	3	R1659A
634.181	5.791	645968	PROB	5.783	n/a	n/a	n/a	-999	4	[3, 8, 5]	16.0	catFR1	3	R1659A
639.972	0.0	651754	DISTRACT_END	n/a	n/a	n/a	n/a	-999	4	[0, 0, 0]	n/a	catFR1	3	R1659A
639.972	2.291	651759	STOP	n/a	n/a	n/a	n/a	-999	4	[-999, -999, -999]	n/a	catFR1	3	R1659A
642.263	1.814	654047	REC_START	n/a	n/a	n/a	n/a	-999	4	[0, 0, 0]	n/a	catFR1	3	R1659A
644.077	28.323	655864	REC_WORD	1.814	n/a	DISHWASHER	Appliances	6	4	[0, 0, 0]	n/a	catFR1	3	R1659A
672.4	1.779	684181	REC_END	n/a	n/a	n/a	n/a	-999	4	[0, 0, 0]	n/a	catFR1	3	R1659A
674.179	10.334	685956	COUNTDOWN_START	n/a	n/a	n/a	n/a	-999	5	[0, 0, 0]	n/a	catFR1	3	R1659A
684.513	0.0	696295	COUNTDOWN_END	n/a	n/a	n/a	n/a	-999	5	[0, 0, 0]	n/a	catFR1	3	R1659A
684.513	2.327	696295	ENCODING_START	n/a	n/a	n/a	n/a	-999	5	[0, 0, 0]	n/a	catFR1	3	R1659A
686.84	1.608	698621	WORD	n/a	wordpools/wordpool_categorized_EN.txt	CROW	Birds	1	5	[0, 0, 0]	n/a	catFR1	3	R1659A
688.448	0.865	700230	WORD_OFF	n/a	n/a	CROW	Birds	1	5	[0, 0, 0]	n/a	catFR1	3	R1659A
689.313	1.601	701090	WORD	n/a	wordpools/wordpool_categorized_EN.txt	BLUEBIRD	Birds	2	5	[0, 0, 0]	n/a	catFR1	3	R1659A
690.914	0.782	702699	WORD_OFF	n/a	n/a	BLUEBIRD	Birds	2	5	[0, 0, 0]	n/a	catFR1	3	R1659A
691.696	1.602	703481	WORD	n/a	wordpools/wordpool_categorized_EN.txt	REFRIGERATOR	Appliances	3	5	[0, 0, 0]	n/a	catFR1	3	R1659A
693.298	0.756	705080	WORD_OFF	n/a	n/a	REFRIGERATOR	Appliances	3	5	[0, 0, 0]	n/a	catFR1	3	R1659A
694.054	1.601	705829	WORD	n/a	wordpools/wordpool_categorized_EN.txt	FREEZER	Appliances	4	5	[0, 0, 0]	n/a	catFR1	3	R1659A
695.655	0.917	707438	WORD_OFF	n/a	n/a	FREEZER	Appliances	4	5	[0, 0, 0]	n/a	catFR1	3	R1659A
696.572	1.609	708353	WORD	n/a	wordpools/wordpool_categorized_EN.txt	PUDDING	Desserts	5	5	[0, 0, 0]	n/a	catFR1	3	R1659A
698.181	0.775	709962	WORD_OFF	n/a	n/a	PUDDING	Desserts	5	5	[0, 0, 0]	n/a	catFR1	3	R1659A
698.956	1.607	710734	WORD	n/a	wordpools/wordpool_categorized_EN.txt	PASTRY	Desserts	6	5	[0, 0, 0]	n/a	catFR1	3	R1659A
700.563	0.751	712343	WORD_OFF	n/a	n/a	PASTRY	Desserts	6	5	[0, 0, 0]	n/a	catFR1	3	R1659A
701.314	1.601	713093	WORD	n/a	wordpools/wordpool_categorized_EN.txt	PIGEON	Birds	7	5	[0, 0, 0]	n/a	catFR1	3	R1659A
702.915	0.865	714691	WORD_OFF	n/a	n/a	PIGEON	Birds	7	5	[0, 0, 0]	n/a	catFR1	3	R1659A
703.78	1.601	715562	WORD	n/a	wordpools/wordpool_categorized_EN.txt	SPARROW	Birds	8	5	[0, 0, 0]	n/a	catFR1	3	R1659A
705.381	0.773	717160	WORD_OFF	n/a	n/a	SPARROW	Birds	8	5	[0, 0, 0]	n/a	catFR1	3	R1659A
706.154	1.612	717931	WORD	n/a	wordpools/wordpool_categorized_EN.txt	OVEN	Appliances	9	5	[0, 0, 0]	n/a	catFR1	3	R1659A
707.766	0.799	719552	WORD_OFF	n/a	n/a	OVEN	Appliances	9	5	[0, 0, 0]	n/a	catFR1	3	R1659A
708.565	1.607	720345	WORD	n/a	wordpools/wordpool_categorized_EN.txt	IRON	Appliances	10	5	[0, 0, 0]	n/a	catFR1	3	R1659A
710.172	0.867	721955	WORD_OFF	n/a	n/a	IRON	Appliances	10	5	[0, 0, 0]	n/a	catFR1	3	R1659A
711.039	1.609	722825	WORD	n/a	wordpools/wordpool_categorized_EN.txt	BROWNIES	Desserts	11	5	[0, 0, 0]	n/a	catFR1	3	R1659A
712.648	0.89	724424	WORD_OFF	n/a	n/a	BROWNIES	Desserts	11	5	[0, 0, 0]	n/a	catFR1	3	R1659A
713.538	1.601	725316	WORD	n/a	wordpools/wordpool_categorized_EN.txt	COBBLER	Desserts	12	5	[0, 0, 0]	n/a	catFR1	3	R1659A
715.139	0.001	726925	PROB	3.307	n/a	n/a	n/a	-999	5	[6, 2, 6]	16.0	catFR1	3	R1659A
715.14	0.003	726926	WORD_OFF	n/a	n/a	COBBLER	Desserts	12	5	[0, 0, 0]	n/a	catFR1	3	R1659A
715.143	0.0	726926	ENCODING_END	n/a	n/a	n/a	n/a	-999	5	[0, 0, 0]	n/a	catFR1	3	R1659A
715.143	0.0	726926	DISTRACT_START	n/a	n/a	n/a	n/a	-999	5	[0, 0, 0]	n/a	catFR1	3	R1659A
715.143	3.312	726929	START	n/a	n/a	n/a	n/a	-999	5	[-999, -999, -999]	n/a	catFR1	3	R1659A
718.455	3.26	730241	PROB	3.249	n/a	n/a	n/a	-999	5	[3, 2, 5]	10.0	catFR1	3	R1659A
721.715	2.988	733501	PROB	2.974	n/a	n/a	n/a	-999	5	[5, 2, 1]	8.0	catFR1	3	R1659A
724.703	9.17	736489	PROB	9.158	n/a	n/a	n/a	-999	5	[7, 5, 6]	18.0	catFR1	3	R1659A
733.873	3.707	745659	PROB	3.7	n/a	n/a	n/a	-999	5	[4, 4, 1]	9.0	catFR1	3	R1659A
737.58	0.0	749356	DISTRACT_END	n/a	n/a	n/a	n/a	-999	5	[0, 0, 0]	n/a	catFR1	3	R1659A
737.58	2.383	749366	STOP	n/a	n/a	n/a	n/a	-999	5	[-999, -999, -999]	n/a	catFR1	3	R1659A
739.963	23.279	751748	REC_START	n/a	n/a	n/a	n/a	-999	5	[0, 0, 0]	n/a	catFR1	3	R1659A
763.242	3.826	775028	REC_WORD	23.279	n/a	CRICKET	Insects	-999	5	[0, 0, 0]	n/a	catFR1	3	R1659A
767.068	3.03	778854	REC_WORD_VV	27.105	n/a	<>	n/a	-999	5	[0, 0, 0]	n/a	catFR1	3	R1659A
770.098	1.523	781882	REC_END	n/a	n/a	n/a	n/a	-999	5	[0, 0, 0]	n/a	catFR1	3	R1659A
771.621	10.342	783403	COUNTDOWN_START	n/a	n/a	n/a	n/a	-999	6	[0, 0, 0]	n/a	catFR1	3	R1659A
781.963	0.0	793742	COUNTDOWN_END	n/a	n/a	n/a	n/a	-999	6	[0, 0, 0]	n/a	catFR1	3	R1659A
781.963	2.093	793742	ENCODING_START	n/a	n/a	n/a	n/a	-999	6	[0, 0, 0]	n/a	catFR1	3	R1659A
784.056	1.6	795836	WORD	n/a	wordpools/wordpool_categorized_EN.txt	BEETLE	Insects	1	6	[0, 0, 0]	n/a	catFR1	3	R1659A
785.656	0.841	797435	WORD_OFF	n/a	n/a	BEETLE	Insects	1	6	[0, 0, 0]	n/a	catFR1	3	R1659A
786.497	1.609	798272	WORD	n/a	wordpools/wordpool_categorized_EN.txt	ANT	Insects	2	6	[0, 0, 0]	n/a	catFR1	3	R1659A
788.106	0.775	799893	WORD_OFF	n/a	n/a	ANT	Insects	2	6	[0, 0, 0]	n/a	catFR1	3	R1659A
788.881	1.607	800664	WORD	n/a	wordpools/wordpool_categorized_EN.txt	CROWBAR	Tools	3	6	[0, 0, 0]	n/a	catFR1	3	R1659A
790.488	0.818	802273	WORD_OFF	n/a	n/a	CROWBAR	Tools	3	6	[0, 0, 0]	n/a	catFR1	3	R1659A
791.306	1.6	803089	WORD	n/a	wordpools/wordpool_categorized_EN.txt	PLIERS	Tools	4	6	[0, 0, 0]	n/a	catFR1	3	R1659A
792.906	0.849	804687	WORD_OFF	n/a	n/a	PLIERS	Tools	4	6	[0, 0, 0]	n/a	catFR1	3	R1659A
793.755	1.601	805536	WORD	n/a	wordpools/wordpool_categorized_EN.txt	ARM	BodyParts	5	6	[0, 0, 0]	n/a	catFR1	3	R1659A
795.356	0.998	807134	WORD_OFF	n/a	n/a	ARM	BodyParts	5	6	[0, 0, 0]	n/a	catFR1	3	R1659A
796.354	1.602	808137	WORD	n/a	wordpools/wordpool_categorized_EN.txt	EAR	BodyParts	6	6	[0, 0, 0]	n/a	catFR1	3	R1659A
797.956	0.858	809735	WORD_OFF	n/a	n/a	EAR	BodyParts	6	6	[0, 0, 0]	n/a	catFR1	3	R1659A
798.814	1.6	810595	WORD	n/a	wordpools/wordpool_categorized_EN.txt	BUTTERFLY	Insects	7	6	[0, 0, 0]	n/a	catFR1	3	R1659A
800.414	0.784	812193	WORD_OFF	n/a	n/a	BUTTERFLY	Insects	7	6	[0, 0, 0]	n/a	catFR1	3	R1659A
801.198	1.607	812976	WORD	n/a	wordpools/wordpool_categorized_EN.txt	MOSQUITO	Insects	8	6	[0, 0, 0]	n/a	catFR1	3	R1659A
802.805	0.867	814585	WORD_OFF	n/a	n/a	MOSQUITO	Insects	8	6	[0, 0, 0]	n/a	catFR1	3	R1659A
803.672	1.601	815456	WORD	n/a	wordpools/wordpool_categorized_EN.txt	FOOT	BodyParts	9	6	[0, 0, 0]	n/a	catFR1	3	R1659A
805.273	0.94	817054	WORD_OFF	n/a	n/a	FOOT	BodyParts	9	6	[0, 0, 0]	n/a	catFR1	3	R1659A
806.213	1.6	817991	WORD	n/a	wordpools/wordpool_categorized_EN.txt	ELBOW	BodyParts	10	6	[0, 0, 0]	n/a	catFR1	3	R1659A
807.813	0.993	819589	WORD_OFF	n/a	n/a	ELBOW	BodyParts	10	6	[0, 0, 0]	n/a	catFR1	3	R1659A
808.806	1.608	820581	WORD	n/a	wordpools/wordpool_categorized_EN.txt	DRILL	Tools	11	6	[0, 0, 0]	n/a	catFR1	3	R1659A
810.414	0.892	822191	WORD_OFF	n/a	n/a	DRILL	Tools	11	6	[0, 0, 0]	n/a	catFR1	3	R1659A
811.306	1.607	823083	WORD	n/a	wordpools/wordpool_categorized_EN.txt	HAMMER	Tools	12	6	[0, 0, 0]	n/a	catFR1	3	R1659A
812.913	0.003	824693	WORD_OFF	n/a	n/a	HAMMER	Tools	12	6	[0, 0, 0]	n/a	catFR1	3	R1659A
812.916	0.0	824693	ENCODING_END	n/a	n/a	n/a	n/a	-999	6	[0, 0, 0]	n/a	catFR1	3	R1659A
812.916	0.0	824693	DISTRACT_START	n/a	n/a	n/a	n/a	-999	6	[0, 0, 0]	n/a	catFR1	3	R1659A
812.915	0.001	824701	PROB	8.491	n/a	n/a	n/a	-999	6	[8, 6, 8]	22.0	catFR1	3	R1659A
812.916	8.498	824702	START	n/a	n/a	n/a	n/a	-999	6	[-999, -999, -999]	n/a	catFR1	3	R1659A
821.414	5.392	833200	PROB	5.383	n/a	n/a	n/a	-999	6	[3, 4, 6]	13.0	catFR1	3	R1659A
826.806	4.025	838592	PROB	4.016	n/a	n/a	n/a	-999	6	[5, 4, 1]	10.0	catFR1	3	R1659A
830.831	2.333	842617	PROB	2.325	n/a	n/a	n/a	-999	6	[1, 7, 1]	9.0	catFR1	3	R1659A
833.164	0.0	844940	DISTRACT_END	n/a	n/a	n/a	n/a	-999	6	[0, 0, 0]	n/a	catFR1	3	R1659A
833.164	2.35	844950	STOP	n/a	n/a	n/a	n/a	-999	6	[-999, -999, -999]	n/a	catFR1	3	R1659A
835.514	1.011	847299	REC_START	n/a	n/a	n/a	n/a	-999	6	[0, 0, 0]	n/a	catFR1	3	R1659A
836.525	0.974	848311	REC_WORD	1.011	n/a	CROWBAR	Tools	3	6	[0, 0, 0]	n/a	catFR1	3	R1659A
837.499	5.06	849285	REC_WORD	1.985	n/a	PILLARS	n/a	-999	6	[0, 0, 0]	n/a	catFR1	3	R1659A
842.559	2.777	854345	REC_WORD	7.045	n/a	CROW	Birds	-999	6	[0, 0, 0]	n/a	catFR1	3	R1659A
845.336	20.319	857122	REC_WORD_VV	9.822	n/a	<>	n/a	-999	6	[0, 0, 0]	n/a	catFR1	3	R1659A
865.655	1.8	877434	REC_END	n/a	n/a	n/a	n/a	-999	6	[0, 0, 0]	n/a	catFR1	3	R1659A
867.455	10.342	879231	COUNTDOWN_START	n/a	n/a	n/a	n/a	-999	7	[0, 0, 0]	n/a	catFR1	3	R1659A
877.797	0.0	889580	COUNTDOWN_END	n/a	n/a	n/a	n/a	-999	7	[0, 0, 0]	n/a	catFR1	3	R1659A
877.797	2.209	889580	ENCODING_START	n/a	n/a	n/a	n/a	-999	7	[0, 0, 0]	n/a	catFR1	3	R1659A
880.006	1.607	891785	WORD	n/a	wordpools/wordpool_categorized_EN.txt	ELM	Trees	1	7	[0, 0, 0]	n/a	catFR1	3	R1659A
881.613	0.86	893394	WORD_OFF	n/a	n/a	ELM	Trees	1	7	[0, 0, 0]	n/a	catFR1	3	R1659A
882.473	1.607	894254	WORD	n/a	wordpools/wordpool_categorized_EN.txt	HICKORY	Trees	2	7	[0, 0, 0]	n/a	catFR1	3	R1659A
884.08	0.835	895863	WORD_OFF	n/a	n/a	HICKORY	Trees	2	7	[0, 0, 0]	n/a	catFR1	3	R1659A
884.915	1.608	896690	WORD	n/a	wordpools/wordpool_categorized_EN.txt	CARROT	Vegetables	3	7	[0, 0, 0]	n/a	catFR1	3	R1659A
886.523	0.991	898299	WORD_OFF	n/a	n/a	CARROT	Vegetables	3	7	[0, 0, 0]	n/a	catFR1	3	R1659A
887.514	1.6	899291	WORD	n/a	wordpools/wordpool_categorized_EN.txt	CELERY	Vegetables	4	7	[0, 0, 0]	n/a	catFR1	3	R1659A
889.114	0.965	900889	WORD_OFF	n/a	n/a	CELERY	Vegetables	4	7	[0, 0, 0]	n/a	catFR1	3	R1659A
890.079	1.602	901859	WORD	n/a	wordpools/wordpool_categorized_EN.txt	PETUNIA	Flowers	5	7	[0, 0, 0]	n/a	catFR1	3	R1659A
891.681	0.9	903457	WORD_OFF	n/a	n/a	PETUNIA	Flowers	5	7	[0, 0, 0]	n/a	catFR1	3	R1659A
892.581	1.607	904361	WORD	n/a	wordpools/wordpool_categorized_EN.txt	LILY	Flowers	6	7	[0, 0, 0]	n/a	catFR1	3	R1659A
894.188	0.976	905970	WORD_OFF	n/a	n/a	LILY	Flowers	6	7	[0, 0, 0]	n/a	catFR1	3	R1659A
895.164	1.601	906940	WORD	n/a	wordpools/wordpool_categorized_EN.txt	WILLOW	Trees	7	7	[0, 0, 0]	n/a	catFR1	3	R1659A
896.765	0.999	908539	WORD_OFF	n/a	n/a	WILLOW	Trees	7	7	[0, 0, 0]	n/a	catFR1	3	R1659A
897.764	1.6	909542	WORD	n/a	wordpools/wordpool_categorized_EN.txt	CEDAR	Trees	8	7	[0, 0, 0]	n/a	catFR1	3	R1659A
899.364	0.975	911140	WORD_OFF	n/a	n/a	CEDAR	Trees	8	7	[0, 0, 0]	n/a	catFR1	3	R1659A
900.339	1.609	912121	WORD	n/a	wordpools/wordpool_categorized_EN.txt	CARNATION	Flowers	9	7	[0, 0, 0]	n/a	catFR1	3	R1659A
901.948	0.95	913730	WORD_OFF	n/a	n/a	CARNATION	Flowers	9	7	[0, 0, 0]	n/a	catFR1	3	R1659A
902.898	1.6	914678	WORD	n/a	wordpools/wordpool_categorized_EN.txt	VIOLET	Flowers	10	7	[0, 0, 0]	n/a	catFR1	3	R1659A
904.498	0.931	916276	WORD_OFF	n/a	n/a	VIOLET	Flowers	10	7	[0, 0, 0]	n/a	catFR1	3	R1659A
905.429	1.602	917213	WORD	n/a	wordpools/wordpool_categorized_EN.txt	CUCUMBER	Vegetables	11	7	[0, 0, 0]	n/a	catFR1	3	R1659A
907.031	0.924	918811	WORD_OFF	n/a	n/a	CUCUMBER	Vegetables	11	7	[0, 0, 0]	n/a	catFR1	3	R1659A
907.955	1.601	919737	WORD	n/a	wordpools/wordpool_categorized_EN.txt	ONION	Vegetables	12	7	[0, 0, 0]	n/a	catFR1	3	R1659A
909.556	0.0	921335	WORD_OFF	n/a	n/a	ONION	Vegetables	12	7	[0, 0, 0]	n/a	catFR1	3	R1659A
909.556	0.008	921342	PROB	4.982	n/a	n/a	n/a	-999	7	[6, 3, 2]	11.0	catFR1	3	R1659A
909.564	0.0	921346	ENCODING_END	n/a	n/a	n/a	n/a	-999	7	[0, 0, 0]	n/a	catFR1	3	R1659A
909.564	0.0	921346	DISTRACT_START	n/a	n/a	n/a	n/a	-999	7	[0, 0, 0]	n/a	catFR1	3	R1659A
909.564	4.984	921350	START	n/a	n/a	n/a	n/a	-999	7	[-999, -999, -999]	n/a	catFR1	3	R1659A
914.548	1.774	926334	PROB	1.766	n/a	n/a	n/a	-999	7	[3, 7, 1]	11.0	catFR1	3	R1659A
916.322	4.041	928108	PROB	4.034	n/a	n/a	n/a	-999	7	[5, 2, 1]	8.0	catFR1	3	R1659A
920.363	2.893	932149	PROB	2.883	n/a	n/a	n/a	-999	7	[1, 1, 5]	7.0	catFR1	3	R1659A
923.256	2.466	935042	PROB	2.458	n/a	n/a	n/a	-999	7	[7, 3, 7]	17.0	catFR1	3	R1659A
925.722	4.617	937508	PROB	4.607	n/a	n/a	n/a	-999	7	[4, 8, 7]	19.0	catFR1	3	R1659A
930.339	0.0	942123	DISTRACT_END	n/a	n/a	n/a	n/a	-999	7	[0, 0, 0]	n/a	catFR1	3	R1659A
930.339	2.207	942125	STOP	n/a	n/a	n/a	n/a	-999	7	[-999, -999, -999]	n/a	catFR1	3	R1659A
932.546	0.0	944328	REC_START	n/a	n/a	n/a	n/a	-999	7	[0, 0, 0]	n/a	catFR1	3	R1659A
932.546	1.305	944332	REC_WORD	0.0	n/a	CELERY	Vegetables	4	7	[0, 0, 0]	n/a	catFR1	3	R1659A
933.851	2.123	945637	REC_WORD	1.305	n/a	CUCUMBER	Vegetables	11	7	[0, 0, 0]	n/a	catFR1	3	R1659A
935.974	0.928	947760	REC_WORD	3.428	n/a	CARROT	Vegetables	3	7	[0, 0, 0]	n/a	catFR1	3	R1659A
936.902	1.684	948687	REC_WORD	4.356	n/a	ONION	Vegetables	12	7	[0, 0, 0]	n/a	catFR1	3	R1659A
938.586	1.819	950371	REC_WORD	6.04	n/a	WILLOW	Trees	7	7	[0, 0, 0]	n/a	catFR1	3	R1659A
940.405	5.033	952190	REC_WORD_VV	7.859	n/a	<>	n/a	-999	7	[0, 0, 0]	n/a	catFR1	3	R1659A
945.438	16.562	957223	REC_WORD	12.892	n/a	CEDAR	Trees	8	7	[0, 0, 0]	n/a	catFR1	3	R1659A
962.0	0.681	973785	REC_WORD	29.454	n/a	ELM	Trees	1	7	[0, 0, 0]	n/a	catFR1	3	R1659A
962.681	2.01	974462	REC_END	n/a	n/a	n/a	n/a	-999	7	[0, 0, 0]	n/a	catFR1	3	R1659A
964.691	10.342	976468	COUNTDOWN_START	n/a	n/a	n/a	n/a	-999	8	[0, 0, 0]	n/a	catFR1	3	R1659A
975.033	0.0	986807	COUNTDOWN_END	n/a	n/a	n/a	n/a	-999	8	[0, 0, 0]	n/a	catFR1	3	R1659A
975.033	2.206	986818	ENCODING_START	n/a	n/a	n/a	n/a	-999	8	[0, 0, 0]	n/a	catFR1	3	R1659A
977.239	1.601	989023	WORD	n/a	wordpools/wordpool_categorized_EN.txt	WHALE	OceanAnimals	1	8	[0, 0, 0]	n/a	catFR1	3	R1659A
978.84	0.849	990621	WORD_OFF	n/a	n/a	WHALE	OceanAnimals	1	8	[0, 0, 0]	n/a	catFR1	3	R1659A
979.689	1.607	991470	WORD	n/a	wordpools/wordpool_categorized_EN.txt	DOLPHIN	OceanAnimals	2	8	[0, 0, 0]	n/a	catFR1	3	R1659A
981.296	0.933	993079	WORD_OFF	n/a	n/a	DOLPHIN	OceanAnimals	2	8	[0, 0, 0]	n/a	catFR1	3	R1659A
982.229	1.6	994005	WORD	n/a	wordpools/wordpool_categorized_EN.txt	SANDER	Tools	3	8	[0, 0, 0]	n/a	catFR1	3	R1659A
983.829	1.002	995603	WORD_OFF	n/a	n/a	SANDER	Tools	3	8	[0, 0, 0]	n/a	catFR1	3	R1659A
984.831	1.6	996606	WORD	n/a	wordpools/wordpool_categorized_EN.txt	AXE	Tools	4	8	[0, 0, 0]	n/a	catFR1	3	R1659A
986.431	0.807	998215	WORD_OFF	n/a	n/a	AXE	Tools	4	8	[0, 0, 0]	n/a	catFR1	3	R1659A
987.238	1.6	999020	WORD	n/a	wordpools/wordpool_categorized_EN.txt	FOLDER	OfficeSupplies	5	8	[0, 0, 0]	n/a	catFR1	3	R1659A
988.838	0.784	1000618	WORD_OFF	n/a	n/a	FOLDER	OfficeSupplies	5	8	[0, 0, 0]	n/a	catFR1	3	R1659A
989.622	1.609	1001401	WORD	n/a	wordpools/wordpool_categorized_EN.txt	RULER	OfficeSupplies	6	8	[0, 0, 0]	n/a	catFR1	3	R1659A
991.231	0.908	1003010	WORD_OFF	n/a	n/a	RULER	OfficeSupplies	6	8	[0, 0, 0]	n/a	catFR1	3	R1659A
992.139	1.6	1003914	WORD	n/a	wordpools/wordpool_categorized_EN.txt	SCREWDRIVER	Tools	7	8	[0, 0, 0]	n/a	catFR1	3	R1659A
993.739	0.826	1005523	WORD_OFF	n/a	n/a	SCREWDRIVER	Tools	7	8	[0, 0, 0]	n/a	catFR1	3	R1659A
994.565	1.6	1006339	WORD	n/a	wordpools/wordpool_categorized_EN.txt	SAW	Tools	8	8	[0, 0, 0]	n/a	catFR1	3	R1659A
996.165	0.999	1007948	WORD_OFF	n/a	n/a	SAW	Tools	8	8	[0, 0, 0]	n/a	catFR1	3	R1659A
997.164	1.608	1008940	WORD	n/a	wordpools/wordpool_categorized_EN.txt	PEN	OfficeSupplies	9	8	[0, 0, 0]	n/a	catFR1	3	R1659A
998.772	0.849	1010549	WORD_OFF	n/a	n/a	PEN	OfficeSupplies	9	8	[0, 0, 0]	n/a	catFR1	3	R1659A
999.621	1.601	1011398	WORD	n/a	wordpools/wordpool_categorized_EN.txt	PAPER	OfficeSupplies	10	8	[0, 0, 0]	n/a	catFR1	3	R1659A
1001.222	0.978	1012996	WORD_OFF	n/a	n/a	PAPER	OfficeSupplies	10	8	[0, 0, 0]	n/a	catFR1	3	R1659A
1002.2	1.606	1013977	WORD	n/a	wordpools/wordpool_categorized_EN.txt	SHRIMP	OceanAnimals	11	8	[0, 0, 0]	n/a	catFR1	3	R1659A
1003.806	0.849	1015586	WORD_OFF	n/a	n/a	SHRIMP	OceanAnimals	11	8	[0, 0, 0]	n/a	catFR1	3	R1659A
1004.655	1.601	1016435	WORD	n/a	wordpools/wordpool_categorized_EN.txt	TURTLE	OceanAnimals	12	8	[0, 0, 0]	n/a	catFR1	3	R1659A
1006.256	0.003	1018033	WORD_OFF	n/a	n/a	TURTLE	OceanAnimals	12	8	[0, 0, 0]	n/a	catFR1	3	R1659A
1006.259	0.0	1018033	ENCODING_END	n/a	n/a	n/a	n/a	-999	8	[0, 0, 0]	n/a	catFR1	3	R1659A
1006.257	0.003	1018042	PROB	2.199	n/a	n/a	n/a	-999	8	[5, 3, 1]	9.0	catFR1	3	R1659A
1006.26	0.0	1018044	DISTRACT_START	n/a	n/a	n/a	n/a	-999	8	[0, 0, 0]	n/a	catFR1	3	R1659A
1006.26	2.205	1018045	START	n/a	n/a	n/a	n/a	-999	8	[-999, -999, -999]	n/a	catFR1	3	R1659A
1008.465	4.7	1020250	PROB	4.691	n/a	n/a	n/a	-999	8	[6, 7, 4]	17.0	catFR1	3	R1659A
1013.165	2.157	1024950	PROB	2.15	n/a	n/a	n/a	-999	8	[6, 4, 2]	12.0	catFR1	3	R1659A
1015.322	2.975	1027107	PROB	2.966	n/a	n/a	n/a	-999	8	[6, 8, 1]	15.0	catFR1	3	R1659A
1018.297	2.717	1030082	PROB	2.708	n/a	n/a	n/a	-999	8	[4, 5, 7]	16.0	catFR1	3	R1659A
1021.014	5.999	1032799	PROB	5.991	n/a	n/a	n/a	-999	8	[4, 5, 3]	12.0	catFR1	3	R1659A
1027.013	0.0	1038788	DISTRACT_END	n/a	n/a	n/a	n/a	-999	8	[0, 0, 0]	n/a	catFR1	3	R1659A
1027.013	2.034	1038798	STOP	n/a	n/a	n/a	n/a	-999	8	[-999, -999, -999]	n/a	catFR1	3	R1659A
1029.047	0.336	1040827	REC_START	n/a	n/a	n/a	n/a	-999	8	[0, 0, 0]	n/a	catFR1	3	R1659A
1029.383	0.727	1041168	REC_WORD	0.336	n/a	SHRIMP	OceanAnimals	11	8	[0, 0, 0]	n/a	catFR1	3	R1659A
1030.11	3.881	1041895	REC_WORD	1.063	n/a	PAPER	OfficeSupplies	10	8	[0, 0, 0]	n/a	catFR1	3	R1659A
1033.991	25.199	1045776	REC_WORD	4.944	n/a	RULER	OfficeSupplies	6	8	[0, 0, 0]	n/a	catFR1	3	R1659A
1059.19	3.258	1070973	REC_END	n/a	n/a	n/a	n/a	-999	8	[0, 0, 0]	n/a	catFR1	3	R1659A
1062.448	10.34	1074225	COUNTDOWN_START	n/a	n/a	n/a	n/a	-999	9	[0, 0, 0]	n/a	catFR1	3	R1659A
1072.788	0.0	1084563	COUNTDOWN_END	n/a	n/a	n/a	n/a	-999	9	[0, 0, 0]	n/a	catFR1	3	R1659A
1072.788	2.201	1084574	ENCODING_START	n/a	n/a	n/a	n/a	-999	9	[0, 0, 0]	n/a	catFR1	3	R1659A
1074.989	1.6	1086768	WORD	n/a	wordpools/wordpool_categorized_EN.txt	CARDINAL	Birds	1	9	[0, 0, 0]	n/a	catFR1	3	R1659A
1076.589	0.774	1088366	WORD_OFF	n/a	n/a	CARDINAL	Birds	1	9	[0, 0, 0]	n/a	catFR1	3	R1659A
1077.363	1.6	1089138	WORD	n/a	wordpools/wordpool_categorized_EN.txt	FINCH	Birds	2	9	[0, 0, 0]	n/a	catFR1	3	R1659A
1078.963	0.86	1090747	WORD_OFF	n/a	n/a	FINCH	Birds	2	9	[0, 0, 0]	n/a	catFR1	3	R1659A
1079.823	1.599	1091607	WORD	n/a	wordpools/wordpool_categorized_EN.txt	MIXER	Appliances	3	9	[0, 0, 0]	n/a	catFR1	3	R1659A
1081.422	0.782	1093205	WORD_OFF	n/a	n/a	MIXER	Appliances	3	9	[0, 0, 0]	n/a	catFR1	3	R1659A
1082.204	1.602	1093987	WORD	n/a	wordpools/wordpool_categorized_EN.txt	DRYER	Appliances	4	9	[0, 0, 0]	n/a	catFR1	3	R1659A
1083.806	0.916	1095586	WORD_OFF	n/a	n/a	DRYER	Appliances	4	9	[0, 0, 0]	n/a	catFR1	3	R1659A
1084.722	1.608	1096500	WORD	n/a	wordpools/wordpool_categorized_EN.txt	BASKETBALL	Toys	5	9	[0, 0, 0]	n/a	catFR1	3	R1659A
1086.33	0.809	1098110	WORD_OFF	n/a	n/a	BASKETBALL	Toys	5	9	[0, 0, 0]	n/a	catFR1	3	R1659A
1087.139	1.607	1098914	WORD	n/a	wordpools/wordpool_categorized_EN.txt	SLINKY	Toys	6	9	[0, 0, 0]	n/a	catFR1	3	R1659A
1088.746	0.817	1100524	WORD_OFF	n/a	n/a	SLINKY	Toys	6	9	[0, 0, 0]	n/a	catFR1	3	R1659A
1089.563	1.603	1101339	WORD	n/a	wordpools/wordpool_categorized_EN.txt	GOOSE	Birds	7	9	[0, 0, 0]	n/a	catFR1	3	R1659A
1091.166	0.923	1102948	WORD_OFF	n/a	n/a	GOOSE	Birds	7	9	[0, 0, 0]	n/a	catFR1	3	R1659A
1092.089	1.609	1103863	WORD	n/a	wordpools/wordpool_categorized_EN.txt	HAWK	Birds	8	9	[0, 0, 0]	n/a	catFR1	3	R1659A
1093.698	1.0	1105472	WORD_OFF	n/a	n/a	HAWK	Birds	8	9	[0, 0, 0]	n/a	catFR1	3	R1659A
1094.698	1.608	1106476	WORD	n/a	wordpools/wordpool_categorized_EN.txt	STOVE	Appliances	9	9	[0, 0, 0]	n/a	catFR1	3	R1659A
1096.306	0.858	1108085	WORD_OFF	n/a	n/a	STOVE	Appliances	9	9	[0, 0, 0]	n/a	catFR1	3	R1659A
1097.164	1.601	1108944	WORD	n/a	wordpools/wordpool_categorized_EN.txt	VACUUM	Appliances	10	9	[0, 0, 0]	n/a	catFR1	3	R1659A
1098.765	0.873	1110543	WORD_OFF	n/a	n/a	VACUUM	Appliances	10	9	[0, 0, 0]	n/a	catFR1	3	R1659A
1099.638	1.6	1111413	WORD	n/a	wordpools/wordpool_categorized_EN.txt	BLOCKS	Toys	11	9	[0, 0, 0]	n/a	catFR1	3	R1659A
1101.238	1.0	1113012	WORD_OFF	n/a	n/a	BLOCKS	Toys	11	9	[0, 0, 0]	n/a	catFR1	3	R1659A
1102.238	1.602	1114015	WORD	n/a	wordpools/wordpool_categorized_EN.txt	BALL	Toys	12	9	[0, 0, 0]	n/a	catFR1	3	R1659A
1103.84	0.004	1115624	WORD_OFF	n/a	n/a	BALL	Toys	12	9	[0, 0, 0]	n/a	catFR1	3	R1659A
1103.844	0.0	1115624	ENCODING_END	n/a	n/a	n/a	n/a	-999	9	[0, 0, 0]	n/a	catFR1	3	R1659A
1103.844	0.0	1115624	DISTRACT_START	n/a	n/a	n/a	n/a	-999	9	[0, 0, 0]	n/a	catFR1	3	R1659A
1103.84	0.004	1115625	PROB	7.34	n/a	n/a	n/a	-999	9	[8, 7, 8]	23.0	catFR1	3	R1659A
1103.844	7.345	1115629	START	n/a	n/a	n/a	n/a	-999	9	[-999, -999, -999]	n/a	catFR1	3	R1659A
1111.189	3.275	1122974	PROB	3.266	n/a	n/a	n/a	-999	9	[7, 2, 8]	17.0	catFR1	3	R1659A
1114.464	2.908	1126249	PROB	2.9	n/a	n/a	n/a	-999	9	[2, 3, 2]	7.0	catFR1	3	R1659A
1117.372	2.926	1129157	PROB	2.916	n/a	n/a	n/a	-999	9	[1, 8, 5]	14.0	catFR1	3	R1659A
1120.298	2.407	1132083	PROB	2.399	n/a	n/a	n/a	-999	9	[1, 6, 8]	15.0	catFR1	3	R1659A
1122.705	4.36	1134490	PROB	4.35	n/a	n/a	n/a	-999	9	[3, 1, 4]	16.0	catFR1	3	R1659A
1127.065	0.0	1138848	DISTRACT_END	n/a	n/a	n/a	n/a	-999	9	[0, 0, 0]	n/a	catFR1	3	R1659A
1127.065	2.299	1138850	STOP	n/a	n/a	n/a	n/a	-999	9	[-999, -999, -999]	n/a	catFR1	3	R1659A
1129.364	3.41	1141140	REC_START	n/a	n/a	n/a	n/a	-999	9	[0, 0, 0]	n/a	catFR1	3	R1659A
1132.774	1.181	1144559	REC_WORD	3.41	n/a	SLINKY	Toys	6	9	[0, 0, 0]	n/a	catFR1	3	R1659A
1133.955	7.161	1145740	REC_WORD	4.591	n/a	BASKETBALL	Toys	5	9	[0, 0, 0]	n/a	catFR1	3	R1659A
1141.116	4.484	1152901	REC_WORD_VV	11.752	n/a	<>	n/a	-999	9	[0, 0, 0]	n/a	catFR1	3	R1659A
1145.6	13.899	1157385	REC_WORD	16.236	n/a	DRYER	Appliances	4	9	[0, 0, 0]	n/a	catFR1	3	R1659A
1159.499	2.022	1171275	REC_END	n/a	n/a	n/a	n/a	-999	9	[0, 0, 0]	n/a	catFR1	3	R1659A
1161.521	10.342	1173303	COUNTDOWN_START	n/a	n/a	n/a	n/a	-999	10	[0, 0, 0]	n/a	catFR1	3	R1659A
1171.863	0.0	1183642	COUNTDOWN_END	n/a	n/a	n/a	n/a	-999	10	[0, 0, 0]	n/a	catFR1	3	R1659A
1171.863	2.125	1183642	ENCODING_START	n/a	n/a	n/a	n/a	-999	10	[0, 0, 0]	n/a	catFR1	3	R1659A
1173.988	1.6	1185769	WORD	n/a	wordpools/wordpool_categorized_EN.txt	MARBLES	Toys	1	10	[0, 0, 0]	n/a	catFR1	3	R1659A
1175.588	0.95	1187368	WORD_OFF	n/a	n/a	MARBLES	Toys	1	10	[0, 0, 0]	n/a	catFR1	3	R1659A
1176.538	1.602	1188315	WORD	n/a	wordpools/wordpool_categorized_EN.txt	DOLLHOUSE	Toys	2	10	[0, 0, 0]	n/a	catFR1	3	R1659A
1178.14	0.849	1189914	WORD_OFF	n/a	n/a	DOLLHOUSE	Toys	2	10	[0, 0, 0]	n/a	catFR1	3	R1659A
1178.989	1.607	1190773	WORD	n/a	wordpools/wordpool_categorized_EN.txt	OYSTER	OceanAnimals	3	10	[0, 0, 0]	n/a	catFR1	3	R1659A
1180.596	0.81	1192372	WORD_OFF	n/a	n/a	OYSTER	OceanAnimals	3	10	[0, 0, 0]	n/a	catFR1	3	R1659A
1181.406	1.608	1193187	WORD	n/a	wordpools/wordpool_categorized_EN.txt	FISH	OceanAnimals	4	10	[0, 0, 0]	n/a	catFR1	3	R1659A
1183.014	0.983	1194797	WORD_OFF	n/a	n/a	FISH	OceanAnimals	4	10	[0, 0, 0]	n/a	catFR1	3	R1659A
1183.997	1.61	1195778	WORD	n/a	wordpools/wordpool_categorized_EN.txt	BUS	Vehicles	5	10	[0, 0, 0]	n/a	catFR1	3	R1659A
1185.607	0.956	1197387	WORD_OFF	n/a	n/a	BUS	Vehicles	5	10	[0, 0, 0]	n/a	catFR1	3	R1659A
1186.563	1.61	1198346	WORD	n/a	wordpools/wordpool_categorized_EN.txt	VAN	Vehicles	6	10	[0, 0, 0]	n/a	catFR1	3	R1659A
1188.173	0.773	1199955	WORD_OFF	n/a	n/a	VAN	Vehicles	6	10	[0, 0, 0]	n/a	catFR1	3	R1659A
1188.946	1.601	1200726	WORD	n/a	wordpools/wordpool_categorized_EN.txt	CRAB	OceanAnimals	7	10	[0, 0, 0]	n/a	catFR1	3	R1659A
1190.547	0.784	1202325	WORD_OFF	n/a	n/a	CRAB	OceanAnimals	7	10	[0, 0, 0]	n/a	catFR1	3	R1659A
1191.331	1.608	1203107	WORD	n/a	wordpools/wordpool_categorized_EN.txt	JELLYFISH	OceanAnimals	8	10	[0, 0, 0]	n/a	catFR1	3	R1659A
1192.939	0.757	1204716	WORD_OFF	n/a	n/a	JELLYFISH	OceanAnimals	8	10	[0, 0, 0]	n/a	catFR1	3	R1659A
1193.696	1.602	1205477	WORD	n/a	wordpools/wordpool_categorized_EN.txt	BIKE	Vehicles	9	10	[0, 0, 0]	n/a	catFR1	3	R1659A
1195.298	0.874	1207075	WORD_OFF	n/a	n/a	BIKE	Vehicles	9	10	[0, 0, 0]	n/a	catFR1	3	R1659A
1196.172	1.609	1207957	WORD	n/a	wordpools/wordpool_categorized_EN.txt	SCOOTER	Vehicles	10	10	[0, 0, 0]	n/a	catFR1	3	R1659A
1197.781	0.982	1209555	WORD_OFF	n/a	n/a	SCOOTER	Vehicles	10	10	[0, 0, 0]	n/a	catFR1	3	R1659A
1198.763	1.604	1210536	WORD	n/a	wordpools/wordpool_categorized_EN.txt	PUZZLE	Toys	11	10	[0, 0, 0]	n/a	catFR1	3	R1659A
1200.367	0.888	1212145	WORD_OFF	n/a	n/a	PUZZLE	Toys	11	10	[0, 0, 0]	n/a	catFR1	3	R1659A
1201.255	1.609	1213038	WORD	n/a	wordpools/wordpool_categorized_EN.txt	DOLL	Toys	12	10	[0, 0, 0]	n/a	catFR1	3	R1659A
1202.864	0.003	1214648	WORD_OFF	n/a	n/a	DOLL	Toys	12	10	[0, 0, 0]	n/a	catFR1	3	R1659A
1202.867	0.0	1214648	ENCODING_END	n/a	n/a	n/a	n/a	-999	10	[0, 0, 0]	n/a	catFR1	3	R1659A
1202.867	0.0	1214648	DISTRACT_START	n/a	n/a	n/a	n/a	-999	10	[0, 0, 0]	n/a	catFR1	3	R1659A
1202.865	0.002	1214649	PROB	4.049	n/a	n/a	n/a	-999	10	[3, 3, 6]	12.0	catFR1	3	R1659A
1202.867	4.055	1214651	START	n/a	n/a	n/a	n/a	-999	10	[-999, -999, -999]	n/a	catFR1	3	R1659A
1206.922	2.599	1218706	PROB	2.591	n/a	n/a	n/a	-999	10	[1, 7, 3]	11.0	catFR1	3	R1659A
1209.521	2.386	1221305	PROB	2.375	n/a	n/a	n/a	-999	10	[1, 8, 1]	10.0	catFR1	3	R1659A
1211.907	2.908	1223691	PROB	2.898	n/a	n/a	n/a	-999	10	[2, 4, 7]	13.0	catFR1	3	R1659A
1214.815	4.966	1226599	PROB	4.958	n/a	n/a	n/a	-999	10	[1, 4, 7]	12.0	catFR1	3	R1659A
1219.781	3.507	1231565	PROB	3.5	n/a	n/a	n/a	-999	10	[5, 2, 7]	13.0	catFR1	3	R1659A
1223.288	0.0	1235061	DISTRACT_END	n/a	n/a	n/a	n/a	-999	10	[0, 0, 0]	n/a	catFR1	3	R1659A
1223.288	2.168	1235072	STOP	n/a	n/a	n/a	n/a	-999	10	[-999, -999, -999]	n/a	catFR1	3	R1659A
1225.456	0.857	1237232	REC_START	n/a	n/a	n/a	n/a	-999	10	[0, 0, 0]	n/a	catFR1	3	R1659A
1226.313	1.109	1238097	REC_WORD	0.857	n/a	TOY	n/a	-999	10	[0, 0, 0]	n/a	catFR1	3	R1659A
1227.422	1.171	1239206	REC_WORD_VV	1.966	n/a	<>	n/a	-999	10	[0, 0, 0]	n/a	catFR1	3	R1659A
1228.593	27.003	1240377	REC_WORD	3.137	n/a	DOLL	Toys	12	10	[0, 0, 0]	n/a	catFR1	3	R1659A
1255.596	1.867	1267378	REC_END	n/a	n/a	n/a	n/a	-999	10	[0, 0, 0]	n/a	catFR1	3	R1659A
1257.463	10.342	1269241	COUNTDOWN_START	n/a	n/a	n/a	n/a	-999	11	[0, 0, 0]	n/a	catFR1	3	R1659A
1267.805	0.0	1279579	COUNTDOWN_END	n/a	n/a	n/a	n/a	-999	11	[0, 0, 0]	n/a	catFR1	3	R1659A
1267.805	2.268	1279579	ENCODING_START	n/a	n/a	n/a	n/a	-999	11	[0, 0, 0]	n/a	catFR1	3	R1659A
1270.073	1.608	1281850	WORD	n/a	wordpools/wordpool_categorized_EN.txt	PEAS	Vegetables	1	11	[0, 0, 0]	n/a	catFR1	3	R1659A
1271.681	0.998	1283459	WORD_OFF	n/a	n/a	PEAS	Vegetables	1	11	[0, 0, 0]	n/a	catFR1	3	R1659A
1272.679	1.602	1284451	WORD	n/a	wordpools/wordpool_categorized_EN.txt	CORN	Vegetables	2	11	[0, 0, 0]	n/a	catFR1	3	R1659A
1274.281	0.841	1286060	WORD_OFF	n/a	n/a	CORN	Vegetables	2	11	[0, 0, 0]	n/a	catFR1	3	R1659A
1275.122	1.601	1286898	WORD	n/a	wordpools/wordpool_categorized_EN.txt	MOTORCYCLE	Vehicles	3	11	[0, 0, 0]	n/a	catFR1	3	R1659A
1276.723	0.865	1288496	WORD_OFF	n/a	n/a	MOTORCYCLE	Vehicles	3	11	[0, 0, 0]	n/a	catFR1	3	R1659A
1277.588	1.601	1289367	WORD	n/a	wordpools/wordpool_categorized_EN.txt	BOAT	Vehicles	4	11	[0, 0, 0]	n/a	catFR1	3	R1659A
1279.189	0.9	1290965	WORD_OFF	n/a	n/a	BOAT	Vehicles	4	11	[0, 0, 0]	n/a	catFR1	3	R1659A
1280.089	1.6	1291869	WORD	n/a	wordpools/wordpool_categorized_EN.txt	FRISBEE	Toys	5	11	[0, 0, 0]	n/a	catFR1	3	R1659A
1281.689	0.776	1293467	WORD_OFF	n/a	n/a	FRISBEE	Toys	5	11	[0, 0, 0]	n/a	catFR1	3	R1659A
1282.465	1.606	1294239	WORD	n/a	wordpools/wordpool_categorized_EN.txt	BASEBALL	Toys	6	11	[0, 0, 0]	n/a	catFR1	3	R1659A
1284.071	0.818	1295848	WORD_OFF	n/a	n/a	BASEBALL	Toys	6	11	[0, 0, 0]	n/a	catFR1	3	R1659A
1284.889	1.609	1296664	WORD	n/a	wordpools/wordpool_categorized_EN.txt	CAR	Vehicles	7	11	[0, 0, 0]	n/a	catFR1	3	R1659A
1286.498	0.908	1298273	WORD_OFF	n/a	n/a	CAR	Vehicles	7	11	[0, 0, 0]	n/a	catFR1	3	R1659A
1287.406	1.608	1299188	WORD	n/a	wordpools/wordpool_categorized_EN.txt	MOPED	Vehicles	8	11	[0, 0, 0]	n/a	catFR1	3	R1659A
1289.014	0.8	1300797	WORD_OFF	n/a	n/a	MOPED	Vehicles	8	11	[0, 0, 0]	n/a	catFR1	3	R1659A
1289.814	1.6	1301591	WORD	n/a	wordpools/wordpool_categorized_EN.txt	BROCCOLI	Vegetables	9	11	[0, 0, 0]	n/a	catFR1	3	R1659A
1291.414	0.924	1303189	WORD_OFF	n/a	n/a	BROCCOLI	Vegetables	9	11	[0, 0, 0]	n/a	catFR1	3	R1659A
1292.338	1.601	1304115	WORD	n/a	wordpools/wordpool_categorized_EN.txt	LETTUCE	Vegetables	10	11	[0, 0, 0]	n/a	catFR1	3	R1659A
1293.939	0.924	1305713	WORD_OFF	n/a	n/a	LETTUCE	Vegetables	10	11	[0, 0, 0]	n/a	catFR1	3	R1659A
1294.863	1.601	1306639	WORD	n/a	wordpools/wordpool_categorized_EN.txt	BARBIE	Toys	11	11	[0, 0, 0]	n/a	catFR1	3	R1659A
1296.464	0.833	1308237	WORD_OFF	n/a	n/a	BARBIE	Toys	11	11	[0, 0, 0]	n/a	catFR1	3	R1659A
1297.297	1.6	1309075	WORD	n/a	wordpools/wordpool_categorized_EN.txt	FOOTBALL	Toys	12	11	[0, 0, 0]	n/a	catFR1	3	R1659A
1298.897	0.002	1310673	WORD_OFF	n/a	n/a	FOOTBALL	Toys	12	11	[0, 0, 0]	n/a	catFR1	3	R1659A
1298.899	0.0	1310673	ENCODING_END	n/a	n/a	n/a	n/a	-999	11	[0, 0, 0]	n/a	catFR1	3	R1659A
1298.899	0.0	1310673	DISTRACT_START	n/a	n/a	n/a	n/a	-999	11	[0, 0, 0]	n/a	catFR1	3	R1659A
1298.898	0.001	1310682	PROB	3.766	n/a	n/a	n/a	-999	11	[8, 7, 3]	18.0	catFR1	3	R1659A
1298.899	3.773	1310683	START	n/a	n/a	n/a	n/a	-999	11	[-999, -999, -999]	n/a	catFR1	3	R1659A
1302.672	3.05	1314456	PROB	3.041	n/a	n/a	n/a	-999	11	[5, 7, 3]	15.0	catFR1	3	R1659A
1305.722	4.709	1317506	PROB	4.699	n/a	n/a	n/a	-999	11	[5, 4, 3]	12.0	catFR1	3	R1659A
1310.431	3.933	1322215	PROB	3.924	n/a	n/a	n/a	-999	11	[4, 5, 7]	16.0	catFR1	3	R1659A
1314.364	4.001	1326148	PROB	3.99	n/a	n/a	n/a	-999	11	[5, 5, 1]	11.0	catFR1	3	R1659A
1318.365	2.498	1330149	PROB	2.491	n/a	n/a	n/a	-999	11	[3, 1, 6]	10.0	catFR1	3	R1659A
1320.863	0.0	1332640	DISTRACT_END	n/a	n/a	n/a	n/a	-999	11	[0, 0, 0]	n/a	catFR1	3	R1659A
1320.863	2.143	1332647	STOP	n/a	n/a	n/a	n/a	-999	11	[-999, -999, -999]	n/a	catFR1	3	R1659A
1323.006	0.665	1334779	REC_START	n/a	n/a	n/a	n/a	-999	11	[0, 0, 0]	n/a	catFR1	3	R1659A
1323.671	8.395	1335455	REC_WORD	0.665	n/a	BROCCOLI	Vegetables	9	11	[0, 0, 0]	n/a	catFR1	3	R1659A
1332.066	3.566	1343850	REC_WORD_VV	9.06	n/a	<>	n/a	-999	11	[0, 0, 0]	n/a	catFR1	3	R1659A
1335.632	1.697	1347416	REC_WORD_VV	12.626	n/a	<>	n/a	-999	11	[0, 0, 0]	n/a	catFR1	3	R1659A
1337.329	3.867	1349113	REC_WORD	14.323	n/a	BASEBALL	Toys	6	11	[0, 0, 0]	n/a	catFR1	3	R1659A
1341.196	3.317	1352980	REC_WORD	18.19	n/a	MOTORCYCLE	Vehicles	3	11	[0, 0, 0]	n/a	catFR1	3	R1659A
1344.513	8.633	1356297	REC_WORD	21.507	n/a	BOAT	Vehicles	4	11	[0, 0, 0]	n/a	catFR1	3	R1659A
1353.146	2.035	1364924	REC_END	n/a	n/a	n/a	n/a	-999	11	[0, 0, 0]	n/a	catFR1	3	R1659A
1355.181	10.342	1366964	COUNTDOWN_START	n/a	n/a	n/a	n/a	-999	12	[0, 0, 0]	n/a	catFR1	3	R1659A
1365.523	0.001	1377302	COUNTDOWN_END	n/a	n/a	n/a	n/a	-999	12	[0, 0, 0]	n/a	catFR1	3	R1659A
1365.524	1.99	1377302	ENCODING_START	n/a	n/a	n/a	n/a	-999	12	[0, 0, 0]	n/a	catFR1	3	R1659A
1367.514	1.609	1379297	WORD	n/a	wordpools/wordpool_categorized_EN.txt	PINE	Trees	1	12	[0, 0, 0]	n/a	catFR1	3	R1659A
1369.123	0.782	1380896	WORD_OFF	n/a	n/a	PINE	Trees	1	12	[0, 0, 0]	n/a	catFR1	3	R1659A
1369.905	1.6	1381678	WORD	n/a	wordpools/wordpool_categorized_EN.txt	MAPLE	Trees	2	12	[0, 0, 0]	n/a	catFR1	3	R1659A
1371.505	0.875	1383287	WORD_OFF	n/a	n/a	MAPLE	Trees	2	12	[0, 0, 0]	n/a	catFR1	3	R1659A
1372.38	1.609	1384158	WORD	n/a	wordpools/wordpool_categorized_EN.txt	PLANE	Vehicles	3	12	[0, 0, 0]	n/a	catFR1	3	R1659A
1373.989	0.999	1385767	WORD_OFF	n/a	n/a	PLANE	Vehicles	3	12	[0, 0, 0]	n/a	catFR1	3	R1659A
1374.988	1.601	1386770	WORD	n/a	wordpools/wordpool_categorized_EN.txt	JEEP	Vehicles	4	12	[0, 0, 0]	n/a	catFR1	3	R1659A
1376.589	0.883	1388369	WORD_OFF	n/a	n/a	JEEP	Vehicles	4	12	[0, 0, 0]	n/a	catFR1	3	R1659A
1377.472	1.6	1389250	WORD	n/a	wordpools/wordpool_categorized_EN.txt	PLANKTON	OceanAnimals	5	12	[0, 0, 0]	n/a	catFR1	3	R1659A
1379.072	0.833	1390849	WORD_OFF	n/a	n/a	PLANKTON	OceanAnimals	5	12	[0, 0, 0]	n/a	catFR1	3	R1659A
1379.905	1.6	1391686	WORD	n/a	wordpools/wordpool_categorized_EN.txt	SQUID	OceanAnimals	6	12	[0, 0, 0]	n/a	catFR1	3	R1659A
1381.505	0.858	1393285	WORD_OFF	n/a	n/a	SQUID	OceanAnimals	6	12	[0, 0, 0]	n/a	catFR1	3	R1659A
1382.363	1.599	1394144	WORD	n/a	wordpools/wordpool_categorized_EN.txt	CYPRESS	Trees	7	12	[0, 0, 0]	n/a	catFR1	3	R1659A
1383.962	0.835	1395742	WORD_OFF	n/a	n/a	CYPRESS	Trees	7	12	[0, 0, 0]	n/a	catFR1	3	R1659A
1384.797	1.6	1396580	WORD	n/a	wordpools/wordpool_categorized_EN.txt	EVERGREEN	Trees	8	12	[0, 0, 0]	n/a	catFR1	3	R1659A
1386.397	0.924	1398178	WORD_OFF	n/a	n/a	EVERGREEN	Trees	8	12	[0, 0, 0]	n/a	catFR1	3	R1659A
1387.321	1.601	1399093	WORD	n/a	wordpools/wordpool_categorized_EN.txt	OCTOPUS	OceanAnimals	9	12	[0, 0, 0]	n/a	catFR1	3	R1659A
1388.922	0.857	1400702	WORD_OFF	n/a	n/a	OCTOPUS	OceanAnimals	9	12	[0, 0, 0]	n/a	catFR1	3	R1659A
1389.779	1.6	1401562	WORD	n/a	wordpools/wordpool_categorized_EN.txt	LOBSTER	OceanAnimals	10	12	[0, 0, 0]	n/a	catFR1	3	R1659A
1391.379	0.876	1403160	WORD_OFF	n/a	n/a	LOBSTER	OceanAnimals	10	12	[0, 0, 0]	n/a	catFR1	3	R1659A
1392.255	1.601	1404031	WORD	n/a	wordpools/wordpool_categorized_EN.txt	TRUCK	Vehicles	11	12	[0, 0, 0]	n/a	catFR1	3	R1659A
1393.856	0.883	1405629	WORD_OFF	n/a	n/a	TRUCK	Vehicles	11	12	[0, 0, 0]	n/a	catFR1	3	R1659A
1394.739	1.607	1406522	WORD	n/a	wordpools/wordpool_categorized_EN.txt	TRAIN	Vehicles	12	12	[0, 0, 0]	n/a	catFR1	3	R1659A
1396.346	0.003	1408120	WORD_OFF	n/a	n/a	TRAIN	Vehicles	12	12	[0, 0, 0]	n/a	catFR1	3	R1659A
1396.349	0.0	1408131	ENCODING_END	n/a	n/a	n/a	n/a	-999	12	[0, 0, 0]	n/a	catFR1	3	R1659A
1396.349	0.0	1408131	DISTRACT_START	n/a	n/a	n/a	n/a	-999	12	[0, 0, 0]	n/a	catFR1	3	R1659A
1396.347	0.002	1408131	PROB	3.449	n/a	n/a	n/a	-999	12	[3, 4, 3]	10.0	catFR1	3	R1659A
1396.349	3.457	1408133	START	n/a	n/a	n/a	n/a	-999	12	[-999, -999, -999]	n/a	catFR1	3	R1659A
1399.806	4.568	1411590	PROB	4.557	n/a	n/a	n/a	-999	12	[5, 3, 7]	15.0	catFR1	3	R1659A
1404.374	1.947	1416158	PROB	1.941	n/a	n/a	n/a	-999	12	[1, 5, 6]	12.0	catFR1	3	R1659A
1406.321	3.185	1418105	PROB	3.175	n/a	n/a	n/a	-999	12	[3, 3, 4]	10.0	catFR1	3	R1659A
1409.506	2.982	1421290	PROB	2.974	n/a	n/a	n/a	-999	12	[7, 1, 6]	14.0	catFR1	3	R1659A
1412.488	2.585	1424272	PROB	2.575	n/a	n/a	n/a	-999	12	[7, 1, 8]	16.0	catFR1	3	R1659A
1415.073	4.774	1426857	PROB	4.766	n/a	n/a	n/a	-999	12	[4, 8, 5]	17.0	catFR1	3	R1659A
1419.847	0.0	1431620	DISTRACT_END	n/a	n/a	n/a	n/a	-999	12	[0, 0, 0]	n/a	catFR1	3	R1659A
1419.847	2.133	1431631	STOP	n/a	n/a	n/a	n/a	-999	12	[-999, -999, -999]	n/a	catFR1	3	R1659A
1421.98	2.605	1433758	REC_START	n/a	n/a	n/a	n/a	-999	12	[0, 0, 0]	n/a	catFR1	3	R1659A
1424.585	2.402	1436369	REC_WORD	2.605	n/a	PLANKTON	OceanAnimals	5	12	[0, 0, 0]	n/a	catFR1	3	R1659A
1426.987	2.866	1438771	REC_WORD	5.007	n/a	SQUID	OceanAnimals	6	12	[0, 0, 0]	n/a	catFR1	3	R1659A
1429.853	22.247	1441637	REC_WORD	7.873	n/a	OCTOPUS	OceanAnimals	9	12	[0, 0, 0]	n/a	catFR1	3	R1659A
1452.1	0.0	1463882	REC_END	n/a	n/a	n/a	n/a	-999	12	[0, 0, 0]	n/a	catFR1	3	R1659A
