onset	duration	sample	trial_type	response_time	stim_file	item_name	category	serialpos	list	test	answer	experiment	session	subject
0.0	0.0	4488	INSTRUCT_START	n/a	n/a	n/a	n/a	-999	-999	[0, 0, 0]	n/a	catFR1	0	R1228M
0.0	11.015	4488	INSTRUCT_END	n/a	n/a	n/a	n/a	-999	-999	[0, 0, 0]	n/a	catFR1	0	R1228M
11.015	0.0	15503	SESS_START	n/a	n/a	n/a	n/a	-999	-999	[0, 0, 0]	n/a	catFR1	0	R1228M
11.015	225.563	15503	MIC_TEST	n/a	n/a	n/a	n/a	-999	-999	[0, 0, 0]	n/a	catFR1	0	R1228M
236.578	7.053	241053	PRACTICE_TRIAL	n/a	n/a	n/a	n/a	-999	-1	[0, 0, 0]	n/a	catFR1	0	R1228M
243.631	10.428	248106	COUNTDOWN_START	n/a	n/a	n/a	n/a	-999	-1	[0, 0, 0]	n/a	catFR1	0	R1228M
254.059	0.007	258533	COUNTDOWN_END	n/a	n/a	n/a	n/a	-999	-1	[0, 0, 0]	n/a	catFR1	0	R1228M
254.066	1.617	258540	PRACTICE_ORIENT	n/a	n/a	n/a	n/a	-999	-1	[0, 0, 0]	n/a	catFR1	0	R1228M
255.683	2.184	260157	PRACTICE_ORIENT_OFF	n/a	n/a	n/a	n/a	-999	-1	[0, 0, 0]	n/a	catFR1	0	R1228M
257.867	1.617	262341	PRACTICE_WORD	n/a	n/a	WAGON	n/a	-1	-1	[0, 0, 0]	n/a	catFR1	0	R1228M
259.484	0.85	263958	PRACTICE_WORD_OFF	n/a	n/a	WAGON	n/a	-999	-1	[0, 0, 0]	n/a	catFR1	0	R1228M
260.334	1.617	264808	PRACTICE_WORD	n/a	n/a	WATCH	n/a	-1	-1	[0, 0, 0]	n/a	catFR1	0	R1228M
261.951	0.849	266425	PRACTICE_WORD_OFF	n/a	n/a	WATCH	n/a	-999	-1	[0, 0, 0]	n/a	catFR1	0	R1228M
262.8	1.618	267274	PRACTICE_WORD	n/a	n/a	IRON	n/a	-1	-1	[0, 0, 0]	n/a	catFR1	0	R1228M
264.418	1.0	268892	PRACTICE_WORD_OFF	n/a	n/a	IRON	n/a	-999	-1	[0, 0, 0]	n/a	catFR1	0	R1228M
265.418	1.617	269892	PRACTICE_WORD	n/a	n/a	FLOOD	n/a	-1	-1	[0, 0, 0]	n/a	catFR1	0	R1228M
267.035	0.917	271508	PRACTICE_WORD_OFF	n/a	n/a	FLOOD	n/a	-999	-1	[0, 0, 0]	n/a	catFR1	0	R1228M
267.952	1.617	272425	PRACTICE_WORD	n/a	n/a	CHEST	n/a	-1	-1	[0, 0, 0]	n/a	catFR1	0	R1228M
269.569	0.934	274042	PRACTICE_WORD_OFF	n/a	n/a	CHEST	n/a	-999	-1	[0, 0, 0]	n/a	catFR1	0	R1228M
270.503	1.617	274976	PRACTICE_WORD	n/a	n/a	COTTON	n/a	-1	-1	[0, 0, 0]	n/a	catFR1	0	R1228M
272.12	0.967	276593	PRACTICE_WORD_OFF	n/a	n/a	COTTON	n/a	-999	-1	[0, 0, 0]	n/a	catFR1	0	R1228M
273.087	1.617	277560	PRACTICE_WORD	n/a	n/a	BEAM	n/a	-1	-1	[0, 0, 0]	n/a	catFR1	0	R1228M
274.704	0.933	279177	PRACTICE_WORD_OFF	n/a	n/a	BEAM	n/a	-999	-1	[0, 0, 0]	n/a	catFR1	0	R1228M
275.637	1.617	280110	PRACTICE_WORD	n/a	n/a	RING	n/a	-1	-1	[0, 0, 0]	n/a	catFR1	0	R1228M
277.254	0.984	281727	PRACTICE_WORD_OFF	n/a	n/a	RING	n/a	-999	-1	[0, 0, 0]	n/a	catFR1	0	R1228M
278.238	1.616	282711	PRACTICE_WORD	n/a	n/a	RHINO	n/a	-1	-1	[0, 0, 0]	n/a	catFR1	0	R1228M
279.854	0.801	284327	PRACTICE_WORD_OFF	n/a	n/a	RHINO	n/a	-999	-1	[0, 0, 0]	n/a	catFR1	0	R1228M
280.655	1.617	285128	PRACTICE_WORD	n/a	n/a	CAMEL	n/a	-1	-1	[0, 0, 0]	n/a	catFR1	0	R1228M
282.272	0.933	286745	PRACTICE_WORD_OFF	n/a	n/a	CAMEL	n/a	-999	-1	[0, 0, 0]	n/a	catFR1	0	R1228M
283.205	1.616	287678	PRACTICE_WORD	n/a	n/a	ATTIC	n/a	-1	-1	[0, 0, 0]	n/a	catFR1	0	R1228M
284.821	0.934	289293	PRACTICE_WORD_OFF	n/a	n/a	ATTIC	n/a	-999	-1	[0, 0, 0]	n/a	catFR1	0	R1228M
285.755	1.618	290227	PRACTICE_WORD	n/a	n/a	TONGUE	n/a	-1	-1	[0, 0, 0]	n/a	catFR1	0	R1228M
287.373	0.0	291845	DISTRACT_START	n/a	n/a	n/a	n/a	-999	-1	[0, 0, 0]	n/a	catFR1	0	R1228M
287.373	0.0	291845	PRACTICE_WORD_OFF	n/a	n/a	TONGUE	n/a	-999	-1	[0, 0, 0]	n/a	catFR1	0	R1228M
287.373	0.0	291845	ENCODING_END	n/a	n/a	n/a	n/a	-999	-1	[0, 0, 0]	n/a	catFR1	0	R1228M
287.373	0.016	291845	START	n/a	n/a	n/a	n/a	-999	-1	[-999, -999, -999]	n/a	catFR1	0	R1228M
287.389	12.119	291861	PROB	12.119	n/a	n/a	n/a	-999	-1	[4, 3, 5]	12	catFR1	0	R1228M
299.508	5.018	303980	PROB	5.018	n/a	n/a	n/a	-999	-1	[3, 8, 3]	14	catFR1	0	R1228M
304.526	3.849	308997	PROB	3.849	n/a	n/a	n/a	-999	-1	[6, 1, 4]	11	catFR1	0	R1228M
308.375	0.019	312846	STOP	n/a	n/a	n/a	n/a	-999	-1	[-999, -999, -999]	n/a	catFR1	0	R1228M
308.394	0.65	312865	DISTRACT_END	n/a	n/a	n/a	n/a	-999	-1	[0, 0, 0]	n/a	catFR1	0	R1228M
309.044	0.52	313515	RETRIEVAL_ORIENT	n/a	n/a	n/a	n/a	-999	-1	[0, 0, 0]	n/a	catFR1	0	R1228M
309.564	30.009	314035	PRACTICE_REC_START	n/a	n/a	n/a	n/a	-999	-1	[0, 0, 0]	n/a	catFR1	0	R1228M
339.573	46.852	344042	PRACTICE_REC_END	n/a	n/a	n/a	n/a	-999	-1	[0, 0, 0]	n/a	catFR1	0	R1228M
386.425	0.5	390892	TRIAL	n/a	n/a	n/a	n/a	-999	1	[0, 0, 0]	n/a	catFR1	0	R1228M
386.925	10.428	391392	COUNTDOWN_START	n/a	n/a	n/a	n/a	-999	1	[0, 0, 0]	n/a	catFR1	0	R1228M
397.353	0.008	401819	COUNTDOWN_END	n/a	n/a	n/a	n/a	-999	1	[0, 0, 0]	n/a	catFR1	0	R1228M
397.361	1.617	401827	ORIENT	n/a	n/a	n/a	n/a	-999	1	[0, 0, 0]	n/a	catFR1	0	R1228M
398.978	1.832	403444	ORIENT_OFF	n/a	n/a	n/a	n/a	-999	1	[0, 0, 0]	n/a	catFR1	0	R1228M
400.81	1.618	405276	WORD	n/a	wordpools/wordpool_categorized_EN.txt	TRAIN	Vehicles	1	1	[0, 0, 0]	n/a	catFR1	0	R1228M
402.428	1.0	406894	WORD_OFF	n/a	n/a	TRAIN	n/a	1	1	[0, 0, 0]	n/a	catFR1	0	R1228M
403.428	1.618	407894	WORD	n/a	wordpools/wordpool_categorized_EN.txt	TRUCK	Vehicles	2	1	[0, 0, 0]	n/a	catFR1	0	R1228M
405.046	0.983	409512	WORD_OFF	n/a	n/a	TRUCK	n/a	2	1	[0, 0, 0]	n/a	catFR1	0	R1228M
406.029	1.617	410495	WORD	n/a	wordpools/wordpool_categorized_EN.txt	MARIGOLD	Flowers	3	1	[0, 0, 0]	n/a	catFR1	0	R1228M
407.646	0.883	412112	WORD_OFF	n/a	n/a	MARIGOLD	n/a	3	1	[0, 0, 0]	n/a	catFR1	0	R1228M
408.529	1.617	412994	WORD	n/a	wordpools/wordpool_categorized_EN.txt	ORCHID	Flowers	4	1	[0, 0, 0]	n/a	catFR1	0	R1228M
410.146	0.901	414611	WORD_OFF	n/a	n/a	ORCHID	n/a	4	1	[0, 0, 0]	n/a	catFR1	0	R1228M
411.047	1.617	415512	WORD	n/a	wordpools/wordpool_categorized_EN.txt	WILLOW	Trees	5	1	[0, 0, 0]	n/a	catFR1	0	R1228M
412.664	0.833	417129	WORD_OFF	n/a	n/a	WILLOW	n/a	5	1	[0, 0, 0]	n/a	catFR1	0	R1228M
413.497	1.617	417962	WORD	n/a	wordpools/wordpool_categorized_EN.txt	WALNUT	Trees	6	1	[0, 0, 0]	n/a	catFR1	0	R1228M
415.114	0.967	419579	WORD_OFF	n/a	n/a	WALNUT	n/a	6	1	[0, 0, 0]	n/a	catFR1	0	R1228M
416.081	1.617	420546	WORD	n/a	wordpools/wordpool_categorized_EN.txt	VAN	Vehicles	7	1	[0, 0, 0]	n/a	catFR1	0	R1228M
417.698	0.8	422163	WORD_OFF	n/a	n/a	VAN	n/a	7	1	[0, 0, 0]	n/a	catFR1	0	R1228M
418.498	1.617	422963	WORD	n/a	wordpools/wordpool_categorized_EN.txt	MOTORCYCLE	Vehicles	8	1	[0, 0, 0]	n/a	catFR1	0	R1228M
420.115	0.95	424580	WORD_OFF	n/a	n/a	MOTORCYCLE	n/a	8	1	[0, 0, 0]	n/a	catFR1	0	R1228M
421.065	1.617	425530	WORD	n/a	wordpools/wordpool_categorized_EN.txt	SUNFLOWER	Flowers	9	1	[0, 0, 0]	n/a	catFR1	0	R1228M
422.682	0.784	427147	WORD_OFF	n/a	n/a	SUNFLOWER	n/a	9	1	[0, 0, 0]	n/a	catFR1	0	R1228M
423.466	1.617	427931	WORD	n/a	wordpools/wordpool_categorized_EN.txt	TULIP	Flowers	10	1	[0, 0, 0]	n/a	catFR1	0	R1228M
425.083	0.783	429548	WORD_OFF	n/a	n/a	TULIP	n/a	10	1	[0, 0, 0]	n/a	catFR1	0	R1228M
425.866	1.617	430331	WORD	n/a	wordpools/wordpool_categorized_EN.txt	EVERGREEN	Trees	11	1	[0, 0, 0]	n/a	catFR1	0	R1228M
427.483	0.834	431947	WORD_OFF	n/a	n/a	EVERGREEN	n/a	11	1	[0, 0, 0]	n/a	catFR1	0	R1228M
428.317	1.617	432781	WORD	n/a	wordpools/wordpool_categorized_EN.txt	BIRCH	Trees	12	1	[0, 0, 0]	n/a	catFR1	0	R1228M
429.934	0.0	434398	WORD_OFF	n/a	n/a	BIRCH	n/a	12	1	[0, 0, 0]	n/a	catFR1	0	R1228M
429.934	0.133	434398	ENCODING_END	n/a	n/a	n/a	n/a	-999	1	[0, 0, 0]	n/a	catFR1	0	R1228M
430.067	0.0	434531	DISTRACT_START	n/a	n/a	n/a	n/a	-999	1	[0, 0, 0]	n/a	catFR1	0	R1228M
430.067	0.017	434531	START	n/a	n/a	n/a	n/a	-999	1	[-999, -999, -999]	n/a	catFR1	0	R1228M
430.084	4.117	434548	PROB	4.117	n/a	n/a	n/a	-999	1	[3, 2, 7]	12	catFR1	0	R1228M
434.201	3.583	438665	PROB	3.583	n/a	n/a	n/a	-999	1	[1, 6, 7]	14	catFR1	0	R1228M
437.784	5.569	442248	PROB	5.569	n/a	n/a	n/a	-999	1	[2, 4, 3]	9	catFR1	0	R1228M
443.353	4.5	447817	PROB	4.5	n/a	n/a	n/a	-999	1	[8, 3, 7]	18	catFR1	0	R1228M
447.853	5.449	452316	PROB	5.449	n/a	n/a	n/a	-999	1	[5, 7, 2]	14	catFR1	0	R1228M
453.302	0.02	457765	STOP	n/a	n/a	n/a	n/a	-999	1	[-999, -999, -999]	n/a	catFR1	0	R1228M
453.322	0.65	457785	DISTRACT_END	n/a	n/a	n/a	n/a	-999	1	[0, 0, 0]	n/a	catFR1	0	R1228M
453.972	0.517	458435	RETRIEVAL_ORIENT	n/a	n/a	n/a	n/a	-999	1	[0, 0, 0]	n/a	catFR1	0	R1228M
454.489	2.615	458952	REC_START	n/a	n/a	n/a	n/a	-999	1	[0, 0, 0]	n/a	catFR1	0	R1228M
457.104	0.672	461567	REC_WORD	0.672	n/a	TRAIN	Vehicles	1	1	[0, 0, 0]	n/a	catFR1	0	R1228M
457.776	1.826	462239	REC_WORD	1.826	n/a	TRUCK	Vehicles	2	1	[0, 0, 0]	n/a	catFR1	0	R1228M
459.602	0.999	464065	REC_WORD	0.999	n/a	MARIGOLD	Flowers	3	1	[0, 0, 0]	n/a	catFR1	0	R1228M
460.601	1.34	465064	REC_WORD_VV	1.34	n/a	<>	n/a	-999	1	[0, 0, 0]	n/a	catFR1	0	R1228M
461.941	3.206	466403	REC_WORD_VV	3.206	n/a	<>	n/a	-999	1	[0, 0, 0]	n/a	catFR1	0	R1228M
465.147	6.163	469609	REC_WORD_VV	6.163	n/a	<>	n/a	-999	1	[0, 0, 0]	n/a	catFR1	0	R1228M
471.31	13.19	475772	REC_WORD	13.19	n/a	VAN	Vehicles	7	1	[0, 0, 0]	n/a	catFR1	0	R1228M
484.5	8.063	488961	REC_END	n/a	n/a	n/a	n/a	-999	1	[0, 0, 0]	n/a	catFR1	0	R1228M
492.563	0.5	497024	TRIAL	n/a	n/a	n/a	n/a	-999	2	[0, 0, 0]	n/a	catFR1	0	R1228M
493.063	10.428	497524	COUNTDOWN_START	n/a	n/a	n/a	n/a	-999	2	[0, 0, 0]	n/a	catFR1	0	R1228M
503.491	0.007	507951	COUNTDOWN_END	n/a	n/a	n/a	n/a	-999	2	[0, 0, 0]	n/a	catFR1	0	R1228M
503.498	1.617	507958	ORIENT	n/a	n/a	n/a	n/a	-999	2	[0, 0, 0]	n/a	catFR1	0	R1228M
505.115	2.167	509575	ORIENT_OFF	n/a	n/a	n/a	n/a	-999	2	[0, 0, 0]	n/a	catFR1	0	R1228M
507.282	1.617	511742	WORD	n/a	wordpools/wordpool_categorized_EN.txt	TROMBONE	Instruments	1	2	[0, 0, 0]	n/a	catFR1	0	R1228M
508.899	1.0	513359	WORD_OFF	n/a	n/a	TROMBONE	n/a	1	2	[0, 0, 0]	n/a	catFR1	0	R1228M
509.899	1.617	514359	WORD	n/a	wordpools/wordpool_categorized_EN.txt	TUBA	Instruments	2	2	[0, 0, 0]	n/a	catFR1	0	R1228M
511.516	0.784	515976	WORD_OFF	n/a	n/a	TUBA	n/a	2	2	[0, 0, 0]	n/a	catFR1	0	R1228M
512.3	1.617	516760	WORD	n/a	wordpools/wordpool_categorized_EN.txt	HILLS	Landscapes	3	2	[0, 0, 0]	n/a	catFR1	0	R1228M
513.917	0.849	518377	WORD_OFF	n/a	n/a	HILLS	n/a	3	2	[0, 0, 0]	n/a	catFR1	0	R1228M
514.766	1.618	519226	WORD	n/a	wordpools/wordpool_categorized_EN.txt	STREAM	Landscapes	4	2	[0, 0, 0]	n/a	catFR1	0	R1228M
516.384	0.983	520843	WORD_OFF	n/a	n/a	STREAM	n/a	4	2	[0, 0, 0]	n/a	catFR1	0	R1228M
517.367	1.617	521826	WORD	n/a	wordpools/wordpool_categorized_EN.txt	PINE	Trees	5	2	[0, 0, 0]	n/a	catFR1	0	R1228M
518.984	0.766	523443	WORD_OFF	n/a	n/a	PINE	n/a	5	2	[0, 0, 0]	n/a	catFR1	0	R1228M
519.75	1.601	524209	WORD	n/a	wordpools/wordpool_categorized_EN.txt	MAPLE	Trees	6	2	[0, 0, 0]	n/a	catFR1	0	R1228M
521.351	0.884	525810	WORD_OFF	n/a	n/a	MAPLE	n/a	6	2	[0, 0, 0]	n/a	catFR1	0	R1228M
522.235	1.616	526694	WORD	n/a	wordpools/wordpool_categorized_EN.txt	LAKE	Landscapes	7	2	[0, 0, 0]	n/a	catFR1	0	R1228M
523.851	0.95	528310	WORD_OFF	n/a	n/a	LAKE	n/a	7	2	[0, 0, 0]	n/a	catFR1	0	R1228M
524.801	1.618	529260	WORD	n/a	wordpools/wordpool_categorized_EN.txt	VALLEY	Landscapes	8	2	[0, 0, 0]	n/a	catFR1	0	R1228M
526.419	0.834	530878	WORD_OFF	n/a	n/a	VALLEY	n/a	8	2	[0, 0, 0]	n/a	catFR1	0	R1228M
527.253	1.617	531712	WORD	n/a	wordpools/wordpool_categorized_EN.txt	GUITAR	Instruments	9	2	[0, 0, 0]	n/a	catFR1	0	R1228M
528.87	0.899	533329	WORD_OFF	n/a	n/a	GUITAR	n/a	9	2	[0, 0, 0]	n/a	catFR1	0	R1228M
529.769	1.618	534228	WORD	n/a	wordpools/wordpool_categorized_EN.txt	CELLO	Instruments	10	2	[0, 0, 0]	n/a	catFR1	0	R1228M
531.387	0.783	535846	WORD_OFF	n/a	n/a	CELLO	n/a	10	2	[0, 0, 0]	n/a	catFR1	0	R1228M
532.17	1.616	536629	WORD	n/a	wordpools/wordpool_categorized_EN.txt	CEDAR	Trees	11	2	[0, 0, 0]	n/a	catFR1	0	R1228M
533.786	0.984	538244	WORD_OFF	n/a	n/a	CEDAR	n/a	11	2	[0, 0, 0]	n/a	catFR1	0	R1228M
534.77	1.618	539228	WORD	n/a	wordpools/wordpool_categorized_EN.txt	HICKORY	Trees	12	2	[0, 0, 0]	n/a	catFR1	0	R1228M
536.388	0.0	540846	ENCODING_END	n/a	n/a	n/a	n/a	-999	2	[0, 0, 0]	n/a	catFR1	0	R1228M
536.388	0.102	540846	WORD_OFF	n/a	n/a	HICKORY	n/a	12	2	[0, 0, 0]	n/a	catFR1	0	R1228M
536.49	0.0	540948	DISTRACT_START	n/a	n/a	n/a	n/a	-999	2	[0, 0, 0]	n/a	catFR1	0	R1228M
536.49	0.014	540948	START	n/a	n/a	n/a	n/a	-999	2	[-999, -999, -999]	n/a	catFR1	0	R1228M
536.504	3.834	540962	PROB	3.834	n/a	n/a	n/a	-999	2	[2, 7, 3]	12	catFR1	0	R1228M
540.338	10.336	544796	PROB	10.336	n/a	n/a	n/a	-999	2	[4, 9, 8]	21	catFR1	0	R1228M
550.674	6.676	555131	PROB	6.676	n/a	n/a	n/a	-999	2	[7, 8, 5]	20	catFR1	0	R1228M
557.35	0.009	561807	STOP	n/a	n/a	n/a	n/a	-999	2	[-999, -999, -999]	n/a	catFR1	0	R1228M
557.359	0.616	561816	DISTRACT_END	n/a	n/a	n/a	n/a	-999	2	[0, 0, 0]	n/a	catFR1	0	R1228M
557.975	0.519	562432	RETRIEVAL_ORIENT	n/a	n/a	n/a	n/a	-999	2	[0, 0, 0]	n/a	catFR1	0	R1228M
558.494	2.391	562951	REC_START	n/a	n/a	n/a	n/a	-999	2	[0, 0, 0]	n/a	catFR1	0	R1228M
560.885	0.881	565342	REC_WORD_VV	0.881	n/a	<>	n/a	-999	2	[0, 0, 0]	n/a	catFR1	0	R1228M
561.766	0.998	566223	REC_WORD	0.998	n/a	HILLS	Landscapes	3	2	[0, 0, 0]	n/a	catFR1	0	R1228M
562.764	0.436	567221	REC_WORD_VV	0.436	n/a	<>	n/a	-999	2	[0, 0, 0]	n/a	catFR1	0	R1228M
563.2	1.0	567657	REC_WORD	1.0	n/a	STREAM	Landscapes	4	2	[0, 0, 0]	n/a	catFR1	0	R1228M
564.2	4.134	568657	REC_WORD_VV	4.134	n/a	<>	n/a	-999	2	[0, 0, 0]	n/a	catFR1	0	R1228M
568.334	1.001	572791	REC_WORD	1.001	n/a	TROMBONE	Instruments	1	2	[0, 0, 0]	n/a	catFR1	0	R1228M
569.335	4.256	573791	REC_WORD_VV	4.256	n/a	<>	n/a	-999	2	[0, 0, 0]	n/a	catFR1	0	R1228M
573.591	0.669	578047	REC_WORD_VV	0.669	n/a	<>	n/a	-999	2	[0, 0, 0]	n/a	catFR1	0	R1228M
574.26	2.168	578716	REC_WORD	2.168	n/a	CEDAR	Trees	11	2	[0, 0, 0]	n/a	catFR1	0	R1228M
576.428	2.54	580884	REC_WORD	2.54	n/a	MAPLE	Trees	6	2	[0, 0, 0]	n/a	catFR1	0	R1228M
578.968	9.538	583424	REC_WORD	9.538	n/a	VALLEY	Landscapes	8	2	[0, 0, 0]	n/a	catFR1	0	R1228M
588.506	15.528	592961	REC_END	n/a	n/a	n/a	n/a	-999	2	[0, 0, 0]	n/a	catFR1	0	R1228M
604.034	0.5	608488	TRIAL	n/a	n/a	n/a	n/a	-999	3	[0, 0, 0]	n/a	catFR1	0	R1228M
604.534	10.428	608988	COUNTDOWN_START	n/a	n/a	n/a	n/a	-999	3	[0, 0, 0]	n/a	catFR1	0	R1228M
614.962	0.008	619416	COUNTDOWN_END	n/a	n/a	n/a	n/a	-999	3	[0, 0, 0]	n/a	catFR1	0	R1228M
614.97	1.617	619424	ORIENT	n/a	n/a	n/a	n/a	-999	3	[0, 0, 0]	n/a	catFR1	0	R1228M
616.587	2.166	621041	ORIENT_OFF	n/a	n/a	n/a	n/a	-999	3	[0, 0, 0]	n/a	catFR1	0	R1228M
618.753	1.618	623207	WORD	n/a	wordpools/wordpool_categorized_EN.txt	SCREWDRIVER	Tools	1	3	[0, 0, 0]	n/a	catFR1	0	R1228M
620.371	0.95	624825	WORD_OFF	n/a	n/a	SCREWDRIVER	n/a	1	3	[0, 0, 0]	n/a	catFR1	0	R1228M
621.321	1.617	625775	WORD	n/a	wordpools/wordpool_categorized_EN.txt	AXE	Tools	2	3	[0, 0, 0]	n/a	catFR1	0	R1228M
622.938	0.816	627391	WORD_OFF	n/a	n/a	AXE	n/a	2	3	[0, 0, 0]	n/a	catFR1	0	R1228M
623.754	1.618	628207	WORD	n/a	wordpools/wordpool_categorized_EN.txt	DOLLHOUSE	Toys	3	3	[0, 0, 0]	n/a	catFR1	0	R1228M
625.372	0.883	629825	WORD_OFF	n/a	n/a	DOLLHOUSE	n/a	3	3	[0, 0, 0]	n/a	catFR1	0	R1228M
626.255	1.617	630708	WORD	n/a	wordpools/wordpool_categorized_EN.txt	BALL	Toys	4	3	[0, 0, 0]	n/a	catFR1	0	R1228M
627.872	0.784	632325	WORD_OFF	n/a	n/a	BALL	n/a	4	3	[0, 0, 0]	n/a	catFR1	0	R1228M
628.656	1.616	633109	WORD	n/a	wordpools/wordpool_categorized_EN.txt	PEAS	Vegetables	5	3	[0, 0, 0]	n/a	catFR1	0	R1228M
630.272	0.784	634725	WORD_OFF	n/a	n/a	PEAS	n/a	5	3	[0, 0, 0]	n/a	catFR1	0	R1228M
631.056	1.617	635509	WORD	n/a	wordpools/wordpool_categorized_EN.txt	CUCUMBER	Vegetables	6	3	[0, 0, 0]	n/a	catFR1	0	R1228M
632.673	0.783	637126	WORD_OFF	n/a	n/a	CUCUMBER	n/a	6	3	[0, 0, 0]	n/a	catFR1	0	R1228M
633.456	1.617	637909	WORD	n/a	wordpools/wordpool_categorized_EN.txt	PLIERS	Tools	7	3	[0, 0, 0]	n/a	catFR1	0	R1228M
635.073	0.783	639526	WORD_OFF	n/a	n/a	PLIERS	n/a	7	3	[0, 0, 0]	n/a	catFR1	0	R1228M
635.856	1.618	640309	WORD	n/a	wordpools/wordpool_categorized_EN.txt	RATCHET	Tools	8	3	[0, 0, 0]	n/a	catFR1	0	R1228M
637.474	0.85	641927	WORD_OFF	n/a	n/a	RATCHET	n/a	8	3	[0, 0, 0]	n/a	catFR1	0	R1228M
638.324	1.617	642777	WORD	n/a	wordpools/wordpool_categorized_EN.txt	SLINKY	Toys	9	3	[0, 0, 0]	n/a	catFR1	0	R1228M
639.941	0.866	644393	WORD_OFF	n/a	n/a	SLINKY	n/a	9	3	[0, 0, 0]	n/a	catFR1	0	R1228M
640.807	1.618	645259	WORD	n/a	wordpools/wordpool_categorized_EN.txt	MARBLES	Toys	10	3	[0, 0, 0]	n/a	catFR1	0	R1228M
642.425	0.883	646877	WORD_OFF	n/a	n/a	MARBLES	n/a	10	3	[0, 0, 0]	n/a	catFR1	0	R1228M
643.308	1.617	647760	WORD	n/a	wordpools/wordpool_categorized_EN.txt	CAULIFLOWER	Vegetables	11	3	[0, 0, 0]	n/a	catFR1	0	R1228M
644.925	0.866	649377	WORD_OFF	n/a	n/a	CAULIFLOWER	n/a	11	3	[0, 0, 0]	n/a	catFR1	0	R1228M
645.791	1.618	650243	WORD	n/a	wordpools/wordpool_categorized_EN.txt	CORN	Vegetables	12	3	[0, 0, 0]	n/a	catFR1	0	R1228M
647.409	0.0	651861	WORD_OFF	n/a	n/a	CORN	n/a	12	3	[0, 0, 0]	n/a	catFR1	0	R1228M
647.409	0.103	651861	ENCODING_END	n/a	n/a	n/a	n/a	-999	3	[0, 0, 0]	n/a	catFR1	0	R1228M
647.512	0.0	651964	DISTRACT_START	n/a	n/a	n/a	n/a	-999	3	[0, 0, 0]	n/a	catFR1	0	R1228M
647.512	0.014	651964	START	n/a	n/a	n/a	n/a	-999	3	[-999, -999, -999]	n/a	catFR1	0	R1228M
647.526	4.918	651978	PROB	4.918	n/a	n/a	n/a	-999	3	[6, 4, 8]	18	catFR1	0	R1228M
652.444	2.8	656896	PROB	2.8	n/a	n/a	n/a	-999	3	[9, 1, 5]	15	catFR1	0	R1228M
655.244	2.533	659696	PROB	2.533	n/a	n/a	n/a	-999	3	[4, 8, 2]	14	catFR1	0	R1228M
657.777	2.851	662228	PROB	2.851	n/a	n/a	n/a	-999	3	[8, 7, 3]	18	catFR1	0	R1228M
660.628	4.001	665079	PROB	4.001	n/a	n/a	n/a	-999	3	[9, 8, 2]	19	catFR1	0	R1228M
664.629	3.905	669080	PROB	3.905	n/a	n/a	n/a	-999	3	[9, 2, 3]	14	catFR1	0	R1228M
668.534	0.013	672985	STOP	n/a	n/a	n/a	n/a	-999	3	[-999, -999, -999]	n/a	catFR1	0	R1228M
668.547	0.533	672998	DISTRACT_END	n/a	n/a	n/a	n/a	-999	3	[0, 0, 0]	n/a	catFR1	0	R1228M
669.08	0.517	673531	RETRIEVAL_ORIENT	n/a	n/a	n/a	n/a	-999	3	[0, 0, 0]	n/a	catFR1	0	R1228M
669.597	2.308	674048	REC_START	n/a	n/a	n/a	n/a	-999	3	[0, 0, 0]	n/a	catFR1	0	R1228M
671.905	1.206	676356	REC_WORD	1.206	n/a	CAULIFLOWER	Vegetables	11	3	[0, 0, 0]	n/a	catFR1	0	R1228M
673.111	1.366	677562	REC_WORD	1.366	n/a	PEAS	Vegetables	5	3	[0, 0, 0]	n/a	catFR1	0	R1228M
674.477	3.248	678928	REC_WORD	3.248	n/a	RATCHET	Tools	8	3	[0, 0, 0]	n/a	catFR1	0	R1228M
677.725	0.999	682175	REC_WORD	0.999	n/a	DOLLHOUSE	Toys	3	3	[0, 0, 0]	n/a	catFR1	0	R1228M
678.724	2.287	683174	REC_WORD_VV	2.287	n/a	<>	n/a	-999	3	[0, 0, 0]	n/a	catFR1	0	R1228M
681.011	1.148	685461	REC_WORD	1.148	n/a	SLINKY	Toys	9	3	[0, 0, 0]	n/a	catFR1	0	R1228M
682.159	1.0	686609	REC_WORD	1.0	n/a	MARBLES	Toys	10	3	[0, 0, 0]	n/a	catFR1	0	R1228M
683.159	2.369	687609	REC_WORD_VV	2.369	n/a	<>	n/a	-999	3	[0, 0, 0]	n/a	catFR1	0	R1228M
685.528	12.556	689978	REC_WORD_VV	12.556	n/a	<>	n/a	-999	3	[0, 0, 0]	n/a	catFR1	0	R1228M
698.084	1.524	702533	REC_WORD	1.524	n/a	WRENCH	n/a	-999	3	[0, 0, 0]	n/a	catFR1	0	R1228M
699.608	20.049	704057	REC_END	n/a	n/a	n/a	n/a	-999	3	[0, 0, 0]	n/a	catFR1	0	R1228M
719.657	0.5	724105	TRIAL	n/a	n/a	n/a	n/a	-999	4	[0, 0, 0]	n/a	catFR1	0	R1228M
720.157	10.428	724605	COUNTDOWN_START	n/a	n/a	n/a	n/a	-999	4	[0, 0, 0]	n/a	catFR1	0	R1228M
730.585	0.007	735032	COUNTDOWN_END	n/a	n/a	n/a	n/a	-999	4	[0, 0, 0]	n/a	catFR1	0	R1228M
730.592	1.617	735039	ORIENT	n/a	n/a	n/a	n/a	-999	4	[0, 0, 0]	n/a	catFR1	0	R1228M
732.209	1.867	736656	ORIENT_OFF	n/a	n/a	n/a	n/a	-999	4	[0, 0, 0]	n/a	catFR1	0	R1228M
734.076	1.617	738523	WORD	n/a	wordpools/wordpool_categorized_EN.txt	BASEBALL	Toys	1	4	[0, 0, 0]	n/a	catFR1	0	R1228M
735.693	0.917	740140	WORD_OFF	n/a	n/a	BASEBALL	n/a	1	4	[0, 0, 0]	n/a	catFR1	0	R1228M
736.61	1.617	741057	WORD	n/a	wordpools/wordpool_categorized_EN.txt	FOOTBALL	Toys	2	4	[0, 0, 0]	n/a	catFR1	0	R1228M
738.227	0.95	742674	WORD_OFF	n/a	n/a	FOOTBALL	n/a	2	4	[0, 0, 0]	n/a	catFR1	0	R1228M
739.177	1.616	743624	WORD	n/a	wordpools/wordpool_categorized_EN.txt	ATTIC	Building	3	4	[0, 0, 0]	n/a	catFR1	0	R1228M
740.793	0.834	745240	WORD_OFF	n/a	n/a	ATTIC	n/a	3	4	[0, 0, 0]	n/a	catFR1	0	R1228M
741.627	1.617	746074	WORD	n/a	wordpools/wordpool_categorized_EN.txt	WINDOW	Building	4	4	[0, 0, 0]	n/a	catFR1	0	R1228M
743.244	0.767	747691	WORD_OFF	n/a	n/a	WINDOW	n/a	4	4	[0, 0, 0]	n/a	catFR1	0	R1228M
744.011	1.617	748458	WORD	n/a	wordpools/wordpool_categorized_EN.txt	NOSE	BodyParts	5	4	[0, 0, 0]	n/a	catFR1	0	R1228M
745.628	0.967	750075	WORD_OFF	n/a	n/a	NOSE	n/a	5	4	[0, 0, 0]	n/a	catFR1	0	R1228M
746.595	1.617	751041	WORD	n/a	wordpools/wordpool_categorized_EN.txt	KNEE	BodyParts	6	4	[0, 0, 0]	n/a	catFR1	0	R1228M
748.212	1.0	752658	WORD_OFF	n/a	n/a	KNEE	n/a	6	4	[0, 0, 0]	n/a	catFR1	0	R1228M
749.212	1.616	753658	WORD	n/a	wordpools/wordpool_categorized_EN.txt	ROOF	Building	7	4	[0, 0, 0]	n/a	catFR1	0	R1228M
750.828	0.818	755274	WORD_OFF	n/a	n/a	ROOF	n/a	7	4	[0, 0, 0]	n/a	catFR1	0	R1228M
751.646	1.617	756092	WORD	n/a	wordpools/wordpool_categorized_EN.txt	FOUNDATION	Building	8	4	[0, 0, 0]	n/a	catFR1	0	R1228M
753.263	1.017	757709	WORD_OFF	n/a	n/a	FOUNDATION	n/a	8	4	[0, 0, 0]	n/a	catFR1	0	R1228M
754.28	1.617	758726	WORD	n/a	wordpools/wordpool_categorized_EN.txt	DOLL	Toys	9	4	[0, 0, 0]	n/a	catFR1	0	R1228M
755.897	1.0	760343	WORD_OFF	n/a	n/a	DOLL	n/a	9	4	[0, 0, 0]	n/a	catFR1	0	R1228M
756.897	1.617	761343	WORD	n/a	wordpools/wordpool_categorized_EN.txt	FRISBEE	Toys	10	4	[0, 0, 0]	n/a	catFR1	0	R1228M
758.514	0.9	762960	WORD_OFF	n/a	n/a	FRISBEE	n/a	10	4	[0, 0, 0]	n/a	catFR1	0	R1228M
759.414	1.617	763860	WORD	n/a	wordpools/wordpool_categorized_EN.txt	TOE	BodyParts	11	4	[0, 0, 0]	n/a	catFR1	0	R1228M
761.031	1.017	765477	WORD_OFF	n/a	n/a	TOE	n/a	11	4	[0, 0, 0]	n/a	catFR1	0	R1228M
762.048	1.617	766494	WORD	n/a	wordpools/wordpool_categorized_EN.txt	LEG	BodyParts	12	4	[0, 0, 0]	n/a	catFR1	0	R1228M
763.665	0.0	768111	ENCODING_END	n/a	n/a	n/a	n/a	-999	4	[0, 0, 0]	n/a	catFR1	0	R1228M
763.665	0.136	768111	WORD_OFF	n/a	n/a	LEG	n/a	12	4	[0, 0, 0]	n/a	catFR1	0	R1228M
763.801	0.0	768247	DISTRACT_START	n/a	n/a	n/a	n/a	-999	4	[0, 0, 0]	n/a	catFR1	0	R1228M
763.801	0.013	768247	START	n/a	n/a	n/a	n/a	-999	4	[-999, -999, -999]	n/a	catFR1	0	R1228M
763.814	5.886	768260	PROB	5.886	n/a	n/a	n/a	-999	4	[9, 8, 4]	21	catFR1	0	R1228M
769.7	2.817	774145	PROB	2.817	n/a	n/a	n/a	-999	4	[6, 2, 3]	11	catFR1	0	R1228M
772.517	3.751	776962	PROB	3.751	n/a	n/a	n/a	-999	4	[8, 4, 7]	19	catFR1	0	R1228M
776.268	3.499	780713	PROB	3.499	n/a	n/a	n/a	-999	4	[1, 1, 2]	4	catFR1	0	R1228M
779.767	4.093	784212	PROB	4.093	n/a	n/a	n/a	-999	4	[6, 9, 3]	18	catFR1	0	R1228M
783.86	0.009	788304	STOP	n/a	n/a	n/a	n/a	-999	4	[-999, -999, -999]	n/a	catFR1	0	R1228M
783.869	0.65	788313	DISTRACT_END	n/a	n/a	n/a	n/a	-999	4	[0, 0, 0]	n/a	catFR1	0	R1228M
784.519	0.518	788963	RETRIEVAL_ORIENT	n/a	n/a	n/a	n/a	-999	4	[0, 0, 0]	n/a	catFR1	0	R1228M
785.037	3.181	789481	REC_START	n/a	n/a	n/a	n/a	-999	4	[0, 0, 0]	n/a	catFR1	0	R1228M
788.218	1.121	792662	REC_WORD	1.121	n/a	DOLL	Toys	9	4	[0, 0, 0]	n/a	catFR1	0	R1228M
789.339	2.373	793783	REC_WORD	2.373	n/a	TOE	BodyParts	11	4	[0, 0, 0]	n/a	catFR1	0	R1228M
791.712	9.85	796156	REC_WORD	9.85	n/a	LEG	BodyParts	12	4	[0, 0, 0]	n/a	catFR1	0	R1228M
801.562	1.0	806005	REC_WORD_VV	1.0	n/a	<>	n/a	-999	4	[0, 0, 0]	n/a	catFR1	0	R1228M
802.562	9.096	807005	REC_WORD_VV	9.096	n/a	<>	n/a	-999	4	[0, 0, 0]	n/a	catFR1	0	R1228M
811.658	3.391	816101	REC_WORD	3.391	n/a	FOOTBALL	Toys	2	4	[0, 0, 0]	n/a	catFR1	0	R1228M
815.049	130.135	819492	REC_END	n/a	n/a	n/a	n/a	-999	4	[0, 0, 0]	n/a	catFR1	0	R1228M
945.184	0.5	949619	TRIAL	n/a	n/a	n/a	n/a	-999	5	[0, 0, 0]	n/a	catFR1	0	R1228M
945.684	10.428	950119	COUNTDOWN_START	n/a	n/a	n/a	n/a	-999	5	[0, 0, 0]	n/a	catFR1	0	R1228M
956.112	0.007	960547	COUNTDOWN_END	n/a	n/a	n/a	n/a	-999	5	[0, 0, 0]	n/a	catFR1	0	R1228M
956.119	1.616	960554	ORIENT	n/a	n/a	n/a	n/a	-999	5	[0, 0, 0]	n/a	catFR1	0	R1228M
957.735	2.335	962170	ORIENT_OFF	n/a	n/a	n/a	n/a	-999	5	[0, 0, 0]	n/a	catFR1	0	R1228M
960.07	1.617	964504	WORD	n/a	wordpools/wordpool_categorized_EN.txt	MIXER	Appliances	1	5	[0, 0, 0]	n/a	catFR1	0	R1228M
961.687	0.8	966121	WORD_OFF	n/a	n/a	MIXER	n/a	1	5	[0, 0, 0]	n/a	catFR1	0	R1228M
962.487	1.617	966921	WORD	n/a	wordpools/wordpool_categorized_EN.txt	STOVE	Appliances	2	5	[0, 0, 0]	n/a	catFR1	0	R1228M
964.104	1.0	968538	WORD_OFF	n/a	n/a	STOVE	n/a	2	5	[0, 0, 0]	n/a	catFR1	0	R1228M
965.104	1.617	969538	WORD	n/a	wordpools/wordpool_categorized_EN.txt	PANTS	Clothing	3	5	[0, 0, 0]	n/a	catFR1	0	R1228M
966.721	0.933	971155	WORD_OFF	n/a	n/a	PANTS	n/a	3	5	[0, 0, 0]	n/a	catFR1	0	R1228M
967.654	1.617	972088	WORD	n/a	wordpools/wordpool_categorized_EN.txt	JACKET	Clothing	4	5	[0, 0, 0]	n/a	catFR1	0	R1228M
969.271	1.001	973705	WORD_OFF	n/a	n/a	JACKET	n/a	4	5	[0, 0, 0]	n/a	catFR1	0	R1228M
970.272	1.617	974706	WORD	n/a	wordpools/wordpool_categorized_EN.txt	TONGS	KitchenTools	5	5	[0, 0, 0]	n/a	catFR1	0	R1228M
971.889	0.983	976323	WORD_OFF	n/a	n/a	TONGS	n/a	5	5	[0, 0, 0]	n/a	catFR1	0	R1228M
972.872	1.617	977306	WORD	n/a	wordpools/wordpool_categorized_EN.txt	PEELER	KitchenTools	6	5	[0, 0, 0]	n/a	catFR1	0	R1228M
974.489	0.917	978923	WORD_OFF	n/a	n/a	PEELER	n/a	6	5	[0, 0, 0]	n/a	catFR1	0	R1228M
975.406	1.617	979840	WORD	n/a	wordpools/wordpool_categorized_EN.txt	SHIRT	Clothing	7	5	[0, 0, 0]	n/a	catFR1	0	R1228M
977.023	0.783	981457	WORD_OFF	n/a	n/a	SHIRT	n/a	7	5	[0, 0, 0]	n/a	catFR1	0	R1228M
977.806	1.618	982239	WORD	n/a	wordpools/wordpool_categorized_EN.txt	DRESS	Clothing	8	5	[0, 0, 0]	n/a	catFR1	0	R1228M
979.424	0.833	983857	WORD_OFF	n/a	n/a	DRESS	n/a	8	5	[0, 0, 0]	n/a	catFR1	0	R1228M
980.257	1.617	984690	WORD	n/a	wordpools/wordpool_categorized_EN.txt	BLENDER	Appliances	9	5	[0, 0, 0]	n/a	catFR1	0	R1228M
981.874	1.0	986307	WORD_OFF	n/a	n/a	BLENDER	n/a	9	5	[0, 0, 0]	n/a	catFR1	0	R1228M
982.874	1.617	987307	WORD	n/a	wordpools/wordpool_categorized_EN.txt	DRYER	Appliances	10	5	[0, 0, 0]	n/a	catFR1	0	R1228M
984.491	0.784	988924	WORD_OFF	n/a	n/a	DRYER	n/a	10	5	[0, 0, 0]	n/a	catFR1	0	R1228M
985.275	1.617	989708	WORD	n/a	wordpools/wordpool_categorized_EN.txt	COLANDER	KitchenTools	11	5	[0, 0, 0]	n/a	catFR1	0	R1228M
986.892	0.865	991325	WORD_OFF	n/a	n/a	COLANDER	n/a	11	5	[0, 0, 0]	n/a	catFR1	0	R1228M
987.757	1.618	992190	WORD	n/a	wordpools/wordpool_categorized_EN.txt	SPATULA	KitchenTools	12	5	[0, 0, 0]	n/a	catFR1	0	R1228M
989.375	0.001	993808	WORD_OFF	n/a	n/a	SPATULA	n/a	12	5	[0, 0, 0]	n/a	catFR1	0	R1228M
989.376	0.109	993809	ENCODING_END	n/a	n/a	n/a	n/a	-999	5	[0, 0, 0]	n/a	catFR1	0	R1228M
989.485	0.0	993918	DISTRACT_START	n/a	n/a	n/a	n/a	-999	5	[0, 0, 0]	n/a	catFR1	0	R1228M
989.485	0.024	993918	START	n/a	n/a	n/a	n/a	-999	5	[-999, -999, -999]	n/a	catFR1	0	R1228M
989.509	3.534	993942	PROB	3.534	n/a	n/a	n/a	-999	5	[2, 8, 5]	15	catFR1	0	R1228M
993.043	3.884	997476	PROB	3.884	n/a	n/a	n/a	-999	5	[8, 4, 4]	16	catFR1	0	R1228M
996.927	8.435	1001359	PROB	8.435	n/a	n/a	n/a	-999	5	[8, 9, 6]	23	catFR1	0	R1228M
1005.362	5.836	1009794	PROB	5.836	n/a	n/a	n/a	-999	5	[8, 7, 5]	20	catFR1	0	R1228M
1011.198	0.015	1015630	STOP	n/a	n/a	n/a	n/a	-999	5	[-999, -999, -999]	n/a	catFR1	0	R1228M
1011.213	0.532	1015645	DISTRACT_END	n/a	n/a	n/a	n/a	-999	5	[0, 0, 0]	n/a	catFR1	0	R1228M
1011.745	0.519	1016177	RETRIEVAL_ORIENT	n/a	n/a	n/a	n/a	-999	5	[0, 0, 0]	n/a	catFR1	0	R1228M
1012.264	4.101	1016696	REC_START	n/a	n/a	n/a	n/a	-999	5	[0, 0, 0]	n/a	catFR1	0	R1228M
1016.365	0.9	1020796	REC_WORD	0.9	n/a	DRESS	Clothing	8	5	[0, 0, 0]	n/a	catFR1	0	R1228M
1017.265	1.649	1021696	REC_WORD	1.649	n/a	PANTS	Clothing	3	5	[0, 0, 0]	n/a	catFR1	0	R1228M
1018.914	2.64	1023345	REC_WORD	2.64	n/a	SHIRT	Clothing	7	5	[0, 0, 0]	n/a	catFR1	0	R1228M
1021.554	1.528	1025985	REC_WORD	1.528	n/a	STOVE	Appliances	2	5	[0, 0, 0]	n/a	catFR1	0	R1228M
1023.082	1.301	1027513	REC_WORD	1.301	n/a	PEELER	KitchenTools	6	5	[0, 0, 0]	n/a	catFR1	0	R1228M
1024.383	3.841	1028814	REC_WORD	3.841	n/a	MIXER	Appliances	1	5	[0, 0, 0]	n/a	catFR1	0	R1228M
1028.224	1.794	1032655	REC_WORD_VV	1.794	n/a	<>	n/a	-999	5	[0, 0, 0]	n/a	catFR1	0	R1228M
1030.018	0.82	1034449	REC_WORD	0.82	n/a	STOVE	Appliances	2	5	[0, 0, 0]	n/a	catFR1	0	R1228M
1030.838	0.769	1035268	REC_WORD	0.769	n/a	PEELER	KitchenTools	6	5	[0, 0, 0]	n/a	catFR1	0	R1228M
1031.607	1.137	1036037	REC_WORD	1.137	n/a	MIXER	Appliances	1	5	[0, 0, 0]	n/a	catFR1	0	R1228M
1032.744	0.544	1037174	REC_WORD	0.544	n/a	DRYER	Appliances	10	5	[0, 0, 0]	n/a	catFR1	0	R1228M
1033.288	8.988	1037718	REC_WORD_VV	8.988	n/a	<>	n/a	-999	5	[0, 0, 0]	n/a	catFR1	0	R1228M
1042.276	4.977	1046706	REC_END	n/a	n/a	n/a	n/a	-999	5	[0, 0, 0]	n/a	catFR1	0	R1228M
1047.253	0.5	1051683	TRIAL	n/a	n/a	n/a	n/a	-999	6	[0, 0, 0]	n/a	catFR1	0	R1228M
1047.753	10.428	1052183	COUNTDOWN_START	n/a	n/a	n/a	n/a	-999	6	[0, 0, 0]	n/a	catFR1	0	R1228M
1058.181	0.008	1062610	COUNTDOWN_END	n/a	n/a	n/a	n/a	-999	6	[0, 0, 0]	n/a	catFR1	0	R1228M
1058.189	1.616	1062618	ORIENT	n/a	n/a	n/a	n/a	-999	6	[0, 0, 0]	n/a	catFR1	0	R1228M
1059.805	1.933	1064234	ORIENT_OFF	n/a	n/a	n/a	n/a	-999	6	[0, 0, 0]	n/a	catFR1	0	R1228M
1061.738	1.618	1066167	WORD	n/a	wordpools/wordpool_categorized_EN.txt	CABINET	Furniture	1	6	[0, 0, 0]	n/a	catFR1	0	R1228M
1063.356	0.817	1067785	WORD_OFF	n/a	n/a	CABINET	n/a	1	6	[0, 0, 0]	n/a	catFR1	0	R1228M
1064.173	1.616	1068602	WORD	n/a	wordpools/wordpool_categorized_EN.txt	BOOKCASE	Furniture	2	6	[0, 0, 0]	n/a	catFR1	0	R1228M
1065.789	0.95	1070218	WORD_OFF	n/a	n/a	BOOKCASE	n/a	2	6	[0, 0, 0]	n/a	catFR1	0	R1228M
1066.739	1.602	1071167	WORD	n/a	wordpools/wordpool_categorized_EN.txt	VIOLET	Flowers	3	6	[0, 0, 0]	n/a	catFR1	0	R1228M
1068.341	0.783	1072769	WORD_OFF	n/a	n/a	VIOLET	n/a	3	6	[0, 0, 0]	n/a	catFR1	0	R1228M
1069.124	1.616	1073552	WORD	n/a	wordpools/wordpool_categorized_EN.txt	DAISY	Flowers	4	6	[0, 0, 0]	n/a	catFR1	0	R1228M
1070.74	0.968	1075168	WORD_OFF	n/a	n/a	DAISY	n/a	4	6	[0, 0, 0]	n/a	catFR1	0	R1228M
1071.708	1.617	1076136	WORD	n/a	wordpools/wordpool_categorized_EN.txt	TOASTER	Appliances	5	6	[0, 0, 0]	n/a	catFR1	0	R1228M
1073.325	0.917	1077753	WORD_OFF	n/a	n/a	TOASTER	n/a	5	6	[0, 0, 0]	n/a	catFR1	0	R1228M
1074.242	1.616	1078670	WORD	n/a	wordpools/wordpool_categorized_EN.txt	DISHWASHER	Appliances	6	6	[0, 0, 0]	n/a	catFR1	0	R1228M
1075.858	0.851	1080286	WORD_OFF	n/a	n/a	DISHWASHER	n/a	6	6	[0, 0, 0]	n/a	catFR1	0	R1228M
1076.709	1.617	1081137	WORD	n/a	wordpools/wordpool_categorized_EN.txt	CHAIR	Furniture	7	6	[0, 0, 0]	n/a	catFR1	0	R1228M
1078.326	0.834	1082754	WORD_OFF	n/a	n/a	CHAIR	n/a	7	6	[0, 0, 0]	n/a	catFR1	0	R1228M
1079.16	1.615	1083588	WORD	n/a	wordpools/wordpool_categorized_EN.txt	COUCH	Furniture	8	6	[0, 0, 0]	n/a	catFR1	0	R1228M
1080.775	0.885	1085203	WORD_OFF	n/a	n/a	COUCH	n/a	8	6	[0, 0, 0]	n/a	catFR1	0	R1228M
1081.66	1.617	1086088	WORD	n/a	wordpools/wordpool_categorized_EN.txt	CARNATION	Flowers	9	6	[0, 0, 0]	n/a	catFR1	0	R1228M
1083.277	0.884	1087705	WORD_OFF	n/a	n/a	CARNATION	n/a	9	6	[0, 0, 0]	n/a	catFR1	0	R1228M
1084.161	1.615	1088588	WORD	n/a	wordpools/wordpool_categorized_EN.txt	DAFFODIL	Flowers	10	6	[0, 0, 0]	n/a	catFR1	0	R1228M
1085.776	0.885	1090203	WORD_OFF	n/a	n/a	DAFFODIL	n/a	10	6	[0, 0, 0]	n/a	catFR1	0	R1228M
1086.661	1.617	1091088	WORD	n/a	wordpools/wordpool_categorized_EN.txt	WASHER	Appliances	11	6	[0, 0, 0]	n/a	catFR1	0	R1228M
1088.278	0.833	1092705	WORD_OFF	n/a	n/a	WASHER	n/a	11	6	[0, 0, 0]	n/a	catFR1	0	R1228M
1089.111	1.616	1093538	WORD	n/a	wordpools/wordpool_categorized_EN.txt	IRON	Appliances	12	6	[0, 0, 0]	n/a	catFR1	0	R1228M
1090.727	0.001	1095154	WORD_OFF	n/a	n/a	IRON	n/a	12	6	[0, 0, 0]	n/a	catFR1	0	R1228M
1090.728	0.106	1095155	ENCODING_END	n/a	n/a	n/a	n/a	-999	6	[0, 0, 0]	n/a	catFR1	0	R1228M
1090.834	0.0	1095261	DISTRACT_START	n/a	n/a	n/a	n/a	-999	6	[0, 0, 0]	n/a	catFR1	0	R1228M
1090.834	0.01	1095261	START	n/a	n/a	n/a	n/a	-999	6	[-999, -999, -999]	n/a	catFR1	0	R1228M
1090.844	4.918	1095271	PROB	4.918	n/a	n/a	n/a	-999	6	[4, 6, 9]	19	catFR1	0	R1228M
1095.762	4.952	1100189	PROB	4.952	n/a	n/a	n/a	-999	6	[8, 3, 6]	17	catFR1	0	R1228M
1100.714	3.6	1105141	PROB	3.6	n/a	n/a	n/a	-999	6	[9, 2, 6]	17	catFR1	0	R1228M
1104.314	6.185	1108740	PROB	6.185	n/a	n/a	n/a	-999	6	[5, 7, 4]	16	catFR1	0	R1228M
1110.499	3.163	1114925	PROB	3.163	n/a	n/a	n/a	-999	6	[6, 3, 1]	10	catFR1	0	R1228M
1113.662	0.021	1118088	STOP	n/a	n/a	n/a	n/a	-999	6	[-999, -999, -999]	n/a	catFR1	0	R1228M
1113.683	0.583	1118109	DISTRACT_END	n/a	n/a	n/a	n/a	-999	6	[0, 0, 0]	n/a	catFR1	0	R1228M
1114.266	0.517	1118692	RETRIEVAL_ORIENT	n/a	n/a	n/a	n/a	-999	6	[0, 0, 0]	n/a	catFR1	0	R1228M
1114.783	4.029	1119209	REC_START	n/a	n/a	n/a	n/a	-999	6	[0, 0, 0]	n/a	catFR1	0	R1228M
1118.812	3.066	1123238	REC_WORD	3.066	n/a	CHAIR	Furniture	7	6	[0, 0, 0]	n/a	catFR1	0	R1228M
1121.878	3.749	1126303	REC_WORD	3.749	n/a	DAFFODIL	Flowers	10	6	[0, 0, 0]	n/a	catFR1	0	R1228M
1125.627	6.151	1130052	REC_WORD	6.151	n/a	TULIP	n/a	-999	6	[0, 0, 0]	n/a	catFR1	0	R1228M
1131.778	6.801	1136203	REC_WORD	6.801	n/a	DISHWASHER	Appliances	6	6	[0, 0, 0]	n/a	catFR1	0	R1228M
1138.579	6.217	1143003	REC_WORD_VV	6.217	n/a	<>	n/a	-999	6	[0, 0, 0]	n/a	catFR1	0	R1228M
1144.796	5.377	1149220	REC_END	n/a	n/a	n/a	n/a	-999	6	[0, 0, 0]	n/a	catFR1	0	R1228M
1150.173	0.5	1154597	TRIAL	n/a	n/a	n/a	n/a	-999	7	[0, 0, 0]	n/a	catFR1	0	R1228M
1150.673	10.428	1155097	COUNTDOWN_START	n/a	n/a	n/a	n/a	-999	7	[0, 0, 0]	n/a	catFR1	0	R1228M
1161.101	0.008	1165524	COUNTDOWN_END	n/a	n/a	n/a	n/a	-999	7	[0, 0, 0]	n/a	catFR1	0	R1228M
1161.109	1.616	1165532	ORIENT	n/a	n/a	n/a	n/a	-999	7	[0, 0, 0]	n/a	catFR1	0	R1228M
1162.725	2.251	1167148	ORIENT_OFF	n/a	n/a	n/a	n/a	-999	7	[0, 0, 0]	n/a	catFR1	0	R1228M
1164.976	1.617	1169399	WORD	n/a	wordpools/wordpool_categorized_EN.txt	STRAWBERRY	Fruit	1	7	[0, 0, 0]	n/a	catFR1	0	R1228M
1166.593	0.95	1171016	WORD_OFF	n/a	n/a	STRAWBERRY	n/a	1	7	[0, 0, 0]	n/a	catFR1	0	R1228M
1167.543	1.617	1171966	WORD	n/a	wordpools/wordpool_categorized_EN.txt	CHERRY	Fruit	2	7	[0, 0, 0]	n/a	catFR1	0	R1228M
1169.16	0.967	1173583	WORD_OFF	n/a	n/a	CHERRY	n/a	2	7	[0, 0, 0]	n/a	catFR1	0	R1228M
1170.127	1.616	1174550	WORD	n/a	wordpools/wordpool_categorized_EN.txt	COFFEE	Beverages	3	7	[0, 0, 0]	n/a	catFR1	0	R1228M
1171.743	0.935	1176166	WORD_OFF	n/a	n/a	COFFEE	n/a	3	7	[0, 0, 0]	n/a	catFR1	0	R1228M
1172.678	1.617	1177101	WORD	n/a	wordpools/wordpool_categorized_EN.txt	LEMONADE	Beverages	4	7	[0, 0, 0]	n/a	catFR1	0	R1228M
1174.295	0.883	1178717	WORD_OFF	n/a	n/a	LEMONADE	n/a	4	7	[0, 0, 0]	n/a	catFR1	0	R1228M
1175.178	1.616	1179600	WORD	n/a	wordpools/wordpool_categorized_EN.txt	DRESSER	Furniture	5	7	[0, 0, 0]	n/a	catFR1	0	R1228M
1176.794	0.801	1181216	WORD_OFF	n/a	n/a	DRESSER	n/a	5	7	[0, 0, 0]	n/a	catFR1	0	R1228M
1177.595	1.617	1182017	WORD	n/a	wordpools/wordpool_categorized_EN.txt	SHELF	Furniture	6	7	[0, 0, 0]	n/a	catFR1	0	R1228M
1179.212	0.867	1183634	WORD_OFF	n/a	n/a	SHELF	n/a	6	7	[0, 0, 0]	n/a	catFR1	0	R1228M
1180.079	1.617	1184501	WORD	n/a	wordpools/wordpool_categorized_EN.txt	SODA	Beverages	7	7	[0, 0, 0]	n/a	catFR1	0	R1228M
1181.696	0.867	1186118	WORD_OFF	n/a	n/a	SODA	n/a	7	7	[0, 0, 0]	n/a	catFR1	0	R1228M
1182.563	1.617	1186985	WORD	n/a	wordpools/wordpool_categorized_EN.txt	WINE	Beverages	8	7	[0, 0, 0]	n/a	catFR1	0	R1228M
1184.18	0.9	1188602	WORD_OFF	n/a	n/a	WINE	n/a	8	7	[0, 0, 0]	n/a	catFR1	0	R1228M
1185.08	1.617	1189502	WORD	n/a	wordpools/wordpool_categorized_EN.txt	LEMON	Fruit	9	7	[0, 0, 0]	n/a	catFR1	0	R1228M
1186.697	0.767	1191119	WORD_OFF	n/a	n/a	LEMON	n/a	9	7	[0, 0, 0]	n/a	catFR1	0	R1228M
1187.464	1.617	1191886	WORD	n/a	wordpools/wordpool_categorized_EN.txt	APPLE	Fruit	10	7	[0, 0, 0]	n/a	catFR1	0	R1228M
1189.081	0.833	1193503	WORD_OFF	n/a	n/a	APPLE	n/a	10	7	[0, 0, 0]	n/a	catFR1	0	R1228M
1189.914	1.617	1194336	WORD	n/a	wordpools/wordpool_categorized_EN.txt	RECLINER	Furniture	11	7	[0, 0, 0]	n/a	catFR1	0	R1228M
1191.531	0.767	1195952	WORD_OFF	n/a	n/a	RECLINER	n/a	11	7	[0, 0, 0]	n/a	catFR1	0	R1228M
1192.298	1.617	1196719	WORD	n/a	wordpools/wordpool_categorized_EN.txt	TABLE	Furniture	12	7	[0, 0, 0]	n/a	catFR1	0	R1228M
1193.915	0.0	1198336	ENCODING_END	n/a	n/a	n/a	n/a	-999	7	[0, 0, 0]	n/a	catFR1	0	R1228M
1193.915	0.132	1198336	WORD_OFF	n/a	n/a	TABLE	n/a	12	7	[0, 0, 0]	n/a	catFR1	0	R1228M
1194.047	0.0	1198468	DISTRACT_START	n/a	n/a	n/a	n/a	-999	7	[0, 0, 0]	n/a	catFR1	0	R1228M
1194.047	0.018	1198468	START	n/a	n/a	n/a	n/a	-999	7	[-999, -999, -999]	n/a	catFR1	0	R1228M
1194.065	7.802	1198486	PROB	7.802	n/a	n/a	n/a	-999	7	[2, 9, 9]	20	catFR1	0	R1228M
1201.867	2.367	1206288	PROB	2.367	n/a	n/a	n/a	-999	7	[1, 2, 1]	4	catFR1	0	R1228M
1204.234	3.367	1208655	PROB	3.367	n/a	n/a	n/a	-999	7	[5, 2, 6]	13	catFR1	0	R1228M
1207.601	2.867	1212022	PROB	2.867	n/a	n/a	n/a	-999	7	[3, 4, 7]	14	catFR1	0	R1228M
1210.468	2.818	1214888	PROB	2.818	n/a	n/a	n/a	-999	7	[5, 3, 4]	12	catFR1	0	R1228M
1213.286	3.463	1217706	PROB	3.463	n/a	n/a	n/a	-999	7	[3, 2, 3]	8	catFR1	0	R1228M
1216.749	0.02	1221169	STOP	n/a	n/a	n/a	n/a	-999	7	[-999, -999, -999]	n/a	catFR1	0	R1228M
1216.769	0.617	1221189	DISTRACT_END	n/a	n/a	n/a	n/a	-999	7	[0, 0, 0]	n/a	catFR1	0	R1228M
1217.386	0.518	1221806	RETRIEVAL_ORIENT	n/a	n/a	n/a	n/a	-999	7	[0, 0, 0]	n/a	catFR1	0	R1228M
1217.904	2.865	1222324	REC_START	n/a	n/a	n/a	n/a	-999	7	[0, 0, 0]	n/a	catFR1	0	R1228M
1220.769	1.396	1225189	REC_WORD	1.396	n/a	STRAWBERRY	Fruit	1	7	[0, 0, 0]	n/a	catFR1	0	R1228M
1222.165	5.085	1226585	REC_WORD	5.085	n/a	LEMONADE	Beverages	4	7	[0, 0, 0]	n/a	catFR1	0	R1228M
1227.25	2.313	1231669	REC_WORD	2.313	n/a	STRAWBERRY	Fruit	1	7	[0, 0, 0]	n/a	catFR1	0	R1228M
1229.563	2.467	1233982	REC_WORD	2.467	n/a	SODA	Beverages	7	7	[0, 0, 0]	n/a	catFR1	0	R1228M
1232.03	1.113	1236449	REC_WORD	1.113	n/a	CHAIR	n/a	-999	7	[0, 0, 0]	n/a	catFR1	0	R1228M
1233.143	10.576	1237562	REC_WORD	10.576	n/a	SHELF	Furniture	6	7	[0, 0, 0]	n/a	catFR1	0	R1228M
1243.719	1.877	1248138	REC_WORD	1.877	n/a	STRAWBERRY	Fruit	1	7	[0, 0, 0]	n/a	catFR1	0	R1228M
1245.596	0.982	1250014	REC_WORD	0.982	n/a	CHERRY	Fruit	2	7	[0, 0, 0]	n/a	catFR1	0	R1228M
1246.578	0.565	1250996	REC_WORD_VV	0.565	n/a	<>	n/a	-999	7	[0, 0, 0]	n/a	catFR1	0	R1228M
1247.143	0.616	1251561	REC_WORD	0.616	n/a	CHERRY	Fruit	2	7	[0, 0, 0]	n/a	catFR1	0	R1228M
1247.759	0.156	1252177	REC_WORD_VV	0.156	n/a	<>	n/a	-999	7	[0, 0, 0]	n/a	catFR1	0	R1228M
1247.915	23.082	1252333	REC_END	n/a	n/a	n/a	n/a	-999	7	[0, 0, 0]	n/a	catFR1	0	R1228M
1270.997	0.5	1275414	TRIAL	n/a	n/a	n/a	n/a	-999	8	[0, 0, 0]	n/a	catFR1	0	R1228M
1271.497	10.428	1275914	COUNTDOWN_START	n/a	n/a	n/a	n/a	-999	8	[0, 0, 0]	n/a	catFR1	0	R1228M
1281.925	0.007	1286341	COUNTDOWN_END	n/a	n/a	n/a	n/a	-999	8	[0, 0, 0]	n/a	catFR1	0	R1228M
1281.932	1.617	1286348	ORIENT	n/a	n/a	n/a	n/a	-999	8	[0, 0, 0]	n/a	catFR1	0	R1228M
1283.549	2.117	1287965	ORIENT_OFF	n/a	n/a	n/a	n/a	-999	8	[0, 0, 0]	n/a	catFR1	0	R1228M
1285.666	1.617	1290082	WORD	n/a	wordpools/wordpool_categorized_EN.txt	VACUUM	Appliances	1	8	[0, 0, 0]	n/a	catFR1	0	R1228M
1287.283	0.8	1291699	WORD_OFF	n/a	n/a	VACUUM	n/a	1	8	[0, 0, 0]	n/a	catFR1	0	R1228M
1288.083	1.617	1292499	WORD	n/a	wordpools/wordpool_categorized_EN.txt	FREEZER	Appliances	2	8	[0, 0, 0]	n/a	catFR1	0	R1228M
1289.7	0.784	1294116	WORD_OFF	n/a	n/a	FREEZER	n/a	2	8	[0, 0, 0]	n/a	catFR1	0	R1228M
1290.484	1.617	1294900	WORD	n/a	wordpools/wordpool_categorized_EN.txt	HORSE	FarmAnimals	3	8	[0, 0, 0]	n/a	catFR1	0	R1228M
1292.101	1.0	1296517	WORD_OFF	n/a	n/a	HORSE	n/a	3	8	[0, 0, 0]	n/a	catFR1	0	R1228M
1293.101	1.617	1297517	WORD	n/a	wordpools/wordpool_categorized_EN.txt	ROOSTER	FarmAnimals	4	8	[0, 0, 0]	n/a	catFR1	0	R1228M
1294.718	0.817	1299134	WORD_OFF	n/a	n/a	ROOSTER	n/a	4	8	[0, 0, 0]	n/a	catFR1	0	R1228M
1295.535	1.617	1299951	WORD	n/a	wordpools/wordpool_categorized_EN.txt	OCEAN	Landscapes	5	8	[0, 0, 0]	n/a	catFR1	0	R1228M
1297.152	0.883	1301568	WORD_OFF	n/a	n/a	OCEAN	n/a	5	8	[0, 0, 0]	n/a	catFR1	0	R1228M
1298.035	1.617	1302450	WORD	n/a	wordpools/wordpool_categorized_EN.txt	MOUNTAIN	Landscapes	6	8	[0, 0, 0]	n/a	catFR1	0	R1228M
1299.652	0.8	1304067	WORD_OFF	n/a	n/a	MOUNTAIN	n/a	6	8	[0, 0, 0]	n/a	catFR1	0	R1228M
1300.452	1.618	1304867	WORD	n/a	wordpools/wordpool_categorized_EN.txt	LAMB	FarmAnimals	7	8	[0, 0, 0]	n/a	catFR1	0	R1228M
1302.07	0.85	1306485	WORD_OFF	n/a	n/a	LAMB	n/a	7	8	[0, 0, 0]	n/a	catFR1	0	R1228M
1302.92	1.617	1307335	WORD	n/a	wordpools/wordpool_categorized_EN.txt	PIG	FarmAnimals	8	8	[0, 0, 0]	n/a	catFR1	0	R1228M
1304.537	0.966	1308952	WORD_OFF	n/a	n/a	PIG	n/a	8	8	[0, 0, 0]	n/a	catFR1	0	R1228M
1305.503	1.617	1309918	WORD	n/a	wordpools/wordpool_categorized_EN.txt	REFRIGERATOR	Appliances	9	8	[0, 0, 0]	n/a	catFR1	0	R1228M
1307.12	0.917	1311535	WORD_OFF	n/a	n/a	REFRIGERATOR	n/a	9	8	[0, 0, 0]	n/a	catFR1	0	R1228M
1308.037	1.617	1312452	WORD	n/a	wordpools/wordpool_categorized_EN.txt	OVEN	Appliances	10	8	[0, 0, 0]	n/a	catFR1	0	R1228M
1309.654	0.784	1314069	WORD_OFF	n/a	n/a	OVEN	n/a	10	8	[0, 0, 0]	n/a	catFR1	0	R1228M
1310.438	1.617	1314853	WORD	n/a	wordpools/wordpool_categorized_EN.txt	CREEK	Landscapes	11	8	[0, 0, 0]	n/a	catFR1	0	R1228M
1312.055	0.883	1316470	WORD_OFF	n/a	n/a	CREEK	n/a	11	8	[0, 0, 0]	n/a	catFR1	0	R1228M
1312.938	1.617	1317353	WORD	n/a	wordpools/wordpool_categorized_EN.txt	RIVER	Landscapes	12	8	[0, 0, 0]	n/a	catFR1	0	R1228M
1314.555	0.0	1318970	ENCODING_END	n/a	n/a	n/a	n/a	-999	8	[0, 0, 0]	n/a	catFR1	0	R1228M
1314.555	0.103	1318970	WORD_OFF	n/a	n/a	RIVER	n/a	12	8	[0, 0, 0]	n/a	catFR1	0	R1228M
1314.658	0.0	1319073	DISTRACT_START	n/a	n/a	n/a	n/a	-999	8	[0, 0, 0]	n/a	catFR1	0	R1228M
1314.658	0.014	1319073	START	n/a	n/a	n/a	n/a	-999	8	[-999, -999, -999]	n/a	catFR1	0	R1228M
1314.672	4.501	1319087	PROB	4.501	n/a	n/a	n/a	-999	8	[2, 4, 7]	13	catFR1	0	R1228M
1319.173	3.683	1323587	PROB	3.683	n/a	n/a	n/a	-999	8	[3, 4, 8]	15	catFR1	0	R1228M
1322.856	3.768	1327270	PROB	3.768	n/a	n/a	n/a	-999	8	[6, 9, 4]	19	catFR1	0	R1228M
1326.624	3.484	1331038	PROB	3.484	n/a	n/a	n/a	-999	8	[1, 4, 5]	9	catFR1	0	R1228M
1330.108	6.562	1334522	PROB	6.562	n/a	n/a	n/a	-999	8	[8, 4, 5]	17	catFR1	0	R1228M
1336.67	0.006	1341083	STOP	n/a	n/a	n/a	n/a	-999	8	[-999, -999, -999]	n/a	catFR1	0	R1228M
1336.676	0.7	1341089	DISTRACT_END	n/a	n/a	n/a	n/a	-999	8	[0, 0, 0]	n/a	catFR1	0	R1228M
1337.376	0.518	1341789	RETRIEVAL_ORIENT	n/a	n/a	n/a	n/a	-999	8	[0, 0, 0]	n/a	catFR1	0	R1228M
1337.894	6.938	1342307	REC_START	n/a	n/a	n/a	n/a	-999	8	[0, 0, 0]	n/a	catFR1	0	R1228M
1344.832	5.556	1349245	REC_WORD	5.556	n/a	HORSE	FarmAnimals	3	8	[0, 0, 0]	n/a	catFR1	0	R1228M
1350.388	8.538	1354801	REC_WORD	8.538	n/a	STREAM	n/a	-999	8	[0, 0, 0]	n/a	catFR1	0	R1228M
1358.926	0.23	1363338	REC_WORD_VV	0.23	n/a	<>	n/a	-999	8	[0, 0, 0]	n/a	catFR1	0	R1228M
1359.156	4.997	1363568	REC_WORD	4.997	n/a	VALLEY	n/a	-999	8	[0, 0, 0]	n/a	catFR1	0	R1228M
1364.153	2.534	1368565	REC_WORD	2.534	n/a	STREAM	n/a	-999	8	[0, 0, 0]	n/a	catFR1	0	R1228M
1366.687	1.221	1371099	REC_WORD	1.221	n/a	ROOSTER	FarmAnimals	4	8	[0, 0, 0]	n/a	catFR1	0	R1228M
1367.908	23.779	1372320	REC_END	n/a	n/a	n/a	n/a	-999	8	[0, 0, 0]	n/a	catFR1	0	R1228M
1391.687	0.5	1396097	TRIAL	n/a	n/a	n/a	n/a	-999	9	[0, 0, 0]	n/a	catFR1	0	R1228M
1392.187	10.428	1396597	COUNTDOWN_START	n/a	n/a	n/a	n/a	-999	9	[0, 0, 0]	n/a	catFR1	0	R1228M
1402.615	0.007	1407025	COUNTDOWN_END	n/a	n/a	n/a	n/a	-999	9	[0, 0, 0]	n/a	catFR1	0	R1228M
1402.622	1.617	1407032	ORIENT	n/a	n/a	n/a	n/a	-999	9	[0, 0, 0]	n/a	catFR1	0	R1228M
1404.239	2.167	1408648	ORIENT_OFF	n/a	n/a	n/a	n/a	-999	9	[0, 0, 0]	n/a	catFR1	0	R1228M
1406.406	1.617	1410815	WORD	n/a	wordpools/wordpool_categorized_EN.txt	HAND	BodyParts	1	9	[0, 0, 0]	n/a	catFR1	0	R1228M
1408.023	0.833	1412432	WORD_OFF	n/a	n/a	HAND	n/a	1	9	[0, 0, 0]	n/a	catFR1	0	R1228M
1408.856	1.618	1413265	WORD	n/a	wordpools/wordpool_categorized_EN.txt	HEAD	BodyParts	2	9	[0, 0, 0]	n/a	catFR1	0	R1228M
1410.474	0.783	1414883	WORD_OFF	n/a	n/a	HEAD	n/a	2	9	[0, 0, 0]	n/a	catFR1	0	R1228M
1411.257	1.617	1415666	WORD	n/a	wordpools/wordpool_categorized_EN.txt	JUICE	Beverages	3	9	[0, 0, 0]	n/a	catFR1	0	R1228M
1412.874	0.933	1417283	WORD_OFF	n/a	n/a	JUICE	n/a	3	9	[0, 0, 0]	n/a	catFR1	0	R1228M
1413.807	1.618	1418216	WORD	n/a	wordpools/wordpool_categorized_EN.txt	COLA	Beverages	4	9	[0, 0, 0]	n/a	catFR1	0	R1228M
1415.425	0.867	1419834	WORD_OFF	n/a	n/a	COLA	n/a	4	9	[0, 0, 0]	n/a	catFR1	0	R1228M
1416.292	1.617	1420701	WORD	n/a	wordpools/wordpool_categorized_EN.txt	GNAT	Insects	5	9	[0, 0, 0]	n/a	catFR1	0	R1228M
1417.909	0.783	1422318	WORD_OFF	n/a	n/a	GNAT	n/a	5	9	[0, 0, 0]	n/a	catFR1	0	R1228M
1418.692	1.617	1423101	WORD	n/a	wordpools/wordpool_categorized_EN.txt	FLY	Insects	6	9	[0, 0, 0]	n/a	catFR1	0	R1228M
1420.309	0.934	1424718	WORD_OFF	n/a	n/a	FLY	n/a	6	9	[0, 0, 0]	n/a	catFR1	0	R1228M
1421.243	1.616	1425652	WORD	n/a	wordpools/wordpool_categorized_EN.txt	BEER	Beverages	7	9	[0, 0, 0]	n/a	catFR1	0	R1228M
1422.859	0.851	1427267	WORD_OFF	n/a	n/a	BEER	n/a	7	9	[0, 0, 0]	n/a	catFR1	0	R1228M
1423.71	1.617	1428118	WORD	n/a	wordpools/wordpool_categorized_EN.txt	CIDER	Beverages	8	9	[0, 0, 0]	n/a	catFR1	0	R1228M
1425.327	0.8	1429735	WORD_OFF	n/a	n/a	CIDER	n/a	8	9	[0, 0, 0]	n/a	catFR1	0	R1228M
1426.127	1.616	1430535	WORD	n/a	wordpools/wordpool_categorized_EN.txt	FOOT	BodyParts	9	9	[0, 0, 0]	n/a	catFR1	0	R1228M
1427.743	0.818	1432151	WORD_OFF	n/a	n/a	FOOT	n/a	9	9	[0, 0, 0]	n/a	catFR1	0	R1228M
1428.561	1.617	1432969	WORD	n/a	wordpools/wordpool_categorized_EN.txt	EAR	BodyParts	10	9	[0, 0, 0]	n/a	catFR1	0	R1228M
1430.178	1.016	1434586	WORD_OFF	n/a	n/a	EAR	n/a	10	9	[0, 0, 0]	n/a	catFR1	0	R1228M
1431.194	1.616	1435602	WORD	n/a	wordpools/wordpool_categorized_EN.txt	SPIDER	Insects	11	9	[0, 0, 0]	n/a	catFR1	0	R1228M
1432.81	0.835	1437218	WORD_OFF	n/a	n/a	SPIDER	n/a	11	9	[0, 0, 0]	n/a	catFR1	0	R1228M
1433.645	1.617	1438053	WORD	n/a	wordpools/wordpool_categorized_EN.txt	BEETLE	Insects	12	9	[0, 0, 0]	n/a	catFR1	0	R1228M
1435.262	0.0	1439670	ENCODING_END	n/a	n/a	n/a	n/a	-999	9	[0, 0, 0]	n/a	catFR1	0	R1228M
1435.262	0.146	1439670	WORD_OFF	n/a	n/a	BEETLE	n/a	12	9	[0, 0, 0]	n/a	catFR1	0	R1228M
1435.408	0.0	1439816	DISTRACT_START	n/a	n/a	n/a	n/a	-999	9	[0, 0, 0]	n/a	catFR1	0	R1228M
1435.408	0.021	1439816	START	n/a	n/a	n/a	n/a	-999	9	[-999, -999, -999]	n/a	catFR1	0	R1228M
1435.429	6.218	1439837	PROB	6.218	n/a	n/a	n/a	-999	9	[7, 7, 2]	16	catFR1	0	R1228M
1441.647	5.2	1446054	PROB	5.2	n/a	n/a	n/a	-999	9	[4, 8, 9]	21	catFR1	0	R1228M
1446.847	5.202	1451254	PROB	5.202	n/a	n/a	n/a	-999	9	[7, 9, 4]	20	catFR1	0	R1228M
1452.049	5.181	1456456	PROB	5.181	n/a	n/a	n/a	-999	9	[3, 4, 6]	13	catFR1	0	R1228M
1457.23	0.02	1461637	STOP	n/a	n/a	n/a	n/a	-999	9	[-999, -999, -999]	n/a	catFR1	0	R1228M
1457.25	0.599	1461656	DISTRACT_END	n/a	n/a	n/a	n/a	-999	9	[0, 0, 0]	n/a	catFR1	0	R1228M
1457.849	0.518	1462255	RETRIEVAL_ORIENT	n/a	n/a	n/a	n/a	-999	9	[0, 0, 0]	n/a	catFR1	0	R1228M
1458.367	1.571	1462773	REC_START	n/a	n/a	n/a	n/a	-999	9	[0, 0, 0]	n/a	catFR1	0	R1228M
1459.938	1.399	1464344	REC_WORD	1.399	n/a	FOOT	BodyParts	9	9	[0, 0, 0]	n/a	catFR1	0	R1228M
1461.337	6.291	1465743	REC_WORD	6.291	n/a	HAND	BodyParts	1	9	[0, 0, 0]	n/a	catFR1	0	R1228M
1467.628	3.287	1472034	REC_WORD	3.287	n/a	JUICE	Beverages	3	9	[0, 0, 0]	n/a	catFR1	0	R1228M
1470.915	4.669	1475321	REC_WORD	4.669	n/a	COLA	Beverages	4	9	[0, 0, 0]	n/a	catFR1	0	R1228M
1475.584	0.81	1479989	REC_WORD_VV	0.81	n/a	<>	n/a	-999	9	[0, 0, 0]	n/a	catFR1	0	R1228M
1476.394	0.933	1480799	REC_WORD	0.933	n/a	SPIDER	Insects	11	9	[0, 0, 0]	n/a	catFR1	0	R1228M
1477.327	11.051	1481732	REC_WORD	11.051	n/a	FLY	Insects	6	9	[0, 0, 0]	n/a	catFR1	0	R1228M
1488.378	88.561	1492783	REC_END	n/a	n/a	n/a	n/a	-999	9	[0, 0, 0]	n/a	catFR1	0	R1228M
1576.939	0.5	1581339	TRIAL	n/a	n/a	n/a	n/a	-999	10	[0, 0, 0]	n/a	catFR1	0	R1228M
1577.439	10.428	1581839	COUNTDOWN_START	n/a	n/a	n/a	n/a	-999	10	[0, 0, 0]	n/a	catFR1	0	R1228M
1587.867	0.008	1592266	COUNTDOWN_END	n/a	n/a	n/a	n/a	-999	10	[0, 0, 0]	n/a	catFR1	0	R1228M
1587.875	1.617	1592274	ORIENT	n/a	n/a	n/a	n/a	-999	10	[0, 0, 0]	n/a	catFR1	0	R1228M
1589.492	2.15	1593891	ORIENT_OFF	n/a	n/a	n/a	n/a	-999	10	[0, 0, 0]	n/a	catFR1	0	R1228M
1591.642	1.617	1596041	WORD	n/a	wordpools/wordpool_categorized_EN.txt	VIOLIN	Instruments	1	10	[0, 0, 0]	n/a	catFR1	0	R1228M
1593.259	0.967	1597658	WORD_OFF	n/a	n/a	VIOLIN	n/a	1	10	[0, 0, 0]	n/a	catFR1	0	R1228M
1594.226	1.616	1598625	WORD	n/a	wordpools/wordpool_categorized_EN.txt	BANJO	Instruments	2	10	[0, 0, 0]	n/a	catFR1	0	R1228M
1595.842	0.9	1600241	WORD_OFF	n/a	n/a	BANJO	n/a	2	10	[0, 0, 0]	n/a	catFR1	0	R1228M
1596.742	1.601	1601141	WORD	n/a	wordpools/wordpool_categorized_EN.txt	STAIRS	Building	3	10	[0, 0, 0]	n/a	catFR1	0	R1228M
1598.343	0.901	1602742	WORD_OFF	n/a	n/a	STAIRS	n/a	3	10	[0, 0, 0]	n/a	catFR1	0	R1228M
1599.244	1.616	1603643	WORD	n/a	wordpools/wordpool_categorized_EN.txt	BATHROOM	Building	4	10	[0, 0, 0]	n/a	catFR1	0	R1228M
1600.86	1.0	1605258	WORD_OFF	n/a	n/a	BATHROOM	n/a	4	10	[0, 0, 0]	n/a	catFR1	0	R1228M
1601.86	1.618	1606258	WORD	n/a	wordpools/wordpool_categorized_EN.txt	CHEESECAKE	Desserts	5	10	[0, 0, 0]	n/a	catFR1	0	R1228M
1603.478	0.833	1607876	WORD_OFF	n/a	n/a	CHEESECAKE	n/a	5	10	[0, 0, 0]	n/a	catFR1	0	R1228M
1604.311	1.617	1608709	WORD	n/a	wordpools/wordpool_categorized_EN.txt	COOKIE	Desserts	6	10	[0, 0, 0]	n/a	catFR1	0	R1228M
1605.928	1.001	1610326	WORD_OFF	n/a	n/a	COOKIE	n/a	6	10	[0, 0, 0]	n/a	catFR1	0	R1228M
1606.929	1.617	1611327	WORD	n/a	wordpools/wordpool_categorized_EN.txt	DRUM	Instruments	7	10	[0, 0, 0]	n/a	catFR1	0	R1228M
1608.546	0.9	1612944	WORD_OFF	n/a	n/a	DRUM	n/a	7	10	[0, 0, 0]	n/a	catFR1	0	R1228M
1609.446	1.617	1613844	WORD	n/a	wordpools/wordpool_categorized_EN.txt	FLUTE	Instruments	8	10	[0, 0, 0]	n/a	catFR1	0	R1228M
1611.063	0.817	1615461	WORD_OFF	n/a	n/a	FLUTE	n/a	8	10	[0, 0, 0]	n/a	catFR1	0	R1228M
1611.88	1.617	1616278	WORD	n/a	wordpools/wordpool_categorized_EN.txt	FLOOR	Building	9	10	[0, 0, 0]	n/a	catFR1	0	R1228M
1613.497	0.933	1617895	WORD_OFF	n/a	n/a	FLOOR	n/a	9	10	[0, 0, 0]	n/a	catFR1	0	R1228M
1614.43	1.617	1618828	WORD	n/a	wordpools/wordpool_categorized_EN.txt	CEILING	Building	10	10	[0, 0, 0]	n/a	catFR1	0	R1228M
1616.047	0.816	1620445	WORD_OFF	n/a	n/a	CEILING	n/a	10	10	[0, 0, 0]	n/a	catFR1	0	R1228M
1616.863	1.601	1621261	WORD	n/a	wordpools/wordpool_categorized_EN.txt	CAKE	Desserts	11	10	[0, 0, 0]	n/a	catFR1	0	R1228M
1618.464	0.9	1622861	WORD_OFF	n/a	n/a	CAKE	n/a	11	10	[0, 0, 0]	n/a	catFR1	0	R1228M
1619.364	1.617	1623761	WORD	n/a	wordpools/wordpool_categorized_EN.txt	MOUSSE	Desserts	12	10	[0, 0, 0]	n/a	catFR1	0	R1228M
1620.981	0.001	1625378	WORD_OFF	n/a	n/a	MOUSSE	n/a	12	10	[0, 0, 0]	n/a	catFR1	0	R1228M
1620.982	0.137	1625379	ENCODING_END	n/a	n/a	n/a	n/a	-999	10	[0, 0, 0]	n/a	catFR1	0	R1228M
1621.119	0.0	1625516	DISTRACT_START	n/a	n/a	n/a	n/a	-999	10	[0, 0, 0]	n/a	catFR1	0	R1228M
1621.119	0.012	1625516	START	n/a	n/a	n/a	n/a	-999	10	[-999, -999, -999]	n/a	catFR1	0	R1228M
1621.131	5.301	1625528	PROB	5.301	n/a	n/a	n/a	-999	10	[5, 8, 6]	19	catFR1	0	R1228M
1626.432	3.018	1630829	PROB	3.018	n/a	n/a	n/a	-999	10	[2, 5, 1]	8	catFR1	0	R1228M
1629.45	3.167	1633847	PROB	3.167	n/a	n/a	n/a	-999	10	[8, 9, 4]	11	catFR1	0	R1228M
1632.617	7.835	1637014	PROB	7.835	n/a	n/a	n/a	-999	10	[6, 9, 1]	16	catFR1	0	R1228M
1640.452	3.17	1644848	PROB	3.17	n/a	n/a	n/a	-999	10	[4, 6, 7]	17	catFR1	0	R1228M
1643.622	0.014	1648018	STOP	n/a	n/a	n/a	n/a	-999	10	[-999, -999, -999]	n/a	catFR1	0	R1228M
1643.636	0.6	1648032	DISTRACT_END	n/a	n/a	n/a	n/a	-999	10	[0, 0, 0]	n/a	catFR1	0	R1228M
1644.236	0.516	1648632	RETRIEVAL_ORIENT	n/a	n/a	n/a	n/a	-999	10	[0, 0, 0]	n/a	catFR1	0	R1228M
1644.752	1.878	1649148	REC_START	n/a	n/a	n/a	n/a	-999	10	[0, 0, 0]	n/a	catFR1	0	R1228M
1646.63	1.081	1651026	REC_WORD	1.081	n/a	VIOLIN	Instruments	1	10	[0, 0, 0]	n/a	catFR1	0	R1228M
1647.711	1.685	1652107	REC_WORD	1.685	n/a	BANJO	Instruments	2	10	[0, 0, 0]	n/a	catFR1	0	R1228M
1649.396	3.861	1653792	REC_WORD_VV	3.861	n/a	<>	n/a	-999	10	[0, 0, 0]	n/a	catFR1	0	R1228M
1653.257	3.603	1657652	REC_WORD_VV	3.603	n/a	<>	n/a	-999	10	[0, 0, 0]	n/a	catFR1	0	R1228M
1656.86	13.71	1661255	REC_WORD_VV	13.71	n/a	<>	n/a	-999	10	[0, 0, 0]	n/a	catFR1	0	R1228M
1670.57	1.0	1674964	REC_WORD_VV	1.0	n/a	<>	n/a	-999	10	[0, 0, 0]	n/a	catFR1	0	R1228M
1671.57	1.001	1675964	REC_WORD_VV	1.001	n/a	<>	n/a	-999	10	[0, 0, 0]	n/a	catFR1	0	R1228M
1672.571	1.0	1676965	REC_WORD_VV	1.0	n/a	<>	n/a	-999	10	[0, 0, 0]	n/a	catFR1	0	R1228M
1673.571	1.193	1677965	REC_WORD_VV	1.193	n/a	<>	n/a	-999	10	[0, 0, 0]	n/a	catFR1	0	R1228M
1674.764	462.534	1679158	REC_END	n/a	n/a	n/a	n/a	-999	10	[0, 0, 0]	n/a	catFR1	0	R1228M
2137.298	0.5	2141666	TRIAL	n/a	n/a	n/a	n/a	-999	11	[0, 0, 0]	n/a	catFR1	0	R1228M
2137.798	10.428	2142166	COUNTDOWN_START	n/a	n/a	n/a	n/a	-999	11	[0, 0, 0]	n/a	catFR1	0	R1228M
2148.226	0.007	2152594	COUNTDOWN_END	n/a	n/a	n/a	n/a	-999	11	[0, 0, 0]	n/a	catFR1	0	R1228M
2148.233	1.616	2152601	ORIENT	n/a	n/a	n/a	n/a	-999	11	[0, 0, 0]	n/a	catFR1	0	R1228M
2149.849	2.185	2154217	ORIENT_OFF	n/a	n/a	n/a	n/a	-999	11	[0, 0, 0]	n/a	catFR1	0	R1228M
2152.034	1.617	2156401	WORD	n/a	wordpools/wordpool_categorized_EN.txt	PEAR	Fruit	1	11	[0, 0, 0]	n/a	catFR1	0	R1228M
2153.651	0.817	2158018	WORD_OFF	n/a	n/a	PEAR	n/a	1	11	[0, 0, 0]	n/a	catFR1	0	R1228M
2154.468	1.617	2158835	WORD	n/a	wordpools/wordpool_categorized_EN.txt	GRAPE	Fruit	2	11	[0, 0, 0]	n/a	catFR1	0	R1228M
2156.085	0.85	2160452	WORD_OFF	n/a	n/a	GRAPE	n/a	2	11	[0, 0, 0]	n/a	catFR1	0	R1228M
2156.935	1.617	2161302	WORD	n/a	wordpools/wordpool_categorized_EN.txt	CYPRESS	Trees	3	11	[0, 0, 0]	n/a	catFR1	0	R1228M
2158.552	0.8	2162919	WORD_OFF	n/a	n/a	CYPRESS	n/a	3	11	[0, 0, 0]	n/a	catFR1	0	R1228M
2159.352	1.617	2163719	WORD	n/a	wordpools/wordpool_categorized_EN.txt	OAK	Trees	4	11	[0, 0, 0]	n/a	catFR1	0	R1228M
2160.969	0.883	2165336	WORD_OFF	n/a	n/a	OAK	n/a	4	11	[0, 0, 0]	n/a	catFR1	0	R1228M
2161.852	1.618	2166219	WORD	n/a	wordpools/wordpool_categorized_EN.txt	CHEETAH	Zoo	5	11	[0, 0, 0]	n/a	catFR1	0	R1228M
2163.47	0.95	2167837	WORD_OFF	n/a	n/a	CHEETAH	n/a	5	11	[0, 0, 0]	n/a	catFR1	0	R1228M
2164.42	1.617	2168787	WORD	n/a	wordpools/wordpool_categorized_EN.txt	ORANGUTAN	Zoo	6	11	[0, 0, 0]	n/a	catFR1	0	R1228M
2166.037	0.917	2170404	WORD_OFF	n/a	n/a	ORANGUTAN	n/a	6	11	[0, 0, 0]	n/a	catFR1	0	R1228M
2166.954	1.617	2171321	WORD	n/a	wordpools/wordpool_categorized_EN.txt	BANANA	Fruit	7	11	[0, 0, 0]	n/a	catFR1	0	R1228M
2168.571	0.967	2172937	WORD_OFF	n/a	n/a	BANANA	n/a	7	11	[0, 0, 0]	n/a	catFR1	0	R1228M
2169.538	1.617	2173904	WORD	n/a	wordpools/wordpool_categorized_EN.txt	PEACH	Fruit	8	11	[0, 0, 0]	n/a	catFR1	0	R1228M
2171.155	0.866	2175521	WORD_OFF	n/a	n/a	PEACH	n/a	8	11	[0, 0, 0]	n/a	catFR1	0	R1228M
2172.021	1.617	2176387	WORD	n/a	wordpools/wordpool_categorized_EN.txt	SPRUCE	Trees	9	11	[0, 0, 0]	n/a	catFR1	0	R1228M
2173.638	0.901	2178004	WORD_OFF	n/a	n/a	SPRUCE	n/a	9	11	[0, 0, 0]	n/a	catFR1	0	R1228M
2174.539	1.617	2178905	WORD	n/a	wordpools/wordpool_categorized_EN.txt	ELM	Trees	10	11	[0, 0, 0]	n/a	catFR1	0	R1228M
2176.156	0.8	2180522	WORD_OFF	n/a	n/a	ELM	n/a	10	11	[0, 0, 0]	n/a	catFR1	0	R1228M
2176.956	1.617	2181322	WORD	n/a	wordpools/wordpool_categorized_EN.txt	TIGER	Zoo	11	11	[0, 0, 0]	n/a	catFR1	0	R1228M
2178.573	0.983	2182939	WORD_OFF	n/a	n/a	TIGER	n/a	11	11	[0, 0, 0]	n/a	catFR1	0	R1228M
2179.556	1.617	2183922	WORD	n/a	wordpools/wordpool_categorized_EN.txt	MONKEY	Zoo	12	11	[0, 0, 0]	n/a	catFR1	0	R1228M
2181.173	0.0	2185539	ENCODING_END	n/a	n/a	n/a	n/a	-999	11	[0, 0, 0]	n/a	catFR1	0	R1228M
2181.173	0.103	2185539	WORD_OFF	n/a	n/a	MONKEY	n/a	12	11	[0, 0, 0]	n/a	catFR1	0	R1228M
2181.276	0.0	2185642	DISTRACT_START	n/a	n/a	n/a	n/a	-999	11	[0, 0, 0]	n/a	catFR1	0	R1228M
2181.276	0.014	2185642	START	n/a	n/a	n/a	n/a	-999	11	[-999, -999, -999]	n/a	catFR1	0	R1228M
2181.29	3.801	2185656	PROB	3.801	n/a	n/a	n/a	-999	11	[8, 1, 5]	14	catFR1	0	R1228M
2185.091	2.699	2189457	PROB	2.699	n/a	n/a	n/a	-999	11	[1, 7, 7]	15	catFR1	0	R1228M
2187.79	5.586	2192155	PROB	5.586	n/a	n/a	n/a	-999	11	[9, 5, 9]	23	catFR1	0	R1228M
2193.376	3.482	2197741	PROB	3.482	n/a	n/a	n/a	-999	11	[2, 9, 3]	14	catFR1	0	R1228M
2196.858	3.901	2201223	PROB	3.901	n/a	n/a	n/a	-999	11	[9, 3, 9]	21	catFR1	0	R1228M
2200.759	2.728	2205124	PROB	2.728	n/a	n/a	n/a	-999	11	[4, 2, 6]	12	catFR1	0	R1228M
2203.487	0.007	2207852	STOP	n/a	n/a	n/a	n/a	-999	11	[-999, -999, -999]	n/a	catFR1	0	R1228M
2203.494	0.617	2207859	DISTRACT_END	n/a	n/a	n/a	n/a	-999	11	[0, 0, 0]	n/a	catFR1	0	R1228M
2204.111	0.517	2208475	RETRIEVAL_ORIENT	n/a	n/a	n/a	n/a	-999	11	[0, 0, 0]	n/a	catFR1	0	R1228M
2204.628	1.896	2208992	REC_START	n/a	n/a	n/a	n/a	-999	11	[0, 0, 0]	n/a	catFR1	0	R1228M
2206.524	0.816	2210888	REC_WORD	0.816	n/a	ORANGUTAN	Zoo	6	11	[0, 0, 0]	n/a	catFR1	0	R1228M
2207.34	0.62	2211704	REC_WORD	0.62	n/a	BANANA	Fruit	7	11	[0, 0, 0]	n/a	catFR1	0	R1228M
2207.96	1.933	2212324	REC_WORD_VV	1.933	n/a	<>	n/a	-999	11	[0, 0, 0]	n/a	catFR1	0	R1228M
2209.893	2.665	2214257	REC_WORD_VV	2.665	n/a	<>	n/a	-999	11	[0, 0, 0]	n/a	catFR1	0	R1228M
2212.558	2.848	2216922	REC_WORD_VV	2.848	n/a	<>	n/a	-999	11	[0, 0, 0]	n/a	catFR1	0	R1228M
2215.406	0.886	2219770	REC_WORD	0.886	n/a	ORANGUTAN	Zoo	6	11	[0, 0, 0]	n/a	catFR1	0	R1228M
2216.292	1.587	2220656	REC_WORD	1.587	n/a	BANANA	Fruit	7	11	[0, 0, 0]	n/a	catFR1	0	R1228M
2217.879	1.483	2222243	REC_WORD	1.483	n/a	CYPRESS	Trees	3	11	[0, 0, 0]	n/a	catFR1	0	R1228M
2219.362	8.89	2223726	REC_WORD	8.89	n/a	OAK	Trees	4	11	[0, 0, 0]	n/a	catFR1	0	R1228M
2228.252	0.997	2232615	REC_WORD_VV	0.997	n/a	<>	n/a	-999	11	[0, 0, 0]	n/a	catFR1	0	R1228M
2229.249	5.391	2233612	REC_WORD_VV	5.391	n/a	<>	n/a	-999	11	[0, 0, 0]	n/a	catFR1	0	R1228M
2234.64	5.995	2239003	REC_END	n/a	n/a	n/a	n/a	-999	11	[0, 0, 0]	n/a	catFR1	0	R1228M
2240.635	0.5	2244997	TRIAL	n/a	n/a	n/a	n/a	-999	12	[0, 0, 0]	n/a	catFR1	0	R1228M
2241.135	10.428	2245497	COUNTDOWN_START	n/a	n/a	n/a	n/a	-999	12	[0, 0, 0]	n/a	catFR1	0	R1228M
2251.563	0.007	2255925	COUNTDOWN_END	n/a	n/a	n/a	n/a	-999	12	[0, 0, 0]	n/a	catFR1	0	R1228M
2251.57	1.617	2255932	ORIENT	n/a	n/a	n/a	n/a	-999	12	[0, 0, 0]	n/a	catFR1	0	R1228M
2253.187	2.217	2257549	ORIENT_OFF	n/a	n/a	n/a	n/a	-999	12	[0, 0, 0]	n/a	catFR1	0	R1228M
2255.404	1.617	2259766	WORD	n/a	wordpools/wordpool_categorized_EN.txt	COW	FarmAnimals	1	12	[0, 0, 0]	n/a	catFR1	0	R1228M
2257.021	0.833	2261383	WORD_OFF	n/a	n/a	COW	n/a	1	12	[0, 0, 0]	n/a	catFR1	0	R1228M
2257.854	1.618	2262215	WORD	n/a	wordpools/wordpool_categorized_EN.txt	CHICKEN	FarmAnimals	2	12	[0, 0, 0]	n/a	catFR1	0	R1228M
2259.472	0.85	2263833	WORD_OFF	n/a	n/a	CHICKEN	n/a	2	12	[0, 0, 0]	n/a	catFR1	0	R1228M
2260.322	1.617	2264683	WORD	n/a	wordpools/wordpool_categorized_EN.txt	SPINACH	Vegetables	3	12	[0, 0, 0]	n/a	catFR1	0	R1228M
2261.939	0.832	2266300	WORD_OFF	n/a	n/a	SPINACH	n/a	3	12	[0, 0, 0]	n/a	catFR1	0	R1228M
2262.771	1.601	2267132	WORD	n/a	wordpools/wordpool_categorized_EN.txt	LETTUCE	Vegetables	4	12	[0, 0, 0]	n/a	catFR1	0	R1228M
2264.372	0.767	2268733	WORD_OFF	n/a	n/a	LETTUCE	n/a	4	12	[0, 0, 0]	n/a	catFR1	0	R1228M
2265.139	1.616	2269500	WORD	n/a	wordpools/wordpool_categorized_EN.txt	LIME	Fruit	5	12	[0, 0, 0]	n/a	catFR1	0	R1228M
2266.755	1.001	2271116	WORD_OFF	n/a	n/a	LIME	n/a	5	12	[0, 0, 0]	n/a	catFR1	0	R1228M
2267.756	1.618	2272117	WORD	n/a	wordpools/wordpool_categorized_EN.txt	PLUM	Fruit	6	12	[0, 0, 0]	n/a	catFR1	0	R1228M
2269.374	0.866	2273735	WORD_OFF	n/a	n/a	PLUM	n/a	6	12	[0, 0, 0]	n/a	catFR1	0	R1228M
2270.24	1.616	2274601	WORD	n/a	wordpools/wordpool_categorized_EN.txt	POTATO	Vegetables	7	12	[0, 0, 0]	n/a	catFR1	0	R1228M
2271.856	0.852	2276217	WORD_OFF	n/a	n/a	POTATO	n/a	7	12	[0, 0, 0]	n/a	catFR1	0	R1228M
2272.708	1.617	2277069	WORD	n/a	wordpools/wordpool_categorized_EN.txt	CABBAGE	Vegetables	8	12	[0, 0, 0]	n/a	catFR1	0	R1228M
2274.325	0.9	2278686	WORD_OFF	n/a	n/a	CABBAGE	n/a	8	12	[0, 0, 0]	n/a	catFR1	0	R1228M
2275.225	1.616	2279585	WORD	n/a	wordpools/wordpool_categorized_EN.txt	HEN	FarmAnimals	9	12	[0, 0, 0]	n/a	catFR1	0	R1228M
2276.841	0.784	2281201	WORD_OFF	n/a	n/a	HEN	n/a	9	12	[0, 0, 0]	n/a	catFR1	0	R1228M
2277.625	1.617	2281985	WORD	n/a	wordpools/wordpool_categorized_EN.txt	SHEEP	FarmAnimals	10	12	[0, 0, 0]	n/a	catFR1	0	R1228M
2279.242	1.017	2283602	WORD_OFF	n/a	n/a	SHEEP	n/a	10	12	[0, 0, 0]	n/a	catFR1	0	R1228M
2280.259	1.617	2284619	WORD	n/a	wordpools/wordpool_categorized_EN.txt	BLUEBERRY	Fruit	11	12	[0, 0, 0]	n/a	catFR1	0	R1228M
2281.876	0.834	2286236	WORD_OFF	n/a	n/a	BLUEBERRY	n/a	11	12	[0, 0, 0]	n/a	catFR1	0	R1228M
2282.71	1.616	2287070	WORD	n/a	wordpools/wordpool_categorized_EN.txt	ORANGE	Fruit	12	12	[0, 0, 0]	n/a	catFR1	0	R1228M
2284.326	0.001	2288686	WORD_OFF	n/a	n/a	ORANGE	n/a	12	12	[0, 0, 0]	n/a	catFR1	0	R1228M
2284.327	0.14	2288687	ENCODING_END	n/a	n/a	n/a	n/a	-999	12	[0, 0, 0]	n/a	catFR1	0	R1228M
2284.467	0.0	2288827	DISTRACT_START	n/a	n/a	n/a	n/a	-999	12	[0, 0, 0]	n/a	catFR1	0	R1228M
2284.467	0.009	2288827	START	n/a	n/a	n/a	n/a	-999	12	[-999, -999, -999]	n/a	catFR1	0	R1228M
2284.476	5.367	2288836	PROB	5.367	n/a	n/a	n/a	-999	12	[3, 8, 1]	12	catFR1	0	R1228M
2289.843	3.318	2294203	PROB	3.318	n/a	n/a	n/a	-999	12	[5, 1, 4]	10	catFR1	0	R1228M
2293.161	3.718	2297520	PROB	3.718	n/a	n/a	n/a	-999	12	[4, 5, 3]	12	catFR1	0	R1228M
2296.879	2.933	2301238	PROB	2.933	n/a	n/a	n/a	-999	12	[5, 8, 2]	15	catFR1	0	R1228M
2299.812	2.768	2304171	PROB	2.768	n/a	n/a	n/a	-999	12	[3, 3, 1]	7	catFR1	0	R1228M
2302.58	5.082	2306939	PROB	5.082	n/a	n/a	n/a	-999	12	[9, 3, 5]	17	catFR1	0	R1228M
2307.662	0.019	2312021	STOP	n/a	n/a	n/a	n/a	-999	12	[-999, -999, -999]	n/a	catFR1	0	R1228M
2307.681	0.65	2312040	DISTRACT_END	n/a	n/a	n/a	n/a	-999	12	[0, 0, 0]	n/a	catFR1	0	R1228M
2308.331	0.517	2312690	RETRIEVAL_ORIENT	n/a	n/a	n/a	n/a	-999	12	[0, 0, 0]	n/a	catFR1	0	R1228M
2308.848	2.026	2313207	REC_START	n/a	n/a	n/a	n/a	-999	12	[0, 0, 0]	n/a	catFR1	0	R1228M
2310.874	3.627	2315232	REC_WORD	3.627	n/a	CHICKEN	FarmAnimals	2	12	[0, 0, 0]	n/a	catFR1	0	R1228M
2314.501	1.499	2318859	REC_WORD	1.499	n/a	COW	FarmAnimals	1	12	[0, 0, 0]	n/a	catFR1	0	R1228M
2316.0	13.01	2320358	REC_WORD	13.01	n/a	HEN	FarmAnimals	9	12	[0, 0, 0]	n/a	catFR1	0	R1228M
2329.01	0.883	2333367	REC_WORD_VV	0.883	n/a	<>	n/a	-999	12	[0, 0, 0]	n/a	catFR1	0	R1228M
2329.893	0.587	2334250	REC_WORD_VV	0.587	n/a	<>	n/a	-999	12	[0, 0, 0]	n/a	catFR1	0	R1228M
2330.48	0.669	2334837	REC_WORD	0.669	n/a	CYPRESS	n/a	-999	12	[0, 0, 0]	n/a	catFR1	0	R1228M
2331.149	7.712	2335506	REC_WORD_VV	7.712	n/a	<>	n/a	-999	12	[0, 0, 0]	n/a	catFR1	0	R1228M
2338.861	5.444	2343218	REC_END	n/a	n/a	n/a	n/a	-999	12	[0, 0, 0]	n/a	catFR1	0	R1228M
2344.305	0.5	2348662	TRIAL	n/a	n/a	n/a	n/a	-999	13	[0, 0, 0]	n/a	catFR1	0	R1228M
2344.805	10.428	2349162	COUNTDOWN_START	n/a	n/a	n/a	n/a	-999	13	[0, 0, 0]	n/a	catFR1	0	R1228M
2355.233	0.007	2359589	COUNTDOWN_END	n/a	n/a	n/a	n/a	-999	13	[0, 0, 0]	n/a	catFR1	0	R1228M
2355.24	1.616	2359596	ORIENT	n/a	n/a	n/a	n/a	-999	13	[0, 0, 0]	n/a	catFR1	0	R1228M
2356.856	1.884	2361212	ORIENT_OFF	n/a	n/a	n/a	n/a	-999	13	[0, 0, 0]	n/a	catFR1	0	R1228M
2358.74	1.618	2363096	WORD	n/a	wordpools/wordpool_categorized_EN.txt	DRILL	Tools	1	13	[0, 0, 0]	n/a	catFR1	0	R1228M
2360.358	0.817	2364714	WORD_OFF	n/a	n/a	DRILL	n/a	1	13	[0, 0, 0]	n/a	catFR1	0	R1228M
2361.175	1.616	2365531	WORD	n/a	wordpools/wordpool_categorized_EN.txt	LEVEL	Tools	2	13	[0, 0, 0]	n/a	catFR1	0	R1228M
2362.791	0.784	2367147	WORD_OFF	n/a	n/a	LEVEL	n/a	2	13	[0, 0, 0]	n/a	catFR1	0	R1228M
2363.575	1.617	2367931	WORD	n/a	wordpools/wordpool_categorized_EN.txt	CAR	Vehicles	3	13	[0, 0, 0]	n/a	catFR1	0	R1228M
2365.192	0.867	2369547	WORD_OFF	n/a	n/a	CAR	n/a	3	13	[0, 0, 0]	n/a	catFR1	0	R1228M
2366.059	1.617	2370414	WORD	n/a	wordpools/wordpool_categorized_EN.txt	BUS	Vehicles	4	13	[0, 0, 0]	n/a	catFR1	0	R1228M
2367.676	0.9	2372031	WORD_OFF	n/a	n/a	BUS	n/a	4	13	[0, 0, 0]	n/a	catFR1	0	R1228M
2368.576	1.617	2372931	WORD	n/a	wordpools/wordpool_categorized_EN.txt	COMPUTER	Electronics	5	13	[0, 0, 0]	n/a	catFR1	0	R1228M
2370.193	0.95	2374548	WORD_OFF	n/a	n/a	COMPUTER	n/a	5	13	[0, 0, 0]	n/a	catFR1	0	R1228M
2371.143	1.616	2375498	WORD	n/a	wordpools/wordpool_categorized_EN.txt	TELEVISION	Electronics	6	13	[0, 0, 0]	n/a	catFR1	0	R1228M
2372.759	0.851	2377114	WORD_OFF	n/a	n/a	TELEVISION	n/a	6	13	[0, 0, 0]	n/a	catFR1	0	R1228M
2373.61	1.617	2377965	WORD	n/a	wordpools/wordpool_categorized_EN.txt	WRENCH	Tools	7	13	[0, 0, 0]	n/a	catFR1	0	R1228M
2375.227	0.851	2379582	WORD_OFF	n/a	n/a	WRENCH	n/a	7	13	[0, 0, 0]	n/a	catFR1	0	R1228M
2376.078	1.617	2380433	WORD	n/a	wordpools/wordpool_categorized_EN.txt	CROWBAR	Tools	8	13	[0, 0, 0]	n/a	catFR1	0	R1228M
2377.695	0.833	2382050	WORD_OFF	n/a	n/a	CROWBAR	n/a	8	13	[0, 0, 0]	n/a	catFR1	0	R1228M
2378.528	1.617	2382883	WORD	n/a	wordpools/wordpool_categorized_EN.txt	PLANE	Vehicles	9	13	[0, 0, 0]	n/a	catFR1	0	R1228M
2380.145	0.8	2384500	WORD_OFF	n/a	n/a	PLANE	n/a	9	13	[0, 0, 0]	n/a	catFR1	0	R1228M
2380.945	1.617	2385300	WORD	n/a	wordpools/wordpool_categorized_EN.txt	SCOOTER	Vehicles	10	13	[0, 0, 0]	n/a	catFR1	0	R1228M
2382.562	0.884	2386916	WORD_OFF	n/a	n/a	SCOOTER	n/a	10	13	[0, 0, 0]	n/a	catFR1	0	R1228M
2383.446	1.617	2387800	WORD	n/a	wordpools/wordpool_categorized_EN.txt	HEADPHONES	Electronics	11	13	[0, 0, 0]	n/a	catFR1	0	R1228M
2385.063	0.933	2389417	WORD_OFF	n/a	n/a	HEADPHONES	n/a	11	13	[0, 0, 0]	n/a	catFR1	0	R1228M
2385.996	1.617	2390350	WORD	n/a	wordpools/wordpool_categorized_EN.txt	MICROWAVE	Electronics	12	13	[0, 0, 0]	n/a	catFR1	0	R1228M
2387.613	0.0	2391967	ENCODING_END	n/a	n/a	n/a	n/a	-999	13	[0, 0, 0]	n/a	catFR1	0	R1228M
2387.613	0.104	2391967	WORD_OFF	n/a	n/a	MICROWAVE	n/a	12	13	[0, 0, 0]	n/a	catFR1	0	R1228M
2387.717	0.001	2392071	DISTRACT_START	n/a	n/a	n/a	n/a	-999	13	[0, 0, 0]	n/a	catFR1	0	R1228M
2387.718	0.011	2392072	START	n/a	n/a	n/a	n/a	-999	13	[-999, -999, -999]	n/a	catFR1	0	R1228M
2387.729	5.935	2392083	PROB	5.935	n/a	n/a	n/a	-999	13	[8, 4, 9]	21	catFR1	0	R1228M
2393.664	6.402	2398018	PROB	6.402	n/a	n/a	n/a	-999	13	[7, 8, 9]	24	catFR1	0	R1228M
2400.066	4.766	2404419	PROB	4.766	n/a	n/a	n/a	-999	13	[6, 7, 5]	18	catFR1	0	R1228M
2404.832	3.941	2409185	PROB	3.941	n/a	n/a	n/a	-999	13	[9, 8, 4]	20	catFR1	0	R1228M
2408.773	0.01	2413126	STOP	n/a	n/a	n/a	n/a	-999	13	[-999, -999, -999]	n/a	catFR1	0	R1228M
2408.783	0.534	2413136	DISTRACT_END	n/a	n/a	n/a	n/a	-999	13	[0, 0, 0]	n/a	catFR1	0	R1228M
2409.317	0.517	2413670	RETRIEVAL_ORIENT	n/a	n/a	n/a	n/a	-999	13	[0, 0, 0]	n/a	catFR1	0	R1228M
2409.834	0.0	2414187	REC_START	n/a	n/a	n/a	n/a	-999	13	[0, 0, 0]	n/a	catFR1	0	R1228M
2409.834	3.734	2414187	REC_WORD_VV	3.734	n/a	<>	n/a	-999	13	[0, 0, 0]	n/a	catFR1	0	R1228M
2413.568	1.746	2417921	REC_WORD_VV	1.746	n/a	<>	n/a	-999	13	[0, 0, 0]	n/a	catFR1	0	R1228M
2415.314	3.976	2419667	REC_WORD_VV	3.976	n/a	<>	n/a	-999	13	[0, 0, 0]	n/a	catFR1	0	R1228M
2419.29	1.001	2423642	REC_WORD_VV	1.001	n/a	<>	n/a	-999	13	[0, 0, 0]	n/a	catFR1	0	R1228M
2420.291	1.938	2424643	REC_WORD_VV	1.938	n/a	<>	n/a	-999	13	[0, 0, 0]	n/a	catFR1	0	R1228M
2422.229	1.905	2426581	REC_WORD_VV	1.905	n/a	<>	n/a	-999	13	[0, 0, 0]	n/a	catFR1	0	R1228M
2424.134	1.003	2428486	REC_WORD_VV	1.003	n/a	<>	n/a	-999	13	[0, 0, 0]	n/a	catFR1	0	R1228M
2425.137	1.0	2429489	REC_WORD_VV	1.0	n/a	<>	n/a	-999	13	[0, 0, 0]	n/a	catFR1	0	R1228M
2426.137	2.405	2430489	REC_WORD_VV	2.405	n/a	<>	n/a	-999	13	[0, 0, 0]	n/a	catFR1	0	R1228M
2428.542	0.852	2432894	REC_WORD_VV	0.852	n/a	<>	n/a	-999	13	[0, 0, 0]	n/a	catFR1	0	R1228M
2429.394	1.0	2433746	REC_WORD_VV	1.0	n/a	<>	n/a	-999	13	[0, 0, 0]	n/a	catFR1	0	R1228M
2430.394	9.452	2434746	REC_WORD_VV	9.452	n/a	<>	n/a	-999	13	[0, 0, 0]	n/a	catFR1	0	R1228M
2439.846	7.129	2444197	REC_END	n/a	n/a	n/a	n/a	-999	13	[0, 0, 0]	n/a	catFR1	0	R1228M
2446.975	0.5	2451326	TRIAL	n/a	n/a	n/a	n/a	-999	14	[0, 0, 0]	n/a	catFR1	0	R1228M
2447.475	10.428	2451826	COUNTDOWN_START	n/a	n/a	n/a	n/a	-999	14	[0, 0, 0]	n/a	catFR1	0	R1228M
2457.903	0.007	2462253	COUNTDOWN_END	n/a	n/a	n/a	n/a	-999	14	[0, 0, 0]	n/a	catFR1	0	R1228M
2457.91	1.617	2462260	ORIENT	n/a	n/a	n/a	n/a	-999	14	[0, 0, 0]	n/a	catFR1	0	R1228M
2459.527	2.283	2463877	ORIENT_OFF	n/a	n/a	n/a	n/a	-999	14	[0, 0, 0]	n/a	catFR1	0	R1228M
2461.81	1.618	2466160	WORD	n/a	wordpools/wordpool_categorized_EN.txt	PETUNIA	Flowers	1	14	[0, 0, 0]	n/a	catFR1	0	R1228M
2463.428	0.783	2467778	WORD_OFF	n/a	n/a	PETUNIA	n/a	1	14	[0, 0, 0]	n/a	catFR1	0	R1228M
2464.211	1.616	2468561	WORD	n/a	wordpools/wordpool_categorized_EN.txt	LILAC	Flowers	2	14	[0, 0, 0]	n/a	catFR1	0	R1228M
2465.827	0.9	2470177	WORD_OFF	n/a	n/a	LILAC	n/a	2	14	[0, 0, 0]	n/a	catFR1	0	R1228M
2466.727	1.602	2471077	WORD	n/a	wordpools/wordpool_categorized_EN.txt	THUNDERSTORM	Weather	3	14	[0, 0, 0]	n/a	catFR1	0	R1228M
2468.329	0.9	2472679	WORD_OFF	n/a	n/a	THUNDERSTORM	n/a	3	14	[0, 0, 0]	n/a	catFR1	0	R1228M
2469.229	1.616	2473579	WORD	n/a	wordpools/wordpool_categorized_EN.txt	HUMIDITY	Weather	4	14	[0, 0, 0]	n/a	catFR1	0	R1228M
2470.845	0.835	2475194	WORD_OFF	n/a	n/a	HUMIDITY	n/a	4	14	[0, 0, 0]	n/a	catFR1	0	R1228M
2471.68	1.616	2476029	WORD	n/a	wordpools/wordpool_categorized_EN.txt	BLOUSE	Clothing	5	14	[0, 0, 0]	n/a	catFR1	0	R1228M
2473.296	0.85	2477645	WORD_OFF	n/a	n/a	BLOUSE	n/a	5	14	[0, 0, 0]	n/a	catFR1	0	R1228M
2474.146	1.617	2478495	WORD	n/a	wordpools/wordpool_categorized_EN.txt	UNDERWEAR	Clothing	6	14	[0, 0, 0]	n/a	catFR1	0	R1228M
2475.763	0.801	2480112	WORD_OFF	n/a	n/a	UNDERWEAR	n/a	6	14	[0, 0, 0]	n/a	catFR1	0	R1228M
2476.564	1.617	2480913	WORD	n/a	wordpools/wordpool_categorized_EN.txt	ROSE	Flowers	7	14	[0, 0, 0]	n/a	catFR1	0	R1228M
2478.181	0.817	2482530	WORD_OFF	n/a	n/a	ROSE	n/a	7	14	[0, 0, 0]	n/a	catFR1	0	R1228M
2478.998	1.617	2483347	WORD	n/a	wordpools/wordpool_categorized_EN.txt	LILY	Flowers	8	14	[0, 0, 0]	n/a	catFR1	0	R1228M
2480.615	0.866	2484964	WORD_OFF	n/a	n/a	LILY	n/a	8	14	[0, 0, 0]	n/a	catFR1	0	R1228M
2481.481	1.617	2485830	WORD	n/a	wordpools/wordpool_categorized_EN.txt	RAIN	Weather	9	14	[0, 0, 0]	n/a	catFR1	0	R1228M
2483.098	0.984	2487447	WORD_OFF	n/a	n/a	RAIN	n/a	9	14	[0, 0, 0]	n/a	catFR1	0	R1228M
2484.082	1.617	2488431	WORD	n/a	wordpools/wordpool_categorized_EN.txt	CLOUD	Weather	10	14	[0, 0, 0]	n/a	catFR1	0	R1228M
2485.699	0.783	2490048	WORD_OFF	n/a	n/a	CLOUD	n/a	10	14	[0, 0, 0]	n/a	catFR1	0	R1228M
2486.482	1.617	2490831	WORD	n/a	wordpools/wordpool_categorized_EN.txt	SHORTS	Clothing	11	14	[0, 0, 0]	n/a	catFR1	0	R1228M
2488.099	0.801	2492448	WORD_OFF	n/a	n/a	SHORTS	n/a	11	14	[0, 0, 0]	n/a	catFR1	0	R1228M
2488.9	1.616	2493248	WORD	n/a	wordpools/wordpool_categorized_EN.txt	SKIRT	Clothing	12	14	[0, 0, 0]	n/a	catFR1	0	R1228M
2490.516	0.001	2494864	WORD_OFF	n/a	n/a	SKIRT	n/a	12	14	[0, 0, 0]	n/a	catFR1	0	R1228M
2490.517	0.103	2494865	ENCODING_END	n/a	n/a	n/a	n/a	-999	14	[0, 0, 0]	n/a	catFR1	0	R1228M
2490.62	0.0	2494968	DISTRACT_START	n/a	n/a	n/a	n/a	-999	14	[0, 0, 0]	n/a	catFR1	0	R1228M
2490.62	0.013	2494968	START	n/a	n/a	n/a	n/a	-999	14	[-999, -999, -999]	n/a	catFR1	0	R1228M
2490.633	5.751	2494981	PROB	5.751	n/a	n/a	n/a	-999	14	[1, 4, 3]	8	catFR1	0	R1228M
2496.384	2.934	2500732	PROB	2.934	n/a	n/a	n/a	-999	14	[8, 4, 6]	18	catFR1	0	R1228M
2499.318	5.985	2503666	PROB	5.985	n/a	n/a	n/a	-999	14	[4, 8, 3]	15	catFR1	0	R1228M
2505.303	2.734	2509651	PROB	2.734	n/a	n/a	n/a	-999	14	[3, 7, 8]	18	catFR1	0	R1228M
2508.037	2.953	2512384	PROB	2.953	n/a	n/a	n/a	-999	14	[9, 7, 1]	17	catFR1	0	R1228M
2510.99	0.014	2515337	STOP	n/a	n/a	n/a	n/a	-999	14	[-999, -999, -999]	n/a	catFR1	0	R1228M
2511.004	0.617	2515351	DISTRACT_END	n/a	n/a	n/a	n/a	-999	14	[0, 0, 0]	n/a	catFR1	0	R1228M
2511.621	0.517	2515968	RETRIEVAL_ORIENT	n/a	n/a	n/a	n/a	-999	14	[0, 0, 0]	n/a	catFR1	0	R1228M
2512.138	1.591	2516485	REC_START	n/a	n/a	n/a	n/a	-999	14	[0, 0, 0]	n/a	catFR1	0	R1228M
2513.729	1.262	2518076	REC_WORD	1.262	n/a	PETUNIA	Flowers	1	14	[0, 0, 0]	n/a	catFR1	0	R1228M
2514.991	3.134	2519338	REC_WORD	3.134	n/a	LILAC	Flowers	2	14	[0, 0, 0]	n/a	catFR1	0	R1228M
2518.125	0.64	2522472	REC_WORD_VV	0.64	n/a	<>	n/a	-999	14	[0, 0, 0]	n/a	catFR1	0	R1228M
2518.765	1.864	2523112	REC_WORD	1.864	n/a	THUNDERSTORM	Weather	3	14	[0, 0, 0]	n/a	catFR1	0	R1228M
2520.629	3.992	2524976	REC_WORD	3.992	n/a	CLOUD	Weather	10	14	[0, 0, 0]	n/a	catFR1	0	R1228M
2524.621	1.242	2528967	REC_WORD_VV	1.242	n/a	<>	n/a	-999	14	[0, 0, 0]	n/a	catFR1	0	R1228M
2525.863	3.825	2530209	REC_WORD	3.825	n/a	UNDERWEAR	Clothing	6	14	[0, 0, 0]	n/a	catFR1	0	R1228M
2529.688	1.004	2534034	REC_WORD	1.004	n/a	SHIRT	n/a	-999	14	[0, 0, 0]	n/a	catFR1	0	R1228M
2530.692	0.461	2535038	REC_WORD_VV	0.461	n/a	<>	n/a	-999	14	[0, 0, 0]	n/a	catFR1	0	R1228M
2531.153	5.517	2535499	REC_WORD	5.517	n/a	BLOUSE	Clothing	5	14	[0, 0, 0]	n/a	catFR1	0	R1228M
2536.67	5.479	2541016	REC_WORD_VV	5.479	n/a	<>	n/a	-999	14	[0, 0, 0]	n/a	catFR1	0	R1228M
2542.149	7.246	2546494	REC_END	n/a	n/a	n/a	n/a	-999	14	[0, 0, 0]	n/a	catFR1	0	R1228M
2549.395	0.5	2553740	TRIAL	n/a	n/a	n/a	n/a	-999	15	[0, 0, 0]	n/a	catFR1	0	R1228M
2549.895	10.428	2554240	COUNTDOWN_START	n/a	n/a	n/a	n/a	-999	15	[0, 0, 0]	n/a	catFR1	0	R1228M
2560.323	0.007	2564667	COUNTDOWN_END	n/a	n/a	n/a	n/a	-999	15	[0, 0, 0]	n/a	catFR1	0	R1228M
2560.33	1.617	2564674	ORIENT	n/a	n/a	n/a	n/a	-999	15	[0, 0, 0]	n/a	catFR1	0	R1228M
2561.947	2.117	2566291	ORIENT_OFF	n/a	n/a	n/a	n/a	-999	15	[0, 0, 0]	n/a	catFR1	0	R1228M
2564.064	1.617	2568408	WORD	n/a	wordpools/wordpool_categorized_EN.txt	BUTTERFLY	Insects	1	15	[0, 0, 0]	n/a	catFR1	0	R1228M
2565.681	0.817	2570025	WORD_OFF	n/a	n/a	BUTTERFLY	n/a	1	15	[0, 0, 0]	n/a	catFR1	0	R1228M
2566.498	1.617	2570842	WORD	n/a	wordpools/wordpool_categorized_EN.txt	LADYBUG	Insects	2	15	[0, 0, 0]	n/a	catFR1	0	R1228M
2568.115	0.917	2572459	WORD_OFF	n/a	n/a	LADYBUG	n/a	2	15	[0, 0, 0]	n/a	catFR1	0	R1228M
2569.032	1.617	2573376	WORD	n/a	wordpools/wordpool_categorized_EN.txt	SEAGULL	Birds	3	15	[0, 0, 0]	n/a	catFR1	0	R1228M
2570.649	1.0	2574993	WORD_OFF	n/a	n/a	SEAGULL	n/a	3	15	[0, 0, 0]	n/a	catFR1	0	R1228M
2571.649	1.617	2575993	WORD	n/a	wordpools/wordpool_categorized_EN.txt	SPARROW	Birds	4	15	[0, 0, 0]	n/a	catFR1	0	R1228M
2573.266	0.833	2577610	WORD_OFF	n/a	n/a	SPARROW	n/a	4	15	[0, 0, 0]	n/a	catFR1	0	R1228M
2574.099	1.617	2578443	WORD	n/a	wordpools/wordpool_categorized_EN.txt	PASTRY	Desserts	5	15	[0, 0, 0]	n/a	catFR1	0	R1228M
2575.716	0.834	2580060	WORD_OFF	n/a	n/a	PASTRY	n/a	5	15	[0, 0, 0]	n/a	catFR1	0	R1228M
2576.55	1.617	2580894	WORD	n/a	wordpools/wordpool_categorized_EN.txt	BROWNIES	Desserts	6	15	[0, 0, 0]	n/a	catFR1	0	R1228M
2578.167	0.967	2582510	WORD_OFF	n/a	n/a	BROWNIES	n/a	6	15	[0, 0, 0]	n/a	catFR1	0	R1228M
2579.134	1.616	2583477	WORD	n/a	wordpools/wordpool_categorized_EN.txt	PIGEON	Birds	7	15	[0, 0, 0]	n/a	catFR1	0	R1228M
2580.75	0.951	2585093	WORD_OFF	n/a	n/a	PIGEON	n/a	7	15	[0, 0, 0]	n/a	catFR1	0	R1228M
2581.701	1.617	2586044	WORD	n/a	wordpools/wordpool_categorized_EN.txt	FINCH	Birds	8	15	[0, 0, 0]	n/a	catFR1	0	R1228M
2583.318	0.917	2587661	WORD_OFF	n/a	n/a	FINCH	n/a	8	15	[0, 0, 0]	n/a	catFR1	0	R1228M
2584.235	1.616	2588578	WORD	n/a	wordpools/wordpool_categorized_EN.txt	BEE	Insects	9	15	[0, 0, 0]	n/a	catFR1	0	R1228M
2585.851	0.983	2590194	WORD_OFF	n/a	n/a	BEE	n/a	9	15	[0, 0, 0]	n/a	catFR1	0	R1228M
2586.834	1.618	2591177	WORD	n/a	wordpools/wordpool_categorized_EN.txt	MOTH	Insects	10	15	[0, 0, 0]	n/a	catFR1	0	R1228M
2588.452	1.0	2592795	WORD_OFF	n/a	n/a	MOTH	n/a	10	15	[0, 0, 0]	n/a	catFR1	0	R1228M
2589.452	1.617	2593795	WORD	n/a	wordpools/wordpool_categorized_EN.txt	PUDDING	Desserts	11	15	[0, 0, 0]	n/a	catFR1	0	R1228M
2591.069	0.817	2595412	WORD_OFF	n/a	n/a	PUDDING	n/a	11	15	[0, 0, 0]	n/a	catFR1	0	R1228M
2591.886	1.617	2596229	WORD	n/a	wordpools/wordpool_categorized_EN.txt	PIE	Desserts	12	15	[0, 0, 0]	n/a	catFR1	0	R1228M
2593.503	0.0	2597846	ENCODING_END	n/a	n/a	n/a	n/a	-999	15	[0, 0, 0]	n/a	catFR1	0	R1228M
2593.503	0.14	2597846	WORD_OFF	n/a	n/a	PIE	n/a	12	15	[0, 0, 0]	n/a	catFR1	0	R1228M
2593.643	0.0	2597986	DISTRACT_START	n/a	n/a	n/a	n/a	-999	15	[0, 0, 0]	n/a	catFR1	0	R1228M
2593.643	0.01	2597986	START	n/a	n/a	n/a	n/a	-999	15	[-999, -999, -999]	n/a	catFR1	0	R1228M
2593.653	3.584	2597996	PROB	3.584	n/a	n/a	n/a	-999	15	[9, 3, 7]	19	catFR1	0	R1228M
2597.237	4.718	2601579	PROB	4.718	n/a	n/a	n/a	-999	15	[4, 4, 5]	13	catFR1	0	R1228M
2601.955	4.217	2606297	PROB	4.217	n/a	n/a	n/a	-999	15	[5, 4, 4]	13	catFR1	0	R1228M
2606.172	3.583	2610514	PROB	3.583	n/a	n/a	n/a	-999	15	[4, 7, 7]	18	catFR1	0	R1228M
2609.755	4.388	2614097	PROB	4.388	n/a	n/a	n/a	-999	15	[8, 8, 8]	24	catFR1	0	R1228M
2614.143	0.014	2618484	STOP	n/a	n/a	n/a	n/a	-999	15	[-999, -999, -999]	n/a	catFR1	0	R1228M
2614.157	0.566	2618498	DISTRACT_END	n/a	n/a	n/a	n/a	-999	15	[0, 0, 0]	n/a	catFR1	0	R1228M
2614.723	0.518	2619064	RETRIEVAL_ORIENT	n/a	n/a	n/a	n/a	-999	15	[0, 0, 0]	n/a	catFR1	0	R1228M
2615.241	9.548	2619582	REC_START	n/a	n/a	n/a	n/a	-999	15	[0, 0, 0]	n/a	catFR1	0	R1228M
2624.789	1.905	2629130	REC_WORD	1.905	n/a	BUTTERFLY	Insects	1	15	[0, 0, 0]	n/a	catFR1	0	R1228M
2626.694	7.416	2631035	REC_WORD	7.416	n/a	BEE	Insects	9	15	[0, 0, 0]	n/a	catFR1	0	R1228M
2634.11	11.144	2638450	REC_WORD	11.144	n/a	BEE	Insects	9	15	[0, 0, 0]	n/a	catFR1	0	R1228M
2645.254	8.077	2649594	REC_END	n/a	n/a	n/a	n/a	-999	15	[0, 0, 0]	n/a	catFR1	0	R1228M
2653.331	0.5	2657670	TRIAL	n/a	n/a	n/a	n/a	-999	16	[0, 0, 0]	n/a	catFR1	0	R1228M
2653.831	10.428	2658170	COUNTDOWN_START	n/a	n/a	n/a	n/a	-999	16	[0, 0, 0]	n/a	catFR1	0	R1228M
2664.259	0.008	2668598	COUNTDOWN_END	n/a	n/a	n/a	n/a	-999	16	[0, 0, 0]	n/a	catFR1	0	R1228M
2664.267	1.617	2668606	ORIENT	n/a	n/a	n/a	n/a	-999	16	[0, 0, 0]	n/a	catFR1	0	R1228M
2665.884	2.017	2670223	ORIENT_OFF	n/a	n/a	n/a	n/a	-999	16	[0, 0, 0]	n/a	catFR1	0	R1228M
2667.901	1.617	2672239	WORD	n/a	wordpools/wordpool_categorized_EN.txt	TURKEY	FarmAnimals	1	16	[0, 0, 0]	n/a	catFR1	0	R1228M
2669.518	0.783	2673856	WORD_OFF	n/a	n/a	TURKEY	n/a	1	16	[0, 0, 0]	n/a	catFR1	0	R1228M
2670.301	1.617	2674639	WORD	n/a	wordpools/wordpool_categorized_EN.txt	CALF	FarmAnimals	2	16	[0, 0, 0]	n/a	catFR1	0	R1228M
2671.918	0.816	2676256	WORD_OFF	n/a	n/a	CALF	n/a	2	16	[0, 0, 0]	n/a	catFR1	0	R1228M
2672.734	1.618	2677072	WORD	n/a	wordpools/wordpool_categorized_EN.txt	BASS	Instruments	3	16	[0, 0, 0]	n/a	catFR1	0	R1228M
2674.352	0.95	2678690	WORD_OFF	n/a	n/a	BASS	n/a	3	16	[0, 0, 0]	n/a	catFR1	0	R1228M
2675.302	1.617	2679640	WORD	n/a	wordpools/wordpool_categorized_EN.txt	TRUMPET	Instruments	4	16	[0, 0, 0]	n/a	catFR1	0	R1228M
2676.919	0.784	2681257	WORD_OFF	n/a	n/a	TRUMPET	n/a	4	16	[0, 0, 0]	n/a	catFR1	0	R1228M
2677.703	1.617	2682041	WORD	n/a	wordpools/wordpool_categorized_EN.txt	ZEBRA	Zoo	5	16	[0, 0, 0]	n/a	catFR1	0	R1228M
2679.32	0.816	2683658	WORD_OFF	n/a	n/a	ZEBRA	n/a	5	16	[0, 0, 0]	n/a	catFR1	0	R1228M
2680.136	1.617	2684474	WORD	n/a	wordpools/wordpool_categorized_EN.txt	GORILLA	Zoo	6	16	[0, 0, 0]	n/a	catFR1	0	R1228M
2681.753	0.801	2686091	WORD_OFF	n/a	n/a	GORILLA	n/a	6	16	[0, 0, 0]	n/a	catFR1	0	R1228M
2682.554	1.617	2686892	WORD	n/a	wordpools/wordpool_categorized_EN.txt	ORGAN	Instruments	7	16	[0, 0, 0]	n/a	catFR1	0	R1228M
2684.171	0.8	2688508	WORD_OFF	n/a	n/a	ORGAN	n/a	7	16	[0, 0, 0]	n/a	catFR1	0	R1228M
2684.971	1.617	2689308	WORD	n/a	wordpools/wordpool_categorized_EN.txt	PIANO	Instruments	8	16	[0, 0, 0]	n/a	catFR1	0	R1228M
2686.588	0.983	2690925	WORD_OFF	n/a	n/a	PIANO	n/a	8	16	[0, 0, 0]	n/a	catFR1	0	R1228M
2687.571	1.617	2691908	WORD	n/a	wordpools/wordpool_categorized_EN.txt	BULL	FarmAnimals	9	16	[0, 0, 0]	n/a	catFR1	0	R1228M
2689.188	0.834	2693525	WORD_OFF	n/a	n/a	BULL	n/a	9	16	[0, 0, 0]	n/a	catFR1	0	R1228M
2690.022	1.617	2694359	WORD	n/a	wordpools/wordpool_categorized_EN.txt	GOAT	FarmAnimals	10	16	[0, 0, 0]	n/a	catFR1	0	R1228M
2691.639	0.783	2695976	WORD_OFF	n/a	n/a	GOAT	n/a	10	16	[0, 0, 0]	n/a	catFR1	0	R1228M
2692.422	1.617	2696759	WORD	n/a	wordpools/wordpool_categorized_EN.txt	CHIMPANZEE	Zoo	11	16	[0, 0, 0]	n/a	catFR1	0	R1228M
2694.039	0.951	2698376	WORD_OFF	n/a	n/a	CHIMPANZEE	n/a	11	16	[0, 0, 0]	n/a	catFR1	0	R1228M
2694.99	1.616	2699327	WORD	n/a	wordpools/wordpool_categorized_EN.txt	GIRAFFE	Zoo	12	16	[0, 0, 0]	n/a	catFR1	0	R1228M
2696.606	0.001	2700943	WORD_OFF	n/a	n/a	GIRAFFE	n/a	12	16	[0, 0, 0]	n/a	catFR1	0	R1228M
2696.607	0.103	2700944	ENCODING_END	n/a	n/a	n/a	n/a	-999	16	[0, 0, 0]	n/a	catFR1	0	R1228M
2696.71	0.0	2701047	DISTRACT_START	n/a	n/a	n/a	n/a	-999	16	[0, 0, 0]	n/a	catFR1	0	R1228M
2696.71	0.013	2701047	START	n/a	n/a	n/a	n/a	-999	16	[-999, -999, -999]	n/a	catFR1	0	R1228M
2696.723	3.651	2701060	PROB	3.651	n/a	n/a	n/a	-999	16	[9, 2, 8]	19	catFR1	0	R1228M
2700.374	4.001	2704711	PROB	4.001	n/a	n/a	n/a	-999	16	[4, 9, 7]	20	catFR1	0	R1228M
2704.375	2.984	2708711	PROB	2.984	n/a	n/a	n/a	-999	16	[1, 5, 4]	10	catFR1	0	R1228M
2707.359	13.191	2711695	PROB	13.191	n/a	n/a	n/a	-999	16	[6, 9, 8]	23	catFR1	0	R1228M
2720.55	0.011	2724885	STOP	n/a	n/a	n/a	n/a	-999	16	[-999, -999, -999]	n/a	catFR1	0	R1228M
2720.561	0.667	2724896	DISTRACT_END	n/a	n/a	n/a	n/a	-999	16	[0, 0, 0]	n/a	catFR1	0	R1228M
2721.228	0.516	2725563	RETRIEVAL_ORIENT	n/a	n/a	n/a	n/a	-999	16	[0, 0, 0]	n/a	catFR1	0	R1228M
2721.744	3.735	2726079	REC_START	n/a	n/a	n/a	n/a	-999	16	[0, 0, 0]	n/a	catFR1	0	R1228M
2725.479	1.102	2729814	REC_WORD	1.102	n/a	GIRAFFE	Zoo	12	16	[0, 0, 0]	n/a	catFR1	0	R1228M
2726.581	3.598	2730916	REC_WORD	3.598	n/a	CHIMPANZEE	Zoo	11	16	[0, 0, 0]	n/a	catFR1	0	R1228M
2730.179	21.577	2734514	REC_WORD_VV	21.577	n/a	<>	n/a	-999	16	[0, 0, 0]	n/a	catFR1	0	R1228M
2751.756	3.879	2756090	REC_END	n/a	n/a	n/a	n/a	-999	16	[0, 0, 0]	n/a	catFR1	0	R1228M
2755.635	0.5	2759968	TRIAL	n/a	n/a	n/a	n/a	-999	17	[0, 0, 0]	n/a	catFR1	0	R1228M
2756.135	10.428	2760468	COUNTDOWN_START	n/a	n/a	n/a	n/a	-999	17	[0, 0, 0]	n/a	catFR1	0	R1228M
2766.563	0.007	2770896	COUNTDOWN_END	n/a	n/a	n/a	n/a	-999	17	[0, 0, 0]	n/a	catFR1	0	R1228M
2766.57	1.617	2770903	ORIENT	n/a	n/a	n/a	n/a	-999	17	[0, 0, 0]	n/a	catFR1	0	R1228M
2768.187	1.767	2772520	ORIENT_OFF	n/a	n/a	n/a	n/a	-999	17	[0, 0, 0]	n/a	catFR1	0	R1228M
2769.954	1.617	2774287	WORD	n/a	wordpools/wordpool_categorized_EN.txt	ELBOW	BodyParts	1	17	[0, 0, 0]	n/a	catFR1	0	R1228M
2771.571	1.017	2775904	WORD_OFF	n/a	n/a	ELBOW	n/a	1	17	[0, 0, 0]	n/a	catFR1	0	R1228M
2772.588	1.617	2776921	WORD	n/a	wordpools/wordpool_categorized_EN.txt	ARM	BodyParts	2	17	[0, 0, 0]	n/a	catFR1	0	R1228M
2774.205	0.933	2778537	WORD_OFF	n/a	n/a	ARM	n/a	2	17	[0, 0, 0]	n/a	catFR1	0	R1228M
2775.138	1.616	2779470	WORD	n/a	wordpools/wordpool_categorized_EN.txt	SOFA	Furniture	3	17	[0, 0, 0]	n/a	catFR1	0	R1228M
2776.754	0.852	2781086	WORD_OFF	n/a	n/a	SOFA	n/a	3	17	[0, 0, 0]	n/a	catFR1	0	R1228M
2777.606	1.617	2781938	WORD	n/a	wordpools/wordpool_categorized_EN.txt	NIGHTSTAND	Furniture	4	17	[0, 0, 0]	n/a	catFR1	0	R1228M
2779.223	1.0	2783555	WORD_OFF	n/a	n/a	NIGHTSTAND	n/a	4	17	[0, 0, 0]	n/a	catFR1	0	R1228M
2780.223	1.616	2784555	WORD	n/a	wordpools/wordpool_categorized_EN.txt	SPOON	KitchenTools	5	17	[0, 0, 0]	n/a	catFR1	0	R1228M
2781.839	0.801	2786171	WORD_OFF	n/a	n/a	SPOON	n/a	5	17	[0, 0, 0]	n/a	catFR1	0	R1228M
2782.64	1.617	2786972	WORD	n/a	wordpools/wordpool_categorized_EN.txt	LADLE	KitchenTools	6	17	[0, 0, 0]	n/a	catFR1	0	R1228M
2784.257	1.017	2788589	WORD_OFF	n/a	n/a	LADLE	n/a	6	17	[0, 0, 0]	n/a	catFR1	0	R1228M
2785.274	1.617	2789606	WORD	n/a	wordpools/wordpool_categorized_EN.txt	BED	Furniture	7	17	[0, 0, 0]	n/a	catFR1	0	R1228M
2786.891	0.882	2791223	WORD_OFF	n/a	n/a	BED	n/a	7	17	[0, 0, 0]	n/a	catFR1	0	R1228M
2787.773	1.601	2792105	WORD	n/a	wordpools/wordpool_categorized_EN.txt	DESK	Furniture	8	17	[0, 0, 0]	n/a	catFR1	0	R1228M
2789.374	0.884	2793706	WORD_OFF	n/a	n/a	DESK	n/a	8	17	[0, 0, 0]	n/a	catFR1	0	R1228M
2790.258	1.617	2794590	WORD	n/a	wordpools/wordpool_categorized_EN.txt	EYE	BodyParts	9	17	[0, 0, 0]	n/a	catFR1	0	R1228M
2791.875	0.916	2796206	WORD_OFF	n/a	n/a	EYE	n/a	9	17	[0, 0, 0]	n/a	catFR1	0	R1228M
2792.791	1.618	2797122	WORD	n/a	wordpools/wordpool_categorized_EN.txt	FINGERS	BodyParts	10	17	[0, 0, 0]	n/a	catFR1	0	R1228M
2794.409	0.983	2798740	WORD_OFF	n/a	n/a	FINGERS	n/a	10	17	[0, 0, 0]	n/a	catFR1	0	R1228M
2795.392	1.617	2799723	WORD	n/a	wordpools/wordpool_categorized_EN.txt	GRATER	KitchenTools	11	17	[0, 0, 0]	n/a	catFR1	0	R1228M
2797.009	0.783	2801340	WORD_OFF	n/a	n/a	GRATER	n/a	11	17	[0, 0, 0]	n/a	catFR1	0	R1228M
2797.792	1.618	2802123	WORD	n/a	wordpools/wordpool_categorized_EN.txt	CORKSCREW	KitchenTools	12	17	[0, 0, 0]	n/a	catFR1	0	R1228M
2799.41	0.0	2803741	ENCODING_END	n/a	n/a	n/a	n/a	-999	17	[0, 0, 0]	n/a	catFR1	0	R1228M
2799.41	0.103	2803741	WORD_OFF	n/a	n/a	CORKSCREW	n/a	12	17	[0, 0, 0]	n/a	catFR1	0	R1228M
2799.513	0.0	2803844	DISTRACT_START	n/a	n/a	n/a	n/a	-999	17	[0, 0, 0]	n/a	catFR1	0	R1228M
2799.513	0.014	2803844	START	n/a	n/a	n/a	n/a	-999	17	[-999, -999, -999]	n/a	catFR1	0	R1228M
2799.527	3.617	2803858	PROB	3.617	n/a	n/a	n/a	-999	17	[3, 6, 5]	14	catFR1	0	R1228M
2803.144	4.434	2807475	PROB	4.434	n/a	n/a	n/a	-999	17	[3, 3, 6]	12	catFR1	0	R1228M
2807.578	2.701	2811909	PROB	2.701	n/a	n/a	n/a	-999	17	[7, 3, 3]	13	catFR1	0	R1228M
2810.279	9.407	2814609	PROB	9.407	n/a	n/a	n/a	-999	17	[8, 9, 5]	22	catFR1	0	R1228M
2819.686	0.011	2824016	STOP	n/a	n/a	n/a	n/a	-999	17	[-999, -999, -999]	n/a	catFR1	0	R1228M
2819.697	0.584	2824027	DISTRACT_END	n/a	n/a	n/a	n/a	-999	17	[0, 0, 0]	n/a	catFR1	0	R1228M
2820.281	0.516	2824611	RETRIEVAL_ORIENT	n/a	n/a	n/a	n/a	-999	17	[0, 0, 0]	n/a	catFR1	0	R1228M
2820.797	1.119	2825127	REC_START	n/a	n/a	n/a	n/a	-999	17	[0, 0, 0]	n/a	catFR1	0	R1228M
2821.916	2.148	2826246	REC_WORD_VV	2.148	n/a	<>	n/a	-999	17	[0, 0, 0]	n/a	catFR1	0	R1228M
2824.064	2.497	2828394	REC_WORD	2.497	n/a	ELBOW	BodyParts	1	17	[0, 0, 0]	n/a	catFR1	0	R1228M
2826.561	3.222	2830890	REC_WORD	3.222	n/a	NIGHTSTAND	Furniture	4	17	[0, 0, 0]	n/a	catFR1	0	R1228M
2829.783	21.026	2834112	REC_WORD	21.026	n/a	CHAIR	n/a	-999	17	[0, 0, 0]	n/a	catFR1	0	R1228M
2850.809	4.961	2855137	REC_END	n/a	n/a	n/a	n/a	-999	17	[0, 0, 0]	n/a	catFR1	0	R1228M
2855.77	0.5	2860098	TRIAL	n/a	n/a	n/a	n/a	-999	18	[0, 0, 0]	n/a	catFR1	0	R1228M
2856.27	10.428	2860598	COUNTDOWN_START	n/a	n/a	n/a	n/a	-999	18	[0, 0, 0]	n/a	catFR1	0	R1228M
2866.698	0.008	2871025	COUNTDOWN_END	n/a	n/a	n/a	n/a	-999	18	[0, 0, 0]	n/a	catFR1	0	R1228M
2866.706	1.617	2871033	ORIENT	n/a	n/a	n/a	n/a	-999	18	[0, 0, 0]	n/a	catFR1	0	R1228M
2868.323	2.201	2872650	ORIENT_OFF	n/a	n/a	n/a	n/a	-999	18	[0, 0, 0]	n/a	catFR1	0	R1228M
2870.524	1.617	2874851	WORD	n/a	wordpools/wordpool_categorized_EN.txt	WHISK	KitchenTools	1	18	[0, 0, 0]	n/a	catFR1	0	R1228M
2872.141	0.966	2876468	WORD_OFF	n/a	n/a	WHISK	n/a	1	18	[0, 0, 0]	n/a	catFR1	0	R1228M
2873.107	1.616	2877434	WORD	n/a	wordpools/wordpool_categorized_EN.txt	KNIFE	KitchenTools	2	18	[0, 0, 0]	n/a	catFR1	0	R1228M
2874.723	0.952	2879050	WORD_OFF	n/a	n/a	KNIFE	n/a	2	18	[0, 0, 0]	n/a	catFR1	0	R1228M
2875.675	1.617	2880002	WORD	n/a	wordpools/wordpool_categorized_EN.txt	BEAR	Zoo	3	18	[0, 0, 0]	n/a	catFR1	0	R1228M
2877.292	0.766	2881619	WORD_OFF	n/a	n/a	BEAR	n/a	3	18	[0, 0, 0]	n/a	catFR1	0	R1228M
2878.058	1.617	2882385	WORD	n/a	wordpools/wordpool_categorized_EN.txt	PANDA	Zoo	4	18	[0, 0, 0]	n/a	catFR1	0	R1228M
2879.675	0.884	2884001	WORD_OFF	n/a	n/a	PANDA	n/a	4	18	[0, 0, 0]	n/a	catFR1	0	R1228M
2880.559	1.617	2884885	WORD	n/a	wordpools/wordpool_categorized_EN.txt	ONION	Vegetables	5	18	[0, 0, 0]	n/a	catFR1	0	R1228M
2882.176	1.0	2886502	WORD_OFF	n/a	n/a	ONION	n/a	5	18	[0, 0, 0]	n/a	catFR1	0	R1228M
2883.176	1.616	2887502	WORD	n/a	wordpools/wordpool_categorized_EN.txt	BROCCOLI	Vegetables	6	18	[0, 0, 0]	n/a	catFR1	0	R1228M
2884.792	0.801	2889118	WORD_OFF	n/a	n/a	BROCCOLI	n/a	6	18	[0, 0, 0]	n/a	catFR1	0	R1228M
2885.593	1.617	2889919	WORD	n/a	wordpools/wordpool_categorized_EN.txt	FORK	KitchenTools	7	18	[0, 0, 0]	n/a	catFR1	0	R1228M
2887.21	0.884	2891536	WORD_OFF	n/a	n/a	FORK	n/a	7	18	[0, 0, 0]	n/a	catFR1	0	R1228M
2888.094	1.617	2892420	WORD	n/a	wordpools/wordpool_categorized_EN.txt	STRAINER	KitchenTools	8	18	[0, 0, 0]	n/a	catFR1	0	R1228M
2889.711	0.783	2894037	WORD_OFF	n/a	n/a	STRAINER	n/a	8	18	[0, 0, 0]	n/a	catFR1	0	R1228M
2890.494	1.617	2894820	WORD	n/a	wordpools/wordpool_categorized_EN.txt	ELEPHANT	Zoo	9	18	[0, 0, 0]	n/a	catFR1	0	R1228M
2892.111	0.917	2896437	WORD_OFF	n/a	n/a	ELEPHANT	n/a	9	18	[0, 0, 0]	n/a	catFR1	0	R1228M
2893.028	1.617	2897354	WORD	n/a	wordpools/wordpool_categorized_EN.txt	LION	Zoo	10	18	[0, 0, 0]	n/a	catFR1	0	R1228M
2894.645	0.85	2898971	WORD_OFF	n/a	n/a	LION	n/a	10	18	[0, 0, 0]	n/a	catFR1	0	R1228M
2895.495	1.617	2899821	WORD	n/a	wordpools/wordpool_categorized_EN.txt	CELERY	Vegetables	11	18	[0, 0, 0]	n/a	catFR1	0	R1228M
2897.112	0.8	2901438	WORD_OFF	n/a	n/a	CELERY	n/a	11	18	[0, 0, 0]	n/a	catFR1	0	R1228M
2897.912	1.617	2902237	WORD	n/a	wordpools/wordpool_categorized_EN.txt	CARROT	Vegetables	12	18	[0, 0, 0]	n/a	catFR1	0	R1228M
2899.529	0.0	2903854	ENCODING_END	n/a	n/a	n/a	n/a	-999	18	[0, 0, 0]	n/a	catFR1	0	R1228M
2899.529	0.133	2903854	WORD_OFF	n/a	n/a	CARROT	n/a	12	18	[0, 0, 0]	n/a	catFR1	0	R1228M
2899.662	0.001	2903987	DISTRACT_START	n/a	n/a	n/a	n/a	-999	18	[0, 0, 0]	n/a	catFR1	0	R1228M
2899.663	0.016	2903988	START	n/a	n/a	n/a	n/a	-999	18	[-999, -999, -999]	n/a	catFR1	0	R1228M
2899.679	3.468	2904004	PROB	3.468	n/a	n/a	n/a	-999	18	[1, 8, 2]	11	catFR1	0	R1228M
2903.147	3.317	2907472	PROB	3.317	n/a	n/a	n/a	-999	18	[3, 1, 6]	10	catFR1	0	R1228M
2906.464	3.1	2910789	PROB	3.1	n/a	n/a	n/a	-999	18	[7, 2, 8]	17	catFR1	0	R1228M
2909.564	2.951	2913889	PROB	2.951	n/a	n/a	n/a	-999	18	[2, 6, 3]	11	catFR1	0	R1228M
2912.515	3.417	2916840	PROB	3.417	n/a	n/a	n/a	-999	18	[8, 7, 1]	16	catFR1	0	R1228M
2915.932	2.601	2920256	PROB	2.601	n/a	n/a	n/a	-999	18	[8, 2, 7]	17	catFR1	0	R1228M
2918.533	3.089	2922857	PROB	3.089	n/a	n/a	n/a	-999	18	[1, 6, 9]	15	catFR1	0	R1228M
2921.622	0.012	2925946	STOP	n/a	n/a	n/a	n/a	-999	18	[-999, -999, -999]	n/a	catFR1	0	R1228M
2921.634	0.533	2925958	DISTRACT_END	n/a	n/a	n/a	n/a	-999	18	[0, 0, 0]	n/a	catFR1	0	R1228M
2922.167	0.517	2926491	RETRIEVAL_ORIENT	n/a	n/a	n/a	n/a	-999	18	[0, 0, 0]	n/a	catFR1	0	R1228M
2922.684	1.446	2927008	REC_START	n/a	n/a	n/a	n/a	-999	18	[0, 0, 0]	n/a	catFR1	0	R1228M
2924.13	9.454	2928454	REC_WORD_VV	9.454	n/a	<>	n/a	-999	18	[0, 0, 0]	n/a	catFR1	0	R1228M
2933.584	2.272	2937907	REC_WORD	2.272	n/a	ONION	Vegetables	5	18	[0, 0, 0]	n/a	catFR1	0	R1228M
2935.856	1.049	2940179	REC_WORD	1.049	n/a	FORK	KitchenTools	7	18	[0, 0, 0]	n/a	catFR1	0	R1228M
2936.905	3.148	2941228	REC_WORD	3.148	n/a	KNIFE	KitchenTools	2	18	[0, 0, 0]	n/a	catFR1	0	R1228M
2940.053	12.644	2944376	REC_WORD	12.644	n/a	CAULIFLOWER	n/a	-999	18	[0, 0, 0]	n/a	catFR1	0	R1228M
2952.697	75.874	2957019	REC_END	n/a	n/a	n/a	n/a	-999	18	[0, 0, 0]	n/a	catFR1	0	R1228M
3028.571	0.5	3032889	TRIAL	n/a	n/a	n/a	n/a	-999	19	[0, 0, 0]	n/a	catFR1	0	R1228M
3029.071	10.428	3033389	COUNTDOWN_START	n/a	n/a	n/a	n/a	-999	19	[0, 0, 0]	n/a	catFR1	0	R1228M
3039.499	0.007	3043816	COUNTDOWN_END	n/a	n/a	n/a	n/a	-999	19	[0, 0, 0]	n/a	catFR1	0	R1228M
3039.506	1.617	3043823	ORIENT	n/a	n/a	n/a	n/a	-999	19	[0, 0, 0]	n/a	catFR1	0	R1228M
3041.123	1.984	3045440	ORIENT_OFF	n/a	n/a	n/a	n/a	-999	19	[0, 0, 0]	n/a	catFR1	0	R1228M
3043.107	1.616	3047424	WORD	n/a	wordpools/wordpool_categorized_EN.txt	RADIO	Electronics	1	19	[0, 0, 0]	n/a	catFR1	0	R1228M
3044.723	1.0	3049040	WORD_OFF	n/a	n/a	RADIO	n/a	1	19	[0, 0, 0]	n/a	catFR1	0	R1228M
3045.723	1.618	3050040	WORD	n/a	wordpools/wordpool_categorized_EN.txt	PRINTER	Electronics	2	19	[0, 0, 0]	n/a	catFR1	0	R1228M
3047.341	1.017	3051658	WORD_OFF	n/a	n/a	PRINTER	n/a	2	19	[0, 0, 0]	n/a	catFR1	0	R1228M
3048.358	1.617	3052675	WORD	n/a	wordpools/wordpool_categorized_EN.txt	BLUEBIRD	Birds	3	19	[0, 0, 0]	n/a	catFR1	0	R1228M
3049.975	0.883	3054292	WORD_OFF	n/a	n/a	BLUEBIRD	n/a	3	19	[0, 0, 0]	n/a	catFR1	0	R1228M
3050.858	1.618	3055175	WORD	n/a	wordpools/wordpool_categorized_EN.txt	ROBIN	Birds	4	19	[0, 0, 0]	n/a	catFR1	0	R1228M
3052.476	0.966	3056793	WORD_OFF	n/a	n/a	ROBIN	n/a	4	19	[0, 0, 0]	n/a	catFR1	0	R1228M
3053.442	1.617	3057759	WORD	n/a	wordpools/wordpool_categorized_EN.txt	FOREST	Landscapes	5	19	[0, 0, 0]	n/a	catFR1	0	R1228M
3055.059	0.867	3059376	WORD_OFF	n/a	n/a	FOREST	n/a	5	19	[0, 0, 0]	n/a	catFR1	0	R1228M
3055.926	1.617	3060243	WORD	n/a	wordpools/wordpool_categorized_EN.txt	ISLAND	Landscapes	6	19	[0, 0, 0]	n/a	catFR1	0	R1228M
3057.543	0.9	3061859	WORD_OFF	n/a	n/a	ISLAND	n/a	6	19	[0, 0, 0]	n/a	catFR1	0	R1228M
3058.443	1.617	3062759	WORD	n/a	wordpools/wordpool_categorized_EN.txt	SCANNER	Electronics	7	19	[0, 0, 0]	n/a	catFR1	0	R1228M
3060.06	0.967	3064376	WORD_OFF	n/a	n/a	SCANNER	n/a	7	19	[0, 0, 0]	n/a	catFR1	0	R1228M
3061.027	1.617	3065343	WORD	n/a	wordpools/wordpool_categorized_EN.txt	STEREO	Electronics	8	19	[0, 0, 0]	n/a	catFR1	0	R1228M
3062.644	0.884	3066960	WORD_OFF	n/a	n/a	STEREO	n/a	8	19	[0, 0, 0]	n/a	catFR1	0	R1228M
3063.528	1.617	3067844	WORD	n/a	wordpools/wordpool_categorized_EN.txt	CARDINAL	Birds	9	19	[0, 0, 0]	n/a	catFR1	0	R1228M
3065.145	0.867	3069461	WORD_OFF	n/a	n/a	CARDINAL	n/a	9	19	[0, 0, 0]	n/a	catFR1	0	R1228M
3066.012	1.617	3070328	WORD	n/a	wordpools/wordpool_categorized_EN.txt	GOOSE	Birds	10	19	[0, 0, 0]	n/a	catFR1	0	R1228M
3067.629	0.766	3071945	WORD_OFF	n/a	n/a	GOOSE	n/a	10	19	[0, 0, 0]	n/a	catFR1	0	R1228M
3068.395	1.617	3072711	WORD	n/a	wordpools/wordpool_categorized_EN.txt	WOODS	Landscapes	11	19	[0, 0, 0]	n/a	catFR1	0	R1228M
3070.012	0.951	3074328	WORD_OFF	n/a	n/a	WOODS	n/a	11	19	[0, 0, 0]	n/a	catFR1	0	R1228M
3070.963	1.616	3075279	WORD	n/a	wordpools/wordpool_categorized_EN.txt	BEACH	Landscapes	12	19	[0, 0, 0]	n/a	catFR1	0	R1228M
3072.579	0.001	3076895	WORD_OFF	n/a	n/a	BEACH	n/a	12	19	[0, 0, 0]	n/a	catFR1	0	R1228M
3072.58	0.101	3076896	ENCODING_END	n/a	n/a	n/a	n/a	-999	19	[0, 0, 0]	n/a	catFR1	0	R1228M
3072.681	0.0	3076997	DISTRACT_START	n/a	n/a	n/a	n/a	-999	19	[0, 0, 0]	n/a	catFR1	0	R1228M
3072.681	0.015	3076997	START	n/a	n/a	n/a	n/a	-999	19	[-999, -999, -999]	n/a	catFR1	0	R1228M
3072.696	3.784	3077012	PROB	3.784	n/a	n/a	n/a	-999	19	[6, 7, 4]	17	catFR1	0	R1228M
3076.48	3.518	3080795	PROB	3.518	n/a	n/a	n/a	-999	19	[5, 6, 5]	16	catFR1	0	R1228M
3079.998	4.684	3084313	PROB	4.684	n/a	n/a	n/a	-999	19	[2, 9, 5]	16	catFR1	0	R1228M
3084.682	4.617	3088997	PROB	4.617	n/a	n/a	n/a	-999	19	[8, 1, 3]	12	catFR1	0	R1228M
3089.299	2.301	3093614	PROB	2.301	n/a	n/a	n/a	-999	19	[2, 3, 6]	11	catFR1	0	R1228M
3091.6	4.031	3095915	PROB	4.031	n/a	n/a	n/a	-999	19	[5, 8, 4]	17	catFR1	0	R1228M
3095.631	0.02	3099945	STOP	n/a	n/a	n/a	n/a	-999	19	[-999, -999, -999]	n/a	catFR1	0	R1228M
3095.651	0.6	3099965	DISTRACT_END	n/a	n/a	n/a	n/a	-999	19	[0, 0, 0]	n/a	catFR1	0	R1228M
3096.251	0.516	3100565	RETRIEVAL_ORIENT	n/a	n/a	n/a	n/a	-999	19	[0, 0, 0]	n/a	catFR1	0	R1228M
3096.767	4.162	3101081	REC_START	n/a	n/a	n/a	n/a	-999	19	[0, 0, 0]	n/a	catFR1	0	R1228M
3100.929	1.226	3105243	REC_WORD	1.226	n/a	BLUEBIRD	Birds	3	19	[0, 0, 0]	n/a	catFR1	0	R1228M
3102.155	1.168	3106469	REC_WORD	1.168	n/a	ROBIN	Birds	4	19	[0, 0, 0]	n/a	catFR1	0	R1228M
3103.323	2.991	3107637	REC_WORD	2.991	n/a	FOREST	Landscapes	5	19	[0, 0, 0]	n/a	catFR1	0	R1228M
3106.314	1.654	3110628	REC_WORD_VV	1.654	n/a	<>	n/a	-999	19	[0, 0, 0]	n/a	catFR1	0	R1228M
3107.968	5.873	3112282	REC_WORD	5.873	n/a	STEREO	Electronics	8	19	[0, 0, 0]	n/a	catFR1	0	R1228M
3113.841	6.691	3118154	REC_WORD	6.691	n/a	SCANNER	Electronics	7	19	[0, 0, 0]	n/a	catFR1	0	R1228M
3120.532	1.805	3124845	REC_WORD	1.805	n/a	SCANNER	Electronics	7	19	[0, 0, 0]	n/a	catFR1	0	R1228M
3122.337	4.443	3126650	REC_WORD	4.443	n/a	PRINTER	Electronics	2	19	[0, 0, 0]	n/a	catFR1	0	R1228M
3126.78	4.943	3131093	REC_END	n/a	n/a	n/a	n/a	-999	19	[0, 0, 0]	n/a	catFR1	0	R1228M
3131.723	0.5	3136035	TRIAL	n/a	n/a	n/a	n/a	-999	20	[0, 0, 0]	n/a	catFR1	0	R1228M
3132.223	10.428	3136535	COUNTDOWN_START	n/a	n/a	n/a	n/a	-999	20	[0, 0, 0]	n/a	catFR1	0	R1228M
3142.651	0.009	3146963	COUNTDOWN_END	n/a	n/a	n/a	n/a	-999	20	[0, 0, 0]	n/a	catFR1	0	R1228M
3142.66	1.617	3146972	ORIENT	n/a	n/a	n/a	n/a	-999	20	[0, 0, 0]	n/a	catFR1	0	R1228M
3144.277	2.134	3148589	ORIENT_OFF	n/a	n/a	n/a	n/a	-999	20	[0, 0, 0]	n/a	catFR1	0	R1228M
3146.411	1.616	3150722	WORD	n/a	wordpools/wordpool_categorized_EN.txt	BASKETBALL	Toys	1	20	[0, 0, 0]	n/a	catFR1	0	R1228M
3148.027	0.934	3152338	WORD_OFF	n/a	n/a	BASKETBALL	n/a	1	20	[0, 0, 0]	n/a	catFR1	0	R1228M
3148.961	1.617	3153272	WORD	n/a	wordpools/wordpool_categorized_EN.txt	BLOCKS	Toys	2	20	[0, 0, 0]	n/a	catFR1	0	R1228M
3150.578	0.783	3154889	WORD_OFF	n/a	n/a	BLOCKS	n/a	2	20	[0, 0, 0]	n/a	catFR1	0	R1228M
3151.361	1.617	3155672	WORD	n/a	wordpools/wordpool_categorized_EN.txt	FISH	OceanAnimals	3	20	[0, 0, 0]	n/a	catFR1	0	R1228M
3152.978	0.901	3157289	WORD_OFF	n/a	n/a	FISH	n/a	3	20	[0, 0, 0]	n/a	catFR1	0	R1228M
3153.879	1.617	3158190	WORD	n/a	wordpools/wordpool_categorized_EN.txt	DOLPHIN	OceanAnimals	4	20	[0, 0, 0]	n/a	catFR1	0	R1228M
3155.496	0.766	3159807	WORD_OFF	n/a	n/a	DOLPHIN	n/a	4	20	[0, 0, 0]	n/a	catFR1	0	R1228M
3156.262	1.617	3160573	WORD	n/a	wordpools/wordpool_categorized_EN.txt	DRIZZLE	Weather	5	20	[0, 0, 0]	n/a	catFR1	0	R1228M
3157.879	0.784	3162190	WORD_OFF	n/a	n/a	DRIZZLE	n/a	5	20	[0, 0, 0]	n/a	catFR1	0	R1228M
3158.663	1.617	3162974	WORD	n/a	wordpools/wordpool_categorized_EN.txt	HURRICANE	Weather	6	20	[0, 0, 0]	n/a	catFR1	0	R1228M
3160.28	0.767	3164591	WORD_OFF	n/a	n/a	HURRICANE	n/a	6	20	[0, 0, 0]	n/a	catFR1	0	R1228M
3161.047	1.617	3165358	WORD	n/a	wordpools/wordpool_categorized_EN.txt	SHRIMP	OceanAnimals	7	20	[0, 0, 0]	n/a	catFR1	0	R1228M
3162.664	0.833	3166975	WORD_OFF	n/a	n/a	SHRIMP	n/a	7	20	[0, 0, 0]	n/a	catFR1	0	R1228M
3163.497	1.617	3167808	WORD	n/a	wordpools/wordpool_categorized_EN.txt	CRAB	OceanAnimals	8	20	[0, 0, 0]	n/a	catFR1	0	R1228M
3165.114	0.967	3169424	WORD_OFF	n/a	n/a	CRAB	n/a	8	20	[0, 0, 0]	n/a	catFR1	0	R1228M
3166.081	1.617	3170391	WORD	n/a	wordpools/wordpool_categorized_EN.txt	PUZZLE	Toys	9	20	[0, 0, 0]	n/a	catFR1	0	R1228M
3167.698	0.85	3172008	WORD_OFF	n/a	n/a	PUZZLE	n/a	9	20	[0, 0, 0]	n/a	catFR1	0	R1228M
3168.548	1.617	3172858	WORD	n/a	wordpools/wordpool_categorized_EN.txt	BARBIE	Toys	10	20	[0, 0, 0]	n/a	catFR1	0	R1228M
3170.165	0.967	3174475	WORD_OFF	n/a	n/a	BARBIE	n/a	10	20	[0, 0, 0]	n/a	catFR1	0	R1228M
3171.132	1.616	3175442	WORD	n/a	wordpools/wordpool_categorized_EN.txt	THUNDER	Weather	11	20	[0, 0, 0]	n/a	catFR1	0	R1228M
3172.748	0.801	3177058	WORD_OFF	n/a	n/a	THUNDER	n/a	11	20	[0, 0, 0]	n/a	catFR1	0	R1228M
3173.549	1.617	3177859	WORD	n/a	wordpools/wordpool_categorized_EN.txt	SNOW	Weather	12	20	[0, 0, 0]	n/a	catFR1	0	R1228M
3175.166	0.0	3179476	ENCODING_END	n/a	n/a	n/a	n/a	-999	20	[0, 0, 0]	n/a	catFR1	0	R1228M
3175.166	0.103	3179476	WORD_OFF	n/a	n/a	SNOW	n/a	12	20	[0, 0, 0]	n/a	catFR1	0	R1228M
3175.269	0.0	3179579	DISTRACT_START	n/a	n/a	n/a	n/a	-999	20	[0, 0, 0]	n/a	catFR1	0	R1228M
3175.269	0.014	3179579	START	n/a	n/a	n/a	n/a	-999	20	[-999, -999, -999]	n/a	catFR1	0	R1228M
3175.283	3.134	3179593	PROB	3.134	n/a	n/a	n/a	-999	20	[5, 4, 9]	18	catFR1	0	R1228M
3178.417	2.617	3182727	PROB	2.617	n/a	n/a	n/a	-999	20	[1, 2, 9]	12	catFR1	0	R1228M
3181.034	3.884	3185344	PROB	3.884	n/a	n/a	n/a	-999	20	[5, 1, 8]	13	catFR1	0	R1228M
3184.918	4.101	3189227	PROB	4.101	n/a	n/a	n/a	-999	20	[2, 2, 3]	7	catFR1	0	R1228M
3189.019	3.55	3193328	PROB	3.55	n/a	n/a	n/a	-999	20	[4, 9, 5]	18	catFR1	0	R1228M
3192.569	3.052	3196878	PROB	3.052	n/a	n/a	n/a	-999	20	[1, 3, 4]	8	catFR1	0	R1228M
3195.621	0.016	3199930	STOP	n/a	n/a	n/a	n/a	-999	20	[-999, -999, -999]	n/a	catFR1	0	R1228M
3195.637	0.6	3199946	DISTRACT_END	n/a	n/a	n/a	n/a	-999	20	[0, 0, 0]	n/a	catFR1	0	R1228M
3196.237	0.516	3200546	RETRIEVAL_ORIENT	n/a	n/a	n/a	n/a	-999	20	[0, 0, 0]	n/a	catFR1	0	R1228M
3196.753	2.782	3201062	REC_START	n/a	n/a	n/a	n/a	-999	20	[0, 0, 0]	n/a	catFR1	0	R1228M
3199.535	0.608	3203843	REC_WORD	0.608	n/a	THUNDER	Weather	11	20	[0, 0, 0]	n/a	catFR1	0	R1228M
3200.143	2.251	3204451	REC_WORD	2.251	n/a	HURRICANE	Weather	6	20	[0, 0, 0]	n/a	catFR1	0	R1228M
3202.394	1.977	3206702	REC_WORD_VV	1.977	n/a	<>	n/a	-999	20	[0, 0, 0]	n/a	catFR1	0	R1228M
3204.371	3.651	3208679	REC_WORD	3.651	n/a	CRAB	OceanAnimals	8	20	[0, 0, 0]	n/a	catFR1	0	R1228M
3208.022	1.0	3212330	REC_WORD	1.0	n/a	SHRIMP	OceanAnimals	7	20	[0, 0, 0]	n/a	catFR1	0	R1228M
3209.022	2.466	3213330	REC_WORD_VV	2.466	n/a	<>	n/a	-999	20	[0, 0, 0]	n/a	catFR1	0	R1228M
3211.488	1.183	3215796	REC_WORD	1.183	n/a	FISH	OceanAnimals	3	20	[0, 0, 0]	n/a	catFR1	0	R1228M
3212.671	0.532	3216979	REC_WORD_VV	0.532	n/a	<>	n/a	-999	20	[0, 0, 0]	n/a	catFR1	0	R1228M
3213.203	1.516	3217511	REC_WORD	1.516	n/a	FISH	OceanAnimals	3	20	[0, 0, 0]	n/a	catFR1	0	R1228M
3214.719	4.764	3219027	REC_WORD_VV	4.764	n/a	<>	n/a	-999	20	[0, 0, 0]	n/a	catFR1	0	R1228M
3219.483	2.379	3223790	REC_WORD_VV	2.379	n/a	<>	n/a	-999	20	[0, 0, 0]	n/a	catFR1	0	R1228M
3221.862	4.904	3226169	REC_WORD_VV	4.904	n/a	<>	n/a	-999	20	[0, 0, 0]	n/a	catFR1	0	R1228M
3226.766	5.178	3231073	REC_END	n/a	n/a	n/a	n/a	-999	20	[0, 0, 0]	n/a	catFR1	0	R1228M
3231.944	0.5	3236251	TRIAL	n/a	n/a	n/a	n/a	-999	21	[0, 0, 0]	n/a	catFR1	0	R1228M
3232.444	10.428	3236751	COUNTDOWN_START	n/a	n/a	n/a	n/a	-999	21	[0, 0, 0]	n/a	catFR1	0	R1228M
3242.872	0.007	3247178	COUNTDOWN_END	n/a	n/a	n/a	n/a	-999	21	[0, 0, 0]	n/a	catFR1	0	R1228M
3242.879	1.617	3247185	ORIENT	n/a	n/a	n/a	n/a	-999	21	[0, 0, 0]	n/a	catFR1	0	R1228M
3244.496	2.25	3248802	ORIENT_OFF	n/a	n/a	n/a	n/a	-999	21	[0, 0, 0]	n/a	catFR1	0	R1228M
3246.746	1.618	3251052	WORD	n/a	wordpools/wordpool_categorized_EN.txt	SAW	Tools	1	21	[0, 0, 0]	n/a	catFR1	0	R1228M
3248.364	1.0	3252670	WORD_OFF	n/a	n/a	SAW	n/a	1	21	[0, 0, 0]	n/a	catFR1	0	R1228M
3249.364	1.617	3253670	WORD	n/a	wordpools/wordpool_categorized_EN.txt	HAMMER	Tools	2	21	[0, 0, 0]	n/a	catFR1	0	R1228M
3250.981	0.866	3255287	WORD_OFF	n/a	n/a	HAMMER	n/a	2	21	[0, 0, 0]	n/a	catFR1	0	R1228M
3251.847	1.618	3256153	WORD	n/a	wordpools/wordpool_categorized_EN.txt	FUDGE	Desserts	3	21	[0, 0, 0]	n/a	catFR1	0	R1228M
3253.465	0.8	3257770	WORD_OFF	n/a	n/a	FUDGE	n/a	3	21	[0, 0, 0]	n/a	catFR1	0	R1228M
