onset	duration	sample	trial_type	response_time	stim_file	item_name	category	serialpos	list	test	answer	experiment	session	subject
0.0	1.565	940	INSTRUCT_START	n/a	n/a	n/a	n/a	-999	-999	[0, 0, 0]	n/a	catFR1	2	R1465D
1.565	21.965	2995	INSTRUCT_END	n/a	n/a	n/a	n/a	-999	-999	[0, 0, 0]	n/a	catFR1	2	R1465D
23.53	10.35	24957	COUNTDOWN_START	n/a	n/a	n/a	n/a	-999	-999	[0, 0, 0]	n/a	catFR1	2	R1465D
33.88	0.0	35309	COUNTDOWN_END	n/a	n/a	n/a	n/a	-999	-999	[0, 0, 0]	n/a	catFR1	2	R1465D
33.88	2.1	35309	ENCODING_START	n/a	n/a	n/a	n/a	-999	-1	[0, 0, 0]	n/a	catFR1	2	R1465D
35.98	1.6	37401	WORD	n/a	n/a	PEAR	Fruit	1	-1	[0, 0, 0]	n/a	catFR1	2	R1465D
37.58	0.8	39002	WORD_OFF	n/a	n/a	PEAR	Fruit	1	-1	[0, 0, 0]	n/a	catFR1	2	R1465D
38.38	1.601	39807	WORD	n/a	n/a	BANANA	Fruit	2	-1	[0, 0, 0]	n/a	catFR1	2	R1465D
39.981	0.866	41408	WORD_OFF	n/a	n/a	BANANA	Fruit	2	-1	[0, 0, 0]	n/a	catFR1	2	R1465D
40.847	1.6	42272	WORD	n/a	n/a	CHICKEN	FarmAnimals	3	-1	[0, 0, 0]	n/a	catFR1	2	R1465D
42.447	0.95	43873	WORD_OFF	n/a	n/a	CHICKEN	FarmAnimals	3	-1	[0, 0, 0]	n/a	catFR1	2	R1465D
43.397	1.617	44826	WORD	n/a	n/a	GOAT	FarmAnimals	4	-1	[0, 0, 0]	n/a	catFR1	2	R1465D
45.014	0.95	46437	WORD_OFF	n/a	n/a	GOAT	FarmAnimals	4	-1	[0, 0, 0]	n/a	catFR1	2	R1465D
45.964	1.6	47390	WORD	n/a	n/a	EVERGREEN	Trees	5	-1	[0, 0, 0]	n/a	catFR1	2	R1465D
47.564	0.883	48991	WORD_OFF	n/a	n/a	EVERGREEN	Trees	5	-1	[0, 0, 0]	n/a	catFR1	2	R1465D
48.447	1.6	49875	WORD	n/a	n/a	OAK	Trees	6	-1	[0, 0, 0]	n/a	catFR1	2	R1465D
50.047	0.866	51475	WORD_OFF	n/a	n/a	OAK	Trees	6	-1	[0, 0, 0]	n/a	catFR1	2	R1465D
50.913	1.601	52340	WORD	n/a	n/a	CALF	FarmAnimals	7	-1	[0, 0, 0]	n/a	catFR1	2	R1465D
52.514	0.765	53941	WORD_OFF	n/a	n/a	CALF	FarmAnimals	7	-1	[0, 0, 0]	n/a	catFR1	2	R1465D
53.279	1.602	54707	WORD	n/a	n/a	LAMB	FarmAnimals	8	-1	[0, 0, 0]	n/a	catFR1	2	R1465D
54.881	0.8	56308	WORD_OFF	n/a	n/a	LAMB	FarmAnimals	8	-1	[0, 0, 0]	n/a	catFR1	2	R1465D
55.681	1.616	57103	WORD	n/a	n/a	HICKORY	Trees	9	-1	[0, 0, 0]	n/a	catFR1	2	R1465D
57.297	0.783	58724	WORD_OFF	n/a	n/a	HICKORY	Trees	9	-1	[0, 0, 0]	n/a	catFR1	2	R1465D
58.08	1.6	59500	WORD	n/a	n/a	SPRUCE	Trees	10	-1	[0, 0, 0]	n/a	catFR1	2	R1465D
59.68	0.984	61101	WORD_OFF	n/a	n/a	SPRUCE	Trees	10	-1	[0, 0, 0]	n/a	catFR1	2	R1465D
60.664	1.616	62093	WORD	n/a	n/a	LEMON	Fruit	11	-1	[0, 0, 0]	n/a	catFR1	2	R1465D
62.28	0.867	63704	WORD_OFF	n/a	n/a	LEMON	Fruit	11	-1	[0, 0, 0]	n/a	catFR1	2	R1465D
63.147	1.616	64568	WORD	n/a	n/a	STRAWBERRY	Fruit	12	-1	[0, 0, 0]	n/a	catFR1	2	R1465D
64.763	0.002	66188	WORD_OFF	n/a	n/a	STRAWBERRY	Fruit	12	-1	[0, 0, 0]	n/a	catFR1	2	R1465D
64.765	0.0	66188	ENCODING_END	n/a	n/a	n/a	n/a	-999	-1	[0, 0, 0]	n/a	catFR1	2	R1465D
64.765	0.0	66188	DISTRACT_START	n/a	n/a	n/a	n/a	-999	-1	[0, 0, 0]	n/a	catFR1	2	R1465D
64.765	0.0	66188	START	n/a	n/a	n/a	n/a	-999	-1	[-999, -999, -999]	n/a	catFR1	2	R1465D
64.765	2.466	66188	PROB	2.466	n/a	n/a	n/a	-999	-1	[1, 2, 3]	6	catFR1	2	R1465D
67.231	2.033	68654	PROB	2.033	n/a	n/a	n/a	-999	-1	[6, 2, 7]	15	catFR1	2	R1465D
69.264	4.384	70687	PROB	4.384	n/a	n/a	n/a	-999	-1	[7, 5, 4]	16	catFR1	2	R1465D
73.648	1.4	75071	PROB	1.4	n/a	n/a	n/a	-999	-1	[2, 8, 1]	11	catFR1	2	R1465D
75.048	1.416	76471	PROB	1.416	n/a	n/a	n/a	-999	-1	[2, 1, 1]	4	catFR1	2	R1465D
76.464	2.15	77887	PROB	2.15	n/a	n/a	n/a	-999	-1	[8, 2, 8]	18	catFR1	2	R1465D
78.614	2.001	80037	PROB	2.001	n/a	n/a	n/a	-999	-1	[4, 2, 8]	14	catFR1	2	R1465D
80.615	2.383	82038	PROB	2.383	n/a	n/a	n/a	-999	-1	[7, 8, 3]	18	catFR1	2	R1465D
82.998	2.249	84420	PROB	2.249	n/a	n/a	n/a	-999	-1	[8, 1, 5]	14	catFR1	2	R1465D
85.247	0.0	86667	DISTRACT_END	n/a	n/a	n/a	n/a	-999	-1	[0, 0, 0]	n/a	catFR1	2	R1465D
85.247	1.084	86669	STOP	n/a	n/a	n/a	n/a	-999	-1	[-999, -999, -999]	n/a	catFR1	2	R1465D
86.331	1.599	87757	REC_START	n/a	n/a	n/a	n/a	-999	-1	[0, 0, 0]	n/a	catFR1	2	R1465D
87.93	1.713	89352	REC_WORD	1.713	n/a	OAK	Trees	6	-1	[0, 0, 0]	n/a	catFR1	2	R1465D
89.643	1.0	91065	REC_WORD	1.0	n/a	SPRUCE	Trees	10	-1	[0, 0, 0]	n/a	catFR1	2	R1465D
90.643	2.59	92065	REC_WORD_VV	2.59	n/a	<>	n/a	-999	-1	[0, 0, 0]	n/a	catFR1	2	R1465D
93.233	4.724	94655	REC_WORD	4.724	n/a	LEMON	Fruit	11	-1	[0, 0, 0]	n/a	catFR1	2	R1465D
97.957	2.59	99379	REC_WORD_VV	2.59	n/a	<>	n/a	-999	-1	[0, 0, 0]	n/a	catFR1	2	R1465D
100.547	6.79	101968	REC_WORD	6.79	n/a	GRASS	n/a	-999	-1	[0, 0, 0]	n/a	catFR1	2	R1465D
107.337	2.515	108758	REC_WORD	2.515	n/a	LILY	n/a	-999	-1	[0, 0, 0]	n/a	catFR1	2	R1465D
109.852	1.0	111273	REC_WORD_VV	1.0	n/a	<>	n/a	-999	-1	[0, 0, 0]	n/a	catFR1	2	R1465D
110.852	1.575	112273	REC_WORD_VV	1.575	n/a	<>	n/a	-999	-1	[0, 0, 0]	n/a	catFR1	2	R1465D
112.427	5.118	113848	REC_WORD_VV	5.118	n/a	<>	n/a	-999	-1	[0, 0, 0]	n/a	catFR1	2	R1465D
117.545	31.769	118970	REC_END	n/a	n/a	n/a	n/a	-999	-1	[0, 0, 0]	n/a	catFR1	2	R1465D
149.314	10.349	150734	COUNTDOWN_START	n/a	n/a	n/a	n/a	-999	1	[0, 0, 0]	n/a	catFR1	2	R1465D
159.663	0.001	161086	COUNTDOWN_END	n/a	n/a	n/a	n/a	-999	1	[0, 0, 0]	n/a	catFR1	2	R1465D
159.664	1.95	161086	ENCODING_START	n/a	n/a	n/a	n/a	-999	1	[0, 0, 0]	n/a	catFR1	2	R1465D
161.614	1.617	163031	WORD	n/a	wordpools/wordpool_categorized_EN.txt	SATIN	Fabric	1	1	[0, 0, 0]	n/a	catFR1	2	R1465D
163.231	0.832	164652	WORD_OFF	n/a	n/a	SATIN	Fabric	1	1	[0, 0, 0]	n/a	catFR1	2	R1465D
164.063	1.601	165477	WORD	n/a	wordpools/wordpool_categorized_EN.txt	FLEECE	Fabric	2	1	[0, 0, 0]	n/a	catFR1	2	R1465D
165.664	0.8	167078	WORD_OFF	n/a	n/a	FLEECE	Fabric	2	1	[0, 0, 0]	n/a	catFR1	2	R1465D
166.464	1.616	167883	WORD	n/a	wordpools/wordpool_categorized_EN.txt	STAPLER	OfficeSupplies	3	1	[0, 0, 0]	n/a	catFR1	2	R1465D
168.08	0.884	169494	WORD_OFF	n/a	n/a	STAPLER	OfficeSupplies	3	1	[0, 0, 0]	n/a	catFR1	2	R1465D
168.964	1.617	170378	WORD	n/a	wordpools/wordpool_categorized_EN.txt	ERASER	OfficeSupplies	4	1	[0, 0, 0]	n/a	catFR1	2	R1465D
170.581	0.849	171998	WORD_OFF	n/a	n/a	ERASER	OfficeSupplies	4	1	[0, 0, 0]	n/a	catFR1	2	R1465D
171.43	1.616	172853	WORD	n/a	wordpools/wordpool_categorized_EN.txt	TIGER	Zoo	5	1	[0, 0, 0]	n/a	catFR1	2	R1465D
173.046	0.768	174464	WORD_OFF	n/a	n/a	TIGER	Zoo	5	1	[0, 0, 0]	n/a	catFR1	2	R1465D
173.814	1.617	175230	WORD	n/a	wordpools/wordpool_categorized_EN.txt	ELEPHANT	Zoo	6	1	[0, 0, 0]	n/a	catFR1	2	R1465D
175.431	0.966	176850	WORD_OFF	n/a	n/a	ELEPHANT	Zoo	6	1	[0, 0, 0]	n/a	catFR1	2	R1465D
176.397	1.617	177813	WORD	n/a	wordpools/wordpool_categorized_EN.txt	SILK	Fabric	7	1	[0, 0, 0]	n/a	catFR1	2	R1465D
178.014	0.932	179434	WORD_OFF	n/a	n/a	SILK	Fabric	7	1	[0, 0, 0]	n/a	catFR1	2	R1465D
178.946	1.602	180367	WORD	n/a	wordpools/wordpool_categorized_EN.txt	NYLON	Fabric	8	1	[0, 0, 0]	n/a	catFR1	2	R1465D
180.548	0.899	181968	WORD_OFF	n/a	n/a	NYLON	Fabric	8	1	[0, 0, 0]	n/a	catFR1	2	R1465D
181.447	1.6	182861	WORD	n/a	wordpools/wordpool_categorized_EN.txt	NOTEBOOK	OfficeSupplies	9	1	[0, 0, 0]	n/a	catFR1	2	R1465D
183.047	0.9	184462	WORD_OFF	n/a	n/a	NOTEBOOK	OfficeSupplies	9	1	[0, 0, 0]	n/a	catFR1	2	R1465D
183.947	1.616	185366	WORD	n/a	wordpools/wordpool_categorized_EN.txt	BINDER	OfficeSupplies	10	1	[0, 0, 0]	n/a	catFR1	2	R1465D
185.563	0.834	186977	WORD_OFF	n/a	n/a	BINDER	OfficeSupplies	10	1	[0, 0, 0]	n/a	catFR1	2	R1465D
186.397	1.617	187812	WORD	n/a	wordpools/wordpool_categorized_EN.txt	LION	Zoo	11	1	[0, 0, 0]	n/a	catFR1	2	R1465D
188.014	0.883	189432	WORD_OFF	n/a	n/a	LION	Zoo	11	1	[0, 0, 0]	n/a	catFR1	2	R1465D
188.897	1.6	190316	WORD	n/a	wordpools/wordpool_categorized_EN.txt	CHIMPANZEE	Zoo	12	1	[0, 0, 0]	n/a	catFR1	2	R1465D
190.497	0.001	191914	PROB	0.001	n/a	n/a	n/a	-999	1	[4, 4, 1]	9	catFR1	2	R1465D
190.498	0.0	191915	START	n/a	n/a	n/a	n/a	-999	1	[-999, -999, -999]	n/a	catFR1	2	R1465D
190.496	0.002	191917	WORD_OFF	n/a	n/a	CHIMPANZEE	Zoo	12	1	[0, 0, 0]	n/a	catFR1	2	R1465D
190.498	0.0	191917	ENCODING_END	n/a	n/a	n/a	n/a	-999	1	[0, 0, 0]	n/a	catFR1	2	R1465D
190.498	2.367	191917	DISTRACT_START	n/a	n/a	n/a	n/a	-999	1	[0, 0, 0]	n/a	catFR1	2	R1465D
192.865	2.483	194282	PROB	2.483	n/a	n/a	n/a	-999	1	[3, 7, 8]	18	catFR1	2	R1465D
195.348	2.083	196764	PROB	2.083	n/a	n/a	n/a	-999	1	[6, 4, 7]	17	catFR1	2	R1465D
197.431	2.283	198847	PROB	2.283	n/a	n/a	n/a	-999	1	[5, 1, 7]	13	catFR1	2	R1465D
199.714	1.967	201130	PROB	1.967	n/a	n/a	n/a	-999	1	[8, 5, 2]	15	catFR1	2	R1465D
201.681	1.933	203097	PROB	1.933	n/a	n/a	n/a	-999	1	[2, 1, 8]	11	catFR1	2	R1465D
203.614	2.451	205030	PROB	2.451	n/a	n/a	n/a	-999	1	[7, 8, 3]	18	catFR1	2	R1465D
206.065	2.4	207481	PROB	2.4	n/a	n/a	n/a	-999	1	[6, 8, 4]	18	catFR1	2	R1465D
208.465	1.95	209881	PROB	1.95	n/a	n/a	n/a	-999	1	[6, 2, 2]	10	catFR1	2	R1465D
210.415	2.766	211831	PROB	2.766	n/a	n/a	n/a	-999	1	[5, 6, 7]	18	catFR1	2	R1465D
213.181	0.0	214596	DISTRACT_END	n/a	n/a	n/a	n/a	-999	1	[0, 0, 0]	n/a	catFR1	2	R1465D
213.181	1.383	214596	STOP	n/a	n/a	n/a	n/a	-999	1	[-999, -999, -999]	n/a	catFR1	2	R1465D
214.564	1.12	215980	REC_START	n/a	n/a	n/a	n/a	-999	1	[0, 0, 0]	n/a	catFR1	2	R1465D
215.684	1.348	217099	REC_WORD	1.348	n/a	SATIN	Fabric	1	1	[0, 0, 0]	n/a	catFR1	2	R1465D
217.032	2.028	218447	REC_WORD	2.028	n/a	FLEECE	Fabric	2	1	[0, 0, 0]	n/a	catFR1	2	R1465D
219.06	5.616	220475	REC_WORD	5.616	n/a	CHIMPANZEE	Zoo	12	1	[0, 0, 0]	n/a	catFR1	2	R1465D
224.676	3.344	226091	REC_WORD	3.344	n/a	SUEDE	n/a	-999	1	[0, 0, 0]	n/a	catFR1	2	R1465D
228.02	1.528	229435	REC_WORD	1.528	n/a	LION	Zoo	11	1	[0, 0, 0]	n/a	catFR1	2	R1465D
229.548	5.876	230963	REC_WORD	5.876	n/a	TIGER	Zoo	5	1	[0, 0, 0]	n/a	catFR1	2	R1465D
235.424	6.572	236838	REC_WORD	6.572	n/a	SILK	Fabric	7	1	[0, 0, 0]	n/a	catFR1	2	R1465D
241.996	3.747	243410	REC_WORD	3.747	n/a	DENIM	n/a	-999	1	[0, 0, 0]	n/a	catFR1	2	R1465D
245.743	7.237	247155	REC_END	n/a	n/a	n/a	n/a	-999	1	[0, 0, 0]	n/a	catFR1	2	R1465D
252.98	10.351	254393	COUNTDOWN_START	n/a	n/a	n/a	n/a	-999	1	[0, 0, 0]	n/a	catFR1	2	R1465D
263.331	0.0	264745	COUNTDOWN_END	n/a	n/a	n/a	n/a	-999	1	[0, 0, 0]	n/a	catFR1	2	R1465D
263.331	1.916	264745	ENCODING_START	n/a	n/a	n/a	n/a	-999	2	[0, 0, 0]	n/a	catFR1	2	R1465D
265.247	1.616	266661	WORD	n/a	wordpools/wordpool_categorized_EN.txt	WALNUT	Trees	1	2	[0, 0, 0]	n/a	catFR1	2	R1465D
266.863	0.9	268281	WORD_OFF	n/a	n/a	WALNUT	Trees	1	2	[0, 0, 0]	n/a	catFR1	2	R1465D
267.763	1.601	269175	WORD	n/a	wordpools/wordpool_categorized_EN.txt	CEDAR	Trees	2	2	[0, 0, 0]	n/a	catFR1	2	R1465D
269.364	0.85	270776	WORD_OFF	n/a	n/a	CEDAR	Trees	2	2	[0, 0, 0]	n/a	catFR1	2	R1465D
270.214	1.6	271631	WORD	n/a	wordpools/wordpool_categorized_EN.txt	REFRIGERATOR	Appliances	3	2	[0, 0, 0]	n/a	catFR1	2	R1465D
271.814	0.767	273232	WORD_OFF	n/a	n/a	REFRIGERATOR	Appliances	3	2	[0, 0, 0]	n/a	catFR1	2	R1465D
272.581	1.616	273998	WORD	n/a	wordpools/wordpool_categorized_EN.txt	BLENDER	Appliances	4	2	[0, 0, 0]	n/a	catFR1	2	R1465D
274.197	0.984	275608	WORD_OFF	n/a	n/a	BLENDER	Appliances	4	2	[0, 0, 0]	n/a	catFR1	2	R1465D
275.181	1.616	276591	WORD	n/a	wordpools/wordpool_categorized_EN.txt	LADLE	KitchenTools	5	2	[0, 0, 0]	n/a	catFR1	2	R1465D
276.797	0.767	278211	WORD_OFF	n/a	n/a	LADLE	KitchenTools	5	2	[0, 0, 0]	n/a	catFR1	2	R1465D
277.564	1.617	278977	WORD	n/a	wordpools/wordpool_categorized_EN.txt	TONGS	KitchenTools	6	2	[0, 0, 0]	n/a	catFR1	2	R1465D
279.181	0.817	280588	WORD_OFF	n/a	n/a	TONGS	KitchenTools	6	2	[0, 0, 0]	n/a	catFR1	2	R1465D
279.998	1.616	281413	WORD	n/a	wordpools/wordpool_categorized_EN.txt	DRYER	Appliances	7	2	[0, 0, 0]	n/a	catFR1	2	R1465D
281.614	0.95	283024	WORD_OFF	n/a	n/a	DRYER	Appliances	7	2	[0, 0, 0]	n/a	catFR1	2	R1465D
282.564	1.6	283977	WORD	n/a	wordpools/wordpool_categorized_EN.txt	IRON	Appliances	8	2	[0, 0, 0]	n/a	catFR1	2	R1465D
284.164	1.0	285577	WORD_OFF	n/a	n/a	IRON	Appliances	8	2	[0, 0, 0]	n/a	catFR1	2	R1465D
285.164	1.616	286579	WORD	n/a	wordpools/wordpool_categorized_EN.txt	KNIFE	KitchenTools	9	2	[0, 0, 0]	n/a	catFR1	2	R1465D
286.78	0.817	288190	WORD_OFF	n/a	n/a	KNIFE	KitchenTools	9	2	[0, 0, 0]	n/a	catFR1	2	R1465D
287.597	1.617	289005	WORD	n/a	wordpools/wordpool_categorized_EN.txt	PEELER	KitchenTools	10	2	[0, 0, 0]	n/a	catFR1	2	R1465D
289.214	1.0	290626	WORD_OFF	n/a	n/a	PEELER	KitchenTools	10	2	[0, 0, 0]	n/a	catFR1	2	R1465D
290.214	1.6	291628	WORD	n/a	wordpools/wordpool_categorized_EN.txt	MAPLE	Trees	11	2	[0, 0, 0]	n/a	catFR1	2	R1465D
291.814	0.75	293229	WORD_OFF	n/a	n/a	MAPLE	Trees	11	2	[0, 0, 0]	n/a	catFR1	2	R1465D
292.564	1.617	293975	WORD	n/a	wordpools/wordpool_categorized_EN.txt	WILLOW	Trees	12	2	[0, 0, 0]	n/a	catFR1	2	R1465D
294.181	0.001	295592	PROB	0.001	n/a	n/a	n/a	-999	2	[2, 2, 1]	5	catFR1	2	R1465D
294.182	0.0	295593	START	n/a	n/a	n/a	n/a	-999	2	[-999, -999, -999]	n/a	catFR1	2	R1465D
294.181	0.001	295596	WORD_OFF	n/a	n/a	WILLOW	Trees	12	2	[0, 0, 0]	n/a	catFR1	2	R1465D
294.182	0.0	295596	ENCODING_END	n/a	n/a	n/a	n/a	-999	2	[0, 0, 0]	n/a	catFR1	2	R1465D
294.182	3.501	295596	DISTRACT_START	n/a	n/a	n/a	n/a	-999	2	[0, 0, 0]	n/a	catFR1	2	R1465D
297.683	2.414	299094	PROB	2.414	n/a	n/a	n/a	-999	2	[5, 7, 7]	19	catFR1	2	R1465D
300.097	1.617	301508	PROB	1.617	n/a	n/a	n/a	-999	2	[6, 1, 4]	11	catFR1	2	R1465D
301.714	1.867	303125	PROB	1.867	n/a	n/a	n/a	-999	2	[1, 3, 4]	8	catFR1	2	R1465D
303.581	2.3	304992	PROB	2.3	n/a	n/a	n/a	-999	2	[6, 6, 2]	14	catFR1	2	R1465D
305.881	2.467	307291	PROB	2.467	n/a	n/a	n/a	-999	2	[7, 8, 2]	17	catFR1	2	R1465D
308.348	1.884	309758	PROB	1.884	n/a	n/a	n/a	-999	2	[8, 3, 2]	13	catFR1	2	R1465D
310.232	1.467	311642	PROB	1.467	n/a	n/a	n/a	-999	2	[7, 7, 7]	21	catFR1	2	R1465D
311.699	2.399	313109	PROB	2.399	n/a	n/a	n/a	-999	2	[7, 3, 5]	15	catFR1	2	R1465D
314.098	1.899	315508	PROB	1.899	n/a	n/a	n/a	-999	2	[1, 5, 8]	14	catFR1	2	R1465D
315.997	0.0	317407	STOP	n/a	n/a	n/a	n/a	-999	2	[-999, -999, -999]	n/a	catFR1	2	R1465D
315.997	1.3	317410	DISTRACT_END	n/a	n/a	n/a	n/a	-999	2	[0, 0, 0]	n/a	catFR1	2	R1465D
317.297	1.804	318706	REC_START	n/a	n/a	n/a	n/a	-999	2	[0, 0, 0]	n/a	catFR1	2	R1465D
319.101	1.125	320511	REC_WORD	1.125	n/a	LADLE	KitchenTools	5	2	[0, 0, 0]	n/a	catFR1	2	R1465D
320.226	1.066	321636	REC_WORD	1.066	n/a	BLENDER	Appliances	4	2	[0, 0, 0]	n/a	catFR1	2	R1465D
321.292	15.342	322702	REC_WORD	15.342	n/a	MIXER	n/a	-999	2	[0, 0, 0]	n/a	catFR1	2	R1465D
336.634	5.766	338043	REC_WORD	5.766	n/a	KNIFE	KitchenTools	9	2	[0, 0, 0]	n/a	catFR1	2	R1465D
342.4	3.872	343808	REC_WORD	3.872	n/a	PLATE	n/a	-999	2	[0, 0, 0]	n/a	catFR1	2	R1465D
346.272	2.241	347680	REC_WORD	2.241	n/a	FORK	n/a	-999	2	[0, 0, 0]	n/a	catFR1	2	R1465D
348.513	13.851	349920	REC_END	n/a	n/a	n/a	n/a	-999	2	[0, 0, 0]	n/a	catFR1	2	R1465D
362.364	10.349	363769	COUNTDOWN_START	n/a	n/a	n/a	n/a	-999	2	[0, 0, 0]	n/a	catFR1	2	R1465D
372.713	0.0	374121	COUNTDOWN_END	n/a	n/a	n/a	n/a	-999	2	[0, 0, 0]	n/a	catFR1	2	R1465D
372.713	1.968	374121	ENCODING_START	n/a	n/a	n/a	n/a	-999	3	[0, 0, 0]	n/a	catFR1	2	R1465D
374.681	1.615	376085	WORD	n/a	wordpools/wordpool_categorized_EN.txt	PINE	Trees	1	3	[0, 0, 0]	n/a	catFR1	2	R1465D
376.296	0.951	377706	WORD_OFF	n/a	n/a	PINE	Trees	1	3	[0, 0, 0]	n/a	catFR1	2	R1465D
377.247	1.617	378658	WORD	n/a	wordpools/wordpool_categorized_EN.txt	ELM	Trees	2	3	[0, 0, 0]	n/a	catFR1	2	R1465D
378.864	0.949	380269	WORD_OFF	n/a	n/a	ELM	Trees	2	3	[0, 0, 0]	n/a	catFR1	2	R1465D
379.813	1.6	381222	WORD	n/a	wordpools/wordpool_categorized_EN.txt	BASEBALL	Toys	3	3	[0, 0, 0]	n/a	catFR1	2	R1465D
381.413	0.784	382823	WORD_OFF	n/a	n/a	BASEBALL	Toys	3	3	[0, 0, 0]	n/a	catFR1	2	R1465D
382.197	1.6	383609	WORD	n/a	wordpools/wordpool_categorized_EN.txt	PUZZLE	Toys	4	3	[0, 0, 0]	n/a	catFR1	2	R1465D
383.797	0.85	385200	WORD_OFF	n/a	n/a	PUZZLE	Toys	4	3	[0, 0, 0]	n/a	catFR1	2	R1465D
384.647	1.6	386054	WORD	n/a	wordpools/wordpool_categorized_EN.txt	ORGAN	Instruments	5	3	[0, 0, 0]	n/a	catFR1	2	R1465D
386.247	0.8	387655	WORD_OFF	n/a	n/a	ORGAN	Instruments	5	3	[0, 0, 0]	n/a	catFR1	2	R1465D
387.047	1.617	388451	WORD	n/a	wordpools/wordpool_categorized_EN.txt	FLUTE	Instruments	6	3	[0, 0, 0]	n/a	catFR1	2	R1465D
388.664	0.932	390071	WORD_OFF	n/a	n/a	FLUTE	Instruments	6	3	[0, 0, 0]	n/a	catFR1	2	R1465D
389.596	1.602	391004	WORD	n/a	wordpools/wordpool_categorized_EN.txt	BIRCH	Trees	7	3	[0, 0, 0]	n/a	catFR1	2	R1465D
391.198	0.916	392605	WORD_OFF	n/a	n/a	BIRCH	Trees	7	3	[0, 0, 0]	n/a	catFR1	2	R1465D
392.114	1.617	393519	WORD	n/a	wordpools/wordpool_categorized_EN.txt	CYPRESS	Trees	8	3	[0, 0, 0]	n/a	catFR1	2	R1465D
393.731	0.933	395139	WORD_OFF	n/a	n/a	CYPRESS	Trees	8	3	[0, 0, 0]	n/a	catFR1	2	R1465D
394.664	1.6	396072	WORD	n/a	wordpools/wordpool_categorized_EN.txt	TUBA	Instruments	9	3	[0, 0, 0]	n/a	catFR1	2	R1465D
396.264	0.783	397673	WORD_OFF	n/a	n/a	TUBA	Instruments	9	3	[0, 0, 0]	n/a	catFR1	2	R1465D
397.047	1.617	398449	WORD	n/a	wordpools/wordpool_categorized_EN.txt	TRUMPET	Instruments	10	3	[0, 0, 0]	n/a	catFR1	2	R1465D
398.664	0.783	400070	WORD_OFF	n/a	n/a	TRUMPET	Instruments	10	3	[0, 0, 0]	n/a	catFR1	2	R1465D
399.447	1.6	400856	WORD	n/a	wordpools/wordpool_categorized_EN.txt	DOLL	Toys	11	3	[0, 0, 0]	n/a	catFR1	2	R1465D
401.047	0.984	402457	WORD_OFF	n/a	n/a	DOLL	Toys	11	3	[0, 0, 0]	n/a	catFR1	2	R1465D
402.031	1.6	403439	WORD	n/a	wordpools/wordpool_categorized_EN.txt	BALL	Toys	12	3	[0, 0, 0]	n/a	catFR1	2	R1465D
403.631	0.001	405036	PROB	0.001	n/a	n/a	n/a	-999	3	[7, 2, 3]	12	catFR1	2	R1465D
403.632	0.0	405037	START	n/a	n/a	n/a	n/a	-999	3	[-999, -999, -999]	n/a	catFR1	2	R1465D
403.631	0.001	405040	WORD_OFF	n/a	n/a	BALL	Toys	12	3	[0, 0, 0]	n/a	catFR1	2	R1465D
403.632	0.0	405040	ENCODING_END	n/a	n/a	n/a	n/a	-999	3	[0, 0, 0]	n/a	catFR1	2	R1465D
403.632	2.899	405040	DISTRACT_START	n/a	n/a	n/a	n/a	-999	3	[0, 0, 0]	n/a	catFR1	2	R1465D
406.531	2.099	407936	PROB	2.099	n/a	n/a	n/a	-999	3	[7, 1, 7]	15	catFR1	2	R1465D
408.63	2.318	410035	PROB	2.318	n/a	n/a	n/a	-999	3	[6, 7, 6]	19	catFR1	2	R1465D
410.948	1.883	412353	PROB	1.883	n/a	n/a	n/a	-999	3	[1, 5, 3]	9	catFR1	2	R1465D
412.831	2.35	414236	PROB	2.35	n/a	n/a	n/a	-999	3	[3, 8, 6]	17	catFR1	2	R1465D
415.181	2.284	416586	PROB	2.284	n/a	n/a	n/a	-999	3	[5, 8, 7]	20	catFR1	2	R1465D
417.465	2.016	418869	PROB	2.016	n/a	n/a	n/a	-999	3	[1, 7, 6]	14	catFR1	2	R1465D
419.481	2.433	420885	PROB	2.433	n/a	n/a	n/a	-999	3	[5, 8, 5]	18	catFR1	2	R1465D
421.914	2.1	423318	PROB	2.1	n/a	n/a	n/a	-999	3	[3, 8, 7]	18	catFR1	2	R1465D
424.014	0.0	425418	STOP	n/a	n/a	n/a	n/a	-999	3	[-999, -999, -999]	n/a	catFR1	2	R1465D
424.014	1.299	425420	DISTRACT_END	n/a	n/a	n/a	n/a	-999	3	[0, 0, 0]	n/a	catFR1	2	R1465D
425.313	1.094	426716	REC_START	n/a	n/a	n/a	n/a	-999	3	[0, 0, 0]	n/a	catFR1	2	R1465D
426.407	1.312	427811	REC_WORD	1.312	n/a	BASEBALL	Toys	3	3	[0, 0, 0]	n/a	catFR1	2	R1465D
427.719	1.137	429123	REC_WORD	1.137	n/a	BALL	Toys	12	3	[0, 0, 0]	n/a	catFR1	2	R1465D
428.856	1.031	430260	REC_WORD	1.031	n/a	DOLL	Toys	11	3	[0, 0, 0]	n/a	catFR1	2	R1465D
429.887	2.659	431291	REC_WORD	2.659	n/a	SPRUCE	Trees	-999	3	[0, 0, 0]	n/a	catFR1	2	R1465D
432.546	2.502	433950	REC_WORD	2.502	n/a	ELM	Trees	2	3	[0, 0, 0]	n/a	catFR1	2	R1465D
435.048	10.517	436451	REC_WORD	10.517	n/a	BIRCH	Trees	7	3	[0, 0, 0]	n/a	catFR1	2	R1465D
445.565	3.51	446968	REC_WORD_VV	3.51	n/a	<>	n/a	-999	3	[0, 0, 0]	n/a	catFR1	2	R1465D
449.075	1.738	450478	REC_WORD	1.738	n/a	DOLL	Toys	11	3	[0, 0, 0]	n/a	catFR1	2	R1465D
450.813	0.675	452216	REC_WORD_VV	0.675	n/a	<>	n/a	-999	3	[0, 0, 0]	n/a	catFR1	2	R1465D
451.488	1.25	452891	REC_WORD	1.25	n/a	DOLL	Toys	11	3	[0, 0, 0]	n/a	catFR1	2	R1465D
452.738	2.024	454141	REC_WORD	2.024	n/a	DOLLHOUSE	n/a	-999	3	[0, 0, 0]	n/a	catFR1	2	R1465D
454.762	1.743	456164	REC_WORD	1.743	n/a	DOLLHOUSE	n/a	-999	3	[0, 0, 0]	n/a	catFR1	2	R1465D
456.505	15.676	457910	REC_END	n/a	n/a	n/a	n/a	-999	3	[0, 0, 0]	n/a	catFR1	2	R1465D
472.181	10.35	473586	COUNTDOWN_START	n/a	n/a	n/a	n/a	-999	3	[0, 0, 0]	n/a	catFR1	2	R1465D
482.531	0.0	483928	COUNTDOWN_END	n/a	n/a	n/a	n/a	-999	3	[0, 0, 0]	n/a	catFR1	2	R1465D
482.531	2.016	483938	ENCODING_START	n/a	n/a	n/a	n/a	-999	4	[0, 0, 0]	n/a	catFR1	2	R1465D
484.547	1.617	485952	WORD	n/a	wordpools/wordpool_categorized_EN.txt	LEMONADE	Beverages	1	4	[0, 0, 0]	n/a	catFR1	2	R1465D
486.164	0.817	487562	WORD_OFF	n/a	n/a	LEMONADE	Beverages	1	4	[0, 0, 0]	n/a	catFR1	2	R1465D
486.981	1.616	488377	WORD	n/a	wordpools/wordpool_categorized_EN.txt	WINE	Beverages	2	4	[0, 0, 0]	n/a	catFR1	2	R1465D
488.597	0.984	489998	WORD_OFF	n/a	n/a	WINE	Beverages	2	4	[0, 0, 0]	n/a	catFR1	2	R1465D
489.581	1.6	490980	WORD	n/a	wordpools/wordpool_categorized_EN.txt	ROACH	Insects	3	4	[0, 0, 0]	n/a	catFR1	2	R1465D
491.181	0.865	492581	WORD_OFF	n/a	n/a	ROACH	Insects	3	4	[0, 0, 0]	n/a	catFR1	2	R1465D
492.046	1.6	493446	WORD	n/a	wordpools/wordpool_categorized_EN.txt	GNAT	Insects	4	4	[0, 0, 0]	n/a	catFR1	2	R1465D
493.646	1.001	495046	WORD_OFF	n/a	n/a	GNAT	Insects	4	4	[0, 0, 0]	n/a	catFR1	2	R1465D
494.647	1.617	496048	WORD	n/a	wordpools/wordpool_categorized_EN.txt	LEATHER	Fabric	5	4	[0, 0, 0]	n/a	catFR1	2	R1465D
496.264	0.833	497669	WORD_OFF	n/a	n/a	LEATHER	Fabric	5	4	[0, 0, 0]	n/a	catFR1	2	R1465D
497.097	1.617	498494	WORD	n/a	wordpools/wordpool_categorized_EN.txt	DENIM	Fabric	6	4	[0, 0, 0]	n/a	catFR1	2	R1465D
498.714	0.799	500115	WORD_OFF	n/a	n/a	DENIM	Fabric	6	4	[0, 0, 0]	n/a	catFR1	2	R1465D
499.513	1.601	500910	WORD	n/a	wordpools/wordpool_categorized_EN.txt	MILK	Beverages	7	4	[0, 0, 0]	n/a	catFR1	2	R1465D
501.114	0.765	502511	WORD_OFF	n/a	n/a	MILK	Beverages	7	4	[0, 0, 0]	n/a	catFR1	2	R1465D
501.879	1.601	503277	WORD	n/a	wordpools/wordpool_categorized_EN.txt	SODA	Beverages	8	4	[0, 0, 0]	n/a	catFR1	2	R1465D
503.48	0.984	504878	WORD_OFF	n/a	n/a	SODA	Beverages	8	4	[0, 0, 0]	n/a	catFR1	2	R1465D
504.464	1.6	505860	WORD	n/a	wordpools/wordpool_categorized_EN.txt	LADYBUG	Insects	9	4	[0, 0, 0]	n/a	catFR1	2	R1465D
506.064	0.885	507461	WORD_OFF	n/a	n/a	LADYBUG	Insects	9	4	[0, 0, 0]	n/a	catFR1	2	R1465D
506.949	1.598	508345	WORD	n/a	wordpools/wordpool_categorized_EN.txt	BEETLE	Insects	10	4	[0, 0, 0]	n/a	catFR1	2	R1465D
508.547	0.85	509946	WORD_OFF	n/a	n/a	BEETLE	Insects	10	4	[0, 0, 0]	n/a	catFR1	2	R1465D
509.397	1.617	510801	WORD	n/a	wordpools/wordpool_categorized_EN.txt	SPANDEX	Fabric	11	4	[0, 0, 0]	n/a	catFR1	2	R1465D
511.014	0.817	512411	WORD_OFF	n/a	n/a	SPANDEX	Fabric	11	4	[0, 0, 0]	n/a	catFR1	2	R1465D
511.831	1.616	513227	WORD	n/a	wordpools/wordpool_categorized_EN.txt	VELVET	Fabric	12	4	[0, 0, 0]	n/a	catFR1	2	R1465D
513.447	0.002	514847	WORD_OFF	n/a	n/a	VELVET	Fabric	12	4	[0, 0, 0]	n/a	catFR1	2	R1465D
513.449	0.0	514847	ENCODING_END	n/a	n/a	n/a	n/a	-999	4	[0, 0, 0]	n/a	catFR1	2	R1465D
513.449	0.0	514847	DISTRACT_START	n/a	n/a	n/a	n/a	-999	4	[0, 0, 0]	n/a	catFR1	2	R1465D
513.448	0.001	514847	PROB	0.001	n/a	n/a	n/a	-999	4	[2, 5, 3]	10	catFR1	2	R1465D
513.449	2.949	514848	START	n/a	n/a	n/a	n/a	-999	4	[-999, -999, -999]	n/a	catFR1	2	R1465D
516.398	2.433	517797	PROB	2.433	n/a	n/a	n/a	-999	4	[6, 4, 6]	16	catFR1	2	R1465D
518.831	1.95	520230	PROB	1.95	n/a	n/a	n/a	-999	4	[1, 8, 3]	12	catFR1	2	R1465D
520.781	1.9	522180	PROB	1.9	n/a	n/a	n/a	-999	4	[2, 6, 1]	9	catFR1	2	R1465D
522.681	2.033	524080	PROB	2.033	n/a	n/a	n/a	-999	4	[6, 3, 1]	10	catFR1	2	R1465D
524.714	1.801	526113	PROB	1.801	n/a	n/a	n/a	-999	4	[2, 2, 4]	8	catFR1	2	R1465D
526.515	2.917	527914	PROB	2.917	n/a	n/a	n/a	-999	4	[4, 4, 5]	13	catFR1	2	R1465D
529.432	1.966	530830	PROB	1.966	n/a	n/a	n/a	-999	4	[8, 1, 8]	17	catFR1	2	R1465D
531.398	2.149	532796	PROB	2.149	n/a	n/a	n/a	-999	4	[8, 6, 6]	20	catFR1	2	R1465D
533.547	0.0	534943	DISTRACT_END	n/a	n/a	n/a	n/a	-999	4	[0, 0, 0]	n/a	catFR1	2	R1465D
533.547	1.117	534945	STOP	n/a	n/a	n/a	n/a	-999	4	[-999, -999, -999]	n/a	catFR1	2	R1465D
534.664	3.591	536062	REC_START	n/a	n/a	n/a	n/a	-999	4	[0, 0, 0]	n/a	catFR1	2	R1465D
538.255	2.289	539653	REC_WORD	2.289	n/a	DENIM	Fabric	6	4	[0, 0, 0]	n/a	catFR1	2	R1465D
540.544	1.3	541942	REC_WORD	1.3	n/a	GNAT	Insects	4	4	[0, 0, 0]	n/a	catFR1	2	R1465D
541.844	2.963	543242	REC_WORD	2.963	n/a	LADYBUG	Insects	9	4	[0, 0, 0]	n/a	catFR1	2	R1465D
544.807	4.757	546205	REC_WORD	4.757	n/a	BEETLE	Insects	10	4	[0, 0, 0]	n/a	catFR1	2	R1465D
549.564	1.0	550961	REC_WORD	1.0	n/a	SPANDEX	Fabric	11	4	[0, 0, 0]	n/a	catFR1	2	R1465D
550.564	0.577	551961	REC_WORD_VV	0.577	n/a	<>	n/a	-999	4	[0, 0, 0]	n/a	catFR1	2	R1465D
551.141	5.49	552538	REC_WORD	5.49	n/a	LEATHER	Fabric	5	4	[0, 0, 0]	n/a	catFR1	2	R1465D
556.631	5.363	558028	REC_WORD	5.363	n/a	VELVET	Fabric	12	4	[0, 0, 0]	n/a	catFR1	2	R1465D
561.994	3.881	563391	REC_WORD	3.881	n/a	SATIN	Fabric	-999	4	[0, 0, 0]	n/a	catFR1	2	R1465D
565.875	33.322	567276	REC_END	n/a	n/a	n/a	n/a	-999	4	[0, 0, 0]	n/a	catFR1	2	R1465D
599.197	10.349	600591	COUNTDOWN_START	n/a	n/a	n/a	n/a	-999	4	[0, 0, 0]	n/a	catFR1	2	R1465D
609.546	0.001	610943	COUNTDOWN_END	n/a	n/a	n/a	n/a	-999	4	[0, 0, 0]	n/a	catFR1	2	R1465D
609.547	2.133	610943	ENCODING_START	n/a	n/a	n/a	n/a	-999	5	[0, 0, 0]	n/a	catFR1	2	R1465D
611.68	1.6	613075	WORD	n/a	wordpools/wordpool_categorized_EN.txt	TROMBONE	Instruments	1	5	[0, 0, 0]	n/a	catFR1	2	R1465D
613.28	0.984	614676	WORD_OFF	n/a	n/a	TROMBONE	Instruments	1	5	[0, 0, 0]	n/a	catFR1	2	R1465D
614.264	1.616	615658	WORD	n/a	wordpools/wordpool_categorized_EN.txt	BANJO	Instruments	2	5	[0, 0, 0]	n/a	catFR1	2	R1465D
615.88	0.95	617278	WORD_OFF	n/a	n/a	BANJO	Instruments	2	5	[0, 0, 0]	n/a	catFR1	2	R1465D
616.83	1.601	618221	WORD	n/a	wordpools/wordpool_categorized_EN.txt	BLOCKS	Toys	3	5	[0, 0, 0]	n/a	catFR1	2	R1465D
618.431	0.917	619822	WORD_OFF	n/a	n/a	BLOCKS	Toys	3	5	[0, 0, 0]	n/a	catFR1	2	R1465D
619.348	1.616	620746	WORD	n/a	wordpools/wordpool_categorized_EN.txt	BARBIE	Toys	4	5	[0, 0, 0]	n/a	catFR1	2	R1465D
620.964	0.833	622356	WORD_OFF	n/a	n/a	BARBIE	Toys	4	5	[0, 0, 0]	n/a	catFR1	2	R1465D
621.797	1.617	623191	WORD	n/a	wordpools/wordpool_categorized_EN.txt	CAR	Vehicles	5	5	[0, 0, 0]	n/a	catFR1	2	R1465D
623.414	0.834	624812	WORD_OFF	n/a	n/a	CAR	Vehicles	5	5	[0, 0, 0]	n/a	catFR1	2	R1465D
624.248	1.616	625637	WORD	n/a	wordpools/wordpool_categorized_EN.txt	BOAT	Vehicles	6	5	[0, 0, 0]	n/a	catFR1	2	R1465D
625.864	0.967	627257	WORD_OFF	n/a	n/a	BOAT	Vehicles	6	5	[0, 0, 0]	n/a	catFR1	2	R1465D
626.831	1.615	628220	WORD	n/a	wordpools/wordpool_categorized_EN.txt	GUITAR	Instruments	7	5	[0, 0, 0]	n/a	catFR1	2	R1465D
628.446	0.768	629841	WORD_OFF	n/a	n/a	GUITAR	Instruments	7	5	[0, 0, 0]	n/a	catFR1	2	R1465D
629.214	1.6	630607	WORD	n/a	wordpools/wordpool_categorized_EN.txt	CELLO	Instruments	8	5	[0, 0, 0]	n/a	catFR1	2	R1465D
630.814	0.967	632208	WORD_OFF	n/a	n/a	CELLO	Instruments	8	5	[0, 0, 0]	n/a	catFR1	2	R1465D
631.781	1.616	633170	WORD	n/a	wordpools/wordpool_categorized_EN.txt	BUS	Vehicles	9	5	[0, 0, 0]	n/a	catFR1	2	R1465D
633.397	0.899	634791	WORD_OFF	n/a	n/a	BUS	Vehicles	9	5	[0, 0, 0]	n/a	catFR1	2	R1465D
634.296	1.6	635694	WORD	n/a	wordpools/wordpool_categorized_EN.txt	JEEP	Vehicles	10	5	[0, 0, 0]	n/a	catFR1	2	R1465D
635.896	0.885	637285	WORD_OFF	n/a	n/a	JEEP	Vehicles	10	5	[0, 0, 0]	n/a	catFR1	2	R1465D
636.781	1.616	638179	WORD	n/a	wordpools/wordpool_categorized_EN.txt	DOLLHOUSE	Toys	11	5	[0, 0, 0]	n/a	catFR1	2	R1465D
638.397	0.834	639790	WORD_OFF	n/a	n/a	DOLLHOUSE	Toys	11	5	[0, 0, 0]	n/a	catFR1	2	R1465D
639.231	1.601	640625	WORD	n/a	wordpools/wordpool_categorized_EN.txt	FRISBEE	Toys	12	5	[0, 0, 0]	n/a	catFR1	2	R1465D
640.832	0.0	642224	START	n/a	n/a	n/a	n/a	-999	5	[-999, -999, -999]	n/a	catFR1	2	R1465D
640.832	0.0	642224	PROB	0.0	n/a	n/a	n/a	-999	5	[6, 6, 4]	16	catFR1	2	R1465D
640.831	0.001	642226	WORD_OFF	n/a	n/a	FRISBEE	Toys	12	5	[0, 0, 0]	n/a	catFR1	2	R1465D
640.832	0.0	642226	ENCODING_END	n/a	n/a	n/a	n/a	-999	5	[0, 0, 0]	n/a	catFR1	2	R1465D
640.832	3.532	642226	DISTRACT_START	n/a	n/a	n/a	n/a	-999	5	[0, 0, 0]	n/a	catFR1	2	R1465D
644.364	2.65	645756	PROB	2.65	n/a	n/a	n/a	-999	5	[4, 8, 8]	20	catFR1	2	R1465D
647.014	1.55	648406	PROB	1.55	n/a	n/a	n/a	-999	5	[5, 5, 1]	11	catFR1	2	R1465D
648.564	1.633	649956	PROB	1.633	n/a	n/a	n/a	-999	5	[8, 4, 1]	13	catFR1	2	R1465D
650.197	2.35	651589	PROB	2.35	n/a	n/a	n/a	-999	5	[4, 4, 6]	14	catFR1	2	R1465D
652.547	2.517	653939	PROB	2.517	n/a	n/a	n/a	-999	5	[6, 1, 8]	15	catFR1	2	R1465D
655.064	2.3	656456	PROB	2.3	n/a	n/a	n/a	-999	5	[3, 1, 2]	6	catFR1	2	R1465D
657.364	1.95	658756	PROB	1.95	n/a	n/a	n/a	-999	5	[7, 1, 8]	16	catFR1	2	R1465D
659.314	1.516	660705	PROB	1.516	n/a	n/a	n/a	-999	5	[7, 1, 4]	12	catFR1	2	R1465D
660.83	2.1	662221	PROB	2.1	n/a	n/a	n/a	-999	5	[7, 2, 4]	13	catFR1	2	R1465D
662.93	0.0	664321	STOP	n/a	n/a	n/a	n/a	-999	5	[-999, -999, -999]	n/a	catFR1	2	R1465D
662.93	1.267	664325	DISTRACT_END	n/a	n/a	n/a	n/a	-999	5	[0, 0, 0]	n/a	catFR1	2	R1465D
664.197	1.39	665592	REC_START	n/a	n/a	n/a	n/a	-999	5	[0, 0, 0]	n/a	catFR1	2	R1465D
665.587	0.938	666978	REC_WORD	0.938	n/a	TRUMPET	Instruments	-999	5	[0, 0, 0]	n/a	catFR1	2	R1465D
666.525	1.471	667916	REC_WORD	1.471	n/a	TROMBONE	Instruments	1	5	[0, 0, 0]	n/a	catFR1	2	R1465D
667.996	1.427	669387	REC_WORD	1.427	n/a	GUITAR	Instruments	7	5	[0, 0, 0]	n/a	catFR1	2	R1465D
669.423	10.801	670814	REC_WORD	10.801	n/a	DOLLHOUSE	Toys	11	5	[0, 0, 0]	n/a	catFR1	2	R1465D
680.224	12.673	681614	REC_WORD	12.673	n/a	TUBA	Instruments	-999	5	[0, 0, 0]	n/a	catFR1	2	R1465D
692.897	0.518	694287	REC_WORD	0.518	n/a	GUITAR	Instruments	7	5	[0, 0, 0]	n/a	catFR1	2	R1465D
693.415	1.993	694805	REC_WORD	1.993	n/a	DOLLHOUSE	Toys	11	5	[0, 0, 0]	n/a	catFR1	2	R1465D
695.408	21.356	696796	REC_END	n/a	n/a	n/a	n/a	-999	5	[0, 0, 0]	n/a	catFR1	2	R1465D
716.764	10.35	718158	COUNTDOWN_START	n/a	n/a	n/a	n/a	-999	5	[0, 0, 0]	n/a	catFR1	2	R1465D
727.114	0.0	728500	COUNTDOWN_END	n/a	n/a	n/a	n/a	-999	5	[0, 0, 0]	n/a	catFR1	2	R1465D
727.114	2.183	728500	ENCODING_START	n/a	n/a	n/a	n/a	-999	6	[0, 0, 0]	n/a	catFR1	2	R1465D
729.297	1.6	730681	WORD	n/a	wordpools/wordpool_categorized_EN.txt	CREEK	Landscapes	1	6	[0, 0, 0]	n/a	catFR1	2	R1465D
730.897	1.0	732282	WORD_OFF	n/a	n/a	CREEK	Landscapes	1	6	[0, 0, 0]	n/a	catFR1	2	R1465D
731.897	1.617	733283	WORD	n/a	wordpools/wordpool_categorized_EN.txt	BEACH	Landscapes	2	6	[0, 0, 0]	n/a	catFR1	2	R1465D
733.514	0.831	734904	WORD_OFF	n/a	n/a	BEACH	Landscapes	2	6	[0, 0, 0]	n/a	catFR1	2	R1465D
734.345	1.602	735729	WORD	n/a	wordpools/wordpool_categorized_EN.txt	RATCHET	Tools	3	6	[0, 0, 0]	n/a	catFR1	2	R1465D
735.947	0.8	737330	WORD_OFF	n/a	n/a	RATCHET	Tools	3	6	[0, 0, 0]	n/a	catFR1	2	R1465D
736.747	1.6	738135	WORD	n/a	wordpools/wordpool_categorized_EN.txt	PLIERS	Tools	4	6	[0, 0, 0]	n/a	catFR1	2	R1465D
738.347	0.884	739736	WORD_OFF	n/a	n/a	PLIERS	Tools	4	6	[0, 0, 0]	n/a	catFR1	2	R1465D
739.231	1.599	740620	WORD	n/a	wordpools/wordpool_categorized_EN.txt	FOG	Weather	5	6	[0, 0, 0]	n/a	catFR1	2	R1465D
740.83	0.85	742221	WORD_OFF	n/a	n/a	FOG	Weather	5	6	[0, 0, 0]	n/a	catFR1	2	R1465D
741.68	1.601	743066	WORD	n/a	wordpools/wordpool_categorized_EN.txt	THUNDERSTORM	Weather	6	6	[0, 0, 0]	n/a	catFR1	2	R1465D
743.281	0.932	744667	WORD_OFF	n/a	n/a	THUNDERSTORM	Weather	6	6	[0, 0, 0]	n/a	catFR1	2	R1465D
744.213	1.602	745600	WORD	n/a	wordpools/wordpool_categorized_EN.txt	RIVER	Landscapes	7	6	[0, 0, 0]	n/a	catFR1	2	R1465D
745.815	0.899	747201	WORD_OFF	n/a	n/a	RIVER	Landscapes	7	6	[0, 0, 0]	n/a	catFR1	2	R1465D
746.714	1.617	748105	WORD	n/a	wordpools/wordpool_categorized_EN.txt	STREAM	Landscapes	8	6	[0, 0, 0]	n/a	catFR1	2	R1465D
748.331	0.915	749715	WORD_OFF	n/a	n/a	STREAM	Landscapes	8	6	[0, 0, 0]	n/a	catFR1	2	R1465D
749.246	1.601	750629	WORD	n/a	wordpools/wordpool_categorized_EN.txt	DRIZZLE	Weather	9	6	[0, 0, 0]	n/a	catFR1	2	R1465D
750.847	0.8	752230	WORD_OFF	n/a	n/a	DRIZZLE	Weather	9	6	[0, 0, 0]	n/a	catFR1	2	R1465D
751.647	1.6	753035	WORD	n/a	wordpools/wordpool_categorized_EN.txt	WIND	Weather	10	6	[0, 0, 0]	n/a	catFR1	2	R1465D
753.247	0.85	754636	WORD_OFF	n/a	n/a	WIND	Weather	10	6	[0, 0, 0]	n/a	catFR1	2	R1465D
754.097	1.616	755481	WORD	n/a	wordpools/wordpool_categorized_EN.txt	HAMMER	Tools	11	6	[0, 0, 0]	n/a	catFR1	2	R1465D
755.713	0.784	757101	WORD_OFF	n/a	n/a	HAMMER	Tools	11	6	[0, 0, 0]	n/a	catFR1	2	R1465D
756.497	1.617	757887	WORD	n/a	wordpools/wordpool_categorized_EN.txt	AXE	Tools	12	6	[0, 0, 0]	n/a	catFR1	2	R1465D
758.114	0.001	759498	WORD_OFF	n/a	n/a	AXE	Tools	12	6	[0, 0, 0]	n/a	catFR1	2	R1465D
758.115	0.0	759498	ENCODING_END	n/a	n/a	n/a	n/a	-999	6	[0, 0, 0]	n/a	catFR1	2	R1465D
758.115	0.0	759501	START	n/a	n/a	n/a	n/a	-999	6	[-999, -999, -999]	n/a	catFR1	2	R1465D
758.115	0.0	759501	PROB	0.0	n/a	n/a	n/a	-999	6	[8, 2, 3]	13	catFR1	2	R1465D
758.115	4.85	759508	DISTRACT_START	n/a	n/a	n/a	n/a	-999	6	[0, 0, 0]	n/a	catFR1	2	R1465D
762.965	1.533	764351	PROB	1.533	n/a	n/a	n/a	-999	6	[4, 6, 1]	11	catFR1	2	R1465D
764.498	3.1	765884	PROB	3.1	n/a	n/a	n/a	-999	6	[4, 8, 6]	18	catFR1	2	R1465D
767.598	2.165	768984	PROB	2.165	n/a	n/a	n/a	-999	6	[6, 5, 5]	16	catFR1	2	R1465D
769.763	1.967	771148	PROB	1.967	n/a	n/a	n/a	-999	6	[5, 1, 2]	8	catFR1	2	R1465D
771.73	2.318	773115	PROB	2.318	n/a	n/a	n/a	-999	6	[7, 3, 8]	18	catFR1	2	R1465D
774.048	3.132	775433	PROB	3.132	n/a	n/a	n/a	-999	6	[7, 6, 5]	18	catFR1	2	R1465D
777.18	1.9	778565	PROB	1.9	n/a	n/a	n/a	-999	6	[1, 4, 4]	9	catFR1	2	R1465D
779.08	0.0	780465	STOP	n/a	n/a	n/a	n/a	-999	6	[-999, -999, -999]	n/a	catFR1	2	R1465D
779.08	1.051	780467	DISTRACT_END	n/a	n/a	n/a	n/a	-999	6	[0, 0, 0]	n/a	catFR1	2	R1465D
780.131	2.147	781518	REC_START	n/a	n/a	n/a	n/a	-999	6	[0, 0, 0]	n/a	catFR1	2	R1465D
782.278	1.127	783663	REC_WORD	1.127	n/a	HAMMER	Tools	11	6	[0, 0, 0]	n/a	catFR1	2	R1465D
783.405	1.297	784790	REC_WORD	1.297	n/a	RATCHET	Tools	3	6	[0, 0, 0]	n/a	catFR1	2	R1465D
784.702	1.326	786087	REC_WORD	1.326	n/a	AXE	Tools	12	6	[0, 0, 0]	n/a	catFR1	2	R1465D
786.028	0.648	787413	REC_WORD_VV	0.648	n/a	<>	n/a	-999	6	[0, 0, 0]	n/a	catFR1	2	R1465D
786.676	1.0	788061	REC_WORD	1.0	n/a	THUNDERSTORM	Weather	6	6	[0, 0, 0]	n/a	catFR1	2	R1465D
787.676	0.691	789061	REC_WORD_VV	0.691	n/a	<>	n/a	-999	6	[0, 0, 0]	n/a	catFR1	2	R1465D
788.367	1.283	789751	REC_WORD	1.283	n/a	DRIZZLE	Weather	9	6	[0, 0, 0]	n/a	catFR1	2	R1465D
789.65	1.327	791034	REC_WORD	1.327	n/a	CREEK	Landscapes	1	6	[0, 0, 0]	n/a	catFR1	2	R1465D
790.977	1.319	792361	REC_WORD	1.319	n/a	RIVER	Landscapes	7	6	[0, 0, 0]	n/a	catFR1	2	R1465D
792.296	10.145	793680	REC_WORD	10.145	n/a	BEACH	Landscapes	2	6	[0, 0, 0]	n/a	catFR1	2	R1465D
802.441	6.505	803825	REC_WORD	6.505	n/a	WRENCH	n/a	-999	6	[0, 0, 0]	n/a	catFR1	2	R1465D
808.946	0.433	810329	REC_WORD	0.433	n/a	RIVER	Landscapes	7	6	[0, 0, 0]	n/a	catFR1	2	R1465D
809.379	1.985	810762	REC_WORD	1.985	n/a	CREEK	Landscapes	1	6	[0, 0, 0]	n/a	catFR1	2	R1465D
811.364	13.1	812751	REC_END	n/a	n/a	n/a	n/a	-999	6	[0, 0, 0]	n/a	catFR1	2	R1465D
824.464	10.349	825844	COUNTDOWN_START	n/a	n/a	n/a	n/a	-999	6	[0, 0, 0]	n/a	catFR1	2	R1465D
834.813	0.0	836196	COUNTDOWN_END	n/a	n/a	n/a	n/a	-999	6	[0, 0, 0]	n/a	catFR1	2	R1465D
834.813	2.218	836196	ENCODING_START	n/a	n/a	n/a	n/a	-999	7	[0, 0, 0]	n/a	catFR1	2	R1465D
837.031	1.6	838416	WORD	n/a	wordpools/wordpool_categorized_EN.txt	JELLYFISH	OceanAnimals	1	7	[0, 0, 0]	n/a	catFR1	2	R1465D
838.631	1.0	840017	WORD_OFF	n/a	n/a	JELLYFISH	OceanAnimals	1	7	[0, 0, 0]	n/a	catFR1	2	R1465D
839.631	1.6	841009	WORD	n/a	wordpools/wordpool_categorized_EN.txt	OCTOPUS	OceanAnimals	2	7	[0, 0, 0]	n/a	catFR1	2	R1465D
841.231	0.764	842610	WORD_OFF	n/a	n/a	OCTOPUS	OceanAnimals	2	7	[0, 0, 0]	n/a	catFR1	2	R1465D
841.995	1.602	843376	WORD	n/a	wordpools/wordpool_categorized_EN.txt	BOOKCASE	Furniture	3	7	[0, 0, 0]	n/a	catFR1	2	R1465D
843.597	0.817	844977	WORD_OFF	n/a	n/a	BOOKCASE	Furniture	3	7	[0, 0, 0]	n/a	catFR1	2	R1465D
844.414	1.6	845792	WORD	n/a	wordpools/wordpool_categorized_EN.txt	RECLINER	Furniture	4	7	[0, 0, 0]	n/a	catFR1	2	R1465D
846.014	0.85	847393	WORD_OFF	n/a	n/a	RECLINER	Furniture	4	7	[0, 0, 0]	n/a	catFR1	2	R1465D
846.864	1.6	848247	WORD	n/a	wordpools/wordpool_categorized_EN.txt	ORANGE	Fruit	5	7	[0, 0, 0]	n/a	catFR1	2	R1465D
848.464	0.999	849848	WORD_OFF	n/a	n/a	ORANGE	Fruit	5	7	[0, 0, 0]	n/a	catFR1	2	R1465D
849.463	1.6	850848	WORD	n/a	wordpools/wordpool_categorized_EN.txt	APPLE	Fruit	6	7	[0, 0, 0]	n/a	catFR1	2	R1465D
851.063	0.933	852441	WORD_OFF	n/a	n/a	APPLE	Fruit	6	7	[0, 0, 0]	n/a	catFR1	2	R1465D
851.996	1.601	853374	WORD	n/a	wordpools/wordpool_categorized_EN.txt	SQUID	OceanAnimals	7	7	[0, 0, 0]	n/a	catFR1	2	R1465D
853.597	0.983	854975	WORD_OFF	n/a	n/a	SQUID	OceanAnimals	7	7	[0, 0, 0]	n/a	catFR1	2	R1465D
854.58	1.6	855957	WORD	n/a	wordpools/wordpool_categorized_EN.txt	TURTLE	OceanAnimals	8	7	[0, 0, 0]	n/a	catFR1	2	R1465D
856.18	0.967	857558	WORD_OFF	n/a	n/a	TURTLE	OceanAnimals	8	7	[0, 0, 0]	n/a	catFR1	2	R1465D
857.147	1.601	858531	WORD	n/a	wordpools/wordpool_categorized_EN.txt	COUCH	Furniture	9	7	[0, 0, 0]	n/a	catFR1	2	R1465D
858.748	0.998	860132	WORD_OFF	n/a	n/a	COUCH	Furniture	9	7	[0, 0, 0]	n/a	catFR1	2	R1465D
859.746	1.602	861124	WORD	n/a	wordpools/wordpool_categorized_EN.txt	SOFA	Furniture	10	7	[0, 0, 0]	n/a	catFR1	2	R1465D
861.348	0.799	862725	WORD_OFF	n/a	n/a	SOFA	Furniture	10	7	[0, 0, 0]	n/a	catFR1	2	R1465D
862.147	1.6	863530	WORD	n/a	wordpools/wordpool_categorized_EN.txt	PLUM	Fruit	11	7	[0, 0, 0]	n/a	catFR1	2	R1465D
863.747	0.783	865131	WORD_OFF	n/a	n/a	PLUM	Fruit	11	7	[0, 0, 0]	n/a	catFR1	2	R1465D
864.53	1.601	865907	WORD	n/a	wordpools/wordpool_categorized_EN.txt	CHERRY	Fruit	12	7	[0, 0, 0]	n/a	catFR1	2	R1465D
866.131	0.001	867508	WORD_OFF	n/a	n/a	CHERRY	Fruit	12	7	[0, 0, 0]	n/a	catFR1	2	R1465D
866.132	0.0	867512	PROB	0.0	n/a	n/a	n/a	-999	7	[1, 5, 4]	10	catFR1	2	R1465D
866.132	0.0	867512	START	n/a	n/a	n/a	n/a	-999	7	[-999, -999, -999]	n/a	catFR1	2	R1465D
866.132	0.0	867518	ENCODING_END	n/a	n/a	n/a	n/a	-999	7	[0, 0, 0]	n/a	catFR1	2	R1465D
866.132	2.316	867518	DISTRACT_START	n/a	n/a	n/a	n/a	-999	7	[0, 0, 0]	n/a	catFR1	2	R1465D
868.448	2.583	869828	PROB	2.583	n/a	n/a	n/a	-999	7	[3, 5, 5]	13	catFR1	2	R1465D
871.031	2.966	872411	PROB	2.966	n/a	n/a	n/a	-999	7	[6, 8, 7]	21	catFR1	2	R1465D
873.997	2.501	875377	PROB	2.501	n/a	n/a	n/a	-999	7	[2, 4, 7]	13	catFR1	2	R1465D
876.498	2.783	877878	PROB	2.783	n/a	n/a	n/a	-999	7	[5, 8, 2]	15	catFR1	2	R1465D
879.281	2.133	880661	PROB	2.133	n/a	n/a	n/a	-999	7	[8, 5, 1]	14	catFR1	2	R1465D
881.414	1.784	882793	PROB	1.784	n/a	n/a	n/a	-999	7	[5, 5, 1]	11	catFR1	2	R1465D
883.198	2.3	884577	PROB	2.3	n/a	n/a	n/a	-999	7	[2, 1, 7]	10	catFR1	2	R1465D
885.498	2.582	886877	PROB	2.582	n/a	n/a	n/a	-999	7	[8, 1, 3]	12	catFR1	2	R1465D
888.08	0.0	889459	STOP	n/a	n/a	n/a	n/a	-999	7	[-999, -999, -999]	n/a	catFR1	2	R1465D
888.08	1.167	889460	DISTRACT_END	n/a	n/a	n/a	n/a	-999	7	[0, 0, 0]	n/a	catFR1	2	R1465D
889.247	1.05	890628	REC_START	n/a	n/a	n/a	n/a	-999	7	[0, 0, 0]	n/a	catFR1	2	R1465D
890.297	1.156	891676	REC_WORD	1.156	n/a	CHERRY	Fruit	12	7	[0, 0, 0]	n/a	catFR1	2	R1465D
891.453	1.097	892832	REC_WORD	1.097	n/a	PLUM	Fruit	11	7	[0, 0, 0]	n/a	catFR1	2	R1465D
892.55	1.201	893929	REC_WORD	1.201	n/a	RECLINER	Furniture	4	7	[0, 0, 0]	n/a	catFR1	2	R1465D
893.751	3.954	895130	REC_WORD	3.954	n/a	SOFA	Furniture	10	7	[0, 0, 0]	n/a	catFR1	2	R1465D
897.705	15.754	899084	REC_WORD	15.754	n/a	CHAIR	n/a	-999	7	[0, 0, 0]	n/a	catFR1	2	R1465D
913.459	0.452	914837	REC_WORD	0.452	n/a	CHAIR	n/a	-999	7	[0, 0, 0]	n/a	catFR1	2	R1465D
913.911	0.601	915289	REC_WORD	0.601	n/a	SOFA	Furniture	10	7	[0, 0, 0]	n/a	catFR1	2	R1465D
914.512	0.97	915890	REC_WORD	0.97	n/a	RECLINER	Furniture	4	7	[0, 0, 0]	n/a	catFR1	2	R1465D
915.482	1.116	916860	REC_WORD	1.116	n/a	COUCH	Furniture	9	7	[0, 0, 0]	n/a	catFR1	2	R1465D
916.598	1.675	917976	REC_WORD	1.675	n/a	PLUM	Fruit	11	7	[0, 0, 0]	n/a	catFR1	2	R1465D
918.273	2.211	919650	REC_WORD	2.211	n/a	CHERRY	Fruit	12	7	[0, 0, 0]	n/a	catFR1	2	R1465D
920.484	16.58	921862	REC_END	n/a	n/a	n/a	n/a	-999	7	[0, 0, 0]	n/a	catFR1	2	R1465D
937.064	10.35	938441	COUNTDOWN_START	n/a	n/a	n/a	n/a	-999	7	[0, 0, 0]	n/a	catFR1	2	R1465D
947.414	0.0	948793	COUNTDOWN_END	n/a	n/a	n/a	n/a	-999	7	[0, 0, 0]	n/a	catFR1	2	R1465D
947.414	1.967	948793	ENCODING_START	n/a	n/a	n/a	n/a	-999	8	[0, 0, 0]	n/a	catFR1	2	R1465D
949.381	1.6	950757	WORD	n/a	wordpools/wordpool_categorized_EN.txt	EAR	BodyParts	1	8	[0, 0, 0]	n/a	catFR1	2	R1465D
950.981	0.949	952358	WORD_OFF	n/a	n/a	EAR	BodyParts	1	8	[0, 0, 0]	n/a	catFR1	2	R1465D
951.93	1.617	953311	WORD	n/a	wordpools/wordpool_categorized_EN.txt	HAND	BodyParts	2	8	[0, 0, 0]	n/a	catFR1	2	R1465D
953.547	0.799	954922	WORD_OFF	n/a	n/a	HAND	BodyParts	2	8	[0, 0, 0]	n/a	catFR1	2	R1465D
954.346	1.601	955727	WORD	n/a	wordpools/wordpool_categorized_EN.txt	RAIN	Weather	3	8	[0, 0, 0]	n/a	catFR1	2	R1465D
955.947	0.833	957328	WORD_OFF	n/a	n/a	RAIN	Weather	3	8	[0, 0, 0]	n/a	catFR1	2	R1465D
956.78	1.617	958153	WORD	n/a	wordpools/wordpool_categorized_EN.txt	HURRICANE	Weather	4	8	[0, 0, 0]	n/a	catFR1	2	R1465D
958.397	0.899	959774	WORD_OFF	n/a	n/a	HURRICANE	Weather	4	8	[0, 0, 0]	n/a	catFR1	2	R1465D
959.296	1.6	960677	WORD	n/a	wordpools/wordpool_categorized_EN.txt	FUDGE	Desserts	5	8	[0, 0, 0]	n/a	catFR1	2	R1465D
960.896	1.001	962268	WORD_OFF	n/a	n/a	FUDGE	Desserts	5	8	[0, 0, 0]	n/a	catFR1	2	R1465D
961.897	1.616	963270	WORD	n/a	wordpools/wordpool_categorized_EN.txt	BROWNIES	Desserts	6	8	[0, 0, 0]	n/a	catFR1	2	R1465D
963.513	0.918	964891	WORD_OFF	n/a	n/a	BROWNIES	Desserts	6	8	[0, 0, 0]	n/a	catFR1	2	R1465D
964.431	1.616	965804	WORD	n/a	wordpools/wordpool_categorized_EN.txt	HEAD	BodyParts	7	8	[0, 0, 0]	n/a	catFR1	2	R1465D
966.047	0.917	967425	WORD_OFF	n/a	n/a	HEAD	BodyParts	7	8	[0, 0, 0]	n/a	catFR1	2	R1465D
966.964	1.6	968338	WORD	n/a	wordpools/wordpool_categorized_EN.txt	NOSE	BodyParts	8	8	[0, 0, 0]	n/a	catFR1	2	R1465D
968.564	0.766	969939	WORD_OFF	n/a	n/a	NOSE	BodyParts	8	8	[0, 0, 0]	n/a	catFR1	2	R1465D
969.33	1.601	970705	WORD	n/a	wordpools/wordpool_categorized_EN.txt	CUPCAKE	Desserts	9	8	[0, 0, 0]	n/a	catFR1	2	R1465D
970.931	0.999	972306	WORD_OFF	n/a	n/a	CUPCAKE	Desserts	9	8	[0, 0, 0]	n/a	catFR1	2	R1465D
971.93	1.601	973308	WORD	n/a	wordpools/wordpool_categorized_EN.txt	PASTRY	Desserts	10	8	[0, 0, 0]	n/a	catFR1	2	R1465D
973.531	0.783	974909	WORD_OFF	n/a	n/a	PASTRY	Desserts	10	8	[0, 0, 0]	n/a	catFR1	2	R1465D
974.314	1.616	975685	WORD	n/a	wordpools/wordpool_categorized_EN.txt	CLOUD	Weather	11	8	[0, 0, 0]	n/a	catFR1	2	R1465D
975.93	0.784	977305	WORD_OFF	n/a	n/a	CLOUD	Weather	11	8	[0, 0, 0]	n/a	catFR1	2	R1465D
976.714	1.618	978091	WORD	n/a	wordpools/wordpool_categorized_EN.txt	LIGHTNING	Weather	12	8	[0, 0, 0]	n/a	catFR1	2	R1465D
978.332	0.0	979702	WORD_OFF	n/a	n/a	LIGHTNING	Weather	12	8	[0, 0, 0]	n/a	catFR1	2	R1465D
978.332	0.003	979706	PROB	0.003	n/a	n/a	n/a	-999	8	[8, 3, 7]	18	catFR1	2	R1465D
978.335	0.0	979709	START	n/a	n/a	n/a	n/a	-999	8	[-999, -999, -999]	n/a	catFR1	2	R1465D
978.335	0.0	979712	ENCODING_END	n/a	n/a	n/a	n/a	-999	8	[0, 0, 0]	n/a	catFR1	2	R1465D
978.335	3.662	979712	DISTRACT_START	n/a	n/a	n/a	n/a	-999	8	[0, 0, 0]	n/a	catFR1	2	R1465D
981.997	1.518	983371	PROB	1.518	n/a	n/a	n/a	-999	8	[6, 1, 6]	13	catFR1	2	R1465D
983.515	3.265	984889	PROB	3.265	n/a	n/a	n/a	-999	8	[7, 4, 4]	15	catFR1	2	R1465D
986.78	2.285	988154	PROB	2.285	n/a	n/a	n/a	-999	8	[2, 4, 8]	14	catFR1	2	R1465D
989.065	1.715	990439	PROB	1.715	n/a	n/a	n/a	-999	8	[5, 1, 6]	12	catFR1	2	R1465D
990.78	3.384	992154	PROB	3.384	n/a	n/a	n/a	-999	8	[3, 5, 1]	9	catFR1	2	R1465D
994.164	3.05	995537	PROB	3.05	n/a	n/a	n/a	-999	8	[2, 2, 3]	7	catFR1	2	R1465D
997.214	2.417	998587	PROB	2.417	n/a	n/a	n/a	-999	8	[5, 4, 6]	15	catFR1	2	R1465D
999.631	0.0	1001004	STOP	n/a	n/a	n/a	n/a	-999	8	[-999, -999, -999]	n/a	catFR1	2	R1465D
999.631	1.15	1001005	DISTRACT_END	n/a	n/a	n/a	n/a	-999	8	[0, 0, 0]	n/a	catFR1	2	R1465D
1000.781	1.947	1002155	REC_START	n/a	n/a	n/a	n/a	-999	8	[0, 0, 0]	n/a	catFR1	2	R1465D
1002.728	0.95	1004101	REC_WORD	0.95	n/a	HEAD	BodyParts	7	8	[0, 0, 0]	n/a	catFR1	2	R1465D
1003.678	0.951	1005051	REC_WORD	0.951	n/a	HAND	BodyParts	2	8	[0, 0, 0]	n/a	catFR1	2	R1465D
1004.629	1.032	1006002	REC_WORD	1.032	n/a	EAR	BodyParts	1	8	[0, 0, 0]	n/a	catFR1	2	R1465D
1005.661	6.69	1007034	REC_WORD	6.69	n/a	NOSE	BodyParts	8	8	[0, 0, 0]	n/a	catFR1	2	R1465D
1012.351	1.127	1013723	REC_WORD	1.127	n/a	FUDGE	Desserts	5	8	[0, 0, 0]	n/a	catFR1	2	R1465D
1013.478	1.997	1014850	REC_WORD	1.997	n/a	BROWNIES	Desserts	6	8	[0, 0, 0]	n/a	catFR1	2	R1465D
1015.475	9.858	1016847	REC_WORD	9.858	n/a	CUPCAKE	Desserts	9	8	[0, 0, 0]	n/a	catFR1	2	R1465D
1025.333	0.566	1026705	REC_WORD	0.566	n/a	NOSE	BodyParts	8	8	[0, 0, 0]	n/a	catFR1	2	R1465D
1025.899	0.477	1027271	REC_WORD	0.477	n/a	EAR	BodyParts	1	8	[0, 0, 0]	n/a	catFR1	2	R1465D
1026.376	2.471	1027748	REC_WORD	2.471	n/a	HAND	BodyParts	2	8	[0, 0, 0]	n/a	catFR1	2	R1465D
1028.847	0.856	1030219	REC_WORD	0.856	n/a	FUDGE	Desserts	5	8	[0, 0, 0]	n/a	catFR1	2	R1465D
1029.703	0.646	1031074	REC_WORD	0.646	n/a	BROWNIES	Desserts	6	8	[0, 0, 0]	n/a	catFR1	2	R1465D
1030.349	1.675	1031720	REC_WORD	1.675	n/a	CUPCAKE	Desserts	9	8	[0, 0, 0]	n/a	catFR1	2	R1465D
1032.024	9.507	1033398	REC_END	n/a	n/a	n/a	n/a	-999	8	[0, 0, 0]	n/a	catFR1	2	R1465D
1041.531	10.35	1042905	COUNTDOWN_START	n/a	n/a	n/a	n/a	-999	8	[0, 0, 0]	n/a	catFR1	2	R1465D
1051.881	0.0	1053257	COUNTDOWN_END	n/a	n/a	n/a	n/a	-999	8	[0, 0, 0]	n/a	catFR1	2	R1465D
1051.881	2.133	1053257	ENCODING_START	n/a	n/a	n/a	n/a	-999	9	[0, 0, 0]	n/a	catFR1	2	R1465D
1054.014	1.617	1055389	WORD	n/a	wordpools/wordpool_categorized_EN.txt	MOUSSE	Desserts	1	9	[0, 0, 0]	n/a	catFR1	2	R1465D
1055.631	0.849	1056999	WORD_OFF	n/a	n/a	MOUSSE	Desserts	1	9	[0, 0, 0]	n/a	catFR1	2	R1465D
1056.48	1.601	1057854	WORD	n/a	wordpools/wordpool_categorized_EN.txt	CAKE	Desserts	2	9	[0, 0, 0]	n/a	catFR1	2	R1465D
1058.081	0.8	1059455	WORD_OFF	n/a	n/a	CAKE	Desserts	2	9	[0, 0, 0]	n/a	catFR1	2	R1465D
1058.881	1.615	1060250	WORD	n/a	wordpools/wordpool_categorized_EN.txt	WASHER	Appliances	3	9	[0, 0, 0]	n/a	catFR1	2	R1465D
1060.496	0.968	1061871	WORD_OFF	n/a	n/a	WASHER	Appliances	3	9	[0, 0, 0]	n/a	catFR1	2	R1465D
1061.464	1.616	1062834	WORD	n/a	wordpools/wordpool_categorized_EN.txt	VACUUM	Appliances	4	9	[0, 0, 0]	n/a	catFR1	2	R1465D
1063.08	0.884	1064454	WORD_OFF	n/a	n/a	VACUUM	Appliances	4	9	[0, 0, 0]	n/a	catFR1	2	R1465D
1063.964	1.616	1065338	WORD	n/a	wordpools/wordpool_categorized_EN.txt	CRICKET	Insects	5	9	[0, 0, 0]	n/a	catFR1	2	R1465D
1065.58	0.867	1066949	WORD_OFF	n/a	n/a	CRICKET	Insects	5	9	[0, 0, 0]	n/a	catFR1	2	R1465D
1066.447	1.617	1067813	WORD	n/a	wordpools/wordpool_categorized_EN.txt	FLY	Insects	6	9	[0, 0, 0]	n/a	catFR1	2	R1465D
1068.064	0.967	1069434	WORD_OFF	n/a	n/a	FLY	Insects	6	9	[0, 0, 0]	n/a	catFR1	2	R1465D
1069.031	1.616	1070396	WORD	n/a	wordpools/wordpool_categorized_EN.txt	PIE	Desserts	7	9	[0, 0, 0]	n/a	catFR1	2	R1465D
1070.647	0.817	1072017	WORD_OFF	n/a	n/a	PIE	Desserts	7	9	[0, 0, 0]	n/a	catFR1	2	R1465D
1071.464	1.6	1072832	WORD	n/a	wordpools/wordpool_categorized_EN.txt	COBBLER	Desserts	8	9	[0, 0, 0]	n/a	catFR1	2	R1465D
1073.064	0.967	1074433	WORD_OFF	n/a	n/a	COBBLER	Desserts	8	9	[0, 0, 0]	n/a	catFR1	2	R1465D
1074.031	1.616	1075405	WORD	n/a	wordpools/wordpool_categorized_EN.txt	STOVE	Appliances	9	9	[0, 0, 0]	n/a	catFR1	2	R1465D
1075.647	0.883	1077016	WORD_OFF	n/a	n/a	STOVE	Appliances	9	9	[0, 0, 0]	n/a	catFR1	2	R1465D
1076.53	1.617	1077900	WORD	n/a	wordpools/wordpool_categorized_EN.txt	TOASTER	Appliances	10	9	[0, 0, 0]	n/a	catFR1	2	R1465D
1078.147	0.783	1079521	WORD_OFF	n/a	n/a	TOASTER	Appliances	10	9	[0, 0, 0]	n/a	catFR1	2	R1465D
1078.93	1.617	1080297	WORD	n/a	wordpools/wordpool_categorized_EN.txt	SPIDER	Insects	11	9	[0, 0, 0]	n/a	catFR1	2	R1465D
1080.547	0.984	1081917	WORD_OFF	n/a	n/a	SPIDER	Insects	11	9	[0, 0, 0]	n/a	catFR1	2	R1465D
1081.531	1.6	1082899	WORD	n/a	wordpools/wordpool_categorized_EN.txt	BEE	Insects	12	9	[0, 0, 0]	n/a	catFR1	2	R1465D
1083.131	0.004	1084500	WORD_OFF	n/a	n/a	BEE	Insects	12	9	[0, 0, 0]	n/a	catFR1	2	R1465D
1083.135	0.0	1084500	ENCODING_END	n/a	n/a	n/a	n/a	-999	9	[0, 0, 0]	n/a	catFR1	2	R1465D
1083.135	0.0	1084500	DISTRACT_START	n/a	n/a	n/a	n/a	-999	9	[0, 0, 0]	n/a	catFR1	2	R1465D
1083.131	0.004	1084500	PROB	0.004	n/a	n/a	n/a	-999	9	[1, 4, 4]	9	catFR1	2	R1465D
1083.135	3.529	1084504	START	n/a	n/a	n/a	n/a	-999	9	[-999, -999, -999]	n/a	catFR1	2	R1465D
1086.664	2.334	1088032	PROB	2.334	n/a	n/a	n/a	-999	9	[2, 3, 1]	6	catFR1	2	R1465D
1088.998	2.783	1090366	PROB	2.783	n/a	n/a	n/a	-999	9	[5, 7, 4]	16	catFR1	2	R1465D
1091.781	2.766	1093149	PROB	2.766	n/a	n/a	n/a	-999	9	[4, 8, 3]	15	catFR1	2	R1465D
1094.547	1.418	1095915	PROB	1.418	n/a	n/a	n/a	-999	9	[2, 1, 1]	4	catFR1	2	R1465D
1095.965	2.599	1097333	PROB	2.599	n/a	n/a	n/a	-999	9	[3, 8, 5]	16	catFR1	2	R1465D
1098.564	1.733	1099932	PROB	1.733	n/a	n/a	n/a	-999	9	[3, 2, 7]	12	catFR1	2	R1465D
1100.297	2.484	1101665	PROB	2.484	n/a	n/a	n/a	-999	9	[6, 3, 1]	10	catFR1	2	R1465D
1102.781	4.966	1104149	PROB	4.966	n/a	n/a	n/a	-999	9	[7, 7, 6]	20	catFR1	2	R1465D
1107.747	0.0	1109114	DISTRACT_END	n/a	n/a	n/a	n/a	-999	9	[0, 0, 0]	n/a	catFR1	2	R1465D
1107.747	1.017	1109114	STOP	n/a	n/a	n/a	n/a	-999	9	[-999, -999, -999]	n/a	catFR1	2	R1465D
1108.764	1.181	1110135	REC_START	n/a	n/a	n/a	n/a	-999	9	[0, 0, 0]	n/a	catFR1	2	R1465D
1109.945	1.248	1111312	REC_WORD	1.248	n/a	MOUSSE	Desserts	1	9	[0, 0, 0]	n/a	catFR1	2	R1465D
1111.193	3.764	1112560	REC_WORD	3.764	n/a	SPIDER	Insects	11	9	[0, 0, 0]	n/a	catFR1	2	R1465D
1114.957	7.852	1116324	REC_WORD	7.852	n/a	CAKE	Desserts	2	9	[0, 0, 0]	n/a	catFR1	2	R1465D
1122.809	5.963	1124175	REC_WORD	5.963	n/a	FLY	Insects	6	9	[0, 0, 0]	n/a	catFR1	2	R1465D
1128.772	5.23	1130138	REC_WORD	5.23	n/a	PIE	Desserts	7	9	[0, 0, 0]	n/a	catFR1	2	R1465D
1134.002	5.976	1135368	REC_WORD	5.976	n/a	CREAM	n/a	-999	9	[0, 0, 0]	n/a	catFR1	2	R1465D
1139.978	5.868	1141349	REC_END	n/a	n/a	n/a	n/a	-999	9	[0, 0, 0]	n/a	catFR1	2	R1465D
1145.846	10.35	1147212	COUNTDOWN_START	n/a	n/a	n/a	n/a	-999	9	[0, 0, 0]	n/a	catFR1	2	R1465D
1156.196	0.0	1157565	COUNTDOWN_END	n/a	n/a	n/a	n/a	-999	9	[0, 0, 0]	n/a	catFR1	2	R1465D
1156.196	1.85	1157565	ENCODING_START	n/a	n/a	n/a	n/a	-999	10	[0, 0, 0]	n/a	catFR1	2	R1465D
1158.046	1.601	1159411	WORD	n/a	wordpools/wordpool_categorized_EN.txt	COLANDER	KitchenTools	1	10	[0, 0, 0]	n/a	catFR1	2	R1465D
1159.647	0.917	1161012	WORD_OFF	n/a	n/a	COLANDER	KitchenTools	1	10	[0, 0, 0]	n/a	catFR1	2	R1465D
1160.564	1.615	1161925	WORD	n/a	wordpools/wordpool_categorized_EN.txt	SPOON	KitchenTools	2	10	[0, 0, 0]	n/a	catFR1	2	R1465D
1162.179	0.918	1163546	WORD_OFF	n/a	n/a	SPOON	KitchenTools	2	10	[0, 0, 0]	n/a	catFR1	2	R1465D
1163.097	1.617	1164459	WORD	n/a	wordpools/wordpool_categorized_EN.txt	DESK	Furniture	3	10	[0, 0, 0]	n/a	catFR1	2	R1465D
1164.714	0.982	1166080	WORD_OFF	n/a	n/a	DESK	Furniture	3	10	[0, 0, 0]	n/a	catFR1	2	R1465D
1165.696	1.601	1167062	WORD	n/a	wordpools/wordpool_categorized_EN.txt	SHELF	Furniture	4	10	[0, 0, 0]	n/a	catFR1	2	R1465D
1167.297	0.85	1168663	WORD_OFF	n/a	n/a	SHELF	Furniture	4	10	[0, 0, 0]	n/a	catFR1	2	R1465D
1168.147	1.6	1169508	WORD	n/a	wordpools/wordpool_categorized_EN.txt	MOSQUITO	Insects	5	10	[0, 0, 0]	n/a	catFR1	2	R1465D
1169.747	0.9	1171109	WORD_OFF	n/a	n/a	MOSQUITO	Insects	5	10	[0, 0, 0]	n/a	catFR1	2	R1465D
1170.647	1.6	1172012	WORD	n/a	wordpools/wordpool_categorized_EN.txt	BUTTERFLY	Insects	6	10	[0, 0, 0]	n/a	catFR1	2	R1465D
1172.247	0.766	1173613	WORD_OFF	n/a	n/a	BUTTERFLY	Insects	6	10	[0, 0, 0]	n/a	catFR1	2	R1465D
1173.013	1.601	1174379	WORD	n/a	wordpools/wordpool_categorized_EN.txt	FORK	KitchenTools	7	10	[0, 0, 0]	n/a	catFR1	2	R1465D
1174.614	0.9	1175980	WORD_OFF	n/a	n/a	FORK	KitchenTools	7	10	[0, 0, 0]	n/a	catFR1	2	R1465D
1175.514	1.616	1176874	WORD	n/a	wordpools/wordpool_categorized_EN.txt	CORKSCREW	KitchenTools	8	10	[0, 0, 0]	n/a	catFR1	2	R1465D
1177.13	0.901	1178495	WORD_OFF	n/a	n/a	CORKSCREW	KitchenTools	8	10	[0, 0, 0]	n/a	catFR1	2	R1465D
1178.031	1.616	1179398	WORD	n/a	wordpools/wordpool_categorized_EN.txt	ANT	Insects	9	10	[0, 0, 0]	n/a	catFR1	2	R1465D
1179.647	1.0	1181019	WORD_OFF	n/a	n/a	ANT	Insects	9	10	[0, 0, 0]	n/a	catFR1	2	R1465D
1180.647	1.6	1182011	WORD	n/a	wordpools/wordpool_categorized_EN.txt	MOTH	Insects	10	10	[0, 0, 0]	n/a	catFR1	2	R1465D
1182.247	0.884	1183612	WORD_OFF	n/a	n/a	MOTH	Insects	10	10	[0, 0, 0]	n/a	catFR1	2	R1465D
1183.131	1.616	1184496	WORD	n/a	wordpools/wordpool_categorized_EN.txt	CABINET	Furniture	11	10	[0, 0, 0]	n/a	catFR1	2	R1465D
1184.747	0.949	1186116	WORD_OFF	n/a	n/a	CABINET	Furniture	11	10	[0, 0, 0]	n/a	catFR1	2	R1465D
1185.696	1.6	1187059	WORD	n/a	wordpools/wordpool_categorized_EN.txt	NIGHTSTAND	Furniture	12	10	[0, 0, 0]	n/a	catFR1	2	R1465D
1187.296	0.004	1188660	WORD_OFF	n/a	n/a	NIGHTSTAND	Furniture	12	10	[0, 0, 0]	n/a	catFR1	2	R1465D
1187.3	0.0	1188660	ENCODING_END	n/a	n/a	n/a	n/a	-999	10	[0, 0, 0]	n/a	catFR1	2	R1465D
1187.297	0.003	1188660	PROB	0.003	n/a	n/a	n/a	-999	10	[1, 6, 1]	8	catFR1	2	R1465D
1187.3	0.0	1188663	START	n/a	n/a	n/a	n/a	-999	10	[-999, -999, -999]	n/a	catFR1	2	R1465D
1187.3	3.598	1188670	DISTRACT_START	n/a	n/a	n/a	n/a	-999	10	[0, 0, 0]	n/a	catFR1	2	R1465D
1190.898	2.55	1192261	PROB	2.55	n/a	n/a	n/a	-999	10	[3, 6, 7]	16	catFR1	2	R1465D
1193.448	3.067	1194811	PROB	3.067	n/a	n/a	n/a	-999	10	[5, 3, 8]	16	catFR1	2	R1465D
1196.515	2.7	1197878	PROB	2.7	n/a	n/a	n/a	-999	10	[4, 8, 1]	13	catFR1	2	R1465D
1199.215	2.133	1200577	PROB	2.133	n/a	n/a	n/a	-999	10	[3, 6, 2]	11	catFR1	2	R1465D
1201.348	2.85	1202710	PROB	2.85	n/a	n/a	n/a	-999	10	[6, 3, 5]	14	catFR1	2	R1465D
1204.198	1.782	1205560	PROB	1.782	n/a	n/a	n/a	-999	10	[3, 7, 1]	11	catFR1	2	R1465D
1205.98	1.916	1207342	PROB	1.916	n/a	n/a	n/a	-999	10	[2, 6, 3]	11	catFR1	2	R1465D
1207.896	0.0	1209257	DISTRACT_END	n/a	n/a	n/a	n/a	-999	10	[0, 0, 0]	n/a	catFR1	2	R1465D
1207.896	1.384	1209258	STOP	n/a	n/a	n/a	n/a	-999	10	[-999, -999, -999]	n/a	catFR1	2	R1465D
1209.28	0.648	1210641	REC_START	n/a	n/a	n/a	n/a	-999	10	[0, 0, 0]	n/a	catFR1	2	R1465D
1209.928	1.237	1211290	REC_WORD	1.237	n/a	STAND	n/a	-999	10	[0, 0, 0]	n/a	catFR1	2	R1465D
1211.165	3.611	1212527	REC_WORD	3.611	n/a	SHELF	Furniture	4	10	[0, 0, 0]	n/a	catFR1	2	R1465D
1214.776	6.11	1216138	REC_WORD	6.11	n/a	COLANDER	KitchenTools	1	10	[0, 0, 0]	n/a	catFR1	2	R1465D
1220.886	1.0	1222247	REC_WORD	1.0	n/a	FLY	Insects	-999	10	[0, 0, 0]	n/a	catFR1	2	R1465D
1221.886	3.028	1223247	REC_WORD_VV	3.028	n/a	<>	n/a	-999	10	[0, 0, 0]	n/a	catFR1	2	R1465D
1224.914	1.0	1226275	REC_WORD_VV	1.0	n/a	<>	n/a	-999	10	[0, 0, 0]	n/a	catFR1	2	R1465D
1225.914	1.0	1227275	REC_WORD_VV	1.0	n/a	<>	n/a	-999	10	[0, 0, 0]	n/a	catFR1	2	R1465D
1226.914	1.0	1228275	REC_WORD_VV	1.0	n/a	<>	n/a	-999	10	[0, 0, 0]	n/a	catFR1	2	R1465D
1227.914	1.0	1229275	REC_WORD_VV	1.0	n/a	<>	n/a	-999	10	[0, 0, 0]	n/a	catFR1	2	R1465D
1228.914	1.0	1230275	REC_WORD_VV	1.0	n/a	<>	n/a	-999	10	[0, 0, 0]	n/a	catFR1	2	R1465D
1229.914	1.152	1231275	REC_WORD_VV	1.152	n/a	<>	n/a	-999	10	[0, 0, 0]	n/a	catFR1	2	R1465D
1231.066	0.696	1232427	REC_WORD	0.696	n/a	SHELF	Furniture	4	10	[0, 0, 0]	n/a	catFR1	2	R1465D
1231.762	1.0	1233123	REC_WORD	1.0	n/a	STAND	n/a	-999	10	[0, 0, 0]	n/a	catFR1	2	R1465D
1232.762	0.318	1234123	REC_WORD_VV	0.318	n/a	<>	n/a	-999	10	[0, 0, 0]	n/a	catFR1	2	R1465D
1233.08	2.92	1234441	REC_WORD	2.92	n/a	NIGHTSTAND	Furniture	12	10	[0, 0, 0]	n/a	catFR1	2	R1465D
1236.0	2.996	1237360	REC_WORD	2.996	n/a	COLANDER	KitchenTools	1	10	[0, 0, 0]	n/a	catFR1	2	R1465D
1238.996	1.517	1240356	REC_WORD_VV	1.517	n/a	<>	n/a	-999	10	[0, 0, 0]	n/a	catFR1	2	R1465D
1240.513	26.8	1241875	REC_END	n/a	n/a	n/a	n/a	-999	10	[0, 0, 0]	n/a	catFR1	2	R1465D
1267.313	10.351	1268678	COUNTDOWN_START	n/a	n/a	n/a	n/a	-999	10	[0, 0, 0]	n/a	catFR1	2	R1465D
1277.664	0.0	1279021	COUNTDOWN_END	n/a	n/a	n/a	n/a	-999	10	[0, 0, 0]	n/a	catFR1	2	R1465D
1277.664	1.85	1279030	ENCODING_START	n/a	n/a	n/a	n/a	-999	11	[0, 0, 0]	n/a	catFR1	2	R1465D
1279.514	1.6	1280877	WORD	n/a	wordpools/wordpool_categorized_EN.txt	LEVEL	Tools	1	11	[0, 0, 0]	n/a	catFR1	2	R1465D
1281.114	0.883	1282468	WORD_OFF	n/a	n/a	LEVEL	Tools	1	11	[0, 0, 0]	n/a	catFR1	2	R1465D
1281.997	1.6	1283352	WORD	n/a	wordpools/wordpool_categorized_EN.txt	SAW	Tools	2	11	[0, 0, 0]	n/a	catFR1	2	R1465D
1283.597	1.0	1284953	WORD_OFF	n/a	n/a	SAW	Tools	2	11	[0, 0, 0]	n/a	catFR1	2	R1465D
1284.597	1.616	1285955	WORD	n/a	wordpools/wordpool_categorized_EN.txt	SNOW	Weather	3	11	[0, 0, 0]	n/a	catFR1	2	R1465D
1286.213	0.803	1287575	WORD_OFF	n/a	n/a	SNOW	Weather	3	11	[0, 0, 0]	n/a	catFR1	2	R1465D
1287.016	1.598	1288371	WORD	n/a	wordpools/wordpool_categorized_EN.txt	TORNADO	Weather	4	11	[0, 0, 0]	n/a	catFR1	2	R1465D
1288.614	0.898	1289972	WORD_OFF	n/a	n/a	TORNADO	Weather	4	11	[0, 0, 0]	n/a	catFR1	2	R1465D
1289.512	1.601	1290866	WORD	n/a	wordpools/wordpool_categorized_EN.txt	CHEESECAKE	Desserts	5	11	[0, 0, 0]	n/a	catFR1	2	R1465D
1291.113	0.818	1292467	WORD_OFF	n/a	n/a	CHEESECAKE	Desserts	5	11	[0, 0, 0]	n/a	catFR1	2	R1465D
1291.931	1.616	1293292	WORD	n/a	wordpools/wordpool_categorized_EN.txt	JELLO	Desserts	6	11	[0, 0, 0]	n/a	catFR1	2	R1465D
1293.547	1.0	1294902	WORD_OFF	n/a	n/a	JELLO	Desserts	6	11	[0, 0, 0]	n/a	catFR1	2	R1465D
1294.547	1.616	1295904	WORD	n/a	wordpools/wordpool_categorized_EN.txt	HUMIDITY	Weather	7	11	[0, 0, 0]	n/a	catFR1	2	R1465D
1296.163	0.818	1297525	WORD_OFF	n/a	n/a	HUMIDITY	Weather	7	11	[0, 0, 0]	n/a	catFR1	2	R1465D
1296.981	1.617	1298340	WORD	n/a	wordpools/wordpool_categorized_EN.txt	THUNDER	Weather	8	11	[0, 0, 0]	n/a	catFR1	2	R1465D
1298.598	0.849	1299951	WORD_OFF	n/a	n/a	THUNDER	Weather	8	11	[0, 0, 0]	n/a	catFR1	2	R1465D
1299.447	1.6	1300805	WORD	n/a	wordpools/wordpool_categorized_EN.txt	COOKIE	Desserts	9	11	[0, 0, 0]	n/a	catFR1	2	R1465D
1301.047	0.984	1302406	WORD_OFF	n/a	n/a	COOKIE	Desserts	9	11	[0, 0, 0]	n/a	catFR1	2	R1465D
1302.031	1.6	1303388	WORD	n/a	wordpools/wordpool_categorized_EN.txt	PUDDING	Desserts	10	11	[0, 0, 0]	n/a	catFR1	2	R1465D
1303.631	0.917	1304989	WORD_OFF	n/a	n/a	PUDDING	Desserts	10	11	[0, 0, 0]	n/a	catFR1	2	R1465D
1304.548	1.616	1305903	WORD	n/a	wordpools/wordpool_categorized_EN.txt	SHOVEL	Tools	11	11	[0, 0, 0]	n/a	catFR1	2	R1465D
1306.164	0.783	1307523	WORD_OFF	n/a	n/a	SHOVEL	Tools	11	11	[0, 0, 0]	n/a	catFR1	2	R1465D
1306.947	1.6	1308309	WORD	n/a	wordpools/wordpool_categorized_EN.txt	WRENCH	Tools	12	11	[0, 0, 0]	n/a	catFR1	2	R1465D
1308.547	0.001	1309900	WORD_OFF	n/a	n/a	WRENCH	Tools	12	11	[0, 0, 0]	n/a	catFR1	2	R1465D
1308.548	0.001	1309904	PROB	0.001	n/a	n/a	n/a	-999	11	[1, 6, 3]	10	catFR1	2	R1465D
1308.549	0.0	1309905	START	n/a	n/a	n/a	n/a	-999	11	[-999, -999, -999]	n/a	catFR1	2	R1465D
1308.549	0.0	1309910	ENCODING_END	n/a	n/a	n/a	n/a	-999	11	[0, 0, 0]	n/a	catFR1	2	R1465D
1308.549	4.115	1309910	DISTRACT_START	n/a	n/a	n/a	n/a	-999	11	[0, 0, 0]	n/a	catFR1	2	R1465D
1312.664	2.2	1314020	PROB	2.2	n/a	n/a	n/a	-999	11	[5, 6, 6]	17	catFR1	2	R1465D
1314.864	1.35	1316220	PROB	1.35	n/a	n/a	n/a	-999	11	[6, 4, 1]	11	catFR1	2	R1465D
1316.214	2.484	1317570	PROB	2.484	n/a	n/a	n/a	-999	11	[2, 6, 8]	16	catFR1	2	R1465D
1318.698	2.149	1320054	PROB	2.149	n/a	n/a	n/a	-999	11	[2, 6, 1]	9	catFR1	2	R1465D
1320.847	2.1	1322203	PROB	2.1	n/a	n/a	n/a	-999	11	[7, 7, 4]	18	catFR1	2	R1465D
1322.947	1.668	1324303	PROB	1.668	n/a	n/a	n/a	-999	11	[6, 2, 2]	10	catFR1	2	R1465D
1324.615	1.417	1325971	PROB	1.417	n/a	n/a	n/a	-999	11	[5, 4, 2]	11	catFR1	2	R1465D
1326.032	3.615	1327388	PROB	3.615	n/a	n/a	n/a	-999	11	[3, 6, 6]	15	catFR1	2	R1465D
1329.647	0.0	1331002	STOP	n/a	n/a	n/a	n/a	-999	11	[-999, -999, -999]	n/a	catFR1	2	R1465D
1329.647	1.284	1331007	DISTRACT_END	n/a	n/a	n/a	n/a	-999	11	[0, 0, 0]	n/a	catFR1	2	R1465D
1330.931	1.097	1332284	REC_START	n/a	n/a	n/a	n/a	-999	11	[0, 0, 0]	n/a	catFR1	2	R1465D
1332.028	1.029	1333383	REC_WORD	1.029	n/a	WRENCH	Tools	12	11	[0, 0, 0]	n/a	catFR1	2	R1465D
1333.057	1.419	1334412	REC_WORD	1.419	n/a	SHOVEL	Tools	11	11	[0, 0, 0]	n/a	catFR1	2	R1465D
1334.476	7.582	1335831	REC_WORD	7.582	n/a	CHEESECAKE	Desserts	5	11	[0, 0, 0]	n/a	catFR1	2	R1465D
1342.058	1.494	1343413	REC_WORD	1.494	n/a	PLOW	n/a	-999	11	[0, 0, 0]	n/a	catFR1	2	R1465D
1343.552	0.335	1344907	REC_WORD	0.335	n/a	WRENCH	Tools	12	11	[0, 0, 0]	n/a	catFR1	2	R1465D
1343.887	0.547	1345242	REC_WORD	0.547	n/a	SHOVEL	Tools	11	11	[0, 0, 0]	n/a	catFR1	2	R1465D
1344.434	2.884	1345789	REC_WORD	2.884	n/a	CHEESECAKE	Desserts	5	11	[0, 0, 0]	n/a	catFR1	2	R1465D
1347.318	1.0	1348672	REC_WORD	1.0	n/a	PLIERS	Tools	-999	11	[0, 0, 0]	n/a	catFR1	2	R1465D
1348.318	1.0	1349672	REC_WORD_VV	1.0	n/a	<>	n/a	-999	11	[0, 0, 0]	n/a	catFR1	2	R1465D
1349.318	1.0	1350672	REC_WORD_VV	1.0	n/a	<>	n/a	-999	11	[0, 0, 0]	n/a	catFR1	2	R1465D
1350.318	1.0	1351672	REC_WORD_VV	1.0	n/a	<>	n/a	-999	11	[0, 0, 0]	n/a	catFR1	2	R1465D
1351.318	1.0	1352672	REC_WORD_VV	1.0	n/a	<>	n/a	-999	11	[0, 0, 0]	n/a	catFR1	2	R1465D
1352.318	0.777	1353672	REC_WORD_VV	0.777	n/a	<>	n/a	-999	11	[0, 0, 0]	n/a	catFR1	2	R1465D
1353.095	6.65	1354449	REC_WORD	6.65	n/a	PIE	Desserts	-999	11	[0, 0, 0]	n/a	catFR1	2	R1465D
1359.745	2.421	1361099	REC_WORD_VV	2.421	n/a	<>	n/a	-999	11	[0, 0, 0]	n/a	catFR1	2	R1465D
1362.166	12.781	1363517	REC_END	n/a	n/a	n/a	n/a	-999	11	[0, 0, 0]	n/a	catFR1	2	R1465D
1374.947	10.349	1376305	COUNTDOWN_START	n/a	n/a	n/a	n/a	-999	11	[0, 0, 0]	n/a	catFR1	2	R1465D
1385.296	0.001	1386648	COUNTDOWN_END	n/a	n/a	n/a	n/a	-999	11	[0, 0, 0]	n/a	catFR1	2	R1465D
1385.297	1.834	1386648	ENCODING_START	n/a	n/a	n/a	n/a	-999	12	[0, 0, 0]	n/a	catFR1	2	R1465D
1387.131	1.616	1388484	WORD	n/a	wordpools/wordpool_categorized_EN.txt	PLANE	Vehicles	1	12	[0, 0, 0]	n/a	catFR1	2	R1465D
1388.747	0.851	1390103	WORD_OFF	n/a	n/a	PLANE	Vehicles	1	12	[0, 0, 0]	n/a	catFR1	2	R1465D
1389.598	1.616	1390950	WORD	n/a	wordpools/wordpool_categorized_EN.txt	VAN	Vehicles	2	12	[0, 0, 0]	n/a	catFR1	2	R1465D
1391.214	0.966	1392570	WORD_OFF	n/a	n/a	VAN	Vehicles	2	12	[0, 0, 0]	n/a	catFR1	2	R1465D
1392.18	1.601	1393533	WORD	n/a	wordpools/wordpool_categorized_EN.txt	SANDER	Tools	3	12	[0, 0, 0]	n/a	catFR1	2	R1465D
1393.781	0.933	1395134	WORD_OFF	n/a	n/a	SANDER	Tools	3	12	[0, 0, 0]	n/a	catFR1	2	R1465D
1394.714	1.617	1396067	WORD	n/a	wordpools/wordpool_categorized_EN.txt	CROWBAR	Tools	4	12	[0, 0, 0]	n/a	catFR1	2	R1465D
1396.331	0.983	1397687	WORD_OFF	n/a	n/a	CROWBAR	Tools	4	12	[0, 0, 0]	n/a	catFR1	2	R1465D
1397.314	1.617	1398669	WORD	n/a	wordpools/wordpool_categorized_EN.txt	FREEZER	Appliances	5	12	[0, 0, 0]	n/a	catFR1	2	R1465D
1398.931	0.85	1400280	WORD_OFF	n/a	n/a	FREEZER	Appliances	5	12	[0, 0, 0]	n/a	catFR1	2	R1465D
1399.781	1.6	1401135	WORD	n/a	wordpools/wordpool_categorized_EN.txt	DISHWASHER	Appliances	6	12	[0, 0, 0]	n/a	catFR1	2	R1465D
1401.381	1.0	1402736	WORD_OFF	n/a	n/a	DISHWASHER	Appliances	6	12	[0, 0, 0]	n/a	catFR1	2	R1465D
1402.381	1.6	1403738	WORD	n/a	wordpools/wordpool_categorized_EN.txt	BIKE	Vehicles	7	12	[0, 0, 0]	n/a	catFR1	2	R1465D
1403.981	0.816	1405329	WORD_OFF	n/a	n/a	BIKE	Vehicles	7	12	[0, 0, 0]	n/a	catFR1	2	R1465D
1404.797	1.617	1406154	WORD	n/a	wordpools/wordpool_categorized_EN.txt	TRUCK	Vehicles	8	12	[0, 0, 0]	n/a	catFR1	2	R1465D
1406.414	0.867	1407764	WORD_OFF	n/a	n/a	TRUCK	Vehicles	8	12	[0, 0, 0]	n/a	catFR1	2	R1465D
1407.281	1.616	1408629	WORD	n/a	wordpools/wordpool_categorized_EN.txt	DRILL	Tools	9	12	[0, 0, 0]	n/a	catFR1	2	R1465D
1408.897	0.9	1410249	WORD_OFF	n/a	n/a	DRILL	Tools	9	12	[0, 0, 0]	n/a	catFR1	2	R1465D
1409.797	1.6	1411153	WORD	n/a	wordpools/wordpool_categorized_EN.txt	SCREWDRIVER	Tools	10	12	[0, 0, 0]	n/a	catFR1	2	R1465D
1411.397	0.967	1412744	WORD_OFF	n/a	n/a	SCREWDRIVER	Tools	10	12	[0, 0, 0]	n/a	catFR1	2	R1465D
1412.364	1.614	1413716	WORD	n/a	wordpools/wordpool_categorized_EN.txt	OVEN	Appliances	11	12	[0, 0, 0]	n/a	catFR1	2	R1465D
1413.978	0.885	1415327	WORD_OFF	n/a	n/a	OVEN	Appliances	11	12	[0, 0, 0]	n/a	catFR1	2	R1465D
1414.863	1.618	1416211	WORD	n/a	wordpools/wordpool_categorized_EN.txt	MIXER	Appliances	12	12	[0, 0, 0]	n/a	catFR1	2	R1465D
1416.481	0.001	1417832	WORD_OFF	n/a	n/a	MIXER	Appliances	12	12	[0, 0, 0]	n/a	catFR1	2	R1465D
1416.482	0.0	1417832	ENCODING_END	n/a	n/a	n/a	n/a	-999	12	[0, 0, 0]	n/a	catFR1	2	R1465D
1416.482	0.0	1417832	DISTRACT_START	n/a	n/a	n/a	n/a	-999	12	[0, 0, 0]	n/a	catFR1	2	R1465D
1416.481	0.001	1417832	PROB	0.001	n/a	n/a	n/a	-999	12	[1, 5, 8]	14	catFR1	2	R1465D
1416.482	3.215	1417833	START	n/a	n/a	n/a	n/a	-999	12	[-999, -999, -999]	n/a	catFR1	2	R1465D
1419.697	3.883	1421048	PROB	3.883	n/a	n/a	n/a	-999	12	[6, 4, 5]	15	catFR1	2	R1465D
1423.58	3.251	1424930	PROB	3.251	n/a	n/a	n/a	-999	12	[6, 1, 3]	10	catFR1	2	R1465D
1426.831	1.701	1428181	PROB	1.701	n/a	n/a	n/a	-999	12	[3, 5, 5]	13	catFR1	2	R1465D
1428.532	2.031	1429882	PROB	2.031	n/a	n/a	n/a	-999	12	[3, 4, 1]	8	catFR1	2	R1465D
1430.563	1.818	1431913	PROB	1.818	n/a	n/a	n/a	-999	12	[3, 4, 2]	9	catFR1	2	R1465D
1432.381	1.501	1433731	PROB	1.501	n/a	n/a	n/a	-999	12	[3, 6, 3]	12	catFR1	2	R1465D
1433.882	2.149	1435232	PROB	2.149	n/a	n/a	n/a	-999	12	[4, 6, 7]	17	catFR1	2	R1465D
1436.031	1.783	1437381	PROB	1.783	n/a	n/a	n/a	-999	12	[4, 1, 7]	12	catFR1	2	R1465D
1437.814	0.0	1439164	STOP	n/a	n/a	n/a	n/a	-999	12	[-999, -999, -999]	n/a	catFR1	2	R1465D
1437.814	1.183	1439165	DISTRACT_END	n/a	n/a	n/a	n/a	-999	12	[0, 0, 0]	n/a	catFR1	2	R1465D
1438.997	1.0	1440343	REC_START	n/a	n/a	n/a	n/a	-999	12	[0, 0, 0]	n/a	catFR1	2	R1465D
1439.997	1.198	1441346	REC_WORD	1.198	n/a	SANDER	Tools	3	12	[0, 0, 0]	n/a	catFR1	2	R1465D
1441.195	4.3	1442544	REC_WORD	4.3	n/a	CROWBAR	Tools	4	12	[0, 0, 0]	n/a	catFR1	2	R1465D
1445.495	2.866	1446844	REC_WORD	2.866	n/a	WRENCH	Tools	-999	12	[0, 0, 0]	n/a	catFR1	2	R1465D
1448.361	1.206	1449710	REC_WORD	1.206	n/a	PLANE	Vehicles	1	12	[0, 0, 0]	n/a	catFR1	2	R1465D
1449.567	3.214	1450916	REC_WORD	3.214	n/a	TRUCK	Vehicles	8	12	[0, 0, 0]	n/a	catFR1	2	R1465D
1452.781	2.216	1454130	REC_WORD	2.216	n/a	CAR	Vehicles	-999	12	[0, 0, 0]	n/a	catFR1	2	R1465D
1454.997	3.543	1456346	REC_WORD	3.543	n/a	BIKE	Vehicles	7	12	[0, 0, 0]	n/a	catFR1	2	R1465D
1458.54	1.0	1459888	REC_WORD	1.0	n/a	MOTORCYCLE	n/a	-999	12	[0, 0, 0]	n/a	catFR1	2	R1465D
1459.54	1.0	1460888	REC_WORD_VV	1.0	n/a	<>	n/a	-999	12	[0, 0, 0]	n/a	catFR1	2	R1465D
1460.54	1.0	1461888	REC_WORD_VV	1.0	n/a	<>	n/a	-999	12	[0, 0, 0]	n/a	catFR1	2	R1465D
1461.54	1.0	1462888	REC_WORD_VV	1.0	n/a	<>	n/a	-999	12	[0, 0, 0]	n/a	catFR1	2	R1465D
1462.54	7.693	1463888	REC_WORD_VV	7.693	n/a	<>	n/a	-999	12	[0, 0, 0]	n/a	catFR1	2	R1465D
1470.233	0.0	1471586	REC_END	n/a	n/a	n/a	n/a	-999	12	[0, 0, 0]	n/a	catFR1	2	R1465D
