onset	duration	sample	trial_type	response_time	stim_file	item_name	category	serialpos	list	test	answer	experiment	session	subject
0.0	0.0	6086	INSTRUCT_START	n/a	n/a	n/a	n/a	-999	-999	[0, 0, 0]	n/a	catFR1	1	R1261P
0.0	11.121	6086	INSTRUCT_END	n/a	n/a	n/a	n/a	-999	-999	[0, 0, 0]	n/a	catFR1	1	R1261P
11.121	0.0	17206	SESS_START	n/a	n/a	n/a	n/a	-999	-999	[0, 0, 0]	n/a	catFR1	1	R1261P
11.121	435.902	17206	MIC_TEST	n/a	n/a	n/a	n/a	-999	-999	[0, 0, 0]	n/a	catFR1	1	R1261P
447.023	5.012	453086	PRACTICE_TRIAL	n/a	n/a	n/a	n/a	-999	-1	[0, 0, 0]	n/a	catFR1	1	R1261P
452.035	10.428	458097	COUNTDOWN_START	n/a	n/a	n/a	n/a	-999	-1	[0, 0, 0]	n/a	catFR1	1	R1261P
462.463	0.008	468525	COUNTDOWN_END	n/a	n/a	n/a	n/a	-999	-1	[0, 0, 0]	n/a	catFR1	1	R1261P
462.471	1.617	468533	PRACTICE_ORIENT	n/a	n/a	n/a	n/a	-999	-1	[0, 0, 0]	n/a	catFR1	1	R1261P
464.088	1.983	470150	PRACTICE_ORIENT_OFF	n/a	n/a	n/a	n/a	-999	-1	[0, 0, 0]	n/a	catFR1	1	R1261P
466.071	1.617	472133	PRACTICE_WORD	n/a	n/a	WAGON	n/a	-1	-1	[0, 0, 0]	n/a	catFR1	1	R1261P
467.688	0.917	473750	PRACTICE_WORD_OFF	n/a	n/a	WAGON	n/a	-999	-1	[0, 0, 0]	n/a	catFR1	1	R1261P
468.605	1.617	474667	PRACTICE_WORD	n/a	n/a	RHINO	n/a	-1	-1	[0, 0, 0]	n/a	catFR1	1	R1261P
470.222	0.817	476284	PRACTICE_WORD_OFF	n/a	n/a	RHINO	n/a	-999	-1	[0, 0, 0]	n/a	catFR1	1	R1261P
471.039	1.617	477100	PRACTICE_WORD	n/a	n/a	BEAM	n/a	-1	-1	[0, 0, 0]	n/a	catFR1	1	R1261P
472.656	0.85	478717	PRACTICE_WORD_OFF	n/a	n/a	BEAM	n/a	-999	-1	[0, 0, 0]	n/a	catFR1	1	R1261P
473.506	1.617	479567	PRACTICE_WORD	n/a	n/a	CAMEL	n/a	-1	-1	[0, 0, 0]	n/a	catFR1	1	R1261P
475.123	0.917	481184	PRACTICE_WORD_OFF	n/a	n/a	CAMEL	n/a	-999	-1	[0, 0, 0]	n/a	catFR1	1	R1261P
476.04	1.617	482101	PRACTICE_WORD	n/a	n/a	WATCH	n/a	-1	-1	[0, 0, 0]	n/a	catFR1	1	R1261P
477.657	0.817	483718	PRACTICE_WORD_OFF	n/a	n/a	WATCH	n/a	-999	-1	[0, 0, 0]	n/a	catFR1	1	R1261P
478.474	1.617	484535	PRACTICE_WORD	n/a	n/a	CHEST	n/a	-1	-1	[0, 0, 0]	n/a	catFR1	1	R1261P
480.091	0.784	486152	PRACTICE_WORD_OFF	n/a	n/a	CHEST	n/a	-999	-1	[0, 0, 0]	n/a	catFR1	1	R1261P
480.875	1.616	486936	PRACTICE_WORD	n/a	n/a	RING	n/a	-1	-1	[0, 0, 0]	n/a	catFR1	1	R1261P
482.491	0.767	488552	PRACTICE_WORD_OFF	n/a	n/a	RING	n/a	-999	-1	[0, 0, 0]	n/a	catFR1	1	R1261P
483.258	1.601	489319	PRACTICE_WORD	n/a	n/a	TONGUE	n/a	-1	-1	[0, 0, 0]	n/a	catFR1	1	R1261P
484.859	0.967	490920	PRACTICE_WORD_OFF	n/a	n/a	TONGUE	n/a	-999	-1	[0, 0, 0]	n/a	catFR1	1	R1261P
485.826	1.616	491887	PRACTICE_WORD	n/a	n/a	FLOOD	n/a	-1	-1	[0, 0, 0]	n/a	catFR1	1	R1261P
487.442	0.85	493503	PRACTICE_WORD_OFF	n/a	n/a	FLOOD	n/a	-999	-1	[0, 0, 0]	n/a	catFR1	1	R1261P
488.292	1.618	494353	PRACTICE_WORD	n/a	n/a	IRON	n/a	-1	-1	[0, 0, 0]	n/a	catFR1	1	R1261P
489.91	0.9	495970	PRACTICE_WORD_OFF	n/a	n/a	IRON	n/a	-999	-1	[0, 0, 0]	n/a	catFR1	1	R1261P
490.81	1.616	496870	PRACTICE_WORD	n/a	n/a	COTTON	n/a	-1	-1	[0, 0, 0]	n/a	catFR1	1	R1261P
492.426	0.851	498486	PRACTICE_WORD_OFF	n/a	n/a	COTTON	n/a	-999	-1	[0, 0, 0]	n/a	catFR1	1	R1261P
493.277	1.617	499337	PRACTICE_WORD	n/a	n/a	ATTIC	n/a	-1	-1	[0, 0, 0]	n/a	catFR1	1	R1261P
494.894	0.001	500954	PRACTICE_WORD_OFF	n/a	n/a	ATTIC	n/a	-999	-1	[0, 0, 0]	n/a	catFR1	1	R1261P
494.895	0.0	500955	DISTRACT_START	n/a	n/a	n/a	n/a	-999	-1	[0, 0, 0]	n/a	catFR1	1	R1261P
494.895	0.0	500955	ENCODING_END	n/a	n/a	n/a	n/a	-999	-1	[0, 0, 0]	n/a	catFR1	1	R1261P
494.895	0.016	500955	START	n/a	n/a	n/a	n/a	-999	1	[-999, -999, -999]	n/a	catFR1	1	R1261P
494.911	45.411	500971	PROB	45.411	n/a	n/a	n/a	-999	1	[5, 1, 5]	11	catFR1	1	R1261P
540.322	0.014	546380	STOP	n/a	n/a	n/a	n/a	-999	1	[-999, -999, -999]	n/a	catFR1	1	R1261P
540.336	0.534	546394	DISTRACT_END	n/a	n/a	n/a	n/a	-999	-1	[0, 0, 0]	n/a	catFR1	1	R1261P
540.87	0.517	546928	RETRIEVAL_ORIENT	n/a	n/a	n/a	n/a	-999	-1	[0, 0, 0]	n/a	catFR1	1	R1261P
541.387	30.011	547445	PRACTICE_REC_START	n/a	n/a	n/a	n/a	-999	-1	[0, 0, 0]	n/a	catFR1	1	R1261P
571.398	54.604	577454	PRACTICE_REC_END	n/a	n/a	n/a	n/a	-999	-1	[0, 0, 0]	n/a	catFR1	1	R1261P
626.002	0.5	632055	TRIAL	n/a	n/a	n/a	n/a	-999	1	[0, 0, 0]	n/a	catFR1	1	R1261P
626.502	10.428	632555	COUNTDOWN_START	n/a	n/a	n/a	n/a	-999	1	[0, 0, 0]	n/a	catFR1	1	R1261P
636.93	0.007	642983	COUNTDOWN_END	n/a	n/a	n/a	n/a	-999	1	[0, 0, 0]	n/a	catFR1	1	R1261P
636.937	1.617	642990	ORIENT	n/a	n/a	n/a	n/a	-999	1	[0, 0, 0]	n/a	catFR1	1	R1261P
638.554	2.234	644607	ORIENT_OFF	n/a	n/a	n/a	n/a	-999	1	[0, 0, 0]	n/a	catFR1	1	R1261P
640.788	1.617	646841	WORD	n/a	wordpools/wordpool_categorized_EN.txt	ROOM	Building	1	1	[0, 0, 0]	n/a	catFR1	1	R1261P
642.405	0.866	648458	WORD_OFF	n/a	n/a	ROOM	n/a	1	1	[0, 0, 0]	n/a	catFR1	1	R1261P
643.271	1.601	649323	WORD	n/a	wordpools/wordpool_categorized_EN.txt	DOOR	Building	2	1	[0, 0, 0]	n/a	catFR1	1	R1261P
644.872	0.883	650924	WORD_OFF	n/a	n/a	DOOR	n/a	2	1	[0, 0, 0]	n/a	catFR1	1	R1261P
645.755	1.617	651807	WORD	n/a	wordpools/wordpool_categorized_EN.txt	CROW	Birds	3	1	[0, 0, 0]	n/a	catFR1	1	R1261P
647.372	1.017	653424	WORD_OFF	n/a	n/a	CROW	n/a	3	1	[0, 0, 0]	n/a	catFR1	1	R1261P
648.389	1.617	654441	WORD	n/a	wordpools/wordpool_categorized_EN.txt	ROBIN	Birds	4	1	[0, 0, 0]	n/a	catFR1	1	R1261P
650.006	0.934	656058	WORD_OFF	n/a	n/a	ROBIN	n/a	4	1	[0, 0, 0]	n/a	catFR1	1	R1261P
650.94	1.617	656992	WORD	n/a	wordpools/wordpool_categorized_EN.txt	CROWBAR	Tools	5	1	[0, 0, 0]	n/a	catFR1	1	R1261P
652.557	0.766	658609	WORD_OFF	n/a	n/a	CROWBAR	n/a	5	1	[0, 0, 0]	n/a	catFR1	1	R1261P
653.323	1.617	659375	WORD	n/a	wordpools/wordpool_categorized_EN.txt	AXE	Tools	6	1	[0, 0, 0]	n/a	catFR1	1	R1261P
654.94	0.801	660992	WORD_OFF	n/a	n/a	AXE	n/a	6	1	[0, 0, 0]	n/a	catFR1	1	R1261P
655.741	1.616	661793	WORD	n/a	wordpools/wordpool_categorized_EN.txt	FOUNDATION	Building	7	1	[0, 0, 0]	n/a	catFR1	1	R1261P
657.357	0.834	663409	WORD_OFF	n/a	n/a	FOUNDATION	n/a	7	1	[0, 0, 0]	n/a	catFR1	1	R1261P
658.191	1.617	664243	WORD	n/a	wordpools/wordpool_categorized_EN.txt	FLOOR	Building	8	1	[0, 0, 0]	n/a	catFR1	1	R1261P
659.808	0.883	665860	WORD_OFF	n/a	n/a	FLOOR	n/a	8	1	[0, 0, 0]	n/a	catFR1	1	R1261P
660.691	1.617	666743	WORD	n/a	wordpools/wordpool_categorized_EN.txt	GOOSE	Birds	9	1	[0, 0, 0]	n/a	catFR1	1	R1261P
662.308	0.767	668360	WORD_OFF	n/a	n/a	GOOSE	n/a	9	1	[0, 0, 0]	n/a	catFR1	1	R1261P
663.075	1.617	669126	WORD	n/a	wordpools/wordpool_categorized_EN.txt	DOVE	Birds	10	1	[0, 0, 0]	n/a	catFR1	1	R1261P
664.692	0.8	670743	WORD_OFF	n/a	n/a	DOVE	n/a	10	1	[0, 0, 0]	n/a	catFR1	1	R1261P
665.492	1.617	671543	WORD	n/a	wordpools/wordpool_categorized_EN.txt	LEVEL	Tools	11	1	[0, 0, 0]	n/a	catFR1	1	R1261P
667.109	1.017	673160	WORD_OFF	n/a	n/a	LEVEL	n/a	11	1	[0, 0, 0]	n/a	catFR1	1	R1261P
668.126	1.617	674177	WORD	n/a	wordpools/wordpool_categorized_EN.txt	SHOVEL	Tools	12	1	[0, 0, 0]	n/a	catFR1	1	R1261P
669.743	0.0	675794	ENCODING_END	n/a	n/a	n/a	n/a	-999	1	[0, 0, 0]	n/a	catFR1	1	R1261P
669.743	0.138	675794	WORD_OFF	n/a	n/a	SHOVEL	n/a	12	1	[0, 0, 0]	n/a	catFR1	1	R1261P
669.881	0.0	675932	DISTRACT_START	n/a	n/a	n/a	n/a	-999	1	[0, 0, 0]	n/a	catFR1	1	R1261P
669.881	0.013	675932	START	n/a	n/a	n/a	n/a	-999	2	[-999, -999, -999]	n/a	catFR1	1	R1261P
669.894	18.553	675945	PROB	18.553	n/a	n/a	n/a	-999	2	[3, 9, 3]	15	catFR1	1	R1261P
688.447	8.162	694497	PROB	8.162	n/a	n/a	n/a	-999	2	[2, 6, 3]	11	catFR1	1	R1261P
696.609	0.006	702659	STOP	n/a	n/a	n/a	n/a	-999	2	[-999, -999, -999]	n/a	catFR1	1	R1261P
696.615	0.7	702665	DISTRACT_END	n/a	n/a	n/a	n/a	-999	1	[0, 0, 0]	n/a	catFR1	1	R1261P
697.315	0.518	703365	RETRIEVAL_ORIENT	n/a	n/a	n/a	n/a	-999	1	[0, 0, 0]	n/a	catFR1	1	R1261P
697.833	14.074	703883	REC_START	n/a	n/a	n/a	n/a	-999	1	[0, 0, 0]	n/a	catFR1	1	R1261P
711.907	1.0	717956	REC_WORD_VV	1.0	n/a	<>	n/a	-999	1	[0, 0, 0]	n/a	catFR1	1	R1261P
712.907	2.975	718956	REC_WORD_VV	2.975	n/a	<>	n/a	-999	1	[0, 0, 0]	n/a	catFR1	1	R1261P
715.882	2.192	721931	REC_WORD	2.192	n/a	FLOOR	Building	8	1	[0, 0, 0]	n/a	catFR1	1	R1261P
718.074	1.36	724123	REC_WORD_VV	1.36	n/a	<>	n/a	-999	1	[0, 0, 0]	n/a	catFR1	1	R1261P
719.434	8.41	725483	REC_WORD	8.41	n/a	FLOOR	Building	8	1	[0, 0, 0]	n/a	catFR1	1	R1261P
727.844	6.145	733892	REC_END	n/a	n/a	n/a	n/a	-999	1	[0, 0, 0]	n/a	catFR1	1	R1261P
733.989	0.5	740037	TRIAL	n/a	n/a	n/a	n/a	-999	2	[0, 0, 0]	n/a	catFR1	1	R1261P
734.489	10.428	740537	COUNTDOWN_START	n/a	n/a	n/a	n/a	-999	2	[0, 0, 0]	n/a	catFR1	1	R1261P
744.917	0.007	750964	COUNTDOWN_END	n/a	n/a	n/a	n/a	-999	2	[0, 0, 0]	n/a	catFR1	1	R1261P
744.924	1.617	750971	ORIENT	n/a	n/a	n/a	n/a	-999	2	[0, 0, 0]	n/a	catFR1	1	R1261P
746.541	1.85	752588	ORIENT_OFF	n/a	n/a	n/a	n/a	-999	2	[0, 0, 0]	n/a	catFR1	1	R1261P
748.391	1.617	754438	WORD	n/a	wordpools/wordpool_categorized_EN.txt	THUNDER	Weather	1	2	[0, 0, 0]	n/a	catFR1	1	R1261P
750.008	1.001	756055	WORD_OFF	n/a	n/a	THUNDER	n/a	1	2	[0, 0, 0]	n/a	catFR1	1	R1261P
751.009	1.616	757056	WORD	n/a	wordpools/wordpool_categorized_EN.txt	DRIZZLE	Weather	2	2	[0, 0, 0]	n/a	catFR1	1	R1261P
752.625	0.951	758672	WORD_OFF	n/a	n/a	DRIZZLE	n/a	2	2	[0, 0, 0]	n/a	catFR1	1	R1261P
753.576	1.617	759623	WORD	n/a	wordpools/wordpool_categorized_EN.txt	LION	Zoo	3	2	[0, 0, 0]	n/a	catFR1	1	R1261P
755.193	0.933	761240	WORD_OFF	n/a	n/a	LION	n/a	3	2	[0, 0, 0]	n/a	catFR1	1	R1261P
756.126	1.617	762173	WORD	n/a	wordpools/wordpool_categorized_EN.txt	BEAR	Zoo	4	2	[0, 0, 0]	n/a	catFR1	1	R1261P
757.743	0.867	763790	WORD_OFF	n/a	n/a	BEAR	n/a	4	2	[0, 0, 0]	n/a	catFR1	1	R1261P
758.61	1.617	764656	WORD	n/a	wordpools/wordpool_categorized_EN.txt	CAULIFLOWER	Vegetables	5	2	[0, 0, 0]	n/a	catFR1	1	R1261P
760.227	1.017	766273	WORD_OFF	n/a	n/a	CAULIFLOWER	n/a	5	2	[0, 0, 0]	n/a	catFR1	1	R1261P
761.244	1.618	767290	WORD	n/a	wordpools/wordpool_categorized_EN.txt	CELERY	Vegetables	6	2	[0, 0, 0]	n/a	catFR1	1	R1261P
762.862	1.0	768908	WORD_OFF	n/a	n/a	CELERY	n/a	6	2	[0, 0, 0]	n/a	catFR1	1	R1261P
763.862	1.616	769908	WORD	n/a	wordpools/wordpool_categorized_EN.txt	TORNADO	Weather	7	2	[0, 0, 0]	n/a	catFR1	1	R1261P
765.478	1.017	771524	WORD_OFF	n/a	n/a	TORNADO	n/a	7	2	[0, 0, 0]	n/a	catFR1	1	R1261P
766.495	1.617	772541	WORD	n/a	wordpools/wordpool_categorized_EN.txt	HUMIDITY	Weather	8	2	[0, 0, 0]	n/a	catFR1	1	R1261P
768.112	0.983	774158	WORD_OFF	n/a	n/a	HUMIDITY	n/a	8	2	[0, 0, 0]	n/a	catFR1	1	R1261P
769.095	1.617	775141	WORD	n/a	wordpools/wordpool_categorized_EN.txt	ZEBRA	Zoo	9	2	[0, 0, 0]	n/a	catFR1	1	R1261P
770.712	0.917	776758	WORD_OFF	n/a	n/a	ZEBRA	n/a	9	2	[0, 0, 0]	n/a	catFR1	1	R1261P
771.629	1.617	777675	WORD	n/a	wordpools/wordpool_categorized_EN.txt	ORANGUTAN	Zoo	10	2	[0, 0, 0]	n/a	catFR1	1	R1261P
773.246	0.767	779292	WORD_OFF	n/a	n/a	ORANGUTAN	n/a	10	2	[0, 0, 0]	n/a	catFR1	1	R1261P
774.013	1.617	780059	WORD	n/a	wordpools/wordpool_categorized_EN.txt	POTATO	Vegetables	11	2	[0, 0, 0]	n/a	catFR1	1	R1261P
775.63	1.0	781676	WORD_OFF	n/a	n/a	POTATO	n/a	11	2	[0, 0, 0]	n/a	catFR1	1	R1261P
776.63	1.617	782676	WORD	n/a	wordpools/wordpool_categorized_EN.txt	CABBAGE	Vegetables	12	2	[0, 0, 0]	n/a	catFR1	1	R1261P
778.247	0.0	784292	ENCODING_END	n/a	n/a	n/a	n/a	-999	2	[0, 0, 0]	n/a	catFR1	1	R1261P
778.247	0.104	784292	WORD_OFF	n/a	n/a	CABBAGE	n/a	12	2	[0, 0, 0]	n/a	catFR1	1	R1261P
778.351	0.0	784396	DISTRACT_START	n/a	n/a	n/a	n/a	-999	2	[0, 0, 0]	n/a	catFR1	1	R1261P
778.351	0.013	784396	START	n/a	n/a	n/a	n/a	-999	3	[-999, -999, -999]	n/a	catFR1	1	R1261P
778.364	8.685	784409	PROB	8.685	n/a	n/a	n/a	-999	3	[7, 5, 2]	14	catFR1	1	R1261P
787.049	8.735	793094	PROB	8.735	n/a	n/a	n/a	-999	3	[7, 1, 2]	10	catFR1	1	R1261P
795.784	10.585	801829	PROB	10.585	n/a	n/a	n/a	-999	3	[3, 1, 7]	11	catFR1	1	R1261P
806.369	0.017	812413	STOP	n/a	n/a	n/a	n/a	-999	3	[-999, -999, -999]	n/a	catFR1	1	R1261P
806.386	0.55	812430	DISTRACT_END	n/a	n/a	n/a	n/a	-999	2	[0, 0, 0]	n/a	catFR1	1	R1261P
806.936	0.517	812980	RETRIEVAL_ORIENT	n/a	n/a	n/a	n/a	-999	2	[0, 0, 0]	n/a	catFR1	1	R1261P
807.453	1.012	813497	REC_START	n/a	n/a	n/a	n/a	-999	2	[0, 0, 0]	n/a	catFR1	1	R1261P
808.465	2.853	814509	REC_WORD_VV	2.853	n/a	<>	n/a	-999	2	[0, 0, 0]	n/a	catFR1	1	R1261P
811.318	1.0	817362	REC_WORD_VV	1.0	n/a	<>	n/a	-999	2	[0, 0, 0]	n/a	catFR1	1	R1261P
812.318	25.148	818362	REC_WORD_VV	25.148	n/a	<>	n/a	-999	2	[0, 0, 0]	n/a	catFR1	1	R1261P
837.466	108.729	843508	REC_END	n/a	n/a	n/a	n/a	-999	2	[0, 0, 0]	n/a	catFR1	1	R1261P
946.195	0.5	952232	TRIAL	n/a	n/a	n/a	n/a	-999	3	[0, 0, 0]	n/a	catFR1	1	R1261P
946.695	10.428	952732	COUNTDOWN_START	n/a	n/a	n/a	n/a	-999	3	[0, 0, 0]	n/a	catFR1	1	R1261P
957.123	0.008	963159	COUNTDOWN_END	n/a	n/a	n/a	n/a	-999	3	[0, 0, 0]	n/a	catFR1	1	R1261P
957.131	1.617	963167	ORIENT	n/a	n/a	n/a	n/a	-999	3	[0, 0, 0]	n/a	catFR1	1	R1261P
958.748	1.85	964784	ORIENT_OFF	n/a	n/a	n/a	n/a	-999	3	[0, 0, 0]	n/a	catFR1	1	R1261P
960.598	1.617	966634	WORD	n/a	wordpools/wordpool_categorized_EN.txt	SHEEP	FarmAnimals	1	3	[0, 0, 0]	n/a	catFR1	1	R1261P
962.215	0.834	968251	WORD_OFF	n/a	n/a	SHEEP	n/a	1	3	[0, 0, 0]	n/a	catFR1	1	R1261P
963.049	1.616	969085	WORD	n/a	wordpools/wordpool_categorized_EN.txt	ROOSTER	FarmAnimals	2	3	[0, 0, 0]	n/a	catFR1	1	R1261P
964.665	0.767	970701	WORD_OFF	n/a	n/a	ROOSTER	n/a	2	3	[0, 0, 0]	n/a	catFR1	1	R1261P
965.432	1.617	971468	WORD	n/a	wordpools/wordpool_categorized_EN.txt	SAW	Tools	3	3	[0, 0, 0]	n/a	catFR1	1	R1261P
967.049	0.967	973085	WORD_OFF	n/a	n/a	SAW	n/a	3	3	[0, 0, 0]	n/a	catFR1	1	R1261P
968.016	1.617	974052	WORD	n/a	wordpools/wordpool_categorized_EN.txt	RATCHET	Tools	4	3	[0, 0, 0]	n/a	catFR1	1	R1261P
969.633	0.933	975668	WORD_OFF	n/a	n/a	RATCHET	n/a	4	3	[0, 0, 0]	n/a	catFR1	1	R1261P
970.566	1.617	976601	WORD	n/a	wordpools/wordpool_categorized_EN.txt	LOBSTER	OceanAnimals	5	3	[0, 0, 0]	n/a	catFR1	1	R1261P
972.183	0.834	978218	WORD_OFF	n/a	n/a	LOBSTER	n/a	5	3	[0, 0, 0]	n/a	catFR1	1	R1261P
973.017	1.617	979052	WORD	n/a	wordpools/wordpool_categorized_EN.txt	PLANKTON	OceanAnimals	6	3	[0, 0, 0]	n/a	catFR1	1	R1261P
974.634	1.0	980669	WORD_OFF	n/a	n/a	PLANKTON	n/a	6	3	[0, 0, 0]	n/a	catFR1	1	R1261P
975.634	1.617	981669	WORD	n/a	wordpools/wordpool_categorized_EN.txt	BULL	FarmAnimals	7	3	[0, 0, 0]	n/a	catFR1	1	R1261P
977.251	0.95	983286	WORD_OFF	n/a	n/a	BULL	n/a	7	3	[0, 0, 0]	n/a	catFR1	1	R1261P
978.201	1.617	984236	WORD	n/a	wordpools/wordpool_categorized_EN.txt	CALF	FarmAnimals	8	3	[0, 0, 0]	n/a	catFR1	1	R1261P
979.818	0.817	985853	WORD_OFF	n/a	n/a	CALF	n/a	8	3	[0, 0, 0]	n/a	catFR1	1	R1261P
980.635	1.617	986670	WORD	n/a	wordpools/wordpool_categorized_EN.txt	PLIERS	Tools	9	3	[0, 0, 0]	n/a	catFR1	1	R1261P
982.252	0.934	988287	WORD_OFF	n/a	n/a	PLIERS	n/a	9	3	[0, 0, 0]	n/a	catFR1	1	R1261P
983.186	1.617	989221	WORD	n/a	wordpools/wordpool_categorized_EN.txt	WRENCH	Tools	10	3	[0, 0, 0]	n/a	catFR1	1	R1261P
984.803	0.783	990838	WORD_OFF	n/a	n/a	WRENCH	n/a	10	3	[0, 0, 0]	n/a	catFR1	1	R1261P
985.586	1.617	991621	WORD	n/a	wordpools/wordpool_categorized_EN.txt	OCTOPUS	OceanAnimals	11	3	[0, 0, 0]	n/a	catFR1	1	R1261P
987.203	0.817	993238	WORD_OFF	n/a	n/a	OCTOPUS	n/a	11	3	[0, 0, 0]	n/a	catFR1	1	R1261P
988.02	1.617	994055	WORD	n/a	wordpools/wordpool_categorized_EN.txt	CRAB	OceanAnimals	12	3	[0, 0, 0]	n/a	catFR1	1	R1261P
989.637	0.0	995671	WORD_OFF	n/a	n/a	CRAB	n/a	12	3	[0, 0, 0]	n/a	catFR1	1	R1261P
989.637	0.145	995671	ENCODING_END	n/a	n/a	n/a	n/a	-999	3	[0, 0, 0]	n/a	catFR1	1	R1261P
989.782	0.001	995816	DISTRACT_START	n/a	n/a	n/a	n/a	-999	3	[0, 0, 0]	n/a	catFR1	1	R1261P
989.783	0.021	995817	START	n/a	n/a	n/a	n/a	-999	4	[-999, -999, -999]	n/a	catFR1	1	R1261P
989.804	9.485	995838	PROB	9.485	n/a	n/a	n/a	-999	4	[7, 7, 3]	13	catFR1	1	R1261P
999.289	8.602	1005323	PROB	8.602	n/a	n/a	n/a	-999	4	[3, 9, 1]	13	catFR1	1	R1261P
1007.891	7.622	1013924	PROB	7.622	n/a	n/a	n/a	-999	4	[6, 7, 8]	21	catFR1	1	R1261P
1015.513	0.012	1021546	STOP	n/a	n/a	n/a	n/a	-999	4	[-999, -999, -999]	n/a	catFR1	1	R1261P
1015.525	0.65	1021558	DISTRACT_END	n/a	n/a	n/a	n/a	-999	3	[0, 0, 0]	n/a	catFR1	1	R1261P
1016.175	0.518	1022208	RETRIEVAL_ORIENT	n/a	n/a	n/a	n/a	-999	3	[0, 0, 0]	n/a	catFR1	1	R1261P
1016.693	14.562	1022726	REC_START	n/a	n/a	n/a	n/a	-999	3	[0, 0, 0]	n/a	catFR1	1	R1261P
1031.255	1.0	1037287	REC_WORD_VV	1.0	n/a	<>	n/a	-999	3	[0, 0, 0]	n/a	catFR1	1	R1261P
1032.255	0.965	1038287	REC_WORD_VV	0.965	n/a	<>	n/a	-999	3	[0, 0, 0]	n/a	catFR1	1	R1261P
1033.22	1.677	1039252	REC_WORD_VV	1.677	n/a	<>	n/a	-999	3	[0, 0, 0]	n/a	catFR1	1	R1261P
1034.897	0.418	1040929	REC_WORD_VV	0.418	n/a	<>	n/a	-999	3	[0, 0, 0]	n/a	catFR1	1	R1261P
1035.315	0.679	1041347	REC_WORD	0.679	n/a	CRAB	OceanAnimals	12	3	[0, 0, 0]	n/a	catFR1	1	R1261P
1035.994	1.485	1042026	REC_WORD	1.485	n/a	LOBSTER	OceanAnimals	5	3	[0, 0, 0]	n/a	catFR1	1	R1261P
1037.479	1.622	1043511	REC_WORD	1.622	n/a	RATCHET	Tools	4	3	[0, 0, 0]	n/a	catFR1	1	R1261P
1039.101	0.216	1045133	REC_WORD_VV	0.216	n/a	<>	n/a	-999	3	[0, 0, 0]	n/a	catFR1	1	R1261P
1039.317	2.344	1045349	REC_WORD	2.344	n/a	RHINO	n/a	-999	3	[0, 0, 0]	n/a	catFR1	1	R1261P
1041.661	1.964	1047693	REC_WORD_VV	1.964	n/a	<>	n/a	-999	3	[0, 0, 0]	n/a	catFR1	1	R1261P
1043.625	1.0	1049657	REC_WORD_VV	1.0	n/a	<>	n/a	-999	3	[0, 0, 0]	n/a	catFR1	1	R1261P
1044.625	2.079	1050657	REC_WORD_VV	2.079	n/a	<>	n/a	-999	3	[0, 0, 0]	n/a	catFR1	1	R1261P
1046.704	26.015	1052735	REC_END	n/a	n/a	n/a	n/a	-999	3	[0, 0, 0]	n/a	catFR1	1	R1261P
1072.719	0.5	1078749	TRIAL	n/a	n/a	n/a	n/a	-999	4	[0, 0, 0]	n/a	catFR1	1	R1261P
1073.219	10.428	1079249	COUNTDOWN_START	n/a	n/a	n/a	n/a	-999	4	[0, 0, 0]	n/a	catFR1	1	R1261P
1083.647	0.008	1089677	COUNTDOWN_END	n/a	n/a	n/a	n/a	-999	4	[0, 0, 0]	n/a	catFR1	1	R1261P
1083.655	1.617	1089685	ORIENT	n/a	n/a	n/a	n/a	-999	4	[0, 0, 0]	n/a	catFR1	1	R1261P
1085.272	2.233	1091301	ORIENT_OFF	n/a	n/a	n/a	n/a	-999	4	[0, 0, 0]	n/a	catFR1	1	R1261P
1087.505	1.617	1093534	WORD	n/a	wordpools/wordpool_categorized_EN.txt	JELLO	Desserts	1	4	[0, 0, 0]	n/a	catFR1	1	R1261P
1089.122	0.934	1095151	WORD_OFF	n/a	n/a	JELLO	n/a	1	4	[0, 0, 0]	n/a	catFR1	1	R1261P
1090.056	1.617	1096085	WORD	n/a	wordpools/wordpool_categorized_EN.txt	PUDDING	Desserts	2	4	[0, 0, 0]	n/a	catFR1	1	R1261P
1091.673	0.833	1097702	WORD_OFF	n/a	n/a	PUDDING	n/a	2	4	[0, 0, 0]	n/a	catFR1	1	R1261P
1092.506	1.617	1098535	WORD	n/a	wordpools/wordpool_categorized_EN.txt	HICKORY	Trees	3	4	[0, 0, 0]	n/a	catFR1	1	R1261P
1094.123	0.834	1100152	WORD_OFF	n/a	n/a	HICKORY	n/a	3	4	[0, 0, 0]	n/a	catFR1	1	R1261P
1094.957	1.617	1100986	WORD	n/a	wordpools/wordpool_categorized_EN.txt	OAK	Trees	4	4	[0, 0, 0]	n/a	catFR1	1	R1261P
1096.574	1.017	1102603	WORD_OFF	n/a	n/a	OAK	n/a	4	4	[0, 0, 0]	n/a	catFR1	1	R1261P
1097.591	1.616	1103620	WORD	n/a	wordpools/wordpool_categorized_EN.txt	JUICE	Beverages	5	4	[0, 0, 0]	n/a	catFR1	1	R1261P
1099.207	0.784	1105236	WORD_OFF	n/a	n/a	JUICE	n/a	5	4	[0, 0, 0]	n/a	catFR1	1	R1261P
1099.991	1.617	1106020	WORD	n/a	wordpools/wordpool_categorized_EN.txt	LEMONADE	Beverages	6	4	[0, 0, 0]	n/a	catFR1	1	R1261P
1101.608	0.817	1107637	WORD_OFF	n/a	n/a	LEMONADE	n/a	6	4	[0, 0, 0]	n/a	catFR1	1	R1261P
1102.425	1.617	1108454	WORD	n/a	wordpools/wordpool_categorized_EN.txt	MOUSSE	Desserts	7	4	[0, 0, 0]	n/a	catFR1	1	R1261P
1104.042	0.766	1110070	WORD_OFF	n/a	n/a	MOUSSE	n/a	7	4	[0, 0, 0]	n/a	catFR1	1	R1261P
1104.808	1.618	1110836	WORD	n/a	wordpools/wordpool_categorized_EN.txt	COOKIE	Desserts	8	4	[0, 0, 0]	n/a	catFR1	1	R1261P
1106.426	0.833	1112454	WORD_OFF	n/a	n/a	COOKIE	n/a	8	4	[0, 0, 0]	n/a	catFR1	1	R1261P
1107.259	1.618	1113287	WORD	n/a	wordpools/wordpool_categorized_EN.txt	CYPRESS	Trees	9	4	[0, 0, 0]	n/a	catFR1	1	R1261P
1108.877	0.95	1114905	WORD_OFF	n/a	n/a	CYPRESS	n/a	9	4	[0, 0, 0]	n/a	catFR1	1	R1261P
1109.827	1.616	1115855	WORD	n/a	wordpools/wordpool_categorized_EN.txt	WILLOW	Trees	10	4	[0, 0, 0]	n/a	catFR1	1	R1261P
1111.443	0.8	1117471	WORD_OFF	n/a	n/a	WILLOW	n/a	10	4	[0, 0, 0]	n/a	catFR1	1	R1261P
1112.243	1.618	1118271	WORD	n/a	wordpools/wordpool_categorized_EN.txt	TEA	Beverages	11	4	[0, 0, 0]	n/a	catFR1	1	R1261P
1113.861	0.883	1119889	WORD_OFF	n/a	n/a	TEA	n/a	11	4	[0, 0, 0]	n/a	catFR1	1	R1261P
1114.744	1.617	1120772	WORD	n/a	wordpools/wordpool_categorized_EN.txt	COFFEE	Beverages	12	4	[0, 0, 0]	n/a	catFR1	1	R1261P
1116.361	0.0	1122389	ENCODING_END	n/a	n/a	n/a	n/a	-999	4	[0, 0, 0]	n/a	catFR1	1	R1261P
1116.361	0.13	1122389	WORD_OFF	n/a	n/a	COFFEE	n/a	12	4	[0, 0, 0]	n/a	catFR1	1	R1261P
1116.491	0.0	1122519	DISTRACT_START	n/a	n/a	n/a	n/a	-999	4	[0, 0, 0]	n/a	catFR1	1	R1261P
1116.491	0.02	1122519	START	n/a	n/a	n/a	n/a	-999	5	[-999, -999, -999]	n/a	catFR1	1	R1261P
1116.511	5.517	1122539	PROB	5.517	n/a	n/a	n/a	-999	5	[8, 2, 2]	12	catFR1	1	R1261P
1122.028	11.036	1128056	PROB	11.036	n/a	n/a	n/a	-999	5	[9, 9, 7]	25	catFR1	1	R1261P
1133.064	15.697	1139091	PROB	15.697	n/a	n/a	n/a	-999	5	[9, 7, 7]	24	catFR1	1	R1261P
1148.761	0.023	1154787	STOP	n/a	n/a	n/a	n/a	-999	5	[-999, -999, -999]	n/a	catFR1	1	R1261P
1148.784	0.566	1154810	DISTRACT_END	n/a	n/a	n/a	n/a	-999	4	[0, 0, 0]	n/a	catFR1	1	R1261P
1149.35	0.519	1155376	RETRIEVAL_ORIENT	n/a	n/a	n/a	n/a	-999	4	[0, 0, 0]	n/a	catFR1	1	R1261P
1149.869	3.735	1155895	REC_START	n/a	n/a	n/a	n/a	-999	4	[0, 0, 0]	n/a	catFR1	1	R1261P
1153.604	8.153	1159630	REC_WORD_VV	8.153	n/a	<>	n/a	-999	4	[0, 0, 0]	n/a	catFR1	1	R1261P
1161.757	0.494	1167782	REC_WORD	0.494	n/a	JELLO	Desserts	1	4	[0, 0, 0]	n/a	catFR1	1	R1261P
1162.251	4.288	1168276	REC_WORD	4.288	n/a	PUDDING	Desserts	2	4	[0, 0, 0]	n/a	catFR1	1	R1261P
1166.539	4.821	1172564	REC_WORD	4.821	n/a	MOUSSE	Desserts	7	4	[0, 0, 0]	n/a	catFR1	1	R1261P
1171.36	4.28	1177385	REC_WORD_VV	4.28	n/a	<>	n/a	-999	4	[0, 0, 0]	n/a	catFR1	1	R1261P
1175.64	1.0	1181665	REC_WORD_VV	1.0	n/a	<>	n/a	-999	4	[0, 0, 0]	n/a	catFR1	1	R1261P
1176.64	0.133	1182665	REC_WORD_VV	0.133	n/a	<>	n/a	-999	4	[0, 0, 0]	n/a	catFR1	1	R1261P
1176.773	1.367	1182798	REC_WORD	1.367	n/a	RICE	n/a	-999	4	[0, 0, 0]	n/a	catFR1	1	R1261P
1178.14	1.739	1184165	REC_WORD_VV	1.739	n/a	<>	n/a	-999	4	[0, 0, 0]	n/a	catFR1	1	R1261P
1179.879	8.245	1185904	REC_END	n/a	n/a	n/a	n/a	-999	4	[0, 0, 0]	n/a	catFR1	1	R1261P
1188.124	0.5	1194148	TRIAL	n/a	n/a	n/a	n/a	-999	5	[0, 0, 0]	n/a	catFR1	1	R1261P
1188.624	10.428	1194648	COUNTDOWN_START	n/a	n/a	n/a	n/a	-999	5	[0, 0, 0]	n/a	catFR1	1	R1261P
1199.052	0.008	1205076	COUNTDOWN_END	n/a	n/a	n/a	n/a	-999	5	[0, 0, 0]	n/a	catFR1	1	R1261P
1199.06	1.617	1205084	ORIENT	n/a	n/a	n/a	n/a	-999	5	[0, 0, 0]	n/a	catFR1	1	R1261P
1200.677	2.25	1206700	ORIENT_OFF	n/a	n/a	n/a	n/a	-999	5	[0, 0, 0]	n/a	catFR1	1	R1261P
1202.927	1.617	1208950	WORD	n/a	wordpools/wordpool_categorized_EN.txt	LIME	Fruit	1	5	[0, 0, 0]	n/a	catFR1	1	R1261P
1204.544	0.8	1210567	WORD_OFF	n/a	n/a	LIME	n/a	1	5	[0, 0, 0]	n/a	catFR1	1	R1261P
1205.344	1.617	1211367	WORD	n/a	wordpools/wordpool_categorized_EN.txt	PEAR	Fruit	2	5	[0, 0, 0]	n/a	catFR1	1	R1261P
1206.961	0.8	1212984	WORD_OFF	n/a	n/a	PEAR	n/a	2	5	[0, 0, 0]	n/a	catFR1	1	R1261P
1207.761	1.617	1213784	WORD	n/a	wordpools/wordpool_categorized_EN.txt	PANDA	Zoo	3	5	[0, 0, 0]	n/a	catFR1	1	R1261P
1209.378	0.867	1215401	WORD_OFF	n/a	n/a	PANDA	n/a	3	5	[0, 0, 0]	n/a	catFR1	1	R1261P
1210.245	1.601	1216268	WORD	n/a	wordpools/wordpool_categorized_EN.txt	ELEPHANT	Zoo	4	5	[0, 0, 0]	n/a	catFR1	1	R1261P
1211.846	0.816	1217869	WORD_OFF	n/a	n/a	ELEPHANT	n/a	4	5	[0, 0, 0]	n/a	catFR1	1	R1261P
1212.662	1.617	1218685	WORD	n/a	wordpools/wordpool_categorized_EN.txt	BEACH	Landscapes	5	5	[0, 0, 0]	n/a	catFR1	1	R1261P
1214.279	0.9	1220302	WORD_OFF	n/a	n/a	BEACH	n/a	5	5	[0, 0, 0]	n/a	catFR1	1	R1261P
1215.179	1.617	1221202	WORD	n/a	wordpools/wordpool_categorized_EN.txt	WOODS	Landscapes	6	5	[0, 0, 0]	n/a	catFR1	1	R1261P
1216.796	0.95	1222819	WORD_OFF	n/a	n/a	WOODS	n/a	6	5	[0, 0, 0]	n/a	catFR1	1	R1261P
1217.746	1.617	1223769	WORD	n/a	wordpools/wordpool_categorized_EN.txt	GIRAFFE	Zoo	7	5	[0, 0, 0]	n/a	catFR1	1	R1261P
1219.363	0.984	1225385	WORD_OFF	n/a	n/a	GIRAFFE	n/a	7	5	[0, 0, 0]	n/a	catFR1	1	R1261P
1220.347	1.617	1226369	WORD	n/a	wordpools/wordpool_categorized_EN.txt	MONKEY	Zoo	8	5	[0, 0, 0]	n/a	catFR1	1	R1261P
1221.964	0.983	1227986	WORD_OFF	n/a	n/a	MONKEY	n/a	8	5	[0, 0, 0]	n/a	catFR1	1	R1261P
1222.947	1.617	1228969	WORD	n/a	wordpools/wordpool_categorized_EN.txt	BLUEBERRY	Fruit	9	5	[0, 0, 0]	n/a	catFR1	1	R1261P
1224.564	1.001	1230586	WORD_OFF	n/a	n/a	BLUEBERRY	n/a	9	5	[0, 0, 0]	n/a	catFR1	1	R1261P
1225.565	1.617	1231587	WORD	n/a	wordpools/wordpool_categorized_EN.txt	LEMON	Fruit	10	5	[0, 0, 0]	n/a	catFR1	1	R1261P
1227.182	0.8	1233204	WORD_OFF	n/a	n/a	LEMON	n/a	10	5	[0, 0, 0]	n/a	catFR1	1	R1261P
1227.982	1.617	1234004	WORD	n/a	wordpools/wordpool_categorized_EN.txt	OCEAN	Landscapes	11	5	[0, 0, 0]	n/a	catFR1	1	R1261P
1229.599	0.983	1235621	WORD_OFF	n/a	n/a	OCEAN	n/a	11	5	[0, 0, 0]	n/a	catFR1	1	R1261P
1230.582	1.617	1236604	WORD	n/a	wordpools/wordpool_categorized_EN.txt	FOREST	Landscapes	12	5	[0, 0, 0]	n/a	catFR1	1	R1261P
1232.199	0.0	1238221	ENCODING_END	n/a	n/a	n/a	n/a	-999	5	[0, 0, 0]	n/a	catFR1	1	R1261P
1232.199	0.103	1238221	WORD_OFF	n/a	n/a	FOREST	n/a	12	5	[0, 0, 0]	n/a	catFR1	1	R1261P
1232.302	0.0	1238324	DISTRACT_START	n/a	n/a	n/a	n/a	-999	5	[0, 0, 0]	n/a	catFR1	1	R1261P
1232.302	0.014	1238324	START	n/a	n/a	n/a	n/a	-999	6	[-999, -999, -999]	n/a	catFR1	1	R1261P
1232.316	9.185	1238338	PROB	9.185	n/a	n/a	n/a	-999	6	[5, 6, 4]	11	catFR1	1	R1261P
1241.501	11.924	1247522	PROB	11.924	n/a	n/a	n/a	-999	6	[7, 9, 8]	24	catFR1	1	R1261P
1253.425	0.012	1259446	STOP	n/a	n/a	n/a	n/a	-999	6	[-999, -999, -999]	n/a	catFR1	1	R1261P
1253.437	0.516	1259458	DISTRACT_END	n/a	n/a	n/a	n/a	-999	5	[0, 0, 0]	n/a	catFR1	1	R1261P
1253.953	0.518	1259974	RETRIEVAL_ORIENT	n/a	n/a	n/a	n/a	-999	5	[0, 0, 0]	n/a	catFR1	1	R1261P
1254.471	14.799	1260492	REC_START	n/a	n/a	n/a	n/a	-999	5	[0, 0, 0]	n/a	catFR1	1	R1261P
1269.27	1.405	1275290	REC_WORD_VV	1.405	n/a	<>	n/a	-999	5	[0, 0, 0]	n/a	catFR1	1	R1261P
1270.675	12.123	1276695	REC_WORD_VV	12.123	n/a	<>	n/a	-999	5	[0, 0, 0]	n/a	catFR1	1	R1261P
1282.798	1.685	1288817	REC_WORD_VV	1.685	n/a	<>	n/a	-999	5	[0, 0, 0]	n/a	catFR1	1	R1261P
1284.483	6.46	1290502	REC_END	n/a	n/a	n/a	n/a	-999	5	[0, 0, 0]	n/a	catFR1	1	R1261P
1290.943	0.5	1296962	TRIAL	n/a	n/a	n/a	n/a	-999	6	[0, 0, 0]	n/a	catFR1	1	R1261P
1291.443	10.428	1297462	COUNTDOWN_START	n/a	n/a	n/a	n/a	-999	6	[0, 0, 0]	n/a	catFR1	1	R1261P
1301.871	0.009	1307889	COUNTDOWN_END	n/a	n/a	n/a	n/a	-999	6	[0, 0, 0]	n/a	catFR1	1	R1261P
1301.88	1.616	1307898	ORIENT	n/a	n/a	n/a	n/a	-999	6	[0, 0, 0]	n/a	catFR1	1	R1261P
1303.496	2.201	1309514	ORIENT_OFF	n/a	n/a	n/a	n/a	-999	6	[0, 0, 0]	n/a	catFR1	1	R1261P
1305.697	1.616	1311715	WORD	n/a	wordpools/wordpool_categorized_EN.txt	CREEK	Landscapes	1	6	[0, 0, 0]	n/a	catFR1	1	R1261P
1307.313	0.9	1313331	WORD_OFF	n/a	n/a	CREEK	n/a	1	6	[0, 0, 0]	n/a	catFR1	1	R1261P
1308.213	1.619	1314231	WORD	n/a	wordpools/wordpool_categorized_EN.txt	VALLEY	Landscapes	2	6	[0, 0, 0]	n/a	catFR1	1	R1261P
1309.832	0.982	1315850	WORD_OFF	n/a	n/a	VALLEY	n/a	2	6	[0, 0, 0]	n/a	catFR1	1	R1261P
1310.814	1.617	1316832	WORD	n/a	wordpools/wordpool_categorized_EN.txt	MAPLE	Trees	3	6	[0, 0, 0]	n/a	catFR1	1	R1261P
1312.431	1.0	1318449	WORD_OFF	n/a	n/a	MAPLE	n/a	3	6	[0, 0, 0]	n/a	catFR1	1	R1261P
1313.431	1.617	1319449	WORD	n/a	wordpools/wordpool_categorized_EN.txt	WALNUT	Trees	4	6	[0, 0, 0]	n/a	catFR1	1	R1261P
1315.048	0.835	1321065	WORD_OFF	n/a	n/a	WALNUT	n/a	4	6	[0, 0, 0]	n/a	catFR1	1	R1261P
1315.883	1.616	1321900	WORD	n/a	wordpools/wordpool_categorized_EN.txt	COUCH	Furniture	5	6	[0, 0, 0]	n/a	catFR1	1	R1261P
1317.499	0.766	1323516	WORD_OFF	n/a	n/a	COUCH	n/a	5	6	[0, 0, 0]	n/a	catFR1	1	R1261P
1318.265	1.601	1324282	WORD	n/a	wordpools/wordpool_categorized_EN.txt	DRESSER	Furniture	6	6	[0, 0, 0]	n/a	catFR1	1	R1261P
1319.866	1.001	1325883	WORD_OFF	n/a	n/a	DRESSER	n/a	6	6	[0, 0, 0]	n/a	catFR1	1	R1261P
1320.867	1.616	1326884	WORD	n/a	wordpools/wordpool_categorized_EN.txt	HILLS	Landscapes	7	6	[0, 0, 0]	n/a	catFR1	1	R1261P
1322.483	0.9	1328500	WORD_OFF	n/a	n/a	HILLS	n/a	7	6	[0, 0, 0]	n/a	catFR1	1	R1261P
1323.383	1.617	1329400	WORD	n/a	wordpools/wordpool_categorized_EN.txt	STREAM	Landscapes	8	6	[0, 0, 0]	n/a	catFR1	1	R1261P
1325.0	0.95	1331017	WORD_OFF	n/a	n/a	STREAM	n/a	8	6	[0, 0, 0]	n/a	catFR1	1	R1261P
1325.95	1.617	1331967	WORD	n/a	wordpools/wordpool_categorized_EN.txt	EVERGREEN	Trees	9	6	[0, 0, 0]	n/a	catFR1	1	R1261P
1327.567	0.8	1333584	WORD_OFF	n/a	n/a	EVERGREEN	n/a	9	6	[0, 0, 0]	n/a	catFR1	1	R1261P
1328.367	1.617	1334384	WORD	n/a	wordpools/wordpool_categorized_EN.txt	SPRUCE	Trees	10	6	[0, 0, 0]	n/a	catFR1	1	R1261P
1329.984	0.834	1336001	WORD_OFF	n/a	n/a	SPRUCE	n/a	10	6	[0, 0, 0]	n/a	catFR1	1	R1261P
1330.818	1.617	1336835	WORD	n/a	wordpools/wordpool_categorized_EN.txt	BOOKCASE	Furniture	11	6	[0, 0, 0]	n/a	catFR1	1	R1261P
1332.435	0.833	1338452	WORD_OFF	n/a	n/a	BOOKCASE	n/a	11	6	[0, 0, 0]	n/a	catFR1	1	R1261P
1333.268	1.618	1339285	WORD	n/a	wordpools/wordpool_categorized_EN.txt	SHELF	Furniture	12	6	[0, 0, 0]	n/a	catFR1	1	R1261P
1334.886	0.0	1340902	WORD_OFF	n/a	n/a	SHELF	n/a	12	6	[0, 0, 0]	n/a	catFR1	1	R1261P
1334.886	0.138	1340902	ENCODING_END	n/a	n/a	n/a	n/a	-999	6	[0, 0, 0]	n/a	catFR1	1	R1261P
1335.024	0.0	1341040	DISTRACT_START	n/a	n/a	n/a	n/a	-999	6	[0, 0, 0]	n/a	catFR1	1	R1261P
1335.024	0.011	1341040	START	n/a	n/a	n/a	n/a	-999	7	[-999, -999, -999]	n/a	catFR1	1	R1261P
1335.035	5.701	1341051	PROB	5.701	n/a	n/a	n/a	-999	7	[5, 5, 7]	17	catFR1	1	R1261P
1340.736	11.769	1346752	PROB	11.769	n/a	n/a	n/a	-999	7	[5, 9, 8]	22	catFR1	1	R1261P
1352.505	11.024	1358521	PROB	11.024	n/a	n/a	n/a	-999	7	[5, 8, 1]	14	catFR1	1	R1261P
1363.529	0.012	1369544	STOP	n/a	n/a	n/a	n/a	-999	7	[-999, -999, -999]	n/a	catFR1	1	R1261P
1363.541	0.566	1369556	DISTRACT_END	n/a	n/a	n/a	n/a	-999	6	[0, 0, 0]	n/a	catFR1	1	R1261P
1364.107	0.518	1370122	RETRIEVAL_ORIENT	n/a	n/a	n/a	n/a	-999	6	[0, 0, 0]	n/a	catFR1	1	R1261P
1364.625	14.36	1370640	REC_START	n/a	n/a	n/a	n/a	-999	6	[0, 0, 0]	n/a	catFR1	1	R1261P
1378.985	3.384	1384999	REC_WORD_VV	3.384	n/a	<>	n/a	-999	6	[0, 0, 0]	n/a	catFR1	1	R1261P
1382.369	9.752	1388383	REC_WORD_VV	9.752	n/a	<>	n/a	-999	6	[0, 0, 0]	n/a	catFR1	1	R1261P
1392.121	2.516	1398134	REC_WORD_VV	2.516	n/a	<>	n/a	-999	6	[0, 0, 0]	n/a	catFR1	1	R1261P
1394.637	5.627	1400650	REC_END	n/a	n/a	n/a	n/a	-999	6	[0, 0, 0]	n/a	catFR1	1	R1261P
1400.264	0.5	1406277	TRIAL	n/a	n/a	n/a	n/a	-999	7	[0, 0, 0]	n/a	catFR1	1	R1261P
1400.764	10.428	1406777	COUNTDOWN_START	n/a	n/a	n/a	n/a	-999	7	[0, 0, 0]	n/a	catFR1	1	R1261P
1411.192	0.008	1417204	COUNTDOWN_END	n/a	n/a	n/a	n/a	-999	7	[0, 0, 0]	n/a	catFR1	1	R1261P
1411.2	1.616	1417212	ORIENT	n/a	n/a	n/a	n/a	-999	7	[0, 0, 0]	n/a	catFR1	1	R1261P
1412.816	1.851	1418828	ORIENT_OFF	n/a	n/a	n/a	n/a	-999	7	[0, 0, 0]	n/a	catFR1	1	R1261P
1414.667	1.617	1420679	WORD	n/a	wordpools/wordpool_categorized_EN.txt	BATHROOM	Building	1	7	[0, 0, 0]	n/a	catFR1	1	R1261P
1416.284	0.833	1422296	WORD_OFF	n/a	n/a	BATHROOM	n/a	1	7	[0, 0, 0]	n/a	catFR1	1	R1261P
1417.117	1.617	1423129	WORD	n/a	wordpools/wordpool_categorized_EN.txt	CEILING	Building	2	7	[0, 0, 0]	n/a	catFR1	1	R1261P
1418.734	0.934	1424746	WORD_OFF	n/a	n/a	CEILING	n/a	2	7	[0, 0, 0]	n/a	catFR1	1	R1261P
1419.668	1.617	1425680	WORD	n/a	wordpools/wordpool_categorized_EN.txt	BARBIE	Toys	3	7	[0, 0, 0]	n/a	catFR1	1	R1261P
1421.285	0.95	1427297	WORD_OFF	n/a	n/a	BARBIE	n/a	3	7	[0, 0, 0]	n/a	catFR1	1	R1261P
1422.235	1.618	1428247	WORD	n/a	wordpools/wordpool_categorized_EN.txt	BALL	Toys	4	7	[0, 0, 0]	n/a	catFR1	1	R1261P
1423.853	0.882	1429865	WORD_OFF	n/a	n/a	BALL	n/a	4	7	[0, 0, 0]	n/a	catFR1	1	R1261P
1424.735	1.617	1430747	WORD	n/a	wordpools/wordpool_categorized_EN.txt	COBBLER	Desserts	5	7	[0, 0, 0]	n/a	catFR1	1	R1261P
1426.352	0.901	1432364	WORD_OFF	n/a	n/a	COBBLER	n/a	5	7	[0, 0, 0]	n/a	catFR1	1	R1261P
1427.253	1.618	1433265	WORD	n/a	wordpools/wordpool_categorized_EN.txt	FUDGE	Desserts	6	7	[0, 0, 0]	n/a	catFR1	1	R1261P
1428.871	0.865	1434883	WORD_OFF	n/a	n/a	FUDGE	n/a	6	7	[0, 0, 0]	n/a	catFR1	1	R1261P
1429.736	1.617	1435747	WORD	n/a	wordpools/wordpool_categorized_EN.txt	ROOF	Building	7	7	[0, 0, 0]	n/a	catFR1	1	R1261P
1431.353	0.767	1437364	WORD_OFF	n/a	n/a	ROOF	n/a	7	7	[0, 0, 0]	n/a	catFR1	1	R1261P
1432.12	1.617	1438131	WORD	n/a	wordpools/wordpool_categorized_EN.txt	WINDOW	Building	8	7	[0, 0, 0]	n/a	catFR1	1	R1261P
1433.737	0.917	1439748	WORD_OFF	n/a	n/a	WINDOW	n/a	8	7	[0, 0, 0]	n/a	catFR1	1	R1261P
1434.654	1.617	1440665	WORD	n/a	wordpools/wordpool_categorized_EN.txt	DOLL	Toys	9	7	[0, 0, 0]	n/a	catFR1	1	R1261P
1436.271	0.817	1442282	WORD_OFF	n/a	n/a	DOLL	n/a	9	7	[0, 0, 0]	n/a	catFR1	1	R1261P
1437.088	1.617	1443099	WORD	n/a	wordpools/wordpool_categorized_EN.txt	BASEBALL	Toys	10	7	[0, 0, 0]	n/a	catFR1	1	R1261P
1438.705	0.817	1444716	WORD_OFF	n/a	n/a	BASEBALL	n/a	10	7	[0, 0, 0]	n/a	catFR1	1	R1261P
1439.522	1.617	1445533	WORD	n/a	wordpools/wordpool_categorized_EN.txt	CUPCAKE	Desserts	11	7	[0, 0, 0]	n/a	catFR1	1	R1261P
1441.139	0.799	1447150	WORD_OFF	n/a	n/a	CUPCAKE	n/a	11	7	[0, 0, 0]	n/a	catFR1	1	R1261P
1441.938	1.618	1447949	WORD	n/a	wordpools/wordpool_categorized_EN.txt	BROWNIES	Desserts	12	7	[0, 0, 0]	n/a	catFR1	1	R1261P
1443.556	0.0	1449567	ENCODING_END	n/a	n/a	n/a	n/a	-999	7	[0, 0, 0]	n/a	catFR1	1	R1261P
1443.556	0.109	1449567	WORD_OFF	n/a	n/a	BROWNIES	n/a	12	7	[0, 0, 0]	n/a	catFR1	1	R1261P
1443.665	0.0	1449676	DISTRACT_START	n/a	n/a	n/a	n/a	-999	7	[0, 0, 0]	n/a	catFR1	1	R1261P
1443.665	0.024	1449676	START	n/a	n/a	n/a	n/a	-999	8	[-999, -999, -999]	n/a	catFR1	1	R1261P
1443.689	11.285	1449700	PROB	11.285	n/a	n/a	n/a	-999	8	[8, 6, 9]	23	catFR1	1	R1261P
1454.974	7.485	1460984	PROB	7.485	n/a	n/a	n/a	-999	8	[9, 7, 1]	17	catFR1	1	R1261P
1462.459	3.95	1468469	PROB	3.95	n/a	n/a	n/a	-999	8	[4, 1, 6]	11	catFR1	1	R1261P
1466.409	0.018	1472419	STOP	n/a	n/a	n/a	n/a	-999	8	[-999, -999, -999]	n/a	catFR1	1	R1261P
1466.427	0.566	1472437	DISTRACT_END	n/a	n/a	n/a	n/a	-999	7	[0, 0, 0]	n/a	catFR1	1	R1261P
1466.993	0.518	1473003	RETRIEVAL_ORIENT	n/a	n/a	n/a	n/a	-999	7	[0, 0, 0]	n/a	catFR1	1	R1261P
1467.511	12.884	1473521	REC_START	n/a	n/a	n/a	n/a	-999	7	[0, 0, 0]	n/a	catFR1	1	R1261P
1480.395	5.404	1486404	REC_WORD_VV	5.404	n/a	<>	n/a	-999	7	[0, 0, 0]	n/a	catFR1	1	R1261P
1485.799	0.72	1491808	REC_WORD_VV	0.72	n/a	<>	n/a	-999	7	[0, 0, 0]	n/a	catFR1	1	R1261P
1486.519	0.569	1492528	REC_WORD	0.569	n/a	FUDGE	Desserts	6	7	[0, 0, 0]	n/a	catFR1	1	R1261P
1487.088	1.315	1493097	REC_WORD_VV	1.315	n/a	<>	n/a	-999	7	[0, 0, 0]	n/a	catFR1	1	R1261P
1488.403	0.535	1494411	REC_WORD_VV	0.535	n/a	<>	n/a	-999	7	[0, 0, 0]	n/a	catFR1	1	R1261P
1488.938	0.707	1494946	REC_WORD	0.707	n/a	ELEPHANT	n/a	-999	7	[0, 0, 0]	n/a	catFR1	1	R1261P
1489.645	1.0	1495653	REC_WORD_VV	1.0	n/a	<>	n/a	-999	7	[0, 0, 0]	n/a	catFR1	1	R1261P
1490.645	0.926	1496653	REC_WORD_VV	0.926	n/a	<>	n/a	-999	7	[0, 0, 0]	n/a	catFR1	1	R1261P
1491.571	3.668	1497579	REC_WORD_VV	3.668	n/a	<>	n/a	-999	7	[0, 0, 0]	n/a	catFR1	1	R1261P
1495.239	0.99	1501247	REC_WORD	0.99	n/a	BATHROOM	Building	1	7	[0, 0, 0]	n/a	catFR1	1	R1261P
1496.229	1.294	1502237	REC_WORD_VV	1.294	n/a	<>	n/a	-999	7	[0, 0, 0]	n/a	catFR1	1	R1261P
1497.523	6.561	1503531	REC_END	n/a	n/a	n/a	n/a	-999	7	[0, 0, 0]	n/a	catFR1	1	R1261P
1504.084	0.5	1510092	TRIAL	n/a	n/a	n/a	n/a	-999	8	[0, 0, 0]	n/a	catFR1	1	R1261P
1504.584	10.428	1510592	COUNTDOWN_START	n/a	n/a	n/a	n/a	-999	8	[0, 0, 0]	n/a	catFR1	1	R1261P
1515.012	0.007	1521019	COUNTDOWN_END	n/a	n/a	n/a	n/a	-999	8	[0, 0, 0]	n/a	catFR1	1	R1261P
1515.019	1.617	1521026	ORIENT	n/a	n/a	n/a	n/a	-999	8	[0, 0, 0]	n/a	catFR1	1	R1261P
1516.636	2.117	1522643	ORIENT_OFF	n/a	n/a	n/a	n/a	-999	8	[0, 0, 0]	n/a	catFR1	1	R1261P
1518.753	1.617	1524760	WORD	n/a	wordpools/wordpool_categorized_EN.txt	APPLE	Fruit	1	8	[0, 0, 0]	n/a	catFR1	1	R1261P
1520.37	0.917	1526377	WORD_OFF	n/a	n/a	APPLE	n/a	1	8	[0, 0, 0]	n/a	catFR1	1	R1261P
1521.287	1.618	1527294	WORD	n/a	wordpools/wordpool_categorized_EN.txt	PEACH	Fruit	2	8	[0, 0, 0]	n/a	catFR1	1	R1261P
1522.905	0.816	1528912	WORD_OFF	n/a	n/a	PEACH	n/a	2	8	[0, 0, 0]	n/a	catFR1	1	R1261P
1523.721	1.617	1529728	WORD	n/a	wordpools/wordpool_categorized_EN.txt	WALL	Building	3	8	[0, 0, 0]	n/a	catFR1	1	R1261P
1525.338	0.817	1531345	WORD_OFF	n/a	n/a	WALL	n/a	3	8	[0, 0, 0]	n/a	catFR1	1	R1261P
1526.155	1.617	1532161	WORD	n/a	wordpools/wordpool_categorized_EN.txt	HALLWAY	Building	4	8	[0, 0, 0]	n/a	catFR1	1	R1261P
1527.772	0.783	1533778	WORD_OFF	n/a	n/a	HALLWAY	n/a	4	8	[0, 0, 0]	n/a	catFR1	1	R1261P
1528.555	1.617	1534561	WORD	n/a	wordpools/wordpool_categorized_EN.txt	OYSTER	OceanAnimals	5	8	[0, 0, 0]	n/a	catFR1	1	R1261P
1530.172	0.85	1536178	WORD_OFF	n/a	n/a	OYSTER	n/a	5	8	[0, 0, 0]	n/a	catFR1	1	R1261P
1531.022	1.617	1537028	WORD	n/a	wordpools/wordpool_categorized_EN.txt	WHALE	OceanAnimals	6	8	[0, 0, 0]	n/a	catFR1	1	R1261P
1532.639	0.834	1538645	WORD_OFF	n/a	n/a	WHALE	n/a	6	8	[0, 0, 0]	n/a	catFR1	1	R1261P
1533.473	1.617	1539479	WORD	n/a	wordpools/wordpool_categorized_EN.txt	ATTIC	Building	7	8	[0, 0, 0]	n/a	catFR1	1	R1261P
1535.09	0.95	1541096	WORD_OFF	n/a	n/a	ATTIC	n/a	7	8	[0, 0, 0]	n/a	catFR1	1	R1261P
1536.04	1.617	1542046	WORD	n/a	wordpools/wordpool_categorized_EN.txt	STAIRS	Building	8	8	[0, 0, 0]	n/a	catFR1	1	R1261P
1537.657	0.767	1543663	WORD_OFF	n/a	n/a	STAIRS	n/a	8	8	[0, 0, 0]	n/a	catFR1	1	R1261P
1538.424	1.616	1544430	WORD	n/a	wordpools/wordpool_categorized_EN.txt	BANANA	Fruit	9	8	[0, 0, 0]	n/a	catFR1	1	R1261P
1540.04	1.017	1546046	WORD_OFF	n/a	n/a	BANANA	n/a	9	8	[0, 0, 0]	n/a	catFR1	1	R1261P
1541.057	1.617	1547063	WORD	n/a	wordpools/wordpool_categorized_EN.txt	PLUM	Fruit	10	8	[0, 0, 0]	n/a	catFR1	1	R1261P
1542.674	1.017	1548680	WORD_OFF	n/a	n/a	PLUM	n/a	10	8	[0, 0, 0]	n/a	catFR1	1	R1261P
1543.691	1.617	1549697	WORD	n/a	wordpools/wordpool_categorized_EN.txt	JELLYFISH	OceanAnimals	11	8	[0, 0, 0]	n/a	catFR1	1	R1261P
1545.308	0.85	1551313	WORD_OFF	n/a	n/a	JELLYFISH	n/a	11	8	[0, 0, 0]	n/a	catFR1	1	R1261P
1546.158	1.617	1552163	WORD	n/a	wordpools/wordpool_categorized_EN.txt	TURTLE	OceanAnimals	12	8	[0, 0, 0]	n/a	catFR1	1	R1261P
1547.775	0.0	1553780	ENCODING_END	n/a	n/a	n/a	n/a	-999	8	[0, 0, 0]	n/a	catFR1	1	R1261P
1547.775	0.101	1553780	WORD_OFF	n/a	n/a	TURTLE	n/a	12	8	[0, 0, 0]	n/a	catFR1	1	R1261P
1547.876	0.0	1553881	DISTRACT_START	n/a	n/a	n/a	n/a	-999	8	[0, 0, 0]	n/a	catFR1	1	R1261P
1547.876	0.017	1553881	START	n/a	n/a	n/a	n/a	-999	9	[-999, -999, -999]	n/a	catFR1	1	R1261P
1547.893	15.385	1553898	PROB	15.385	n/a	n/a	n/a	-999	9	[6, 6, 9]	16	catFR1	1	R1261P
1563.278	5.331	1569283	PROB	5.331	n/a	n/a	n/a	-999	9	[5, 5, 9]	19	catFR1	1	R1261P
1568.609	0.021	1574613	STOP	n/a	n/a	n/a	n/a	-999	9	[-999, -999, -999]	n/a	catFR1	1	R1261P
1568.63	0.649	1574634	DISTRACT_END	n/a	n/a	n/a	n/a	-999	8	[0, 0, 0]	n/a	catFR1	1	R1261P
1569.279	0.518	1575283	RETRIEVAL_ORIENT	n/a	n/a	n/a	n/a	-999	8	[0, 0, 0]	n/a	catFR1	1	R1261P
1569.797	3.859	1575801	REC_START	n/a	n/a	n/a	n/a	-999	8	[0, 0, 0]	n/a	catFR1	1	R1261P
1573.656	1.19	1579660	REC_WORD_VV	1.19	n/a	<>	n/a	-999	8	[0, 0, 0]	n/a	catFR1	1	R1261P
1574.846	3.258	1580850	REC_WORD_VV	3.258	n/a	<>	n/a	-999	8	[0, 0, 0]	n/a	catFR1	1	R1261P
1578.104	1.084	1584108	REC_WORD	1.084	n/a	JELLYFISH	OceanAnimals	11	8	[0, 0, 0]	n/a	catFR1	1	R1261P
1579.188	3.779	1585192	REC_WORD_VV	3.779	n/a	<>	n/a	-999	8	[0, 0, 0]	n/a	catFR1	1	R1261P
1582.967	5.703	1588971	REC_WORD_VV	5.703	n/a	<>	n/a	-999	8	[0, 0, 0]	n/a	catFR1	1	R1261P
1588.67	11.139	1594673	REC_WORD	11.139	n/a	JELLYFISH	OceanAnimals	11	8	[0, 0, 0]	n/a	catFR1	1	R1261P
1599.809	5.961	1605812	REC_END	n/a	n/a	n/a	n/a	-999	8	[0, 0, 0]	n/a	catFR1	1	R1261P
1605.77	0.5	1611772	TRIAL	n/a	n/a	n/a	n/a	-999	9	[0, 0, 0]	n/a	catFR1	1	R1261P
1606.27	10.428	1612272	COUNTDOWN_START	n/a	n/a	n/a	n/a	-999	9	[0, 0, 0]	n/a	catFR1	1	R1261P
1616.698	0.007	1622700	COUNTDOWN_END	n/a	n/a	n/a	n/a	-999	9	[0, 0, 0]	n/a	catFR1	1	R1261P
1616.705	1.617	1622707	ORIENT	n/a	n/a	n/a	n/a	-999	9	[0, 0, 0]	n/a	catFR1	1	R1261P
1618.322	2.134	1624324	ORIENT_OFF	n/a	n/a	n/a	n/a	-999	9	[0, 0, 0]	n/a	catFR1	1	R1261P
1620.456	1.617	1626458	WORD	n/a	wordpools/wordpool_categorized_EN.txt	TIGER	Zoo	1	9	[0, 0, 0]	n/a	catFR1	1	R1261P
1622.073	0.967	1628074	WORD_OFF	n/a	n/a	TIGER	n/a	1	9	[0, 0, 0]	n/a	catFR1	1	R1261P
1623.04	1.616	1629041	WORD	n/a	wordpools/wordpool_categorized_EN.txt	CHIMPANZEE	Zoo	2	9	[0, 0, 0]	n/a	catFR1	1	R1261P
1624.656	0.934	1630657	WORD_OFF	n/a	n/a	CHIMPANZEE	n/a	2	9	[0, 0, 0]	n/a	catFR1	1	R1261P
1625.59	1.617	1631591	WORD	n/a	wordpools/wordpool_categorized_EN.txt	ANT	Insects	3	9	[0, 0, 0]	n/a	catFR1	1	R1261P
1627.207	0.9	1633208	WORD_OFF	n/a	n/a	ANT	n/a	3	9	[0, 0, 0]	n/a	catFR1	1	R1261P
1628.107	1.617	1634108	WORD	n/a	wordpools/wordpool_categorized_EN.txt	GNAT	Insects	4	9	[0, 0, 0]	n/a	catFR1	1	R1261P
1629.724	0.934	1635725	WORD_OFF	n/a	n/a	GNAT	n/a	4	9	[0, 0, 0]	n/a	catFR1	1	R1261P
1630.658	1.617	1636659	WORD	n/a	wordpools/wordpool_categorized_EN.txt	LILY	Flowers	5	9	[0, 0, 0]	n/a	catFR1	1	R1261P
1632.275	1.0	1638276	WORD_OFF	n/a	n/a	LILY	n/a	5	9	[0, 0, 0]	n/a	catFR1	1	R1261P
1633.275	1.618	1639276	WORD	n/a	wordpools/wordpool_categorized_EN.txt	TULIP	Flowers	6	9	[0, 0, 0]	n/a	catFR1	1	R1261P
1634.893	0.866	1640894	WORD_OFF	n/a	n/a	TULIP	n/a	6	9	[0, 0, 0]	n/a	catFR1	1	R1261P
1635.759	1.616	1641760	WORD	n/a	wordpools/wordpool_categorized_EN.txt	GORILLA	Zoo	7	9	[0, 0, 0]	n/a	catFR1	1	R1261P
1637.375	0.784	1643376	WORD_OFF	n/a	n/a	GORILLA	n/a	7	9	[0, 0, 0]	n/a	catFR1	1	R1261P
1638.159	1.617	1644160	WORD	n/a	wordpools/wordpool_categorized_EN.txt	CHEETAH	Zoo	8	9	[0, 0, 0]	n/a	catFR1	1	R1261P
1639.776	0.934	1645777	WORD_OFF	n/a	n/a	CHEETAH	n/a	8	9	[0, 0, 0]	n/a	catFR1	1	R1261P
1640.71	1.616	1646710	WORD	n/a	wordpools/wordpool_categorized_EN.txt	ROACH	Insects	9	9	[0, 0, 0]	n/a	catFR1	1	R1261P
1642.326	0.934	1648326	WORD_OFF	n/a	n/a	ROACH	n/a	9	9	[0, 0, 0]	n/a	catFR1	1	R1261P
1643.26	1.618	1649260	WORD	n/a	wordpools/wordpool_categorized_EN.txt	BEETLE	Insects	10	9	[0, 0, 0]	n/a	catFR1	1	R1261P
1644.878	0.899	1650878	WORD_OFF	n/a	n/a	BEETLE	n/a	10	9	[0, 0, 0]	n/a	catFR1	1	R1261P
1645.777	1.617	1651777	WORD	n/a	wordpools/wordpool_categorized_EN.txt	ORCHID	Flowers	11	9	[0, 0, 0]	n/a	catFR1	1	R1261P
1647.394	0.884	1653394	WORD_OFF	n/a	n/a	ORCHID	n/a	11	9	[0, 0, 0]	n/a	catFR1	1	R1261P
1648.278	1.618	1654278	WORD	n/a	wordpools/wordpool_categorized_EN.txt	MARIGOLD	Flowers	12	9	[0, 0, 0]	n/a	catFR1	1	R1261P
1649.896	0.0	1655896	ENCODING_END	n/a	n/a	n/a	n/a	-999	9	[0, 0, 0]	n/a	catFR1	1	R1261P
1649.896	0.135	1655896	WORD_OFF	n/a	n/a	MARIGOLD	n/a	12	9	[0, 0, 0]	n/a	catFR1	1	R1261P
1650.031	0.0	1656031	DISTRACT_START	n/a	n/a	n/a	n/a	-999	9	[0, 0, 0]	n/a	catFR1	1	R1261P
1650.031	0.014	1656031	START	n/a	n/a	n/a	n/a	-999	10	[-999, -999, -999]	n/a	catFR1	1	R1261P
1650.045	4.434	1656045	PROB	4.434	n/a	n/a	n/a	-999	10	[3, 8, 2]	13	catFR1	1	R1261P
1654.479	6.218	1660479	PROB	6.218	n/a	n/a	n/a	-999	10	[2, 4, 3]	9	catFR1	1	R1261P
1660.697	4.45	1666696	PROB	4.45	n/a	n/a	n/a	-999	10	[6, 1, 2]	9	catFR1	1	R1261P
1665.147	12.846	1671146	PROB	12.846	n/a	n/a	n/a	-999	10	[9, 6, 5]	20	catFR1	1	R1261P
1677.993	0.007	1683992	STOP	n/a	n/a	n/a	n/a	-999	10	[-999, -999, -999]	n/a	catFR1	1	R1261P
1678.0	0.567	1683999	DISTRACT_END	n/a	n/a	n/a	n/a	-999	9	[0, 0, 0]	n/a	catFR1	1	R1261P
1678.567	0.517	1684566	RETRIEVAL_ORIENT	n/a	n/a	n/a	n/a	-999	9	[0, 0, 0]	n/a	catFR1	1	R1261P
1679.084	8.783	1685082	REC_START	n/a	n/a	n/a	n/a	-999	9	[0, 0, 0]	n/a	catFR1	1	R1261P
1687.867	0.489	1693865	REC_WORD	0.489	n/a	TIGER	Zoo	1	9	[0, 0, 0]	n/a	catFR1	1	R1261P
1688.356	2.238	1694354	REC_WORD	2.238	n/a	CHIMPANZEE	Zoo	2	9	[0, 0, 0]	n/a	catFR1	1	R1261P
1690.594	1.351	1696592	REC_WORD_VV	1.351	n/a	<>	n/a	-999	9	[0, 0, 0]	n/a	catFR1	1	R1261P
1691.945	0.599	1697943	REC_WORD	0.599	n/a	CHIMPANZEE	Zoo	2	9	[0, 0, 0]	n/a	catFR1	1	R1261P
1692.544	0.465	1698542	REC_WORD_VV	0.465	n/a	<>	n/a	-999	9	[0, 0, 0]	n/a	catFR1	1	R1261P
1693.009	1.308	1699007	REC_WORD	1.308	n/a	LILY	Flowers	5	9	[0, 0, 0]	n/a	catFR1	1	R1261P
1694.317	2.98	1700315	REC_WORD_VV	2.98	n/a	<>	n/a	-999	9	[0, 0, 0]	n/a	catFR1	1	R1261P
1697.297	0.712	1703295	REC_WORD	0.712	n/a	LILY	Flowers	5	9	[0, 0, 0]	n/a	catFR1	1	R1261P
1698.009	0.52	1704007	REC_WORD	0.52	n/a	TIGER	Zoo	1	9	[0, 0, 0]	n/a	catFR1	1	R1261P
1698.529	6.719	1704526	REC_WORD	6.719	n/a	CHIMPANZEE	Zoo	2	9	[0, 0, 0]	n/a	catFR1	1	R1261P
1705.248	1.264	1711245	REC_WORD	1.264	n/a	ANT	Insects	3	9	[0, 0, 0]	n/a	catFR1	1	R1261P
1706.512	2.582	1712509	REC_WORD_VV	2.582	n/a	<>	n/a	-999	9	[0, 0, 0]	n/a	catFR1	1	R1261P
1709.094	14.281	1715091	REC_END	n/a	n/a	n/a	n/a	-999	9	[0, 0, 0]	n/a	catFR1	1	R1261P
1723.375	0.5	1729371	TRIAL	n/a	n/a	n/a	n/a	-999	10	[0, 0, 0]	n/a	catFR1	1	R1261P
1723.875	10.428	1729871	COUNTDOWN_START	n/a	n/a	n/a	n/a	-999	10	[0, 0, 0]	n/a	catFR1	1	R1261P
1734.303	0.007	1740299	COUNTDOWN_END	n/a	n/a	n/a	n/a	-999	10	[0, 0, 0]	n/a	catFR1	1	R1261P
1734.31	1.617	1740306	ORIENT	n/a	n/a	n/a	n/a	-999	10	[0, 0, 0]	n/a	catFR1	1	R1261P
1735.927	1.968	1741923	ORIENT_OFF	n/a	n/a	n/a	n/a	-999	10	[0, 0, 0]	n/a	catFR1	1	R1261P
1737.895	1.616	1743890	WORD	n/a	wordpools/wordpool_categorized_EN.txt	WASHER	Appliances	1	10	[0, 0, 0]	n/a	catFR1	1	R1261P
1739.511	0.834	1745506	WORD_OFF	n/a	n/a	WASHER	n/a	1	10	[0, 0, 0]	n/a	catFR1	1	R1261P
1740.345	1.617	1746340	WORD	n/a	wordpools/wordpool_categorized_EN.txt	REFRIGERATOR	Appliances	2	10	[0, 0, 0]	n/a	catFR1	1	R1261P
1741.962	0.868	1747957	WORD_OFF	n/a	n/a	REFRIGERATOR	n/a	2	10	[0, 0, 0]	n/a	catFR1	1	R1261P
1742.83	1.616	1748825	WORD	n/a	wordpools/wordpool_categorized_EN.txt	DRESS	Clothing	3	10	[0, 0, 0]	n/a	catFR1	1	R1261P
1744.446	0.817	1750441	WORD_OFF	n/a	n/a	DRESS	n/a	3	10	[0, 0, 0]	n/a	catFR1	1	R1261P
1745.263	1.617	1751258	WORD	n/a	wordpools/wordpool_categorized_EN.txt	SHORTS	Clothing	4	10	[0, 0, 0]	n/a	catFR1	1	R1261P
1746.88	0.951	1752875	WORD_OFF	n/a	n/a	SHORTS	n/a	4	10	[0, 0, 0]	n/a	catFR1	1	R1261P
1747.831	1.616	1753826	WORD	n/a	wordpools/wordpool_categorized_EN.txt	HEADPHONES	Electronics	5	10	[0, 0, 0]	n/a	catFR1	1	R1261P
1749.447	0.833	1755442	WORD_OFF	n/a	n/a	HEADPHONES	n/a	5	10	[0, 0, 0]	n/a	catFR1	1	R1261P
1750.28	1.618	1756275	WORD	n/a	wordpools/wordpool_categorized_EN.txt	MICROWAVE	Electronics	6	10	[0, 0, 0]	n/a	catFR1	1	R1261P
1751.898	0.916	1757893	WORD_OFF	n/a	n/a	MICROWAVE	n/a	6	10	[0, 0, 0]	n/a	catFR1	1	R1261P
1752.814	1.617	1758809	WORD	n/a	wordpools/wordpool_categorized_EN.txt	JEANS	Clothing	7	10	[0, 0, 0]	n/a	catFR1	1	R1261P
1754.431	0.883	1760426	WORD_OFF	n/a	n/a	JEANS	n/a	7	10	[0, 0, 0]	n/a	catFR1	1	R1261P
1755.314	1.602	1761309	WORD	n/a	wordpools/wordpool_categorized_EN.txt	BLOUSE	Clothing	8	10	[0, 0, 0]	n/a	catFR1	1	R1261P
1756.916	0.933	1762910	WORD_OFF	n/a	n/a	BLOUSE	n/a	8	10	[0, 0, 0]	n/a	catFR1	1	R1261P
1757.849	1.616	1763843	WORD	n/a	wordpools/wordpool_categorized_EN.txt	MIXER	Appliances	9	10	[0, 0, 0]	n/a	catFR1	1	R1261P
1759.465	0.9	1765459	WORD_OFF	n/a	n/a	MIXER	n/a	9	10	[0, 0, 0]	n/a	catFR1	1	R1261P
1760.365	1.617	1766359	WORD	n/a	wordpools/wordpool_categorized_EN.txt	DISHWASHER	Appliances	10	10	[0, 0, 0]	n/a	catFR1	1	R1261P
1761.982	1.017	1767976	WORD_OFF	n/a	n/a	DISHWASHER	n/a	10	10	[0, 0, 0]	n/a	catFR1	1	R1261P
1762.999	1.617	1768993	WORD	n/a	wordpools/wordpool_categorized_EN.txt	COMPUTER	Electronics	11	10	[0, 0, 0]	n/a	catFR1	1	R1261P
1764.616	1.0	1770610	WORD_OFF	n/a	n/a	COMPUTER	n/a	11	10	[0, 0, 0]	n/a	catFR1	1	R1261P
1765.616	1.617	1771610	WORD	n/a	wordpools/wordpool_categorized_EN.txt	STEREO	Electronics	12	10	[0, 0, 0]	n/a	catFR1	1	R1261P
1767.233	0.001	1773227	WORD_OFF	n/a	n/a	STEREO	n/a	12	10	[0, 0, 0]	n/a	catFR1	1	R1261P
1767.234	0.101	1773228	ENCODING_END	n/a	n/a	n/a	n/a	-999	10	[0, 0, 0]	n/a	catFR1	1	R1261P
1767.335	0.0	1773329	DISTRACT_START	n/a	n/a	n/a	n/a	-999	10	[0, 0, 0]	n/a	catFR1	1	R1261P
1767.335	0.015	1773329	START	n/a	n/a	n/a	n/a	-999	11	[-999, -999, -999]	n/a	catFR1	1	R1261P
1767.35	5.084	1773344	PROB	5.084	n/a	n/a	n/a	-999	11	[7, 2, 1]	10	catFR1	1	R1261P
1772.434	8.919	1778428	PROB	8.919	n/a	n/a	n/a	-999	11	[5, 8, 8]	21	catFR1	1	R1261P
1781.353	14.553	1787346	PROB	14.553	n/a	n/a	n/a	-999	11	[9, 2, 5]	16	catFR1	1	R1261P
1795.906	0.016	1801898	STOP	n/a	n/a	n/a	n/a	-999	11	[-999, -999, -999]	n/a	catFR1	1	R1261P
1795.922	0.567	1801914	DISTRACT_END	n/a	n/a	n/a	n/a	-999	10	[0, 0, 0]	n/a	catFR1	1	R1261P
1796.489	0.517	1802481	RETRIEVAL_ORIENT	n/a	n/a	n/a	n/a	-999	10	[0, 0, 0]	n/a	catFR1	1	R1261P
1797.006	7.384	1802998	REC_START	n/a	n/a	n/a	n/a	-999	10	[0, 0, 0]	n/a	catFR1	1	R1261P
1804.39	5.334	1810382	REC_WORD_VV	5.334	n/a	<>	n/a	-999	10	[0, 0, 0]	n/a	catFR1	1	R1261P
1809.724	4.411	1815716	REC_WORD_VV	4.411	n/a	<>	n/a	-999	10	[0, 0, 0]	n/a	catFR1	1	R1261P
1814.135	1.289	1820126	REC_WORD_VV	1.289	n/a	<>	n/a	-999	10	[0, 0, 0]	n/a	catFR1	1	R1261P
1815.424	1.845	1821415	REC_WORD	1.845	n/a	REFRIGERATOR	Appliances	2	10	[0, 0, 0]	n/a	catFR1	1	R1261P
1817.269	6.28	1823260	REC_WORD_VV	6.28	n/a	<>	n/a	-999	10	[0, 0, 0]	n/a	catFR1	1	R1261P
1823.549	1.864	1829540	REC_WORD	1.864	n/a	REFRIGERATOR	Appliances	2	10	[0, 0, 0]	n/a	catFR1	1	R1261P
1825.413	1.605	1831404	REC_WORD	1.605	n/a	WASHER	Appliances	1	10	[0, 0, 0]	n/a	catFR1	1	R1261P
1827.018	12.312	1833009	REC_END	n/a	n/a	n/a	n/a	-999	10	[0, 0, 0]	n/a	catFR1	1	R1261P
1839.33	0.5	1845320	TRIAL	n/a	n/a	n/a	n/a	-999	11	[0, 0, 0]	n/a	catFR1	1	R1261P
1839.83	10.428	1845820	COUNTDOWN_START	n/a	n/a	n/a	n/a	-999	11	[0, 0, 0]	n/a	catFR1	1	R1261P
1850.258	0.008	1856248	COUNTDOWN_END	n/a	n/a	n/a	n/a	-999	11	[0, 0, 0]	n/a	catFR1	1	R1261P
1850.266	1.618	1856256	ORIENT	n/a	n/a	n/a	n/a	-999	11	[0, 0, 0]	n/a	catFR1	1	R1261P
1851.884	2.232	1857873	ORIENT_OFF	n/a	n/a	n/a	n/a	-999	11	[0, 0, 0]	n/a	catFR1	1	R1261P
1854.116	1.617	1860105	WORD	n/a	wordpools/wordpool_categorized_EN.txt	SODA	Beverages	1	11	[0, 0, 0]	n/a	catFR1	1	R1261P
1855.733	0.884	1861722	WORD_OFF	n/a	n/a	SODA	n/a	1	11	[0, 0, 0]	n/a	catFR1	1	R1261P
1856.617	1.617	1862606	WORD	n/a	wordpools/wordpool_categorized_EN.txt	COLA	Beverages	2	11	[0, 0, 0]	n/a	catFR1	1	R1261P
1858.234	0.8	1864223	WORD_OFF	n/a	n/a	COLA	n/a	2	11	[0, 0, 0]	n/a	catFR1	1	R1261P
1859.034	1.617	1865023	WORD	n/a	wordpools/wordpool_categorized_EN.txt	TOASTER	Appliances	3	11	[0, 0, 0]	n/a	catFR1	1	R1261P
1860.651	0.917	1866640	WORD_OFF	n/a	n/a	TOASTER	n/a	3	11	[0, 0, 0]	n/a	catFR1	1	R1261P
1861.568	1.617	1867557	WORD	n/a	wordpools/wordpool_categorized_EN.txt	DRYER	Appliances	4	11	[0, 0, 0]	n/a	catFR1	1	R1261P
1863.185	0.917	1869174	WORD_OFF	n/a	n/a	DRYER	n/a	4	11	[0, 0, 0]	n/a	catFR1	1	R1261P
1864.102	1.617	1870091	WORD	n/a	wordpools/wordpool_categorized_EN.txt	FRISBEE	Toys	5	11	[0, 0, 0]	n/a	catFR1	1	R1261P
1865.719	0.8	1871708	WORD_OFF	n/a	n/a	FRISBEE	n/a	5	11	[0, 0, 0]	n/a	catFR1	1	R1261P
1866.519	1.617	1872508	WORD	n/a	wordpools/wordpool_categorized_EN.txt	SLINKY	Toys	6	11	[0, 0, 0]	n/a	catFR1	1	R1261P
1868.136	0.983	1874125	WORD_OFF	n/a	n/a	SLINKY	n/a	6	11	[0, 0, 0]	n/a	catFR1	1	R1261P
1869.119	1.617	1875108	WORD	n/a	wordpools/wordpool_categorized_EN.txt	WINE	Beverages	7	11	[0, 0, 0]	n/a	catFR1	1	R1261P
1870.736	0.984	1876725	WORD_OFF	n/a	n/a	WINE	n/a	7	11	[0, 0, 0]	n/a	catFR1	1	R1261P
1871.72	1.617	1877708	WORD	n/a	wordpools/wordpool_categorized_EN.txt	RUM	Beverages	8	11	[0, 0, 0]	n/a	catFR1	1	R1261P
1873.337	0.9	1879325	WORD_OFF	n/a	n/a	RUM	n/a	8	11	[0, 0, 0]	n/a	catFR1	1	R1261P
1874.237	1.618	1880225	WORD	n/a	wordpools/wordpool_categorized_EN.txt	VACUUM	Appliances	9	11	[0, 0, 0]	n/a	catFR1	1	R1261P
1875.855	0.899	1881843	WORD_OFF	n/a	n/a	VACUUM	n/a	9	11	[0, 0, 0]	n/a	catFR1	1	R1261P
1876.754	1.617	1882742	WORD	n/a	wordpools/wordpool_categorized_EN.txt	FREEZER	Appliances	10	11	[0, 0, 0]	n/a	catFR1	1	R1261P
1878.371	0.883	1884359	WORD_OFF	n/a	n/a	FREEZER	n/a	10	11	[0, 0, 0]	n/a	catFR1	1	R1261P
1879.254	1.618	1885242	WORD	n/a	wordpools/wordpool_categorized_EN.txt	MARBLES	Toys	11	11	[0, 0, 0]	n/a	catFR1	1	R1261P
1880.872	1.001	1886860	WORD_OFF	n/a	n/a	MARBLES	n/a	11	11	[0, 0, 0]	n/a	catFR1	1	R1261P
1881.873	1.616	1887861	WORD	n/a	wordpools/wordpool_categorized_EN.txt	FOOTBALL	Toys	12	11	[0, 0, 0]	n/a	catFR1	1	R1261P
1883.489	0.0	1889477	WORD_OFF	n/a	n/a	FOOTBALL	n/a	12	11	[0, 0, 0]	n/a	catFR1	1	R1261P
1883.489	0.102	1889477	ENCODING_END	n/a	n/a	n/a	n/a	-999	11	[0, 0, 0]	n/a	catFR1	1	R1261P
1883.591	0.0	1889579	DISTRACT_START	n/a	n/a	n/a	n/a	-999	11	[0, 0, 0]	n/a	catFR1	1	R1261P
1883.591	0.014	1889579	START	n/a	n/a	n/a	n/a	-999	12	[-999, -999, -999]	n/a	catFR1	1	R1261P
1883.605	6.452	1889593	PROB	6.452	n/a	n/a	n/a	-999	12	[5, 9, 4]	18	catFR1	1	R1261P
1890.057	6.951	1896044	PROB	6.951	n/a	n/a	n/a	-999	12	[3, 8, 3]	14	catFR1	1	R1261P
1897.008	4.634	1902995	PROB	4.634	n/a	n/a	n/a	-999	12	[9, 9, 9]	27	catFR1	1	R1261P
1901.642	4.864	1907629	PROB	4.864	n/a	n/a	n/a	-999	12	[8, 3, 4]	15	catFR1	1	R1261P
1906.506	0.021	1912493	STOP	n/a	n/a	n/a	n/a	-999	12	[-999, -999, -999]	n/a	catFR1	1	R1261P
1906.527	0.566	1912514	DISTRACT_END	n/a	n/a	n/a	n/a	-999	11	[0, 0, 0]	n/a	catFR1	1	R1261P
1907.093	0.517	1913080	RETRIEVAL_ORIENT	n/a	n/a	n/a	n/a	-999	11	[0, 0, 0]	n/a	catFR1	1	R1261P
1907.61	2.383	1913597	REC_START	n/a	n/a	n/a	n/a	-999	11	[0, 0, 0]	n/a	catFR1	1	R1261P
1909.993	1.687	1915979	REC_WORD_VV	1.687	n/a	<>	n/a	-999	11	[0, 0, 0]	n/a	catFR1	1	R1261P
1911.68	10.704	1917666	REC_WORD_VV	10.704	n/a	<>	n/a	-999	11	[0, 0, 0]	n/a	catFR1	1	R1261P
1922.384	1.0	1928370	REC_WORD_VV	1.0	n/a	<>	n/a	-999	11	[0, 0, 0]	n/a	catFR1	1	R1261P
1923.384	1.0	1929370	REC_WORD_VV	1.0	n/a	<>	n/a	-999	11	[0, 0, 0]	n/a	catFR1	1	R1261P
1924.384	1.578	1930370	REC_WORD_VV	1.578	n/a	<>	n/a	-999	11	[0, 0, 0]	n/a	catFR1	1	R1261P
1925.962	2.064	1931948	REC_WORD_VV	2.064	n/a	<>	n/a	-999	11	[0, 0, 0]	n/a	catFR1	1	R1261P
1928.026	9.596	1934012	REC_WORD_VV	9.596	n/a	<>	n/a	-999	11	[0, 0, 0]	n/a	catFR1	1	R1261P
1937.622	7.561	1943607	REC_END	n/a	n/a	n/a	n/a	-999	11	[0, 0, 0]	n/a	catFR1	1	R1261P
1945.183	0.5	1951168	TRIAL	n/a	n/a	n/a	n/a	-999	12	[0, 0, 0]	n/a	catFR1	1	R1261P
1945.683	10.428	1951668	COUNTDOWN_START	n/a	n/a	n/a	n/a	-999	12	[0, 0, 0]	n/a	catFR1	1	R1261P
1956.111	0.008	1962095	COUNTDOWN_END	n/a	n/a	n/a	n/a	-999	12	[0, 0, 0]	n/a	catFR1	1	R1261P
1956.119	1.617	1962103	ORIENT	n/a	n/a	n/a	n/a	-999	12	[0, 0, 0]	n/a	catFR1	1	R1261P
1957.736	1.85	1963720	ORIENT_OFF	n/a	n/a	n/a	n/a	-999	12	[0, 0, 0]	n/a	catFR1	1	R1261P
1959.586	1.617	1965570	WORD	n/a	wordpools/wordpool_categorized_EN.txt	COW	FarmAnimals	1	12	[0, 0, 0]	n/a	catFR1	1	R1261P
1961.203	0.867	1967187	WORD_OFF	n/a	n/a	COW	n/a	1	12	[0, 0, 0]	n/a	catFR1	1	R1261P
1962.07	1.617	1968054	WORD	n/a	wordpools/wordpool_categorized_EN.txt	HEN	FarmAnimals	2	12	[0, 0, 0]	n/a	catFR1	1	R1261P
1963.687	0.867	1969671	WORD_OFF	n/a	n/a	HEN	n/a	2	12	[0, 0, 0]	n/a	catFR1	1	R1261P
1964.554	1.617	1970538	WORD	n/a	wordpools/wordpool_categorized_EN.txt	RIVER	Landscapes	3	12	[0, 0, 0]	n/a	catFR1	1	R1261P
1966.171	0.783	1972155	WORD_OFF	n/a	n/a	RIVER	n/a	3	12	[0, 0, 0]	n/a	catFR1	1	R1261P
1966.954	1.617	1972937	WORD	n/a	wordpools/wordpool_categorized_EN.txt	ISLAND	Landscapes	4	12	[0, 0, 0]	n/a	catFR1	1	R1261P
1968.571	0.834	1974554	WORD_OFF	n/a	n/a	ISLAND	n/a	4	12	[0, 0, 0]	n/a	catFR1	1	R1261P
1969.405	1.617	1975388	WORD	n/a	wordpools/wordpool_categorized_EN.txt	SPIDER	Insects	5	12	[0, 0, 0]	n/a	catFR1	1	R1261P
1971.022	1.0	1977005	WORD_OFF	n/a	n/a	SPIDER	n/a	5	12	[0, 0, 0]	n/a	catFR1	1	R1261P
1972.022	1.617	1978005	WORD	n/a	wordpools/wordpool_categorized_EN.txt	LADYBUG	Insects	6	12	[0, 0, 0]	n/a	catFR1	1	R1261P
1973.639	1.0	1979622	WORD_OFF	n/a	n/a	LADYBUG	n/a	6	12	[0, 0, 0]	n/a	catFR1	1	R1261P
1974.639	1.617	1980622	WORD	n/a	wordpools/wordpool_categorized_EN.txt	TURKEY	FarmAnimals	7	12	[0, 0, 0]	n/a	catFR1	1	R1261P
1976.256	0.9	1982239	WORD_OFF	n/a	n/a	TURKEY	n/a	7	12	[0, 0, 0]	n/a	catFR1	1	R1261P
1977.156	1.617	1983139	WORD	n/a	wordpools/wordpool_categorized_EN.txt	PIG	FarmAnimals	8	12	[0, 0, 0]	n/a	catFR1	1	R1261P
1978.773	0.784	1984756	WORD_OFF	n/a	n/a	PIG	n/a	8	12	[0, 0, 0]	n/a	catFR1	1	R1261P
1979.557	1.617	1985540	WORD	n/a	wordpools/wordpool_categorized_EN.txt	MOUNTAIN	Landscapes	9	12	[0, 0, 0]	n/a	catFR1	1	R1261P
1981.174	0.9	1987157	WORD_OFF	n/a	n/a	MOUNTAIN	n/a	9	12	[0, 0, 0]	n/a	catFR1	1	R1261P
1982.074	1.617	1988057	WORD	n/a	wordpools/wordpool_categorized_EN.txt	LAKE	Landscapes	10	12	[0, 0, 0]	n/a	catFR1	1	R1261P
1983.691	0.867	1989674	WORD_OFF	n/a	n/a	LAKE	n/a	10	12	[0, 0, 0]	n/a	catFR1	1	R1261P
1984.558	1.617	1990541	WORD	n/a	wordpools/wordpool_categorized_EN.txt	MOTH	Insects	11	12	[0, 0, 0]	n/a	catFR1	1	R1261P
1986.175	0.8	1992157	WORD_OFF	n/a	n/a	MOTH	n/a	11	12	[0, 0, 0]	n/a	catFR1	1	R1261P
1986.975	1.617	1992957	WORD	n/a	wordpools/wordpool_categorized_EN.txt	BEE	Insects	12	12	[0, 0, 0]	n/a	catFR1	1	R1261P
1988.592	0.0	1994574	ENCODING_END	n/a	n/a	n/a	n/a	-999	12	[0, 0, 0]	n/a	catFR1	1	R1261P
1988.592	0.138	1994574	WORD_OFF	n/a	n/a	BEE	n/a	12	12	[0, 0, 0]	n/a	catFR1	1	R1261P
1988.73	0.0	1994712	DISTRACT_START	n/a	n/a	n/a	n/a	-999	12	[0, 0, 0]	n/a	catFR1	1	R1261P
1988.73	0.012	1994712	START	n/a	n/a	n/a	n/a	-999	13	[-999, -999, -999]	n/a	catFR1	1	R1261P
1988.742	7.102	1994724	PROB	7.102	n/a	n/a	n/a	-999	13	[8, 5, 1]	11	catFR1	1	R1261P
1995.844	11.201	2001826	PROB	11.201	n/a	n/a	n/a	-999	13	[6, 6, 8]	10	catFR1	1	R1261P
2007.045	7.981	2013026	PROB	7.981	n/a	n/a	n/a	-999	13	[4, 9, 3]	16	catFR1	1	R1261P
2015.026	0.021	2021007	STOP	n/a	n/a	n/a	n/a	-999	13	[-999, -999, -999]	n/a	catFR1	1	R1261P
2015.047	0.583	2021028	DISTRACT_END	n/a	n/a	n/a	n/a	-999	12	[0, 0, 0]	n/a	catFR1	1	R1261P
2015.63	0.517	2021611	RETRIEVAL_ORIENT	n/a	n/a	n/a	n/a	-999	12	[0, 0, 0]	n/a	catFR1	1	R1261P
2016.147	30.012	2022128	REC_START	n/a	n/a	n/a	n/a	-999	12	[0, 0, 0]	n/a	catFR1	1	R1261P
2046.159	6.495	2052138	REC_END	n/a	n/a	n/a	n/a	-999	12	[0, 0, 0]	n/a	catFR1	1	R1261P
2052.654	0.5	2058633	TRIAL	n/a	n/a	n/a	n/a	-999	13	[0, 0, 0]	n/a	catFR1	1	R1261P
2053.154	10.428	2059133	COUNTDOWN_START	n/a	n/a	n/a	n/a	-999	13	[0, 0, 0]	n/a	catFR1	1	R1261P
2063.582	0.007	2069560	COUNTDOWN_END	n/a	n/a	n/a	n/a	-999	13	[0, 0, 0]	n/a	catFR1	1	R1261P
2063.589	1.617	2069567	ORIENT	n/a	n/a	n/a	n/a	-999	13	[0, 0, 0]	n/a	catFR1	1	R1261P
2065.206	2.134	2071184	ORIENT_OFF	n/a	n/a	n/a	n/a	-999	13	[0, 0, 0]	n/a	catFR1	1	R1261P
2067.34	1.617	2073318	WORD	n/a	wordpools/wordpool_categorized_EN.txt	UNDERWEAR	Clothing	1	13	[0, 0, 0]	n/a	catFR1	1	R1261P
2068.957	1.0	2074935	WORD_OFF	n/a	n/a	UNDERWEAR	n/a	1	13	[0, 0, 0]	n/a	catFR1	1	R1261P
2069.957	1.617	2075935	WORD	n/a	wordpools/wordpool_categorized_EN.txt	PANTS	Clothing	2	13	[0, 0, 0]	n/a	catFR1	1	R1261P
2071.574	0.834	2077552	WORD_OFF	n/a	n/a	PANTS	n/a	2	13	[0, 0, 0]	n/a	catFR1	1	R1261P
2072.408	1.617	2078386	WORD	n/a	wordpools/wordpool_categorized_EN.txt	PLANE	Vehicles	3	13	[0, 0, 0]	n/a	catFR1	1	R1261P
2074.025	0.766	2080003	WORD_OFF	n/a	n/a	PLANE	n/a	3	13	[0, 0, 0]	n/a	catFR1	1	R1261P
2074.791	1.617	2080769	WORD	n/a	wordpools/wordpool_categorized_EN.txt	VAN	Vehicles	4	13	[0, 0, 0]	n/a	catFR1	1	R1261P
2076.408	0.917	2082386	WORD_OFF	n/a	n/a	VAN	n/a	4	13	[0, 0, 0]	n/a	catFR1	1	R1261P
2077.325	1.617	2083303	WORD	n/a	wordpools/wordpool_categorized_EN.txt	CARNATION	Flowers	5	13	[0, 0, 0]	n/a	catFR1	1	R1261P
2078.942	1.017	2084920	WORD_OFF	n/a	n/a	CARNATION	n/a	5	13	[0, 0, 0]	n/a	catFR1	1	R1261P
2079.959	1.617	2085937	WORD	n/a	wordpools/wordpool_categorized_EN.txt	DAFFODIL	Flowers	6	13	[0, 0, 0]	n/a	catFR1	1	R1261P
2081.576	0.8	2087554	WORD_OFF	n/a	n/a	DAFFODIL	n/a	6	13	[0, 0, 0]	n/a	catFR1	1	R1261P
2082.376	1.617	2088353	WORD	n/a	wordpools/wordpool_categorized_EN.txt	MOTORCYCLE	Vehicles	7	13	[0, 0, 0]	n/a	catFR1	1	R1261P
2083.993	0.967	2089970	WORD_OFF	n/a	n/a	MOTORCYCLE	n/a	7	13	[0, 0, 0]	n/a	catFR1	1	R1261P
2084.96	1.617	2090937	WORD	n/a	wordpools/wordpool_categorized_EN.txt	BUS	Vehicles	8	13	[0, 0, 0]	n/a	catFR1	1	R1261P
2086.577	0.95	2092554	WORD_OFF	n/a	n/a	BUS	n/a	8	13	[0, 0, 0]	n/a	catFR1	1	R1261P
2087.527	1.617	2093504	WORD	n/a	wordpools/wordpool_categorized_EN.txt	SOCKS	Clothing	9	13	[0, 0, 0]	n/a	catFR1	1	R1261P
2089.144	0.784	2095121	WORD_OFF	n/a	n/a	SOCKS	n/a	9	13	[0, 0, 0]	n/a	catFR1	1	R1261P
2089.928	1.616	2095905	WORD	n/a	wordpools/wordpool_categorized_EN.txt	SHIRT	Clothing	10	13	[0, 0, 0]	n/a	catFR1	1	R1261P
2091.544	0.767	2097521	WORD_OFF	n/a	n/a	SHIRT	n/a	10	13	[0, 0, 0]	n/a	catFR1	1	R1261P
2092.311	1.617	2098288	WORD	n/a	wordpools/wordpool_categorized_EN.txt	DAISY	Flowers	11	13	[0, 0, 0]	n/a	catFR1	1	R1261P
2093.928	0.784	2099905	WORD_OFF	n/a	n/a	DAISY	n/a	11	13	[0, 0, 0]	n/a	catFR1	1	R1261P
2094.712	1.617	2100689	WORD	n/a	wordpools/wordpool_categorized_EN.txt	VIOLET	Flowers	12	13	[0, 0, 0]	n/a	catFR1	1	R1261P
2096.329	0.0	2102306	ENCODING_END	n/a	n/a	n/a	n/a	-999	13	[0, 0, 0]	n/a	catFR1	1	R1261P
2096.329	0.102	2102306	WORD_OFF	n/a	n/a	VIOLET	n/a	12	13	[0, 0, 0]	n/a	catFR1	1	R1261P
2096.431	0.0	2102408	DISTRACT_START	n/a	n/a	n/a	n/a	-999	13	[0, 0, 0]	n/a	catFR1	1	R1261P
2096.431	0.014	2102408	START	n/a	n/a	n/a	n/a	-999	14	[-999, -999, -999]	n/a	catFR1	1	R1261P
2096.445	4.268	2102422	PROB	4.268	n/a	n/a	n/a	-999	14	[1, 6, 5]	12	catFR1	1	R1261P
2100.713	5.567	2106690	PROB	5.567	n/a	n/a	n/a	-999	14	[7, 7, 6]	20	catFR1	1	R1261P
2106.28	4.968	2112256	PROB	4.968	n/a	n/a	n/a	-999	14	[2, 1, 3]	6	catFR1	1	R1261P
2111.248	4.935	2117224	PROB	4.935	n/a	n/a	n/a	-999	14	[3, 6, 6]	15	catFR1	1	R1261P
2116.183	6.915	2122159	PROB	6.915	n/a	n/a	n/a	-999	14	[6, 9, 3]	18	catFR1	1	R1261P
2123.098	0.019	2129073	STOP	n/a	n/a	n/a	n/a	-999	14	[-999, -999, -999]	n/a	catFR1	1	R1261P
2123.117	0.684	2129092	DISTRACT_END	n/a	n/a	n/a	n/a	-999	13	[0, 0, 0]	n/a	catFR1	1	R1261P
2123.801	0.517	2129776	RETRIEVAL_ORIENT	n/a	n/a	n/a	n/a	-999	13	[0, 0, 0]	n/a	catFR1	1	R1261P
2124.318	30.011	2130293	REC_START	n/a	n/a	n/a	n/a	-999	13	[0, 0, 0]	n/a	catFR1	1	R1261P
2154.329	20.631	2160303	REC_END	n/a	n/a	n/a	n/a	-999	13	[0, 0, 0]	n/a	catFR1	1	R1261P
2174.96	0.5	2180933	TRIAL	n/a	n/a	n/a	n/a	-999	14	[0, 0, 0]	n/a	catFR1	1	R1261P
2175.46	10.428	2181433	COUNTDOWN_START	n/a	n/a	n/a	n/a	-999	14	[0, 0, 0]	n/a	catFR1	1	R1261P
2185.888	0.009	2191860	COUNTDOWN_END	n/a	n/a	n/a	n/a	-999	14	[0, 0, 0]	n/a	catFR1	1	R1261P
2185.897	1.616	2191869	ORIENT	n/a	n/a	n/a	n/a	-999	14	[0, 0, 0]	n/a	catFR1	1	R1261P
2187.513	2.05	2193485	ORIENT_OFF	n/a	n/a	n/a	n/a	-999	14	[0, 0, 0]	n/a	catFR1	1	R1261P
2189.563	1.617	2195535	WORD	n/a	wordpools/wordpool_categorized_EN.txt	CHICKEN	FarmAnimals	1	14	[0, 0, 0]	n/a	catFR1	1	R1261P
2191.18	1.0	2197152	WORD_OFF	n/a	n/a	CHICKEN	n/a	1	14	[0, 0, 0]	n/a	catFR1	1	R1261P
2192.18	1.617	2198152	WORD	n/a	wordpools/wordpool_categorized_EN.txt	LAMB	FarmAnimals	2	14	[0, 0, 0]	n/a	catFR1	1	R1261P
2193.797	0.95	2199769	WORD_OFF	n/a	n/a	LAMB	n/a	2	14	[0, 0, 0]	n/a	catFR1	1	R1261P
2194.747	1.617	2200719	WORD	n/a	wordpools/wordpool_categorized_EN.txt	SPARROW	Birds	3	14	[0, 0, 0]	n/a	catFR1	1	R1261P
2196.364	0.817	2202336	WORD_OFF	n/a	n/a	SPARROW	n/a	3	14	[0, 0, 0]	n/a	catFR1	1	R1261P
2197.181	1.617	2203152	WORD	n/a	wordpools/wordpool_categorized_EN.txt	BLUEBIRD	Birds	4	14	[0, 0, 0]	n/a	catFR1	1	R1261P
2198.798	1.017	2204769	WORD_OFF	n/a	n/a	BLUEBIRD	n/a	4	14	[0, 0, 0]	n/a	catFR1	1	R1261P
2199.815	1.617	2205786	WORD	n/a	wordpools/wordpool_categorized_EN.txt	GUITAR	Instruments	5	14	[0, 0, 0]	n/a	catFR1	1	R1261P
2201.432	0.9	2207403	WORD_OFF	n/a	n/a	GUITAR	n/a	5	14	[0, 0, 0]	n/a	catFR1	1	R1261P
2202.332	1.617	2208303	WORD	n/a	wordpools/wordpool_categorized_EN.txt	TROMBONE	Instruments	6	14	[0, 0, 0]	n/a	catFR1	1	R1261P
2203.949	0.783	2209920	WORD_OFF	n/a	n/a	TROMBONE	n/a	6	14	[0, 0, 0]	n/a	catFR1	1	R1261P
2204.732	1.617	2210703	WORD	n/a	wordpools/wordpool_categorized_EN.txt	SEAGULL	Birds	7	14	[0, 0, 0]	n/a	catFR1	1	R1261P
2206.349	0.884	2212320	WORD_OFF	n/a	n/a	SEAGULL	n/a	7	14	[0, 0, 0]	n/a	catFR1	1	R1261P
2207.233	1.618	2213204	WORD	n/a	wordpools/wordpool_categorized_EN.txt	DUCK	Birds	8	14	[0, 0, 0]	n/a	catFR1	1	R1261P
2208.851	0.882	2214822	WORD_OFF	n/a	n/a	DUCK	n/a	8	14	[0, 0, 0]	n/a	catFR1	1	R1261P
2209.733	1.617	2215704	WORD	n/a	wordpools/wordpool_categorized_EN.txt	HORSE	FarmAnimals	9	14	[0, 0, 0]	n/a	catFR1	1	R1261P
2211.35	0.801	2217321	WORD_OFF	n/a	n/a	HORSE	n/a	9	14	[0, 0, 0]	n/a	catFR1	1	R1261P
2212.151	1.617	2218122	WORD	n/a	wordpools/wordpool_categorized_EN.txt	GOAT	FarmAnimals	10	14	[0, 0, 0]	n/a	catFR1	1	R1261P
2213.768	0.85	2219739	WORD_OFF	n/a	n/a	GOAT	n/a	10	14	[0, 0, 0]	n/a	catFR1	1	R1261P
2214.618	1.617	2220589	WORD	n/a	wordpools/wordpool_categorized_EN.txt	CELLO	Instruments	11	14	[0, 0, 0]	n/a	catFR1	1	R1261P
2216.235	0.817	2222205	WORD_OFF	n/a	n/a	CELLO	n/a	11	14	[0, 0, 0]	n/a	catFR1	1	R1261P
2217.052	1.616	2223022	WORD	n/a	wordpools/wordpool_categorized_EN.txt	TRUMPET	Instruments	12	14	[0, 0, 0]	n/a	catFR1	1	R1261P
2218.668	0.001	2224638	WORD_OFF	n/a	n/a	TRUMPET	n/a	12	14	[0, 0, 0]	n/a	catFR1	1	R1261P
2218.669	0.106	2224639	ENCODING_END	n/a	n/a	n/a	n/a	-999	14	[0, 0, 0]	n/a	catFR1	1	R1261P
2218.775	0.0	2224745	DISTRACT_START	n/a	n/a	n/a	n/a	-999	14	[0, 0, 0]	n/a	catFR1	1	R1261P
2218.775	0.01	2224745	START	n/a	n/a	n/a	n/a	-999	15	[-999, -999, -999]	n/a	catFR1	1	R1261P
2218.785	5.701	2224755	PROB	5.701	n/a	n/a	n/a	-999	15	[5, 5, 4]	14	catFR1	1	R1261P
2224.486	7.235	2230456	PROB	7.235	n/a	n/a	n/a	-999	15	[8, 5, 3]	16	catFR1	1	R1261P
2231.721	6.385	2237691	PROB	6.385	n/a	n/a	n/a	-999	15	[6, 8, 4]	18	catFR1	1	R1261P
2238.106	3.815	2244075	PROB	3.815	n/a	n/a	n/a	-999	15	[2, 4, 4]	10	catFR1	1	R1261P
2241.921	0.019	2247890	STOP	n/a	n/a	n/a	n/a	-999	15	[-999, -999, -999]	n/a	catFR1	1	R1261P
2241.94	0.683	2247909	DISTRACT_END	n/a	n/a	n/a	n/a	-999	14	[0, 0, 0]	n/a	catFR1	1	R1261P
2242.623	0.517	2248592	RETRIEVAL_ORIENT	n/a	n/a	n/a	n/a	-999	14	[0, 0, 0]	n/a	catFR1	1	R1261P
2243.14	30.011	2249109	REC_START	n/a	n/a	n/a	n/a	-999	14	[0, 0, 0]	n/a	catFR1	1	R1261P
2273.151	5.846	2279119	REC_END	n/a	n/a	n/a	n/a	-999	14	[0, 0, 0]	n/a	catFR1	1	R1261P
2278.997	0.5	2284964	TRIAL	n/a	n/a	n/a	n/a	-999	15	[0, 0, 0]	n/a	catFR1	1	R1261P
2279.497	10.428	2285464	COUNTDOWN_START	n/a	n/a	n/a	n/a	-999	15	[0, 0, 0]	n/a	catFR1	1	R1261P
2289.925	0.007	2295892	COUNTDOWN_END	n/a	n/a	n/a	n/a	-999	15	[0, 0, 0]	n/a	catFR1	1	R1261P
2289.932	1.617	2295899	ORIENT	n/a	n/a	n/a	n/a	-999	15	[0, 0, 0]	n/a	catFR1	1	R1261P
2291.549	2.05	2297516	ORIENT_OFF	n/a	n/a	n/a	n/a	-999	15	[0, 0, 0]	n/a	catFR1	1	R1261P
2293.599	1.617	2299565	WORD	n/a	wordpools/wordpool_categorized_EN.txt	PIANO	Instruments	1	15	[0, 0, 0]	n/a	catFR1	1	R1261P
2295.216	0.834	2301182	WORD_OFF	n/a	n/a	PIANO	n/a	1	15	[0, 0, 0]	n/a	catFR1	1	R1261P
2296.05	1.617	2302016	WORD	n/a	wordpools/wordpool_categorized_EN.txt	ORGAN	Instruments	2	15	[0, 0, 0]	n/a	catFR1	1	R1261P
2297.667	0.833	2303633	WORD_OFF	n/a	n/a	ORGAN	n/a	2	15	[0, 0, 0]	n/a	catFR1	1	R1261P
2298.5	1.617	2304466	WORD	n/a	wordpools/wordpool_categorized_EN.txt	RULER	OfficeSupplies	3	15	[0, 0, 0]	n/a	catFR1	1	R1261P
2300.117	0.95	2306083	WORD_OFF	n/a	n/a	RULER	n/a	3	15	[0, 0, 0]	n/a	catFR1	1	R1261P
2301.067	1.617	2307033	WORD	n/a	wordpools/wordpool_categorized_EN.txt	TAPE	OfficeSupplies	4	15	[0, 0, 0]	n/a	catFR1	1	R1261P
2302.684	0.967	2308650	WORD_OFF	n/a	n/a	TAPE	n/a	4	15	[0, 0, 0]	n/a	catFR1	1	R1261P
2303.651	1.617	2309617	WORD	n/a	wordpools/wordpool_categorized_EN.txt	CLOUD	Weather	5	15	[0, 0, 0]	n/a	catFR1	1	R1261P
2305.268	0.884	2311234	WORD_OFF	n/a	n/a	CLOUD	n/a	5	15	[0, 0, 0]	n/a	catFR1	1	R1261P
2306.152	1.617	2312118	WORD	n/a	wordpools/wordpool_categorized_EN.txt	FOG	Weather	6	15	[0, 0, 0]	n/a	catFR1	1	R1261P
2307.769	0.916	2313735	WORD_OFF	n/a	n/a	FOG	n/a	6	15	[0, 0, 0]	n/a	catFR1	1	R1261P
2308.685	1.617	2314651	WORD	n/a	wordpools/wordpool_categorized_EN.txt	PENCIL	OfficeSupplies	7	15	[0, 0, 0]	n/a	catFR1	1	R1261P
2310.302	1.001	2316268	WORD_OFF	n/a	n/a	PENCIL	n/a	7	15	[0, 0, 0]	n/a	catFR1	1	R1261P
2311.303	1.617	2317269	WORD	n/a	wordpools/wordpool_categorized_EN.txt	PAPER	OfficeSupplies	8	15	[0, 0, 0]	n/a	catFR1	1	R1261P
2312.92	0.783	2318885	WORD_OFF	n/a	n/a	PAPER	n/a	8	15	[0, 0, 0]	n/a	catFR1	1	R1261P
2313.703	1.617	2319668	WORD	n/a	wordpools/wordpool_categorized_EN.txt	TUBA	Instruments	9	15	[0, 0, 0]	n/a	catFR1	1	R1261P
2315.32	0.884	2321285	WORD_OFF	n/a	n/a	TUBA	n/a	9	15	[0, 0, 0]	n/a	catFR1	1	R1261P
2316.204	1.617	2322169	WORD	n/a	wordpools/wordpool_categorized_EN.txt	VIOLIN	Instruments	10	15	[0, 0, 0]	n/a	catFR1	1	R1261P
2317.821	0.983	2323786	WORD_OFF	n/a	n/a	VIOLIN	n/a	10	15	[0, 0, 0]	n/a	catFR1	1	R1261P
2318.804	1.617	2324769	WORD	n/a	wordpools/wordpool_categorized_EN.txt	SNOW	Weather	11	15	[0, 0, 0]	n/a	catFR1	1	R1261P
2320.421	0.867	2326386	WORD_OFF	n/a	n/a	SNOW	n/a	11	15	[0, 0, 0]	n/a	catFR1	1	R1261P
2321.288	1.601	2327253	WORD	n/a	wordpools/wordpool_categorized_EN.txt	LIGHTNING	Weather	12	15	[0, 0, 0]	n/a	catFR1	1	R1261P
2322.889	0.0	2328854	ENCODING_END	n/a	n/a	n/a	n/a	-999	15	[0, 0, 0]	n/a	catFR1	1	R1261P
2322.889	0.135	2328854	WORD_OFF	n/a	n/a	LIGHTNING	n/a	12	15	[0, 0, 0]	n/a	catFR1	1	R1261P
2323.024	0.0	2328989	DISTRACT_START	n/a	n/a	n/a	n/a	-999	15	[0, 0, 0]	n/a	catFR1	1	R1261P
2323.024	0.014	2328989	START	n/a	n/a	n/a	n/a	-999	16	[-999, -999, -999]	n/a	catFR1	1	R1261P
2323.038	4.768	2329003	PROB	4.768	n/a	n/a	n/a	-999	16	[6, 3, 3]	12	catFR1	1	R1261P
2327.806	12.335	2333771	PROB	12.335	n/a	n/a	n/a	-999	16	[8, 4, 4]	16	catFR1	1	R1261P
2340.141	4.228	2346105	PROB	4.228	n/a	n/a	n/a	-999	16	[4, 6, 8]	18	catFR1	1	R1261P
2344.369	0.007	2350333	STOP	n/a	n/a	n/a	n/a	-999	16	[-999, -999, -999]	n/a	catFR1	1	R1261P
2344.376	0.534	2350340	DISTRACT_END	n/a	n/a	n/a	n/a	-999	15	[0, 0, 0]	n/a	catFR1	1	R1261P
2344.91	0.517	2350874	RETRIEVAL_ORIENT	n/a	n/a	n/a	n/a	-999	15	[0, 0, 0]	n/a	catFR1	1	R1261P
2345.427	30.012	2351391	REC_START	n/a	n/a	n/a	n/a	-999	15	[0, 0, 0]	n/a	catFR1	1	R1261P
2375.439	4.643	2381401	REC_END	n/a	n/a	n/a	n/a	-999	15	[0, 0, 0]	n/a	catFR1	1	R1261P
2380.082	0.5	2386044	TRIAL	n/a	n/a	n/a	n/a	-999	16	[0, 0, 0]	n/a	catFR1	1	R1261P
2380.582	10.428	2386544	COUNTDOWN_START	n/a	n/a	n/a	n/a	-999	16	[0, 0, 0]	n/a	catFR1	1	R1261P
2391.01	0.008	2396971	COUNTDOWN_END	n/a	n/a	n/a	n/a	-999	16	[0, 0, 0]	n/a	catFR1	1	R1261P
2391.018	1.617	2396979	ORIENT	n/a	n/a	n/a	n/a	-999	16	[0, 0, 0]	n/a	catFR1	1	R1261P
2392.635	2.218	2398596	ORIENT_OFF	n/a	n/a	n/a	n/a	-999	16	[0, 0, 0]	n/a	catFR1	1	R1261P
2394.853	1.616	2400814	WORD	n/a	wordpools/wordpool_categorized_EN.txt	WIND	Weather	1	16	[0, 0, 0]	n/a	catFR1	1	R1261P
2396.469	0.967	2402430	WORD_OFF	n/a	n/a	WIND	n/a	1	16	[0, 0, 0]	n/a	catFR1	1	R1261P
2397.436	1.617	2403397	WORD	n/a	wordpools/wordpool_categorized_EN.txt	RAIN	Weather	2	16	[0, 0, 0]	n/a	catFR1	1	R1261P
2399.053	0.966	2405014	WORD_OFF	n/a	n/a	RAIN	n/a	2	16	[0, 0, 0]	n/a	catFR1	1	R1261P
2400.019	1.617	2405980	WORD	n/a	wordpools/wordpool_categorized_EN.txt	STOVE	Appliances	3	16	[0, 0, 0]	n/a	catFR1	1	R1261P
2401.636	0.95	2407597	WORD_OFF	n/a	n/a	STOVE	n/a	3	16	[0, 0, 0]	n/a	catFR1	1	R1261P
2402.586	1.617	2408547	WORD	n/a	wordpools/wordpool_categorized_EN.txt	IRON	Appliances	4	16	[0, 0, 0]	n/a	catFR1	1	R1261P
2404.203	0.917	2410164	WORD_OFF	n/a	n/a	IRON	n/a	4	16	[0, 0, 0]	n/a	catFR1	1	R1261P
2405.12	1.617	2411081	WORD	n/a	wordpools/wordpool_categorized_EN.txt	HAND	BodyParts	5	16	[0, 0, 0]	n/a	catFR1	1	R1261P
2406.737	0.851	2412698	WORD_OFF	n/a	n/a	HAND	n/a	5	16	[0, 0, 0]	n/a	catFR1	1	R1261P
2407.588	1.616	2413549	WORD	n/a	wordpools/wordpool_categorized_EN.txt	ARM	BodyParts	6	16	[0, 0, 0]	n/a	catFR1	1	R1261P
2409.204	0.834	2415164	WORD_OFF	n/a	n/a	ARM	n/a	6	16	[0, 0, 0]	n/a	catFR1	1	R1261P
2410.038	1.617	2415998	WORD	n/a	wordpools/wordpool_categorized_EN.txt	BLENDER	Appliances	7	16	[0, 0, 0]	n/a	catFR1	1	R1261P
2411.655	0.983	2417615	WORD_OFF	n/a	n/a	BLENDER	n/a	7	16	[0, 0, 0]	n/a	catFR1	1	R1261P
2412.638	1.617	2418598	WORD	n/a	wordpools/wordpool_categorized_EN.txt	OVEN	Appliances	8	16	[0, 0, 0]	n/a	catFR1	1	R1261P
2414.255	0.95	2420215	WORD_OFF	n/a	n/a	OVEN	n/a	8	16	[0, 0, 0]	n/a	catFR1	1	R1261P
2415.205	1.619	2421165	WORD	n/a	wordpools/wordpool_categorized_EN.txt	THUNDERSTORM	Weather	9	16	[0, 0, 0]	n/a	catFR1	1	R1261P
2416.824	0.815	2422784	WORD_OFF	n/a	n/a	THUNDERSTORM	n/a	9	16	[0, 0, 0]	n/a	catFR1	1	R1261P
2417.639	1.617	2423599	WORD	n/a	wordpools/wordpool_categorized_EN.txt	HURRICANE	Weather	10	16	[0, 0, 0]	n/a	catFR1	1	R1261P
2419.256	0.8	2425216	WORD_OFF	n/a	n/a	HURRICANE	n/a	10	16	[0, 0, 0]	n/a	catFR1	1	R1261P
2420.056	1.617	2426016	WORD	n/a	wordpools/wordpool_categorized_EN.txt	TOE	BodyParts	11	16	[0, 0, 0]	n/a	catFR1	1	R1261P
2421.673	0.917	2427633	WORD_OFF	n/a	n/a	TOE	n/a	11	16	[0, 0, 0]	n/a	catFR1	1	R1261P
2422.59	1.617	2428550	WORD	n/a	wordpools/wordpool_categorized_EN.txt	KNEE	BodyParts	12	16	[0, 0, 0]	n/a	catFR1	1	R1261P
2424.207	0.001	2430167	WORD_OFF	n/a	n/a	KNEE	n/a	12	16	[0, 0, 0]	n/a	catFR1	1	R1261P
2424.208	0.103	2430168	ENCODING_END	n/a	n/a	n/a	n/a	-999	16	[0, 0, 0]	n/a	catFR1	1	R1261P
2424.311	0.0	2430271	DISTRACT_START	n/a	n/a	n/a	n/a	-999	16	[0, 0, 0]	n/a	catFR1	1	R1261P
2424.311	0.013	2430271	START	n/a	n/a	n/a	n/a	-999	17	[-999, -999, -999]	n/a	catFR1	1	R1261P
2424.324	5.684	2430284	PROB	5.684	n/a	n/a	n/a	-999	17	[4, 6, 8]	18	catFR1	1	R1261P
2430.008	4.535	2435967	PROB	4.535	n/a	n/a	n/a	-999	17	[7, 5, 5]	17	catFR1	1	R1261P
2434.543	6.151	2440502	PROB	6.151	n/a	n/a	n/a	-999	17	[8, 3, 3]	14	catFR1	1	R1261P
2440.694	6.275	2446653	PROB	6.275	n/a	n/a	n/a	-999	17	[7, 5, 7]	19	catFR1	1	R1261P
2446.969	0.009	2452927	STOP	n/a	n/a	n/a	n/a	-999	17	[-999, -999, -999]	n/a	catFR1	1	R1261P
2446.978	0.567	2452936	DISTRACT_END	n/a	n/a	n/a	n/a	-999	16	[0, 0, 0]	n/a	catFR1	1	R1261P
2447.545	0.517	2453503	RETRIEVAL_ORIENT	n/a	n/a	n/a	n/a	-999	16	[0, 0, 0]	n/a	catFR1	1	R1261P
2448.062	30.012	2454020	REC_START	n/a	n/a	n/a	n/a	-999	16	[0, 0, 0]	n/a	catFR1	1	R1261P
2478.074	5.694	2484031	REC_END	n/a	n/a	n/a	n/a	-999	16	[0, 0, 0]	n/a	catFR1	1	R1261P
2483.768	0.5	2489725	TRIAL	n/a	n/a	n/a	n/a	-999	17	[0, 0, 0]	n/a	catFR1	1	R1261P
2484.268	10.428	2490225	COUNTDOWN_START	n/a	n/a	n/a	n/a	-999	17	[0, 0, 0]	n/a	catFR1	1	R1261P
2494.696	0.008	2500652	COUNTDOWN_END	n/a	n/a	n/a	n/a	-999	17	[0, 0, 0]	n/a	catFR1	1	R1261P
2494.704	1.617	2500660	ORIENT	n/a	n/a	n/a	n/a	-999	17	[0, 0, 0]	n/a	catFR1	1	R1261P
2496.321	2.25	2502277	ORIENT_OFF	n/a	n/a	n/a	n/a	-999	17	[0, 0, 0]	n/a	catFR1	1	R1261P
2498.571	1.617	2504527	WORD	n/a	wordpools/wordpool_categorized_EN.txt	LILAC	Flowers	1	17	[0, 0, 0]	n/a	catFR1	1	R1261P
2500.188	0.95	2506144	WORD_OFF	n/a	n/a	LILAC	n/a	1	17	[0, 0, 0]	n/a	catFR1	1	R1261P
2501.138	1.617	2507094	WORD	n/a	wordpools/wordpool_categorized_EN.txt	PETUNIA	Flowers	2	17	[0, 0, 0]	n/a	catFR1	1	R1261P
2502.755	0.817	2508711	WORD_OFF	n/a	n/a	PETUNIA	n/a	2	17	[0, 0, 0]	n/a	catFR1	1	R1261P
2503.572	1.617	2509528	WORD	n/a	wordpools/wordpool_categorized_EN.txt	PUZZLE	Toys	3	17	[0, 0, 0]	n/a	catFR1	1	R1261P
2505.189	0.967	2511144	WORD_OFF	n/a	n/a	PUZZLE	n/a	3	17	[0, 0, 0]	n/a	catFR1	1	R1261P
2506.156	1.617	2512111	WORD	n/a	wordpools/wordpool_categorized_EN.txt	BLOCKS	Toys	4	17	[0, 0, 0]	n/a	catFR1	1	R1261P
2507.773	0.934	2513728	WORD_OFF	n/a	n/a	BLOCKS	n/a	4	17	[0, 0, 0]	n/a	catFR1	1	R1261P
2508.707	1.617	2514662	WORD	n/a	wordpools/wordpool_categorized_EN.txt	PHONE	Electronics	5	17	[0, 0, 0]	n/a	catFR1	1	R1261P
2510.324	0.783	2516279	WORD_OFF	n/a	n/a	PHONE	n/a	5	17	[0, 0, 0]	n/a	catFR1	1	R1261P
2511.107	1.617	2517062	WORD	n/a	wordpools/wordpool_categorized_EN.txt	TABLET	Electronics	6	17	[0, 0, 0]	n/a	catFR1	1	R1261P
2512.724	0.85	2518679	WORD_OFF	n/a	n/a	TABLET	n/a	6	17	[0, 0, 0]	n/a	catFR1	1	R1261P
2513.574	1.617	2519529	WORD	n/a	wordpools/wordpool_categorized_EN.txt	DOLLHOUSE	Toys	7	17	[0, 0, 0]	n/a	catFR1	1	R1261P
2515.191	0.817	2521146	WORD_OFF	n/a	n/a	DOLLHOUSE	n/a	7	17	[0, 0, 0]	n/a	catFR1	1	R1261P
2516.008	1.617	2521963	WORD	n/a	wordpools/wordpool_categorized_EN.txt	BASKETBALL	Toys	8	17	[0, 0, 0]	n/a	catFR1	1	R1261P
2517.625	0.967	2523580	WORD_OFF	n/a	n/a	BASKETBALL	n/a	8	17	[0, 0, 0]	n/a	catFR1	1	R1261P
2518.592	1.617	2524547	WORD	n/a	wordpools/wordpool_categorized_EN.txt	ROSE	Flowers	9	17	[0, 0, 0]	n/a	catFR1	1	R1261P
2520.209	0.883	2526164	WORD_OFF	n/a	n/a	ROSE	n/a	9	17	[0, 0, 0]	n/a	catFR1	1	R1261P
2521.092	1.617	2527047	WORD	n/a	wordpools/wordpool_categorized_EN.txt	SUNFLOWER	Flowers	10	17	[0, 0, 0]	n/a	catFR1	1	R1261P
2522.709	0.984	2528664	WORD_OFF	n/a	n/a	SUNFLOWER	n/a	10	17	[0, 0, 0]	n/a	catFR1	1	R1261P
2523.693	1.617	2529647	WORD	n/a	wordpools/wordpool_categorized_EN.txt	RADIO	Electronics	11	17	[0, 0, 0]	n/a	catFR1	1	R1261P
2525.31	0.95	2531264	WORD_OFF	n/a	n/a	RADIO	n/a	11	17	[0, 0, 0]	n/a	catFR1	1	R1261P
2526.26	1.618	2532214	WORD	n/a	wordpools/wordpool_categorized_EN.txt	SCANNER	Electronics	12	17	[0, 0, 0]	n/a	catFR1	1	R1261P
2527.878	0.0	2533832	ENCODING_END	n/a	n/a	n/a	n/a	-999	17	[0, 0, 0]	n/a	catFR1	1	R1261P
2527.878	0.101	2533832	WORD_OFF	n/a	n/a	SCANNER	n/a	12	17	[0, 0, 0]	n/a	catFR1	1	R1261P
2527.979	0.001	2533933	DISTRACT_START	n/a	n/a	n/a	n/a	-999	17	[0, 0, 0]	n/a	catFR1	1	R1261P
2527.98	0.014	2533934	START	n/a	n/a	n/a	n/a	-999	18	[-999, -999, -999]	n/a	catFR1	1	R1261P
2527.994	6.501	2533948	PROB	6.501	n/a	n/a	n/a	-999	18	[3, 9, 2]	14	catFR1	1	R1261P
2534.495	4.517	2540449	PROB	4.517	n/a	n/a	n/a	-999	18	[1, 5, 3]	9	catFR1	1	R1261P
2539.012	3.934	2544966	PROB	3.934	n/a	n/a	n/a	-999	18	[6, 5, 2]	13	catFR1	1	R1261P
2542.946	4.168	2548899	PROB	4.168	n/a	n/a	n/a	-999	18	[3, 7, 2]	12	catFR1	1	R1261P
2547.114	3.68	2553067	PROB	3.68	n/a	n/a	n/a	-999	18	[2, 1, 9]	12	catFR1	1	R1261P
2550.794	0.021	2556747	STOP	n/a	n/a	n/a	n/a	-999	18	[-999, -999, -999]	n/a	catFR1	1	R1261P
2550.815	0.583	2556768	DISTRACT_END	n/a	n/a	n/a	n/a	-999	17	[0, 0, 0]	n/a	catFR1	1	R1261P
2551.398	0.518	2557351	RETRIEVAL_ORIENT	n/a	n/a	n/a	n/a	-999	17	[0, 0, 0]	n/a	catFR1	1	R1261P
2551.916	30.011	2557869	REC_START	n/a	n/a	n/a	n/a	-999	17	[0, 0, 0]	n/a	catFR1	1	R1261P
2581.927	6.428	2587878	REC_END	n/a	n/a	n/a	n/a	-999	17	[0, 0, 0]	n/a	catFR1	1	R1261P
2588.355	0.5	2594306	TRIAL	n/a	n/a	n/a	n/a	-999	18	[0, 0, 0]	n/a	catFR1	1	R1261P
2588.855	10.428	2594806	COUNTDOWN_START	n/a	n/a	n/a	n/a	-999	18	[0, 0, 0]	n/a	catFR1	1	R1261P
2599.283	0.007	2605234	COUNTDOWN_END	n/a	n/a	n/a	n/a	-999	18	[0, 0, 0]	n/a	catFR1	1	R1261P
2599.29	1.601	2605241	ORIENT	n/a	n/a	n/a	n/a	-999	18	[0, 0, 0]	n/a	catFR1	1	R1261P
2600.891	2.25	2606841	ORIENT_OFF	n/a	n/a	n/a	n/a	-999	18	[0, 0, 0]	n/a	catFR1	1	R1261P
2603.141	1.617	2609091	WORD	n/a	wordpools/wordpool_categorized_EN.txt	SHOES	Clothing	1	18	[0, 0, 0]	n/a	catFR1	1	R1261P
2604.758	0.884	2610708	WORD_OFF	n/a	n/a	SHOES	n/a	1	18	[0, 0, 0]	n/a	catFR1	1	R1261P
2605.642	1.616	2611592	WORD	n/a	wordpools/wordpool_categorized_EN.txt	COAT	Clothing	2	18	[0, 0, 0]	n/a	catFR1	1	R1261P
2607.258	0.967	2613208	WORD_OFF	n/a	n/a	COAT	n/a	2	18	[0, 0, 0]	n/a	catFR1	1	R1261P
2608.225	1.601	2614175	WORD	n/a	wordpools/wordpool_categorized_EN.txt	PEN	OfficeSupplies	3	18	[0, 0, 0]	n/a	catFR1	1	R1261P
2609.826	1.001	2615776	WORD_OFF	n/a	n/a	PEN	n/a	3	18	[0, 0, 0]	n/a	catFR1	1	R1261P
2610.827	1.616	2616777	WORD	n/a	wordpools/wordpool_categorized_EN.txt	BINDER	OfficeSupplies	4	18	[0, 0, 0]	n/a	catFR1	1	R1261P
2612.443	0.883	2618393	WORD_OFF	n/a	n/a	BINDER	n/a	4	18	[0, 0, 0]	n/a	catFR1	1	R1261P
2613.326	1.617	2619276	WORD	n/a	wordpools/wordpool_categorized_EN.txt	LETTUCE	Vegetables	5	18	[0, 0, 0]	n/a	catFR1	1	R1261P
2614.943	0.918	2620893	WORD_OFF	n/a	n/a	LETTUCE	n/a	5	18	[0, 0, 0]	n/a	catFR1	1	R1261P
2615.861	1.616	2621811	WORD	n/a	wordpools/wordpool_categorized_EN.txt	SPINACH	Vegetables	6	18	[0, 0, 0]	n/a	catFR1	1	R1261P
2617.477	0.917	2623427	WORD_OFF	n/a	n/a	SPINACH	n/a	6	18	[0, 0, 0]	n/a	catFR1	1	R1261P
2618.394	1.617	2624344	WORD	n/a	wordpools/wordpool_categorized_EN.txt	ERASER	OfficeSupplies	7	18	[0, 0, 0]	n/a	catFR1	1	R1261P
2620.011	0.851	2625960	WORD_OFF	n/a	n/a	ERASER	n/a	7	18	[0, 0, 0]	n/a	catFR1	1	R1261P
2620.862	1.616	2626811	WORD	n/a	wordpools/wordpool_categorized_EN.txt	NOTEBOOK	OfficeSupplies	8	18	[0, 0, 0]	n/a	catFR1	1	R1261P
2622.478	0.883	2628427	WORD_OFF	n/a	n/a	NOTEBOOK	n/a	8	18	[0, 0, 0]	n/a	catFR1	1	R1261P
2623.361	1.617	2629310	WORD	n/a	wordpools/wordpool_categorized_EN.txt	JACKET	Clothing	9	18	[0, 0, 0]	n/a	catFR1	1	R1261P
2624.978	0.784	2630927	WORD_OFF	n/a	n/a	JACKET	n/a	9	18	[0, 0, 0]	n/a	catFR1	1	R1261P
2625.762	1.617	2631711	WORD	n/a	wordpools/wordpool_categorized_EN.txt	SKIRT	Clothing	10	18	[0, 0, 0]	n/a	catFR1	1	R1261P
2627.379	0.867	2633328	WORD_OFF	n/a	n/a	SKIRT	n/a	10	18	[0, 0, 0]	n/a	catFR1	1	R1261P
2628.246	1.618	2634195	WORD	n/a	wordpools/wordpool_categorized_EN.txt	CUCUMBER	Vegetables	11	18	[0, 0, 0]	n/a	catFR1	1	R1261P
2629.864	0.916	2635813	WORD_OFF	n/a	n/a	CUCUMBER	n/a	11	18	[0, 0, 0]	n/a	catFR1	1	R1261P
2630.78	1.616	2636729	WORD	n/a	wordpools/wordpool_categorized_EN.txt	CORN	Vegetables	12	18	[0, 0, 0]	n/a	catFR1	1	R1261P
2632.396	0.001	2638345	WORD_OFF	n/a	n/a	CORN	n/a	12	18	[0, 0, 0]	n/a	catFR1	1	R1261P
2632.397	0.13	2638346	ENCODING_END	n/a	n/a	n/a	n/a	-999	18	[0, 0, 0]	n/a	catFR1	1	R1261P
2632.527	0.0	2638476	DISTRACT_START	n/a	n/a	n/a	n/a	-999	18	[0, 0, 0]	n/a	catFR1	1	R1261P
2632.527	0.019	2638476	START	n/a	n/a	n/a	n/a	-999	19	[-999, -999, -999]	n/a	catFR1	1	R1261P
2632.546	4.585	2638495	PROB	4.585	n/a	n/a	n/a	-999	19	[1, 7, 1]	9	catFR1	1	R1261P
2637.131	3.834	2643080	PROB	3.834	n/a	n/a	n/a	-999	19	[1, 1, 5]	7	catFR1	1	R1261P
2640.965	5.284	2646913	PROB	5.284	n/a	n/a	n/a	-999	19	[1, 8, 7]	16	catFR1	1	R1261P
2646.249	3.618	2652197	PROB	3.618	n/a	n/a	n/a	-999	19	[2, 2, 8]	12	catFR1	1	R1261P
2649.867	5.383	2655815	PROB	5.383	n/a	n/a	n/a	-999	19	[1, 5, 1]	7	catFR1	1	R1261P
2655.25	0.018	2661198	STOP	n/a	n/a	n/a	n/a	-999	19	[-999, -999, -999]	n/a	catFR1	1	R1261P
2655.268	0.584	2661216	DISTRACT_END	n/a	n/a	n/a	n/a	-999	18	[0, 0, 0]	n/a	catFR1	1	R1261P
2655.852	0.516	2661800	RETRIEVAL_ORIENT	n/a	n/a	n/a	n/a	-999	18	[0, 0, 0]	n/a	catFR1	1	R1261P
2656.368	30.013	2662316	REC_START	n/a	n/a	n/a	n/a	-999	18	[0, 0, 0]	n/a	catFR1	1	R1261P
2686.381	6.495	2692327	REC_END	n/a	n/a	n/a	n/a	-999	18	[0, 0, 0]	n/a	catFR1	1	R1261P
2692.876	0.5	2698822	TRIAL	n/a	n/a	n/a	n/a	-999	19	[0, 0, 0]	n/a	catFR1	1	R1261P
2693.376	10.428	2699322	COUNTDOWN_START	n/a	n/a	n/a	n/a	-999	19	[0, 0, 0]	n/a	catFR1	1	R1261P
2703.804	0.006	2709749	COUNTDOWN_END	n/a	n/a	n/a	n/a	-999	19	[0, 0, 0]	n/a	catFR1	1	R1261P
2703.81	1.617	2709755	ORIENT	n/a	n/a	n/a	n/a	-999	19	[0, 0, 0]	n/a	catFR1	1	R1261P
2705.427	1.9	2711372	ORIENT_OFF	n/a	n/a	n/a	n/a	-999	19	[0, 0, 0]	n/a	catFR1	1	R1261P
2707.327	1.617	2713272	WORD	n/a	wordpools/wordpool_categorized_EN.txt	CAKE	Desserts	1	19	[0, 0, 0]	n/a	catFR1	1	R1261P
2708.944	0.817	2714889	WORD_OFF	n/a	n/a	CAKE	n/a	1	19	[0, 0, 0]	n/a	catFR1	1	R1261P
2709.761	1.617	2715706	WORD	n/a	wordpools/wordpool_categorized_EN.txt	CHEESECAKE	Desserts	2	19	[0, 0, 0]	n/a	catFR1	1	R1261P
2711.378	0.884	2717323	WORD_OFF	n/a	n/a	CHEESECAKE	n/a	2	19	[0, 0, 0]	n/a	catFR1	1	R1261P
2712.262	1.618	2718207	WORD	n/a	wordpools/wordpool_categorized_EN.txt	FLUTE	Instruments	3	19	[0, 0, 0]	n/a	catFR1	1	R1261P
2713.88	0.765	2719825	WORD_OFF	n/a	n/a	FLUTE	n/a	3	19	[0, 0, 0]	n/a	catFR1	1	R1261P
2714.645	1.617	2720590	WORD	n/a	wordpools/wordpool_categorized_EN.txt	DRUM	Instruments	4	19	[0, 0, 0]	n/a	catFR1	1	R1261P
2716.262	0.767	2722206	WORD_OFF	n/a	n/a	DRUM	n/a	4	19	[0, 0, 0]	n/a	catFR1	1	R1261P
2717.029	1.617	2722973	WORD	n/a	wordpools/wordpool_categorized_EN.txt	NOSE	BodyParts	5	19	[0, 0, 0]	n/a	catFR1	1	R1261P
2718.646	0.95	2724590	WORD_OFF	n/a	n/a	NOSE	n/a	5	19	[0, 0, 0]	n/a	catFR1	1	R1261P
2719.596	1.617	2725540	WORD	n/a	wordpools/wordpool_categorized_EN.txt	EAR	BodyParts	6	19	[0, 0, 0]	n/a	catFR1	1	R1261P
2721.213	0.767	2727157	WORD_OFF	n/a	n/a	EAR	n/a	6	19	[0, 0, 0]	n/a	catFR1	1	R1261P
2721.98	1.617	2727924	WORD	n/a	wordpools/wordpool_categorized_EN.txt	BASS	Instruments	7	19	[0, 0, 0]	n/a	catFR1	1	R1261P
2723.597	0.883	2729541	WORD_OFF	n/a	n/a	BASS	n/a	7	19	[0, 0, 0]	n/a	catFR1	1	R1261P
2724.48	1.618	2730424	WORD	n/a	wordpools/wordpool_categorized_EN.txt	BANJO	Instruments	8	19	[0, 0, 0]	n/a	catFR1	1	R1261P
2726.098	0.883	2732042	WORD_OFF	n/a	n/a	BANJO	n/a	8	19	[0, 0, 0]	n/a	catFR1	1	R1261P
2726.981	1.617	2732925	WORD	n/a	wordpools/wordpool_categorized_EN.txt	PASTRY	Desserts	9	19	[0, 0, 0]	n/a	catFR1	1	R1261P
2728.598	0.884	2734542	WORD_OFF	n/a	n/a	PASTRY	n/a	9	19	[0, 0, 0]	n/a	catFR1	1	R1261P
2729.482	1.617	2735426	WORD	n/a	wordpools/wordpool_categorized_EN.txt	PIE	Desserts	10	19	[0, 0, 0]	n/a	catFR1	1	R1261P
2731.099	0.833	2737043	WORD_OFF	n/a	n/a	PIE	n/a	10	19	[0, 0, 0]	n/a	catFR1	1	R1261P
2731.932	1.617	2737876	WORD	n/a	wordpools/wordpool_categorized_EN.txt	ELBOW	BodyParts	11	19	[0, 0, 0]	n/a	catFR1	1	R1261P
2733.549	0.983	2739493	WORD_OFF	n/a	n/a	ELBOW	n/a	11	19	[0, 0, 0]	n/a	catFR1	1	R1261P
2734.532	1.617	2740475	WORD	n/a	wordpools/wordpool_categorized_EN.txt	FOOT	BodyParts	12	19	[0, 0, 0]	n/a	catFR1	1	R1261P
2736.149	0.001	2742092	WORD_OFF	n/a	n/a	FOOT	n/a	12	19	[0, 0, 0]	n/a	catFR1	1	R1261P
2736.15	0.103	2742093	ENCODING_END	n/a	n/a	n/a	n/a	-999	19	[0, 0, 0]	n/a	catFR1	1	R1261P
2736.253	0.0	2742196	DISTRACT_START	n/a	n/a	n/a	n/a	-999	19	[0, 0, 0]	n/a	catFR1	1	R1261P
2736.253	0.013	2742196	START	n/a	n/a	n/a	n/a	-999	20	[-999, -999, -999]	n/a	catFR1	1	R1261P
2736.266	4.569	2742209	PROB	4.569	n/a	n/a	n/a	-999	20	[1, 9, 8]	18	catFR1	1	R1261P
2740.835	4.283	2746778	PROB	4.283	n/a	n/a	n/a	-999	20	[7, 2, 3]	12	catFR1	1	R1261P
2745.118	4.217	2751061	PROB	4.217	n/a	n/a	n/a	-999	20	[6, 1, 7]	14	catFR1	1	R1261P
2749.335	9.643	2755278	PROB	9.643	n/a	n/a	n/a	-999	20	[8, 5, 4]	17	catFR1	1	R1261P
2758.978	0.009	2764920	STOP	n/a	n/a	n/a	n/a	-999	20	[-999, -999, -999]	n/a	catFR1	1	R1261P
2758.987	0.683	2764929	DISTRACT_END	n/a	n/a	n/a	n/a	-999	19	[0, 0, 0]	n/a	catFR1	1	R1261P
2759.67	0.518	2765612	RETRIEVAL_ORIENT	n/a	n/a	n/a	n/a	-999	19	[0, 0, 0]	n/a	catFR1	1	R1261P
2760.188	30.011	2766130	REC_START	n/a	n/a	n/a	n/a	-999	19	[0, 0, 0]	n/a	catFR1	1	R1261P
2790.199	18.848	2796140	REC_END	n/a	n/a	n/a	n/a	-999	19	[0, 0, 0]	n/a	catFR1	1	R1261P
2809.047	0.5	2814987	TRIAL	n/a	n/a	n/a	n/a	-999	20	[0, 0, 0]	n/a	catFR1	1	R1261P
2809.547	10.428	2815487	COUNTDOWN_START	n/a	n/a	n/a	n/a	-999	20	[0, 0, 0]	n/a	catFR1	1	R1261P
2819.975	0.007	2825914	COUNTDOWN_END	n/a	n/a	n/a	n/a	-999	20	[0, 0, 0]	n/a	catFR1	1	R1261P
2819.982	1.617	2825921	ORIENT	n/a	n/a	n/a	n/a	-999	20	[0, 0, 0]	n/a	catFR1	1	R1261P
2821.599	2.2	2827538	ORIENT_OFF	n/a	n/a	n/a	n/a	-999	20	[0, 0, 0]	n/a	catFR1	1	R1261P
2823.799	1.617	2829738	WORD	n/a	wordpools/wordpool_categorized_EN.txt	HAWK	Birds	1	20	[0, 0, 0]	n/a	catFR1	1	R1261P
2825.416	0.867	2831355	WORD_OFF	n/a	n/a	HAWK	n/a	1	20	[0, 0, 0]	n/a	catFR1	1	R1261P
2826.283	1.618	2832222	WORD	n/a	wordpools/wordpool_categorized_EN.txt	FINCH	Birds	2	20	[0, 0, 0]	n/a	catFR1	1	R1261P
2827.901	0.849	2833840	WORD_OFF	n/a	n/a	FINCH	n/a	2	20	[0, 0, 0]	n/a	catFR1	1	R1261P
2828.75	1.617	2834689	WORD	n/a	wordpools/wordpool_categorized_EN.txt	CHAIR	Furniture	3	20	[0, 0, 0]	n/a	catFR1	1	R1261P
2830.367	0.784	2836305	WORD_OFF	n/a	n/a	CHAIR	n/a	3	20	[0, 0, 0]	n/a	catFR1	1	R1261P
2831.151	1.617	2837089	WORD	n/a	wordpools/wordpool_categorized_EN.txt	RECLINER	Furniture	4	20	[0, 0, 0]	n/a	catFR1	1	R1261P
2832.768	0.95	2838706	WORD_OFF	n/a	n/a	RECLINER	n/a	4	20	[0, 0, 0]	n/a	catFR1	1	R1261P
2833.718	1.617	2839656	WORD	n/a	wordpools/wordpool_categorized_EN.txt	PRINTER	Electronics	5	20	[0, 0, 0]	n/a	catFR1	1	R1261P
2835.335	0.933	2841273	WORD_OFF	n/a	n/a	PRINTER	n/a	5	20	[0, 0, 0]	n/a	catFR1	1	R1261P
2836.268	1.618	2842206	WORD	n/a	wordpools/wordpool_categorized_EN.txt	SPEAKER	Electronics	6	20	[0, 0, 0]	n/a	catFR1	1	R1261P
2837.886	0.883	2843824	WORD_OFF	n/a	n/a	SPEAKER	n/a	6	20	[0, 0, 0]	n/a	catFR1	1	R1261P
2838.769	1.617	2844707	WORD	n/a	wordpools/wordpool_categorized_EN.txt	PIGEON	Birds	7	20	[0, 0, 0]	n/a	catFR1	1	R1261P
2840.386	0.85	2846324	WORD_OFF	n/a	n/a	PIGEON	n/a	7	20	[0, 0, 0]	n/a	catFR1	1	R1261P
2841.236	1.601	2847174	WORD	n/a	wordpools/wordpool_categorized_EN.txt	CARDINAL	Birds	8	20	[0, 0, 0]	n/a	catFR1	1	R1261P
2842.837	0.849	2848775	WORD_OFF	n/a	n/a	CARDINAL	n/a	8	20	[0, 0, 0]	n/a	catFR1	1	R1261P
2843.686	1.617	2849624	WORD	n/a	wordpools/wordpool_categorized_EN.txt	TABLE	Furniture	9	20	[0, 0, 0]	n/a	catFR1	1	R1261P
2845.303	1.001	2851241	WORD_OFF	n/a	n/a	TABLE	n/a	9	20	[0, 0, 0]	n/a	catFR1	1	R1261P
2846.304	1.617	2852242	WORD	n/a	wordpools/wordpool_categorized_EN.txt	BED	Furniture	10	20	[0, 0, 0]	n/a	catFR1	1	R1261P
2847.921	0.8	2853859	WORD_OFF	n/a	n/a	BED	n/a	10	20	[0, 0, 0]	n/a	catFR1	1	R1261P
2848.721	1.617	2854659	WORD	n/a	wordpools/wordpool_categorized_EN.txt	TELEVISION	Electronics	11	20	[0, 0, 0]	n/a	catFR1	1	R1261P
2850.338	1.0	2856275	WORD_OFF	n/a	n/a	TELEVISION	n/a	11	20	[0, 0, 0]	n/a	catFR1	1	R1261P
2851.338	1.617	2857275	WORD	n/a	wordpools/wordpool_categorized_EN.txt	CALCULATOR	Electronics	12	20	[0, 0, 0]	n/a	catFR1	1	R1261P
2852.955	0.0	2858892	ENCODING_END	n/a	n/a	n/a	n/a	-999	20	[0, 0, 0]	n/a	catFR1	1	R1261P
2852.955	0.142	2858892	WORD_OFF	n/a	n/a	CALCULATOR	n/a	12	20	[0, 0, 0]	n/a	catFR1	1	R1261P
2853.097	0.0	2859034	DISTRACT_START	n/a	n/a	n/a	n/a	-999	20	[0, 0, 0]	n/a	catFR1	1	R1261P
2853.097	0.008	2859034	START	n/a	n/a	n/a	n/a	-999	21	[-999, -999, -999]	n/a	catFR1	1	R1261P
2853.105	4.967	2859042	PROB	4.967	n/a	n/a	n/a	-999	21	[1, 2, 3]	6	catFR1	1	R1261P
2858.072	5.885	2864009	PROB	5.885	n/a	n/a	n/a	-999	21	[8, 3, 5]	16	catFR1	1	R1261P
2863.957	9.492	2869894	PROB	9.492	n/a	n/a	n/a	-999	21	[7, 7, 8]	22	catFR1	1	R1261P
2873.449	0.01	2879385	STOP	n/a	n/a	n/a	n/a	-999	21	[-999, -999, -999]	n/a	catFR1	1	R1261P
2873.459	0.55	2879395	DISTRACT_END	n/a	n/a	n/a	n/a	-999	20	[0, 0, 0]	n/a	catFR1	1	R1261P
2874.009	0.517	2879945	RETRIEVAL_ORIENT	n/a	n/a	n/a	n/a	-999	20	[0, 0, 0]	n/a	catFR1	1	R1261P
2874.526	2.09	2880462	REC_START	n/a	n/a	n/a	n/a	-999	20	[0, 0, 0]	n/a	catFR1	1	R1261P
2876.616	1.333	2882552	REC_WORD_VV	1.333	n/a	<>	n/a	-999	20	[0, 0, 0]	n/a	catFR1	1	R1261P
2877.949	1.625	2883885	REC_WORD_VV	1.625	n/a	<>	n/a	-999	20	[0, 0, 0]	n/a	catFR1	1	R1261P
2879.574	0.918	2885510	REC_WORD_VV	0.918	n/a	<>	n/a	-999	20	[0, 0, 0]	n/a	catFR1	1	R1261P
2880.492	1.613	2886428	REC_WORD	1.613	n/a	RECLINER	Furniture	4	20	[0, 0, 0]	n/a	catFR1	1	R1261P
2882.105	22.432	2888041	REC_WORD_VV	22.432	n/a	<>	n/a	-999	20	[0, 0, 0]	n/a	catFR1	1	R1261P
2904.537	6.995	2910472	REC_END	n/a	n/a	n/a	n/a	-999	20	[0, 0, 0]	n/a	catFR1	1	R1261P
2911.532	0.5	2917466	TRIAL	n/a	n/a	n/a	n/a	-999	21	[0, 0, 0]	n/a	catFR1	1	R1261P
2912.032	10.428	2917966	COUNTDOWN_START	n/a	n/a	n/a	n/a	-999	21	[0, 0, 0]	n/a	catFR1	1	R1261P
2922.46	0.008	2928394	COUNTDOWN_END	n/a	n/a	n/a	n/a	-999	21	[0, 0, 0]	n/a	catFR1	1	R1261P
2922.468	1.617	2928402	ORIENT	n/a	n/a	n/a	n/a	-999	21	[0, 0, 0]	n/a	catFR1	1	R1261P
2924.085	1.9	2930019	ORIENT_OFF	n/a	n/a	n/a	n/a	-999	21	[0, 0, 0]	n/a	catFR1	1	R1261P
2925.985	1.617	2931918	WORD	n/a	wordpools/wordpool_categorized_EN.txt	BUTTERFLY	Insects	1	21	[0, 0, 0]	n/a	catFR1	1	R1261P
2927.602	0.917	2933535	WORD_OFF	n/a	n/a	BUTTERFLY	n/a	1	21	[0, 0, 0]	n/a	catFR1	1	R1261P
2928.519	1.617	2934452	WORD	n/a	wordpools/wordpool_categorized_EN.txt	FLY	Insects	2	21	[0, 0, 0]	n/a	catFR1	1	R1261P
2930.136	1.0	2936069	WORD_OFF	n/a	n/a	FLY	n/a	2	21	[0, 0, 0]	n/a	catFR1	1	R1261P
2931.136	1.617	2937069	WORD	n/a	wordpools/wordpool_categorized_EN.txt	SANDER	Tools	3	21	[0, 0, 0]	n/a	catFR1	1	R1261P
2932.753	0.8	2938686	WORD_OFF	n/a	n/a	SANDER	n/a	3	21	[0, 0, 0]	n/a	catFR1	1	R1261P
2933.553	1.617	2939486	WORD	n/a	wordpools/wordpool_categorized_EN.txt	HAMMER	Tools	4	21	[0, 0, 0]	n/a	catFR1	1	R1261P
2935.17	0.8	2941103	WORD_OFF	n/a	n/a	HAMMER	n/a	4	21	[0, 0, 0]	n/a	catFR1	1	R1261P
2935.97	1.617	2941903	WORD	n/a	wordpools/wordpool_categorized_EN.txt	CHERRY	Fruit	5	21	[0, 0, 0]	n/a	catFR1	1	R1261P
2937.587	0.867	2943520	WORD_OFF	n/a	n/a	CHERRY	n/a	5	21	[0, 0, 0]	n/a	catFR1	1	R1261P
2938.454	1.617	2944387	WORD	n/a	wordpools/wordpool_categorized_EN.txt	GRAPE	Fruit	6	21	[0, 0, 0]	n/a	catFR1	1	R1261P
2940.071	1.0	2946004	WORD_OFF	n/a	n/a	GRAPE	n/a	6	21	[0, 0, 0]	n/a	catFR1	1	R1261P
2941.071	1.617	2947004	WORD	n/a	wordpools/wordpool_categorized_EN.txt	DRILL	Tools	7	21	[0, 0, 0]	n/a	catFR1	1	R1261P
2942.688	0.984	2948621	WORD_OFF	n/a	n/a	DRILL	n/a	7	21	[0, 0, 0]	n/a	catFR1	1	R1261P
2943.672	1.617	2949605	WORD	n/a	wordpools/wordpool_categorized_EN.txt	SCREWDRIVER	Tools	8	21	[0, 0, 0]	n/a	catFR1	1	R1261P
2945.289	0.95	2951221	WORD_OFF	n/a	n/a	SCREWDRIVER	n/a	8	21	[0, 0, 0]	n/a	catFR1	1	R1261P
2946.239	1.601	2952171	WORD	n/a	wordpools/wordpool_categorized_EN.txt	CRICKET	Insects	9	21	[0, 0, 0]	n/a	catFR1	1	R1261P
2947.84	0.984	2953772	WORD_OFF	n/a	n/a	CRICKET	n/a	9	21	[0, 0, 0]	n/a	catFR1	1	R1261P
2948.824	1.616	2954756	WORD	n/a	wordpools/wordpool_categorized_EN.txt	MOSQUITO	Insects	10	21	[0, 0, 0]	n/a	catFR1	1	R1261P
2950.44	0.933	2956372	WORD_OFF	n/a	n/a	MOSQUITO	n/a	10	21	[0, 0, 0]	n/a	catFR1	1	R1261P
2951.373	1.617	2957305	WORD	n/a	wordpools/wordpool_categorized_EN.txt	STRAWBERRY	Fruit	11	21	[0, 0, 0]	n/a	catFR1	1	R1261P
2952.99	0.984	2958922	WORD_OFF	n/a	n/a	STRAWBERRY	n/a	11	21	[0, 0, 0]	n/a	catFR1	1	R1261P
2953.974	1.617	2959906	WORD	n/a	wordpools/wordpool_categorized_EN.txt	ORANGE	Fruit	12	21	[0, 0, 0]	n/a	catFR1	1	R1261P
2955.591	0.0	2961523	ENCODING_END	n/a	n/a	n/a	n/a	-999	21	[0, 0, 0]	n/a	catFR1	1	R1261P
2955.591	0.136	2961523	WORD_OFF	n/a	n/a	ORANGE	n/a	12	21	[0, 0, 0]	n/a	catFR1	1	R1261P
2955.727	0.0	2961659	DISTRACT_START	n/a	n/a	n/a	n/a	-999	21	[0, 0, 0]	n/a	catFR1	1	R1261P
2955.727	0.014	2961659	START	n/a	n/a	n/a	n/a	-999	22	[-999, -999, -999]	n/a	catFR1	1	R1261P
2955.741	5.401	2961673	PROB	5.401	n/a	n/a	n/a	-999	22	[7, 2, 8]	17	catFR1	1	R1261P
2961.142	5.501	2967074	PROB	5.501	n/a	n/a	n/a	-999	22	[2, 3, 9]	14	catFR1	1	R1261P
2966.643	4.834	2972574	PROB	4.834	n/a	n/a	n/a	-999	22	[1, 3, 9]	13	catFR1	1	R1261P
2971.477	5.973	2977408	PROB	5.973	n/a	n/a	n/a	-999	22	[5, 8, 8]	21	catFR1	1	R1261P
2977.45	0.012	2983381	STOP	n/a	n/a	n/a	n/a	-999	22	[-999, -999, -999]	n/a	catFR1	1	R1261P
2977.462	0.516	2983393	DISTRACT_END	n/a	n/a	n/a	n/a	-999	21	[0, 0, 0]	n/a	catFR1	1	R1261P
2977.978	0.518	2983909	RETRIEVAL_ORIENT	n/a	n/a	n/a	n/a	-999	21	[0, 0, 0]	n/a	catFR1	1	R1261P
2978.496	2.025	2984427	REC_START	n/a	n/a	n/a	n/a	-999	21	[0, 0, 0]	n/a	catFR1	1	R1261P
2980.521	0.611	2986452	REC_WORD	0.611	n/a	BUTTERFLY	Insects	1	21	[0, 0, 0]	n/a	catFR1	1	R1261P
2981.132	4.678	2987063	REC_WORD	4.678	n/a	FLY	Insects	2	21	[0, 0, 0]	n/a	catFR1	1	R1261P
2985.81	1.285	2991740	REC_WORD	1.285	n/a	CHERRY	Fruit	5	21	[0, 0, 0]	n/a	catFR1	1	R1261P
2987.095	1.035	2993025	REC_WORD_VV	1.035	n/a	<>	n/a	-999	21	[0, 0, 0]	n/a	catFR1	1	R1261P
2988.13	2.282	2994060	REC_WORD	2.282	n/a	GRAPE	Fruit	6	21	[0, 0, 0]	n/a	catFR1	1	R1261P
2990.412	4.163	2996342	REC_WORD_VV	4.163	n/a	<>	n/a	-999	21	[0, 0, 0]	n/a	catFR1	1	R1261P
2994.575	0.961	3000505	REC_WORD_VV	0.961	n/a	<>	n/a	-999	21	[0, 0, 0]	n/a	catFR1	1	R1261P
2995.536	1.459	3001466	REC_WORD	1.459	n/a	JUICE	n/a	-999	21	[0, 0, 0]	n/a	catFR1	1	R1261P
2996.995	11.512	3002925	REC_WORD_VV	11.512	n/a	<>	n/a	-999	21	[0, 0, 0]	n/a	catFR1	1	R1261P
3008.507	7.795	3014436	REC_END	n/a	n/a	n/a	n/a	-999	21	[0, 0, 0]	n/a	catFR1	1	R1261P
3016.302	0.5	3022231	TRIAL	n/a	n/a	n/a	n/a	-999	22	[0, 0, 0]	n/a	catFR1	1	R1261P
3016.802	10.428	3022731	COUNTDOWN_START	n/a	n/a	n/a	n/a	-999	22	[0, 0, 0]	n/a	catFR1	1	R1261P
3027.23	0.008	3033158	COUNTDOWN_END	n/a	n/a	n/a	n/a	-999	22	[0, 0, 0]	n/a	catFR1	1	R1261P
3027.238	1.618	3033166	ORIENT	n/a	n/a	n/a	n/a	-999	22	[0, 0, 0]	n/a	catFR1	1	R1261P
3028.856	1.983	3034784	ORIENT_OFF	n/a	n/a	n/a	n/a	-999	22	[0, 0, 0]	n/a	catFR1	1	R1261P
3030.839	1.616	3036767	WORD	n/a	wordpools/wordpool_categorized_EN.txt	BROCCOLI	Vegetables	1	22	[0, 0, 0]	n/a	catFR1	1	R1261P
3032.455	0.967	3038383	WORD_OFF	n/a	n/a	BROCCOLI	n/a	1	22	[0, 0, 0]	n/a	catFR1	1	R1261P
3033.422	1.617	3039350	WORD	n/a	wordpools/wordpool_categorized_EN.txt	CARROT	Vegetables	2	22	[0, 0, 0]	n/a	catFR1	1	R1261P
3035.039	0.785	3040967	WORD_OFF	n/a	n/a	CARROT	n/a	2	22	[0, 0, 0]	n/a	catFR1	1	R1261P
3035.824	1.616	3041752	WORD	n/a	wordpools/wordpool_categorized_EN.txt	BEER	Beverages	3	22	[0, 0, 0]	n/a	catFR1	1	R1261P
3037.44	0.95	3043368	WORD_OFF	n/a	n/a	BEER	n/a	3	22	[0, 0, 0]	n/a	catFR1	1	R1261P
3038.39	1.617	3044318	WORD	n/a	wordpools/wordpool_categorized_EN.txt	MILK	Beverages	4	22	[0, 0, 0]	n/a	catFR1	1	R1261P
3040.007	0.834	3045935	WORD_OFF	n/a	n/a	MILK	n/a	4	22	[0, 0, 0]	n/a	catFR1	1	R1261P
3040.841	1.616	3046769	WORD	n/a	wordpools/wordpool_categorized_EN.txt	PEELER	KitchenTools	5	22	[0, 0, 0]	n/a	catFR1	1	R1261P
3042.457	1.0	3048384	WORD_OFF	n/a	n/a	PEELER	n/a	5	22	[0, 0, 0]	n/a	catFR1	1	R1261P
3043.457	1.617	3049384	WORD	n/a	wordpools/wordpool_categorized_EN.txt	FORK	KitchenTools	6	22	[0, 0, 0]	n/a	catFR1	1	R1261P
3045.074	0.901	3051001	WORD_OFF	n/a	n/a	FORK	n/a	6	22	[0, 0, 0]	n/a	catFR1	1	R1261P
3045.975	1.616	3051902	WORD	n/a	wordpools/wordpool_categorized_EN.txt	PEAS	Vegetables	7	22	[0, 0, 0]	n/a	catFR1	1	R1261P
3047.591	0.951	3053518	WORD_OFF	n/a	n/a	PEAS	n/a	7	22	[0, 0, 0]	n/a	catFR1	1	R1261P
3048.542	1.617	3054469	WORD	n/a	wordpools/wordpool_categorized_EN.txt	ONION	Vegetables	8	22	[0, 0, 0]	n/a	catFR1	1	R1261P
3050.159	0.85	3056086	WORD_OFF	n/a	n/a	ONION	n/a	8	22	[0, 0, 0]	n/a	catFR1	1	R1261P
3051.009	1.617	3056936	WORD	n/a	wordpools/wordpool_categorized_EN.txt	CIDER	Beverages	9	22	[0, 0, 0]	n/a	catFR1	1	R1261P
3052.626	1.0	3058553	WORD_OFF	n/a	n/a	CIDER	n/a	9	22	[0, 0, 0]	n/a	catFR1	1	R1261P
3053.626	1.617	3059553	WORD	n/a	wordpools/wordpool_categorized_EN.txt	WATER	Beverages	10	22	[0, 0, 0]	n/a	catFR1	1	R1261P
3055.243	0.8	3061170	WORD_OFF	n/a	n/a	WATER	n/a	10	22	[0, 0, 0]	n/a	catFR1	1	R1261P
3056.043	1.617	3061970	WORD	n/a	wordpools/wordpool_categorized_EN.txt	CORKSCREW	KitchenTools	11	22	[0, 0, 0]	n/a	catFR1	1	R1261P
3057.66	0.867	3063587	WORD_OFF	n/a	n/a	CORKSCREW	n/a	11	22	[0, 0, 0]	n/a	catFR1	1	R1261P
3058.527	1.617	3064454	WORD	n/a	wordpools/wordpool_categorized_EN.txt	SPATULA	KitchenTools	12	22	[0, 0, 0]	n/a	catFR1	1	R1261P
3060.144	0.0	3066070	WORD_OFF	n/a	n/a	SPATULA	n/a	12	22	[0, 0, 0]	n/a	catFR1	1	R1261P
3060.144	0.11	3066070	ENCODING_END	n/a	n/a	n/a	n/a	-999	22	[0, 0, 0]	n/a	catFR1	1	R1261P
3060.254	0.0	3066180	DISTRACT_START	n/a	n/a	n/a	n/a	-999	22	[0, 0, 0]	n/a	catFR1	1	R1261P
3060.254	0.023	3066180	START	n/a	n/a	n/a	n/a	-999	23	[-999, -999, -999]	n/a	catFR1	1	R1261P
3060.277	8.018	3066203	PROB	8.018	n/a	n/a	n/a	-999	23	[9, 6, 1]	16	catFR1	1	R1261P
3068.295	8.752	3074221	PROB	8.752	n/a	n/a	n/a	-999	23	[7, 5, 4]	15	catFR1	1	R1261P
3077.047	7.331	3082973	PROB	7.331	n/a	n/a	n/a	-999	23	[2, 5, 7]	14	catFR1	1	R1261P
3084.378	0.021	3090303	STOP	n/a	n/a	n/a	n/a	-999	23	[-999, -999, -999]	n/a	catFR1	1	R1261P
3084.399	0.616	3090324	DISTRACT_END	n/a	n/a	n/a	n/a	-999	22	[0, 0, 0]	n/a	catFR1	1	R1261P
3085.015	0.518	3090940	RETRIEVAL_ORIENT	n/a	n/a	n/a	n/a	-999	22	[0, 0, 0]	n/a	catFR1	1	R1261P
3085.533	4.101	3091458	REC_START	n/a	n/a	n/a	n/a	-999	22	[0, 0, 0]	n/a	catFR1	1	R1261P
3089.634	3.357	3095559	REC_WORD_VV	3.357	n/a	<>	n/a	-999	22	[0, 0, 0]	n/a	catFR1	1	R1261P
3092.991	2.655	3098916	REC_WORD_VV	2.655	n/a	<>	n/a	-999	22	[0, 0, 0]	n/a	catFR1	1	R1261P
3095.646	17.927	3101571	REC_WORD_VV	17.927	n/a	<>	n/a	-999	22	[0, 0, 0]	n/a	catFR1	1	R1261P
3113.573	0.416	3119497	REC_WORD_VV	0.416	n/a	<>	n/a	-999	22	[0, 0, 0]	n/a	catFR1	1	R1261P
3113.989	1.499	3119913	REC_WORD	1.499	n/a	FORK	KitchenTools	6	22	[0, 0, 0]	n/a	catFR1	1	R1261P
3115.488	0.054	3121412	REC_WORD_VV	0.054	n/a	<>	n/a	-999	22	[0, 0, 0]	n/a	catFR1	1	R1261P
3115.542	16.099	3121466	REC_END	n/a	n/a	n/a	n/a	-999	22	[0, 0, 0]	n/a	catFR1	1	R1261P
3131.641	0.5	3137564	TRIAL	n/a	n/a	n/a	n/a	-999	23	[0, 0, 0]	n/a	catFR1	1	R1261P
3132.141	10.428	3138064	COUNTDOWN_START	n/a	n/a	n/a	n/a	-999	23	[0, 0, 0]	n/a	catFR1	1	R1261P
3142.569	0.007	3148491	COUNTDOWN_END	n/a	n/a	n/a	n/a	-999	23	[0, 0, 0]	n/a	catFR1	1	R1261P
3142.576	1.617	3148498	ORIENT	n/a	n/a	n/a	n/a	-999	23	[0, 0, 0]	n/a	catFR1	1	R1261P
3144.193	2.101	3150115	ORIENT_OFF	n/a	n/a	n/a	n/a	-999	23	[0, 0, 0]	n/a	catFR1	1	R1261P
3146.294	1.617	3152216	WORD	n/a	wordpools/wordpool_categorized_EN.txt	SHRIMP	OceanAnimals	1	23	[0, 0, 0]	n/a	catFR1	1	R1261P
3147.911	1.001	3153833	WORD_OFF	n/a	n/a	SHRIMP	n/a	1	23	[0, 0, 0]	n/a	catFR1	1	R1261P
3148.912	1.616	3154834	WORD	n/a	wordpools/wordpool_categorized_EN.txt	FISH	OceanAnimals	2	23	[0, 0, 0]	n/a	catFR1	1	R1261P
3150.528	0.916	3156450	WORD_OFF	n/a	n/a	FISH	n/a	2	23	[0, 0, 0]	n/a	catFR1	1	R1261P
3151.444	1.617	3157366	WORD	n/a	wordpools/wordpool_categorized_EN.txt	ELM	Trees	3	23	[0, 0, 0]	n/a	catFR1	1	R1261P
3153.061	0.852	3158983	WORD_OFF	n/a	n/a	ELM	n/a	3	23	[0, 0, 0]	n/a	catFR1	1	R1261P
3153.913	1.616	3159835	WORD	n/a	wordpools/wordpool_categorized_EN.txt	PINE	Trees	4	23	[0, 0, 0]	n/a	catFR1	1	R1261P
3155.529	0.983	3161451	WORD_OFF	n/a	n/a	PINE	n/a	4	23	[0, 0, 0]	n/a	catFR1	1	R1261P
3156.512	1.617	3162433	WORD	n/a	wordpools/wordpool_categorized_EN.txt	BIKE	Vehicles	5	23	[0, 0, 0]	n/a	catFR1	1	R1261P
3158.129	0.984	3164050	WORD_OFF	n/a	n/a	BIKE	n/a	5	23	[0, 0, 0]	n/a	catFR1	1	R1261P
3159.113	1.617	3165034	WORD	n/a	wordpools/wordpool_categorized_EN.txt	SCOOTER	Vehicles	6	23	[0, 0, 0]	n/a	catFR1	1	R1261P
