onset	duration	sample	trial_type	response_time	stim_file	item_name	category	serialpos	list	test	answer	experiment	session	subject
0.0	8.082	4435	INSTRUCT_START	n/a	n/a	n/a	n/a	-999	-999	[0, 0, 0]	n/a	catFR1	3	R1493T
8.082	45.833	12513	INSTRUCT_END	n/a	n/a	n/a	n/a	-999	-999	[0, 0, 0]	n/a	catFR1	3	R1493T
53.915	10.0	58357	COUNTDOWN_START	n/a	n/a	n/a	n/a	-999	-999	[0, 0, 0]	n/a	catFR1	3	R1493T
64.264	0.0	68703	COUNTDOWN_END	n/a	n/a	n/a	n/a	-999	-999	[0, 0, 0]	n/a	catFR1	3	R1493T
64.264	2.118	68703	ENCODING_START	n/a	n/a	n/a	n/a	-999	-1	[0, 0, 0]	n/a	catFR1	3	R1493T
66.382	1.6	70814	WORD	n/a	n/a	LION	Zoo	1	-1	[0, 0, 0]	n/a	catFR1	3	R1493T
67.981	0.867	72415	WORD_OFF	n/a	n/a	LION	Zoo	1	-1	[0, 0, 0]	n/a	catFR1	3	R1493T
68.848	1.6	73280	WORD	n/a	n/a	ELEPHANT	Zoo	2	-1	[0, 0, 0]	n/a	catFR1	3	R1493T
70.464	0.833	74895	WORD_OFF	n/a	n/a	ELEPHANT	Zoo	2	-1	[0, 0, 0]	n/a	catFR1	3	R1493T
71.297	1.6	75732	WORD	n/a	n/a	DRYER	Appliances	3	-1	[0, 0, 0]	n/a	catFR1	3	R1493T
72.898	0.983	77333	WORD_OFF	n/a	n/a	DRYER	Appliances	3	-1	[0, 0, 0]	n/a	catFR1	3	R1493T
73.881	1.6	78311	WORD	n/a	n/a	BLENDER	Appliances	4	-1	[0, 0, 0]	n/a	catFR1	3	R1493T
75.481	0.817	79912	WORD_OFF	n/a	n/a	BLENDER	Appliances	4	-1	[0, 0, 0]	n/a	catFR1	3	R1493T
76.298	1.6	80734	WORD	n/a	n/a	PUDDING	Desserts	5	-1	[0, 0, 0]	n/a	catFR1	3	R1493T
77.915	0.915	82350	WORD_OFF	n/a	n/a	PUDDING	Desserts	5	-1	[0, 0, 0]	n/a	catFR1	3	R1493T
78.83	1.6	83271	WORD	n/a	n/a	FUDGE	Desserts	6	-1	[0, 0, 0]	n/a	catFR1	3	R1493T
80.431	0.9	84872	WORD_OFF	n/a	n/a	FUDGE	Desserts	6	-1	[0, 0, 0]	n/a	catFR1	3	R1493T
81.331	1.6	85765	WORD	n/a	n/a	PANDA	Zoo	7	-1	[0, 0, 0]	n/a	catFR1	3	R1493T
82.947	0.984	87380	WORD_OFF	n/a	n/a	PANDA	Zoo	7	-1	[0, 0, 0]	n/a	catFR1	3	R1493T
83.931	1.6	88358	WORD	n/a	n/a	GORILLA	Zoo	8	-1	[0, 0, 0]	n/a	catFR1	3	R1493T
85.547	0.984	89988	WORD_OFF	n/a	n/a	GORILLA	Zoo	8	-1	[0, 0, 0]	n/a	catFR1	3	R1493T
86.531	1.6	90966	WORD	n/a	n/a	CUPCAKE	Desserts	9	-1	[0, 0, 0]	n/a	catFR1	3	R1493T
88.148	0.983	92581	WORD_OFF	n/a	n/a	CUPCAKE	Desserts	9	-1	[0, 0, 0]	n/a	catFR1	3	R1493T
89.131	1.6	93559	WORD	n/a	n/a	COBBLER	Desserts	10	-1	[0, 0, 0]	n/a	catFR1	3	R1493T
90.732	0.916	95161	WORD_OFF	n/a	n/a	COBBLER	Desserts	10	-1	[0, 0, 0]	n/a	catFR1	3	R1493T
91.648	1.6	96082	WORD	n/a	n/a	DISHWASHER	Appliances	11	-1	[0, 0, 0]	n/a	catFR1	3	R1493T
93.248	0.784	97683	WORD_OFF	n/a	n/a	DISHWASHER	Appliances	11	-1	[0, 0, 0]	n/a	catFR1	3	R1493T
94.032	1.6	98463	WORD	n/a	n/a	FREEZER	Appliances	12	-1	[0, 0, 0]	n/a	catFR1	3	R1493T
95.648	0.001	100078	WORD_OFF	n/a	n/a	FREEZER	Appliances	12	-1	[0, 0, 0]	n/a	catFR1	3	R1493T
95.649	0.0	100078	ENCODING_END	n/a	n/a	n/a	n/a	-999	-1	[0, 0, 0]	n/a	catFR1	3	R1493T
95.649	0.0	100079	START	n/a	n/a	n/a	n/a	-999	-1	[-999, -999, -999]	n/a	catFR1	3	R1493T
95.649	0.0	100079	PROB	9.1	n/a	n/a	n/a	-999	-1	[5, 3, 2]	10.0	catFR1	3	R1493T
95.649	9.116	100092	DISTRACT_START	n/a	n/a	n/a	n/a	-999	-1	[0, 0, 0]	n/a	catFR1	3	R1493T
104.765	9.333	109194	PROB	9.316	n/a	n/a	n/a	-999	-1	[6, 4, 6]	16.0	catFR1	3	R1493T
114.098	6.067	118527	PROB	6.049	n/a	n/a	n/a	-999	-1	[2, 2, 8]	12.0	catFR1	3	R1493T
120.165	0.0	124593	STOP	n/a	n/a	n/a	n/a	-999	-1	[-999, -999, -999]	n/a	catFR1	3	R1493T
120.165	2.266	124595	DISTRACT_END	n/a	n/a	n/a	n/a	-999	-1	[0, 0, 0]	n/a	catFR1	3	R1493T
122.431	1.57	126870	REC_START	n/a	n/a	n/a	n/a	-999	-1	[0, 0, 0]	n/a	catFR1	3	R1493T
124.001	1.542	128429	REC_WORD	1.57	n/a	LION	Zoo	1	-1	[0, 0, 0]	n/a	catFR1	3	R1493T
125.543	1.441	129971	REC_WORD	3.112	n/a	ELEPHANT	Zoo	2	-1	[0, 0, 0]	n/a	catFR1	3	R1493T
126.984	25.649	131412	REC_WORD	4.553	n/a	DRYER	Appliances	3	-1	[0, 0, 0]	n/a	catFR1	3	R1493T
152.633	27.248	157061	REC_END	n/a	n/a	n/a	n/a	-999	-1	[0, 0, 0]	n/a	catFR1	3	R1493T
179.881	10.0	184313	COUNTDOWN_START	n/a	n/a	n/a	n/a	-999	1	[0, 0, 0]	n/a	catFR1	3	R1493T
190.231	0.0	194658	COUNTDOWN_END	n/a	n/a	n/a	n/a	-999	1	[0, 0, 0]	n/a	catFR1	3	R1493T
190.231	2.067	194658	ENCODING_START	n/a	n/a	n/a	n/a	-999	1	[0, 0, 0]	n/a	catFR1	3	R1493T
192.298	1.6	196727	WORD	n/a	wordpools/wordpool_categorized_EN.txt	WINDOW	Building	1	1	[0, 0, 0]	n/a	catFR1	3	R1493T
193.914	0.784	198343	WORD_OFF	n/a	n/a	WINDOW	Building	1	1	[0, 0, 0]	n/a	catFR1	3	R1493T
194.698	1.6	199122	WORD	n/a	wordpools/wordpool_categorized_EN.txt	FOUNDATION	Building	2	1	[0, 0, 0]	n/a	catFR1	3	R1493T
196.298	0.933	200723	WORD_OFF	n/a	n/a	FOUNDATION	Building	2	1	[0, 0, 0]	n/a	catFR1	3	R1493T
197.231	1.6	201659	WORD	n/a	wordpools/wordpool_categorized_EN.txt	SANDER	Tools	3	1	[0, 0, 0]	n/a	catFR1	3	R1493T
198.848	0.983	203274	WORD_OFF	n/a	n/a	SANDER	Tools	3	1	[0, 0, 0]	n/a	catFR1	3	R1493T
199.831	1.6	204266	WORD	n/a	wordpools/wordpool_categorized_EN.txt	DRILL	Tools	4	1	[0, 0, 0]	n/a	catFR1	3	R1493T
201.431	0.967	205854	WORD_OFF	n/a	n/a	DRILL	Tools	4	1	[0, 0, 0]	n/a	catFR1	3	R1493T
202.398	1.6	206831	WORD	n/a	wordpools/wordpool_categorized_EN.txt	RUM	Beverages	5	1	[0, 0, 0]	n/a	catFR1	3	R1493T
204.015	0.783	208447	WORD_OFF	n/a	n/a	RUM	Beverages	5	1	[0, 0, 0]	n/a	catFR1	3	R1493T
204.798	1.6	209226	WORD	n/a	wordpools/wordpool_categorized_EN.txt	COFFEE	Beverages	6	1	[0, 0, 0]	n/a	catFR1	3	R1493T
206.415	0.933	210842	WORD_OFF	n/a	n/a	COFFEE	Beverages	6	1	[0, 0, 0]	n/a	catFR1	3	R1493T
207.348	1.6	211777	WORD	n/a	wordpools/wordpool_categorized_EN.txt	RATCHET	Tools	7	1	[0, 0, 0]	n/a	catFR1	3	R1493T
208.948	0.8	213379	WORD_OFF	n/a	n/a	RATCHET	Tools	7	1	[0, 0, 0]	n/a	catFR1	3	R1493T
209.748	1.6	214172	WORD	n/a	wordpools/wordpool_categorized_EN.txt	SAW	Tools	8	1	[0, 0, 0]	n/a	catFR1	3	R1493T
211.348	0.767	215774	WORD_OFF	n/a	n/a	SAW	Tools	8	1	[0, 0, 0]	n/a	catFR1	3	R1493T
212.115	1.6	216539	WORD	n/a	wordpools/wordpool_categorized_EN.txt	HALLWAY	Building	9	1	[0, 0, 0]	n/a	catFR1	3	R1493T
213.715	0.983	218140	WORD_OFF	n/a	n/a	HALLWAY	Building	9	1	[0, 0, 0]	n/a	catFR1	3	R1493T
214.698	1.6	219132	WORD	n/a	wordpools/wordpool_categorized_EN.txt	ROOM	Building	10	1	[0, 0, 0]	n/a	catFR1	3	R1493T
216.298	0.983	220719	WORD_OFF	n/a	n/a	ROOM	Building	10	1	[0, 0, 0]	n/a	catFR1	3	R1493T
217.281	1.6	221711	WORD	n/a	wordpools/wordpool_categorized_EN.txt	MILK	Beverages	11	1	[0, 0, 0]	n/a	catFR1	3	R1493T
218.898	0.983	223327	WORD_OFF	n/a	n/a	MILK	Beverages	11	1	[0, 0, 0]	n/a	catFR1	3	R1493T
219.881	1.6	224305	WORD	n/a	wordpools/wordpool_categorized_EN.txt	WATER	Beverages	12	1	[0, 0, 0]	n/a	catFR1	3	R1493T
221.498	0.001	225920	WORD_OFF	n/a	n/a	WATER	Beverages	12	1	[0, 0, 0]	n/a	catFR1	3	R1493T
221.499	0.0	225922	START	n/a	n/a	n/a	n/a	-999	1	[-999, -999, -999]	n/a	catFR1	3	R1493T
221.499	0.0	225922	PROB	10.449	n/a	n/a	n/a	-999	1	[1, 7, 6]	14.0	catFR1	3	R1493T
221.499	0.0	225934	ENCODING_END	n/a	n/a	n/a	n/a	-999	1	[0, 0, 0]	n/a	catFR1	3	R1493T
221.499	10.465	225934	DISTRACT_START	n/a	n/a	n/a	n/a	-999	1	[0, 0, 0]	n/a	catFR1	3	R1493T
231.964	7.551	236387	PROB	7.533	n/a	n/a	n/a	-999	1	[4, 1, 1]	6.0	catFR1	3	R1493T
239.515	6.866	243937	PROB	6.85	n/a	n/a	n/a	-999	1	[2, 2, 4]	8.0	catFR1	3	R1493T
246.381	0.0	250803	STOP	n/a	n/a	n/a	n/a	-999	1	[-999, -999, -999]	n/a	catFR1	3	R1493T
246.381	2.083	250805	DISTRACT_END	n/a	n/a	n/a	n/a	-999	1	[0, 0, 0]	n/a	catFR1	3	R1493T
248.464	1.374	252896	REC_START	n/a	n/a	n/a	n/a	-999	1	[0, 0, 0]	n/a	catFR1	3	R1493T
249.838	1.357	254260	REC_WORD	1.374	n/a	WINDOW	Building	1	1	[0, 0, 0]	n/a	catFR1	3	R1493T
251.195	1.0	255617	REC_WORD	2.731	n/a	FOUNDATION	Building	2	1	[0, 0, 0]	n/a	catFR1	3	R1493T
252.195	0.763	256617	REC_WORD	3.731	n/a	FOUNDATION	Building	2	1	[0, 0, 0]	n/a	catFR1	3	R1493T
252.958	25.676	257380	REC_WORD	4.494	n/a	SANDER	Tools	3	1	[0, 0, 0]	n/a	catFR1	3	R1493T
278.634	4.38	283059	REC_END	n/a	n/a	n/a	n/a	-999	1	[0, 0, 0]	n/a	catFR1	3	R1493T
283.014	10.0	287438	COUNTDOWN_START	n/a	n/a	n/a	n/a	-999	2	[0, 0, 0]	n/a	catFR1	3	R1493T
293.364	0.0	297784	COUNTDOWN_END	n/a	n/a	n/a	n/a	-999	2	[0, 0, 0]	n/a	catFR1	3	R1493T
293.364	1.816	297784	ENCODING_START	n/a	n/a	n/a	n/a	-999	2	[0, 0, 0]	n/a	catFR1	3	R1493T
295.18	1.6	299597	WORD	n/a	wordpools/wordpool_categorized_EN.txt	TEA	Beverages	1	2	[0, 0, 0]	n/a	catFR1	3	R1493T
296.782	0.799	301199	WORD_OFF	n/a	n/a	TEA	Beverages	1	2	[0, 0, 0]	n/a	catFR1	3	R1493T
297.581	1.6	302007	WORD	n/a	wordpools/wordpool_categorized_EN.txt	JUICE	Beverages	2	2	[0, 0, 0]	n/a	catFR1	3	R1493T
299.198	0.934	303622	WORD_OFF	n/a	n/a	JUICE	Beverages	2	2	[0, 0, 0]	n/a	catFR1	3	R1493T
300.132	1.6	304557	WORD	n/a	wordpools/wordpool_categorized_EN.txt	CORKSCREW	KitchenTools	3	2	[0, 0, 0]	n/a	catFR1	3	R1493T
301.748	0.783	306173	WORD_OFF	n/a	n/a	CORKSCREW	KitchenTools	3	2	[0, 0, 0]	n/a	catFR1	3	R1493T
302.531	1.6	306952	WORD	n/a	wordpools/wordpool_categorized_EN.txt	LADLE	KitchenTools	4	2	[0, 0, 0]	n/a	catFR1	3	R1493T
304.131	0.952	308554	WORD_OFF	n/a	n/a	LADLE	KitchenTools	4	2	[0, 0, 0]	n/a	catFR1	3	R1493T
305.083	1.6	309503	WORD	n/a	wordpools/wordpool_categorized_EN.txt	WRENCH	Tools	5	2	[0, 0, 0]	n/a	catFR1	3	R1493T
306.698	0.867	311119	WORD_OFF	n/a	n/a	WRENCH	Tools	5	2	[0, 0, 0]	n/a	catFR1	3	R1493T
307.565	1.6	311983	WORD	n/a	wordpools/wordpool_categorized_EN.txt	CROWBAR	Tools	6	2	[0, 0, 0]	n/a	catFR1	3	R1493T
309.165	0.831	313585	WORD_OFF	n/a	n/a	CROWBAR	Tools	6	2	[0, 0, 0]	n/a	catFR1	3	R1493T
309.996	1.6	314421	WORD	n/a	wordpools/wordpool_categorized_EN.txt	LEMONADE	Beverages	7	2	[0, 0, 0]	n/a	catFR1	3	R1493T
311.598	0.899	316022	WORD_OFF	n/a	n/a	LEMONADE	Beverages	7	2	[0, 0, 0]	n/a	catFR1	3	R1493T
312.497	1.6	316915	WORD	n/a	wordpools/wordpool_categorized_EN.txt	BEER	Beverages	8	2	[0, 0, 0]	n/a	catFR1	3	R1493T
314.113	0.952	318530	WORD_OFF	n/a	n/a	BEER	Beverages	8	2	[0, 0, 0]	n/a	catFR1	3	R1493T
315.065	1.6	319480	WORD	n/a	wordpools/wordpool_categorized_EN.txt	COLANDER	KitchenTools	9	2	[0, 0, 0]	n/a	catFR1	3	R1493T
316.665	0.966	321081	WORD_OFF	n/a	n/a	COLANDER	KitchenTools	9	2	[0, 0, 0]	n/a	catFR1	3	R1493T
317.631	1.6	322059	WORD	n/a	wordpools/wordpool_categorized_EN.txt	STRAINER	KitchenTools	10	2	[0, 0, 0]	n/a	catFR1	3	R1493T
319.231	0.9	323646	WORD_OFF	n/a	n/a	STRAINER	KitchenTools	10	2	[0, 0, 0]	n/a	catFR1	3	R1493T
320.131	1.6	324553	WORD	n/a	wordpools/wordpool_categorized_EN.txt	HAMMER	Tools	11	2	[0, 0, 0]	n/a	catFR1	3	R1493T
321.731	0.767	326155	WORD_OFF	n/a	n/a	HAMMER	Tools	11	2	[0, 0, 0]	n/a	catFR1	3	R1493T
322.498	1.6	326920	WORD	n/a	wordpools/wordpool_categorized_EN.txt	SHOVEL	Tools	12	2	[0, 0, 0]	n/a	catFR1	3	R1493T
324.116	0.0	328534	START	n/a	n/a	n/a	n/a	-999	2	[-999, -999, -999]	n/a	catFR1	3	R1493T
324.116	0.0	328534	PROB	8.149	n/a	n/a	n/a	-999	2	[5, 4, 1]	10.0	catFR1	3	R1493T
324.115	0.001	328535	WORD_OFF	n/a	n/a	SHOVEL	Tools	12	2	[0, 0, 0]	n/a	catFR1	3	R1493T
324.116	0.0	328535	ENCODING_END	n/a	n/a	n/a	n/a	-999	2	[0, 0, 0]	n/a	catFR1	3	R1493T
324.116	8.166	328535	DISTRACT_START	n/a	n/a	n/a	n/a	-999	2	[0, 0, 0]	n/a	catFR1	3	R1493T
332.282	9.533	336700	PROB	9.516	n/a	n/a	n/a	-999	2	[8, 5, 1]	14.0	catFR1	3	R1493T
341.815	9.016	346232	PROB	9.0	n/a	n/a	n/a	-999	2	[8, 4, 1]	13.0	catFR1	3	R1493T
350.831	0.0	355248	STOP	n/a	n/a	n/a	n/a	-999	2	[-999, -999, -999]	n/a	catFR1	3	R1493T
350.831	2.016	355249	DISTRACT_END	n/a	n/a	n/a	n/a	-999	2	[0, 0, 0]	n/a	catFR1	3	R1493T
352.847	5.81	357269	REC_START	n/a	n/a	n/a	n/a	-999	2	[0, 0, 0]	n/a	catFR1	3	R1493T
358.657	2.11	363073	REC_WORD	5.81	n/a	TEA	Beverages	1	2	[0, 0, 0]	n/a	catFR1	3	R1493T
360.767	22.307	365183	REC_WORD	7.92	n/a	LEMONADE	Beverages	7	2	[0, 0, 0]	n/a	catFR1	3	R1493T
383.074	4.458	387489	REC_END	n/a	n/a	n/a	n/a	-999	2	[0, 0, 0]	n/a	catFR1	3	R1493T
387.532	10.0	391953	COUNTDOWN_START	n/a	n/a	n/a	n/a	-999	3	[0, 0, 0]	n/a	catFR1	3	R1493T
397.882	0.0	402298	COUNTDOWN_END	n/a	n/a	n/a	n/a	-999	3	[0, 0, 0]	n/a	catFR1	3	R1493T
397.882	1.949	402298	ENCODING_START	n/a	n/a	n/a	n/a	-999	3	[0, 0, 0]	n/a	catFR1	3	R1493T
399.831	1.6	404253	WORD	n/a	wordpools/wordpool_categorized_EN.txt	SCOOTER	Vehicles	1	3	[0, 0, 0]	n/a	catFR1	3	R1493T
401.448	0.933	405869	WORD_OFF	n/a	n/a	SCOOTER	Vehicles	1	3	[0, 0, 0]	n/a	catFR1	3	R1493T
402.381	1.6	406804	WORD	n/a	wordpools/wordpool_categorized_EN.txt	JEEP	Vehicles	2	3	[0, 0, 0]	n/a	catFR1	3	R1493T
403.998	0.784	408420	WORD_OFF	n/a	n/a	JEEP	Vehicles	2	3	[0, 0, 0]	n/a	catFR1	3	R1493T
404.782	1.6	409199	WORD	n/a	wordpools/wordpool_categorized_EN.txt	PEELER	KitchenTools	3	3	[0, 0, 0]	n/a	catFR1	3	R1493T
406.398	0.85	410815	WORD_OFF	n/a	n/a	PEELER	KitchenTools	3	3	[0, 0, 0]	n/a	catFR1	3	R1493T
407.248	1.6	411665	WORD	n/a	wordpools/wordpool_categorized_EN.txt	TONGS	KitchenTools	4	3	[0, 0, 0]	n/a	catFR1	3	R1493T
408.848	0.817	413266	WORD_OFF	n/a	n/a	TONGS	KitchenTools	4	3	[0, 0, 0]	n/a	catFR1	3	R1493T
409.665	1.6	414088	WORD	n/a	wordpools/wordpool_categorized_EN.txt	BARBIE	Toys	5	3	[0, 0, 0]	n/a	catFR1	3	R1493T
411.281	0.816	415704	WORD_OFF	n/a	n/a	BARBIE	Toys	5	3	[0, 0, 0]	n/a	catFR1	3	R1493T
412.097	1.6	416512	WORD	n/a	wordpools/wordpool_categorized_EN.txt	BASKETBALL	Toys	6	3	[0, 0, 0]	n/a	catFR1	3	R1493T
413.698	0.917	418113	WORD_OFF	n/a	n/a	BASKETBALL	Toys	6	3	[0, 0, 0]	n/a	catFR1	3	R1493T
414.615	1.6	419034	WORD	n/a	wordpools/wordpool_categorized_EN.txt	KNIFE	KitchenTools	7	3	[0, 0, 0]	n/a	catFR1	3	R1493T
416.215	0.983	420636	WORD_OFF	n/a	n/a	KNIFE	KitchenTools	7	3	[0, 0, 0]	n/a	catFR1	3	R1493T
417.198	1.6	421613	WORD	n/a	wordpools/wordpool_categorized_EN.txt	SPATULA	KitchenTools	8	3	[0, 0, 0]	n/a	catFR1	3	R1493T
418.798	0.934	423215	WORD_OFF	n/a	n/a	SPATULA	KitchenTools	8	3	[0, 0, 0]	n/a	catFR1	3	R1493T
419.732	1.6	424150	WORD	n/a	wordpools/wordpool_categorized_EN.txt	BUS	Vehicles	9	3	[0, 0, 0]	n/a	catFR1	3	R1493T
421.348	0.799	425766	WORD_OFF	n/a	n/a	BUS	Vehicles	9	3	[0, 0, 0]	n/a	catFR1	3	R1493T
422.147	1.6	426559	WORD	n/a	wordpools/wordpool_categorized_EN.txt	TRAIN	Vehicles	10	3	[0, 0, 0]	n/a	catFR1	3	R1493T
423.748	0.883	428160	WORD_OFF	n/a	n/a	TRAIN	Vehicles	10	3	[0, 0, 0]	n/a	catFR1	3	R1493T
424.631	1.6	429053	WORD	n/a	wordpools/wordpool_categorized_EN.txt	BASEBALL	Toys	11	3	[0, 0, 0]	n/a	catFR1	3	R1493T
426.231	0.933	430640	WORD_OFF	n/a	n/a	BASEBALL	Toys	11	3	[0, 0, 0]	n/a	catFR1	3	R1493T
427.164	1.6	431576	WORD	n/a	wordpools/wordpool_categorized_EN.txt	BLOCKS	Toys	12	3	[0, 0, 0]	n/a	catFR1	3	R1493T
428.765	0.001	433177	WORD_OFF	n/a	n/a	BLOCKS	Toys	12	3	[0, 0, 0]	n/a	catFR1	3	R1493T
428.766	0.0	433177	ENCODING_END	n/a	n/a	n/a	n/a	-999	3	[0, 0, 0]	n/a	catFR1	3	R1493T
428.766	0.0	433177	DISTRACT_START	n/a	n/a	n/a	n/a	-999	3	[0, 0, 0]	n/a	catFR1	3	R1493T
428.765	0.001	433178	PROB	8.665	n/a	n/a	n/a	-999	3	[6, 4, 7]	17.0	catFR1	3	R1493T
428.766	8.682	433179	START	n/a	n/a	n/a	n/a	-999	3	[-999, -999, -999]	n/a	catFR1	3	R1493T
437.448	6.417	441860	PROB	6.399	n/a	n/a	n/a	-999	3	[1, 4, 1]	6.0	catFR1	3	R1493T
443.865	6.349	448277	PROB	6.333	n/a	n/a	n/a	-999	3	[3, 2, 7]	12.0	catFR1	3	R1493T
450.214	0.0	454626	STOP	n/a	n/a	n/a	n/a	-999	3	[-999, -999, -999]	n/a	catFR1	3	R1493T
450.214	2.217	454633	DISTRACT_END	n/a	n/a	n/a	n/a	-999	3	[0, 0, 0]	n/a	catFR1	3	R1493T
452.431	2.793	456851	REC_START	n/a	n/a	n/a	n/a	-999	3	[0, 0, 0]	n/a	catFR1	3	R1493T
455.224	1.0	459635	REC_WORD	2.793	n/a	BASKETBALL	Toys	6	3	[0, 0, 0]	n/a	catFR1	3	R1493T
456.224	2.485	460635	REC_WORD	3.793	n/a	BASKETBALL	Toys	6	3	[0, 0, 0]	n/a	catFR1	3	R1493T
458.709	3.375	463120	REC_WORD	6.278	n/a	BUS	Vehicles	9	3	[0, 0, 0]	n/a	catFR1	3	R1493T
462.084	20.553	466495	REC_WORD	9.653	n/a	TRAIN	Vehicles	10	3	[0, 0, 0]	n/a	catFR1	3	R1493T
482.637	3.727	487057	REC_END	n/a	n/a	n/a	n/a	-999	3	[0, 0, 0]	n/a	catFR1	3	R1493T
486.364	10.0	490784	COUNTDOWN_START	n/a	n/a	n/a	n/a	-999	4	[0, 0, 0]	n/a	catFR1	3	R1493T
496.715	0.0	501129	COUNTDOWN_END	n/a	n/a	n/a	n/a	-999	4	[0, 0, 0]	n/a	catFR1	3	R1493T
496.715	2.15	501129	ENCODING_START	n/a	n/a	n/a	n/a	-999	4	[0, 0, 0]	n/a	catFR1	3	R1493T
498.865	1.6	503283	WORD	n/a	wordpools/wordpool_categorized_EN.txt	GRATER	KitchenTools	1	4	[0, 0, 0]	n/a	catFR1	3	R1493T
500.48	0.9	504899	WORD_OFF	n/a	n/a	GRATER	KitchenTools	1	4	[0, 0, 0]	n/a	catFR1	3	R1493T
501.38	1.6	505792	WORD	n/a	wordpools/wordpool_categorized_EN.txt	FORK	KitchenTools	2	4	[0, 0, 0]	n/a	catFR1	3	R1493T
502.981	0.934	507393	WORD_OFF	n/a	n/a	FORK	KitchenTools	2	4	[0, 0, 0]	n/a	catFR1	3	R1493T
503.915	1.6	508328	WORD	n/a	wordpools/wordpool_categorized_EN.txt	DOLPHIN	OceanAnimals	3	4	[0, 0, 0]	n/a	catFR1	3	R1493T
505.531	0.934	509944	WORD_OFF	n/a	n/a	DOLPHIN	OceanAnimals	3	4	[0, 0, 0]	n/a	catFR1	3	R1493T
506.465	1.6	510879	WORD	n/a	wordpools/wordpool_categorized_EN.txt	OYSTER	OceanAnimals	4	4	[0, 0, 0]	n/a	catFR1	3	R1493T
508.065	0.934	512480	WORD_OFF	n/a	n/a	OYSTER	OceanAnimals	4	4	[0, 0, 0]	n/a	catFR1	3	R1493T
508.999	1.6	513416	WORD	n/a	wordpools/wordpool_categorized_EN.txt	WALNUT	Trees	5	4	[0, 0, 0]	n/a	catFR1	3	R1493T
510.598	0.95	515017	WORD_OFF	n/a	n/a	WALNUT	Trees	5	4	[0, 0, 0]	n/a	catFR1	3	R1493T
511.548	1.6	515967	WORD	n/a	wordpools/wordpool_categorized_EN.txt	PINE	Trees	6	4	[0, 0, 0]	n/a	catFR1	3	R1493T
513.165	0.866	517582	WORD_OFF	n/a	n/a	PINE	Trees	6	4	[0, 0, 0]	n/a	catFR1	3	R1493T
514.031	1.6	518447	WORD	n/a	wordpools/wordpool_categorized_EN.txt	JELLYFISH	OceanAnimals	7	4	[0, 0, 0]	n/a	catFR1	3	R1493T
515.648	0.967	520062	WORD_OFF	n/a	n/a	JELLYFISH	OceanAnimals	7	4	[0, 0, 0]	n/a	catFR1	3	R1493T
516.615	1.6	521026	WORD	n/a	wordpools/wordpool_categorized_EN.txt	CRAB	OceanAnimals	8	4	[0, 0, 0]	n/a	catFR1	3	R1493T
518.232	0.949	522641	WORD_OFF	n/a	n/a	CRAB	OceanAnimals	8	4	[0, 0, 0]	n/a	catFR1	3	R1493T
519.181	1.6	523591	WORD	n/a	wordpools/wordpool_categorized_EN.txt	SPOON	KitchenTools	9	4	[0, 0, 0]	n/a	catFR1	3	R1493T
520.781	0.967	525192	WORD_OFF	n/a	n/a	SPOON	KitchenTools	9	4	[0, 0, 0]	n/a	catFR1	3	R1493T
521.748	1.6	526156	WORD	n/a	wordpools/wordpool_categorized_EN.txt	WHISK	KitchenTools	10	4	[0, 0, 0]	n/a	catFR1	3	R1493T
523.348	0.867	527757	WORD_OFF	n/a	n/a	WHISK	KitchenTools	10	4	[0, 0, 0]	n/a	catFR1	3	R1493T
524.215	1.6	528622	WORD	n/a	wordpools/wordpool_categorized_EN.txt	OAK	Trees	11	4	[0, 0, 0]	n/a	catFR1	3	R1493T
525.83	0.835	530237	WORD_OFF	n/a	n/a	OAK	Trees	11	4	[0, 0, 0]	n/a	catFR1	3	R1493T
526.665	1.6	531073	WORD	n/a	wordpools/wordpool_categorized_EN.txt	MAPLE	Trees	12	4	[0, 0, 0]	n/a	catFR1	3	R1493T
528.281	0.001	532689	WORD_OFF	n/a	n/a	MAPLE	Trees	12	4	[0, 0, 0]	n/a	catFR1	3	R1493T
528.282	0.001	532689	ENCODING_END	n/a	n/a	n/a	n/a	-999	4	[0, 0, 0]	n/a	catFR1	3	R1493T
528.283	0.0	532689	DISTRACT_START	n/a	n/a	n/a	n/a	-999	4	[0, 0, 0]	n/a	catFR1	3	R1493T
528.282	0.001	532690	PROB	7.998	n/a	n/a	n/a	-999	4	[7, 8, 2]	17.0	catFR1	3	R1493T
528.283	8.015	532691	START	n/a	n/a	n/a	n/a	-999	4	[-999, -999, -999]	n/a	catFR1	3	R1493T
536.298	6.6	540705	PROB	6.583	n/a	n/a	n/a	-999	4	[5, 5, 6]	16.0	catFR1	3	R1493T
542.898	6.667	547305	PROB	6.65	n/a	n/a	n/a	-999	4	[5, 5, 5]	15.0	catFR1	3	R1493T
549.565	0.0	553972	STOP	n/a	n/a	n/a	n/a	-999	4	[-999, -999, -999]	n/a	catFR1	3	R1493T
549.565	2.183	553974	DISTRACT_END	n/a	n/a	n/a	n/a	-999	4	[0, 0, 0]	n/a	catFR1	3	R1493T
551.748	4.529	556151	REC_START	n/a	n/a	n/a	n/a	-999	4	[0, 0, 0]	n/a	catFR1	3	R1493T
556.277	2.793	560683	REC_WORD	4.529	n/a	DOLPHIN	OceanAnimals	3	4	[0, 0, 0]	n/a	catFR1	3	R1493T
559.07	22.936	563476	REC_WORD	7.322	n/a	OAK	Trees	11	4	[0, 0, 0]	n/a	catFR1	3	R1493T
582.006	3.909	586413	REC_END	n/a	n/a	n/a	n/a	-999	4	[0, 0, 0]	n/a	catFR1	3	R1493T
585.915	10.0	590324	COUNTDOWN_START	n/a	n/a	n/a	n/a	-999	5	[0, 0, 0]	n/a	catFR1	3	R1493T
596.265	0.0	600669	COUNTDOWN_END	n/a	n/a	n/a	n/a	-999	5	[0, 0, 0]	n/a	catFR1	3	R1493T
596.265	2.116	600669	ENCODING_START	n/a	n/a	n/a	n/a	-999	5	[0, 0, 0]	n/a	catFR1	3	R1493T
598.381	1.6	602795	WORD	n/a	wordpools/wordpool_categorized_EN.txt	TRUCK	Vehicles	1	5	[0, 0, 0]	n/a	catFR1	3	R1493T
599.981	0.966	604382	WORD_OFF	n/a	n/a	TRUCK	Vehicles	1	5	[0, 0, 0]	n/a	catFR1	3	R1493T
600.947	1.6	605360	WORD	n/a	wordpools/wordpool_categorized_EN.txt	CAR	Vehicles	2	5	[0, 0, 0]	n/a	catFR1	3	R1493T
602.548	0.916	606961	WORD_OFF	n/a	n/a	CAR	Vehicles	2	5	[0, 0, 0]	n/a	catFR1	3	R1493T
603.464	1.6	607868	WORD	n/a	wordpools/wordpool_categorized_EN.txt	DAISY	Flowers	3	5	[0, 0, 0]	n/a	catFR1	3	R1493T
605.064	0.817	609470	WORD_OFF	n/a	n/a	DAISY	Flowers	3	5	[0, 0, 0]	n/a	catFR1	3	R1493T
605.881	1.6	610292	WORD	n/a	wordpools/wordpool_categorized_EN.txt	TULIP	Flowers	4	5	[0, 0, 0]	n/a	catFR1	3	R1493T
607.498	0.9	611907	WORD_OFF	n/a	n/a	TULIP	Flowers	4	5	[0, 0, 0]	n/a	catFR1	3	R1493T
608.398	1.6	612800	WORD	n/a	wordpools/wordpool_categorized_EN.txt	JEANS	Clothing	5	5	[0, 0, 0]	n/a	catFR1	3	R1493T
610.015	0.883	614415	WORD_OFF	n/a	n/a	JEANS	Clothing	5	5	[0, 0, 0]	n/a	catFR1	3	R1493T
610.898	1.6	615308	WORD	n/a	wordpools/wordpool_categorized_EN.txt	SHOES	Clothing	6	5	[0, 0, 0]	n/a	catFR1	3	R1493T
612.515	0.933	616924	WORD_OFF	n/a	n/a	SHOES	Clothing	6	5	[0, 0, 0]	n/a	catFR1	3	R1493T
613.448	1.6	617859	WORD	n/a	wordpools/wordpool_categorized_EN.txt	BIKE	Vehicles	7	5	[0, 0, 0]	n/a	catFR1	3	R1493T
615.048	0.767	619460	WORD_OFF	n/a	n/a	BIKE	Vehicles	7	5	[0, 0, 0]	n/a	catFR1	3	R1493T
615.815	1.6	620226	WORD	n/a	wordpools/wordpool_categorized_EN.txt	VAN	Vehicles	8	5	[0, 0, 0]	n/a	catFR1	3	R1493T
617.415	0.8	621827	WORD_OFF	n/a	n/a	VAN	Vehicles	8	5	[0, 0, 0]	n/a	catFR1	3	R1493T
618.215	1.6	622621	WORD	n/a	wordpools/wordpool_categorized_EN.txt	ROSE	Flowers	9	5	[0, 0, 0]	n/a	catFR1	3	R1493T
619.831	0.984	624236	WORD_OFF	n/a	n/a	ROSE	Flowers	9	5	[0, 0, 0]	n/a	catFR1	3	R1493T
620.815	1.6	625228	WORD	n/a	wordpools/wordpool_categorized_EN.txt	SUNFLOWER	Flowers	10	5	[0, 0, 0]	n/a	catFR1	3	R1493T
622.43	0.885	626844	WORD_OFF	n/a	n/a	SUNFLOWER	Flowers	10	5	[0, 0, 0]	n/a	catFR1	3	R1493T
623.315	1.6	627722	WORD	n/a	wordpools/wordpool_categorized_EN.txt	SKIRT	Clothing	11	5	[0, 0, 0]	n/a	catFR1	3	R1493T
624.931	0.999	629338	WORD_OFF	n/a	n/a	SKIRT	Clothing	11	5	[0, 0, 0]	n/a	catFR1	3	R1493T
625.93	1.6	630330	WORD	n/a	wordpools/wordpool_categorized_EN.txt	SHORTS	Clothing	12	5	[0, 0, 0]	n/a	catFR1	3	R1493T
627.531	0.0	631931	WORD_OFF	n/a	n/a	SHORTS	Clothing	12	5	[0, 0, 0]	n/a	catFR1	3	R1493T
627.531	0.001	631934	PROB	20.567	n/a	n/a	n/a	-999	5	[6, 3, 5]	14.0	catFR1	3	R1493T
627.532	0.0	631935	START	n/a	n/a	n/a	n/a	-999	5	[-999, -999, -999]	n/a	catFR1	3	R1493T
627.532	0.0	631945	ENCODING_END	n/a	n/a	n/a	n/a	-999	5	[0, 0, 0]	n/a	catFR1	3	R1493T
627.532	20.583	631945	DISTRACT_START	n/a	n/a	n/a	n/a	-999	5	[0, 0, 0]	n/a	catFR1	3	R1493T
648.115	0.0	652517	STOP	n/a	n/a	n/a	n/a	-999	5	[-999, -999, -999]	n/a	catFR1	3	R1493T
648.115	2.183	652522	DISTRACT_END	n/a	n/a	n/a	n/a	-999	5	[0, 0, 0]	n/a	catFR1	3	R1493T
650.298	8.642	654699	REC_START	n/a	n/a	n/a	n/a	-999	5	[0, 0, 0]	n/a	catFR1	3	R1493T
658.94	2.088	663341	REC_WORD	8.642	n/a	DOLPHIN	OceanAnimals	-999	5	[0, 0, 0]	n/a	catFR1	3	R1493T
661.028	2.108	665429	REC_WORD	10.73	n/a	OAK	Trees	-999	5	[0, 0, 0]	n/a	catFR1	3	R1493T
663.136	17.402	667537	REC_WORD	12.838	n/a	DAISY	Flowers	3	5	[0, 0, 0]	n/a	catFR1	3	R1493T
680.538	3.825	684947	REC_END	n/a	n/a	n/a	n/a	-999	5	[0, 0, 0]	n/a	catFR1	3	R1493T
684.363	10.0	688773	COUNTDOWN_START	n/a	n/a	n/a	n/a	-999	6	[0, 0, 0]	n/a	catFR1	3	R1493T
694.715	0.0	699118	COUNTDOWN_END	n/a	n/a	n/a	n/a	-999	6	[0, 0, 0]	n/a	catFR1	3	R1493T
694.715	1.95	699118	ENCODING_START	n/a	n/a	n/a	n/a	-999	6	[0, 0, 0]	n/a	catFR1	3	R1493T
696.665	1.6	701074	WORD	n/a	wordpools/wordpool_categorized_EN.txt	BLOUSE	Clothing	1	6	[0, 0, 0]	n/a	catFR1	3	R1493T
698.265	0.866	702661	WORD_OFF	n/a	n/a	BLOUSE	Clothing	1	6	[0, 0, 0]	n/a	catFR1	3	R1493T
699.131	1.6	703539	WORD	n/a	wordpools/wordpool_categorized_EN.txt	JACKET	Clothing	2	6	[0, 0, 0]	n/a	catFR1	3	R1493T
700.731	0.9	705127	WORD_OFF	n/a	n/a	JACKET	Clothing	2	6	[0, 0, 0]	n/a	catFR1	3	R1493T
701.631	1.6	706034	WORD	n/a	wordpools/wordpool_categorized_EN.txt	CYPRESS	Trees	3	6	[0, 0, 0]	n/a	catFR1	3	R1493T
703.248	0.899	707649	WORD_OFF	n/a	n/a	CYPRESS	Trees	3	6	[0, 0, 0]	n/a	catFR1	3	R1493T
704.147	1.6	708556	WORD	n/a	wordpools/wordpool_categorized_EN.txt	WILLOW	Trees	4	6	[0, 0, 0]	n/a	catFR1	3	R1493T
705.748	0.867	710143	WORD_OFF	n/a	n/a	WILLOW	Trees	4	6	[0, 0, 0]	n/a	catFR1	3	R1493T
706.615	1.6	711022	WORD	n/a	wordpools/wordpool_categorized_EN.txt	PUZZLE	Toys	5	6	[0, 0, 0]	n/a	catFR1	3	R1493T
708.231	0.984	712638	WORD_OFF	n/a	n/a	PUZZLE	Toys	5	6	[0, 0, 0]	n/a	catFR1	3	R1493T
709.215	1.6	713615	WORD	n/a	wordpools/wordpool_categorized_EN.txt	DOLLHOUSE	Toys	6	6	[0, 0, 0]	n/a	catFR1	3	R1493T
710.815	0.983	715217	WORD_OFF	n/a	n/a	DOLLHOUSE	Toys	6	6	[0, 0, 0]	n/a	catFR1	3	R1493T
711.798	1.6	716195	WORD	n/a	wordpools/wordpool_categorized_EN.txt	PANTS	Clothing	7	6	[0, 0, 0]	n/a	catFR1	3	R1493T
713.414	0.884	717810	WORD_OFF	n/a	n/a	PANTS	Clothing	7	6	[0, 0, 0]	n/a	catFR1	3	R1493T
714.298	1.6	718703	WORD	n/a	wordpools/wordpool_categorized_EN.txt	COAT	Clothing	8	6	[0, 0, 0]	n/a	catFR1	3	R1493T
715.915	0.849	720318	WORD_OFF	n/a	n/a	COAT	Clothing	8	6	[0, 0, 0]	n/a	catFR1	3	R1493T
716.764	1.6	721169	WORD	n/a	wordpools/wordpool_categorized_EN.txt	SPRUCE	Trees	9	6	[0, 0, 0]	n/a	catFR1	3	R1493T
718.364	0.884	722770	WORD_OFF	n/a	n/a	SPRUCE	Trees	9	6	[0, 0, 0]	n/a	catFR1	3	R1493T
719.248	1.6	723649	WORD	n/a	wordpools/wordpool_categorized_EN.txt	EVERGREEN	Trees	10	6	[0, 0, 0]	n/a	catFR1	3	R1493T
720.848	0.949	725250	WORD_OFF	n/a	n/a	EVERGREEN	Trees	10	6	[0, 0, 0]	n/a	catFR1	3	R1493T
721.797	1.6	726200	WORD	n/a	wordpools/wordpool_categorized_EN.txt	FRISBEE	Toys	11	6	[0, 0, 0]	n/a	catFR1	3	R1493T
723.397	1.001	727801	WORD_OFF	n/a	n/a	FRISBEE	Toys	11	6	[0, 0, 0]	n/a	catFR1	3	R1493T
724.398	1.6	728793	WORD	n/a	wordpools/wordpool_categorized_EN.txt	SLINKY	Toys	12	6	[0, 0, 0]	n/a	catFR1	3	R1493T
725.998	0.002	730394	WORD_OFF	n/a	n/a	SLINKY	Toys	12	6	[0, 0, 0]	n/a	catFR1	3	R1493T
726.0	0.0	730394	ENCODING_END	n/a	n/a	n/a	n/a	-999	6	[0, 0, 0]	n/a	catFR1	3	R1493T
725.999	0.001	730397	PROB	9.516	n/a	n/a	n/a	-999	6	[1, 3, 6]	10.0	catFR1	3	R1493T
726.0	0.0	730398	START	n/a	n/a	n/a	n/a	-999	6	[-999, -999, -999]	n/a	catFR1	3	R1493T
726.0	9.531	730408	DISTRACT_START	n/a	n/a	n/a	n/a	-999	6	[0, 0, 0]	n/a	catFR1	3	R1493T
735.531	9.618	739928	PROB	9.6	n/a	n/a	n/a	-999	6	[2, 8, 3]	13.0	catFR1	3	R1493T
745.149	7.432	749546	PROB	7.416	n/a	n/a	n/a	-999	6	[2, 6, 3]	11.0	catFR1	3	R1493T
752.581	0.0	756977	STOP	n/a	n/a	n/a	n/a	-999	6	[-999, -999, -999]	n/a	catFR1	3	R1493T
752.581	2.034	756980	DISTRACT_END	n/a	n/a	n/a	n/a	-999	6	[0, 0, 0]	n/a	catFR1	3	R1493T
754.615	7.12	759014	REC_START	n/a	n/a	n/a	n/a	-999	6	[0, 0, 0]	n/a	catFR1	3	R1493T
761.735	2.205	766131	REC_WORD	7.12	n/a	JACKET	Clothing	2	6	[0, 0, 0]	n/a	catFR1	3	R1493T
763.94	2.156	768336	REC_WORD	9.325	n/a	PUZZLE	Toys	5	6	[0, 0, 0]	n/a	catFR1	3	R1493T
766.096	18.752	770492	REC_WORD	11.481	n/a	OAK	Trees	-999	6	[0, 0, 0]	n/a	catFR1	3	R1493T
784.848	3.917	789248	REC_END	n/a	n/a	n/a	n/a	-999	6	[0, 0, 0]	n/a	catFR1	3	R1493T
788.765	10.0	793159	COUNTDOWN_START	n/a	n/a	n/a	n/a	-999	7	[0, 0, 0]	n/a	catFR1	3	R1493T
799.115	0.0	803519	COUNTDOWN_END	n/a	n/a	n/a	n/a	-999	7	[0, 0, 0]	n/a	catFR1	3	R1493T
799.115	2.016	803519	ENCODING_START	n/a	n/a	n/a	n/a	-999	7	[0, 0, 0]	n/a	catFR1	3	R1493T
801.131	1.6	805531	WORD	n/a	wordpools/wordpool_categorized_EN.txt	GOAT	FarmAnimals	1	7	[0, 0, 0]	n/a	catFR1	3	R1493T
802.748	0.85	807147	WORD_OFF	n/a	n/a	GOAT	FarmAnimals	1	7	[0, 0, 0]	n/a	catFR1	3	R1493T
803.598	1.6	807997	WORD	n/a	wordpools/wordpool_categorized_EN.txt	HEN	FarmAnimals	2	7	[0, 0, 0]	n/a	catFR1	3	R1493T
805.215	0.966	809612	WORD_OFF	n/a	n/a	HEN	FarmAnimals	2	7	[0, 0, 0]	n/a	catFR1	3	R1493T
806.181	1.6	810576	WORD	n/a	wordpools/wordpool_categorized_EN.txt	BUTTERFLY	Insects	3	7	[0, 0, 0]	n/a	catFR1	3	R1493T
807.796	0.885	812192	WORD_OFF	n/a	n/a	BUTTERFLY	Insects	3	7	[0, 0, 0]	n/a	catFR1	3	R1493T
808.681	1.6	813084	WORD	n/a	wordpools/wordpool_categorized_EN.txt	FLY	Insects	4	7	[0, 0, 0]	n/a	catFR1	3	R1493T
810.281	0.833	814683	WORD_OFF	n/a	n/a	FLY	Insects	4	7	[0, 0, 0]	n/a	catFR1	3	R1493T
811.114	1.6	815508	WORD	n/a	wordpools/wordpool_categorized_EN.txt	CHERRY	Fruit	5	7	[0, 0, 0]	n/a	catFR1	3	R1493T
812.714	0.783	817109	WORD_OFF	n/a	n/a	CHERRY	Fruit	5	7	[0, 0, 0]	n/a	catFR1	3	R1493T
813.497	1.6	817889	WORD	n/a	wordpools/wordpool_categorized_EN.txt	GRAPE	Fruit	6	7	[0, 0, 0]	n/a	catFR1	3	R1493T
815.097	0.901	819490	WORD_OFF	n/a	n/a	GRAPE	Fruit	6	7	[0, 0, 0]	n/a	catFR1	3	R1493T
815.998	1.6	820397	WORD	n/a	wordpools/wordpool_categorized_EN.txt	GNAT	Insects	7	7	[0, 0, 0]	n/a	catFR1	3	R1493T
817.598	0.767	821998	WORD_OFF	n/a	n/a	GNAT	Insects	7	7	[0, 0, 0]	n/a	catFR1	3	R1493T
818.365	1.6	822764	WORD	n/a	wordpools/wordpool_categorized_EN.txt	BEETLE	Insects	8	7	[0, 0, 0]	n/a	catFR1	3	R1493T
819.981	0.899	824379	WORD_OFF	n/a	n/a	BEETLE	Insects	8	7	[0, 0, 0]	n/a	catFR1	3	R1493T
820.88	1.6	825272	WORD	n/a	wordpools/wordpool_categorized_EN.txt	CHICKEN	FarmAnimals	9	7	[0, 0, 0]	n/a	catFR1	3	R1493T
822.482	0.933	826873	WORD_OFF	n/a	n/a	CHICKEN	FarmAnimals	9	7	[0, 0, 0]	n/a	catFR1	3	R1493T
823.415	1.6	827809	WORD	n/a	wordpools/wordpool_categorized_EN.txt	PIG	FarmAnimals	10	7	[0, 0, 0]	n/a	catFR1	3	R1493T
825.031	0.8	829424	WORD_OFF	n/a	n/a	PIG	FarmAnimals	10	7	[0, 0, 0]	n/a	catFR1	3	R1493T
825.831	1.6	830232	WORD	n/a	wordpools/wordpool_categorized_EN.txt	APPLE	Fruit	11	7	[0, 0, 0]	n/a	catFR1	3	R1493T
827.448	1.0	831847	WORD_OFF	n/a	n/a	APPLE	Fruit	11	7	[0, 0, 0]	n/a	catFR1	3	R1493T
828.448	1.6	832839	WORD	n/a	wordpools/wordpool_categorized_EN.txt	BLUEBERRY	Fruit	12	7	[0, 0, 0]	n/a	catFR1	3	R1493T
830.065	0.001	834455	WORD_OFF	n/a	n/a	BLUEBERRY	Fruit	12	7	[0, 0, 0]	n/a	catFR1	3	R1493T
830.066	0.0	834455	ENCODING_END	n/a	n/a	n/a	n/a	-999	7	[0, 0, 0]	n/a	catFR1	3	R1493T
830.066	0.0	834458	START	n/a	n/a	n/a	n/a	-999	7	[-999, -999, -999]	n/a	catFR1	3	R1493T
830.066	0.0	834458	PROB	9.349	n/a	n/a	n/a	-999	7	[2, 1, 7]	10.0	catFR1	3	R1493T
830.066	9.365	834469	DISTRACT_START	n/a	n/a	n/a	n/a	-999	7	[0, 0, 0]	n/a	catFR1	3	R1493T
839.431	7.217	843823	PROB	7.2	n/a	n/a	n/a	-999	7	[7, 3, 7]	17.0	catFR1	3	R1493T
846.648	7.383	851040	PROB	7.366	n/a	n/a	n/a	-999	7	[4, 5, 4]	13.0	catFR1	3	R1493T
854.031	0.0	858419	DISTRACT_END	n/a	n/a	n/a	n/a	-999	7	[0, 0, 0]	n/a	catFR1	3	R1493T
854.031	2.017	858422	STOP	n/a	n/a	n/a	n/a	-999	7	[-999, -999, -999]	n/a	catFR1	3	R1493T
856.048	2.189	860439	REC_START	n/a	n/a	n/a	n/a	-999	7	[0, 0, 0]	n/a	catFR1	3	R1493T
858.237	1.813	862628	REC_WORD	2.189	n/a	GOAT	FarmAnimals	1	7	[0, 0, 0]	n/a	catFR1	3	R1493T
860.05	1.668	864441	REC_WORD	4.002	n/a	CHICKEN	FarmAnimals	9	7	[0, 0, 0]	n/a	catFR1	3	R1493T
861.718	1.001	866109	REC_WORD	5.67	n/a	BUTTERFLY	Insects	3	7	[0, 0, 0]	n/a	catFR1	3	R1493T
862.719	23.568	867110	REC_WORD	6.671	n/a	BUTTERFLY	Insects	3	7	[0, 0, 0]	n/a	catFR1	3	R1493T
886.287	3.928	890673	REC_END	n/a	n/a	n/a	n/a	-999	7	[0, 0, 0]	n/a	catFR1	3	R1493T
890.215	10.0	894613	COUNTDOWN_START	n/a	n/a	n/a	n/a	-999	8	[0, 0, 0]	n/a	catFR1	3	R1493T
900.564	0.0	904958	COUNTDOWN_END	n/a	n/a	n/a	n/a	-999	8	[0, 0, 0]	n/a	catFR1	3	R1493T
900.564	1.983	904958	ENCODING_START	n/a	n/a	n/a	n/a	-999	8	[0, 0, 0]	n/a	catFR1	3	R1493T
902.547	1.6	906942	WORD	n/a	wordpools/wordpool_categorized_EN.txt	COW	FarmAnimals	1	8	[0, 0, 0]	n/a	catFR1	3	R1493T
904.164	0.917	908557	WORD_OFF	n/a	n/a	COW	FarmAnimals	1	8	[0, 0, 0]	n/a	catFR1	3	R1493T
905.081	1.6	909478	WORD	n/a	wordpools/wordpool_categorized_EN.txt	TURKEY	FarmAnimals	2	8	[0, 0, 0]	n/a	catFR1	3	R1493T
906.681	0.934	911080	WORD_OFF	n/a	n/a	TURKEY	FarmAnimals	2	8	[0, 0, 0]	n/a	catFR1	3	R1493T
907.615	1.6	912001	WORD	n/a	wordpools/wordpool_categorized_EN.txt	TRUMPET	Instruments	3	8	[0, 0, 0]	n/a	catFR1	3	R1493T
909.231	0.884	913616	WORD_OFF	n/a	n/a	TRUMPET	Instruments	3	8	[0, 0, 0]	n/a	catFR1	3	R1493T
910.115	1.6	914509	WORD	n/a	wordpools/wordpool_categorized_EN.txt	VIOLIN	Instruments	4	8	[0, 0, 0]	n/a	catFR1	3	R1493T
911.731	0.767	916125	WORD_OFF	n/a	n/a	VIOLIN	Instruments	4	8	[0, 0, 0]	n/a	catFR1	3	R1493T
912.498	1.6	916890	WORD	n/a	wordpools/wordpool_categorized_EN.txt	BOAT	Vehicles	5	8	[0, 0, 0]	n/a	catFR1	3	R1493T
914.114	0.967	918506	WORD_OFF	n/a	n/a	BOAT	Vehicles	5	8	[0, 0, 0]	n/a	catFR1	3	R1493T
915.081	1.6	919469	WORD	n/a	wordpools/wordpool_categorized_EN.txt	MOTORCYCLE	Vehicles	6	8	[0, 0, 0]	n/a	catFR1	3	R1493T
916.698	0.95	921085	WORD_OFF	n/a	n/a	MOTORCYCLE	Vehicles	6	8	[0, 0, 0]	n/a	catFR1	3	R1493T
917.648	1.6	922034	WORD	n/a	wordpools/wordpool_categorized_EN.txt	CELLO	Instruments	7	8	[0, 0, 0]	n/a	catFR1	3	R1493T
919.248	0.967	923636	WORD_OFF	n/a	n/a	CELLO	Instruments	7	8	[0, 0, 0]	n/a	catFR1	3	R1493T
920.215	1.6	924599	WORD	n/a	wordpools/wordpool_categorized_EN.txt	ORGAN	Instruments	8	8	[0, 0, 0]	n/a	catFR1	3	R1493T
921.831	0.783	926229	WORD_OFF	n/a	n/a	ORGAN	Instruments	8	8	[0, 0, 0]	n/a	catFR1	3	R1493T
922.614	1.6	927008	WORD	n/a	wordpools/wordpool_categorized_EN.txt	ROOSTER	FarmAnimals	9	8	[0, 0, 0]	n/a	catFR1	3	R1493T
924.215	0.766	928610	WORD_OFF	n/a	n/a	ROOSTER	FarmAnimals	9	8	[0, 0, 0]	n/a	catFR1	3	R1493T
924.981	1.6	929375	WORD	n/a	wordpools/wordpool_categorized_EN.txt	SHEEP	FarmAnimals	10	8	[0, 0, 0]	n/a	catFR1	3	R1493T
926.598	0.767	930991	WORD_OFF	n/a	n/a	SHEEP	FarmAnimals	10	8	[0, 0, 0]	n/a	catFR1	3	R1493T
927.365	1.6	931756	WORD	n/a	wordpools/wordpool_categorized_EN.txt	MOPED	Vehicles	11	8	[0, 0, 0]	n/a	catFR1	3	R1493T
928.981	0.984	933371	WORD_OFF	n/a	n/a	MOPED	Vehicles	11	8	[0, 0, 0]	n/a	catFR1	3	R1493T
929.965	1.6	934349	WORD	n/a	wordpools/wordpool_categorized_EN.txt	PLANE	Vehicles	12	8	[0, 0, 0]	n/a	catFR1	3	R1493T
931.565	0.001	935951	WORD_OFF	n/a	n/a	PLANE	Vehicles	12	8	[0, 0, 0]	n/a	catFR1	3	R1493T
931.566	0.0	935951	ENCODING_END	n/a	n/a	n/a	n/a	-999	8	[0, 0, 0]	n/a	catFR1	3	R1493T
931.565	0.001	935952	PROB	11.333	n/a	n/a	n/a	-999	8	[3, 4, 3]	10.0	catFR1	3	R1493T
931.566	0.0	935953	START	n/a	n/a	n/a	n/a	-999	8	[-999, -999, -999]	n/a	catFR1	3	R1493T
931.566	11.349	935965	DISTRACT_START	n/a	n/a	n/a	n/a	-999	8	[0, 0, 0]	n/a	catFR1	3	R1493T
942.915	5.1	947302	PROB	5.082	n/a	n/a	n/a	-999	8	[4, 1, 2]	7.0	catFR1	3	R1493T
948.015	5.45	952401	PROB	5.433	n/a	n/a	n/a	-999	8	[4, 3, 2]	9.0	catFR1	3	R1493T
953.465	0.0	957851	STOP	n/a	n/a	n/a	n/a	-999	8	[-999, -999, -999]	n/a	catFR1	3	R1493T
953.465	2.299	957860	DISTRACT_END	n/a	n/a	n/a	n/a	-999	8	[0, 0, 0]	n/a	catFR1	3	R1493T
955.764	1.972	960149	REC_START	n/a	n/a	n/a	n/a	-999	8	[0, 0, 0]	n/a	catFR1	3	R1493T
957.736	2.102	962122	REC_WORD	1.972	n/a	TURKEY	FarmAnimals	2	8	[0, 0, 0]	n/a	catFR1	3	R1493T
959.838	2.969	964224	REC_WORD	4.074	n/a	TRUMPET	Instruments	3	8	[0, 0, 0]	n/a	catFR1	3	R1493T
962.807	23.167	967193	REC_WORD	7.043	n/a	BUTTERFLY	Insects	-999	8	[0, 0, 0]	n/a	catFR1	3	R1493T
985.974	3.357	990369	REC_END	n/a	n/a	n/a	n/a	-999	8	[0, 0, 0]	n/a	catFR1	3	R1493T
989.331	10.0	993728	COUNTDOWN_START	n/a	n/a	n/a	n/a	-999	9	[0, 0, 0]	n/a	catFR1	3	R1493T
999.681	0.0	1004073	COUNTDOWN_END	n/a	n/a	n/a	n/a	-999	9	[0, 0, 0]	n/a	catFR1	3	R1493T
999.681	2.1	1004073	ENCODING_START	n/a	n/a	n/a	n/a	-999	9	[0, 0, 0]	n/a	catFR1	3	R1493T
1001.781	1.6	1006170	WORD	n/a	wordpools/wordpool_categorized_EN.txt	MARIGOLD	Flowers	1	9	[0, 0, 0]	n/a	catFR1	3	R1493T
1003.398	0.966	1007786	WORD_OFF	n/a	n/a	MARIGOLD	Flowers	1	9	[0, 0, 0]	n/a	catFR1	3	R1493T
1004.364	1.6	1008749	WORD	n/a	wordpools/wordpool_categorized_EN.txt	LILAC	Flowers	2	9	[0, 0, 0]	n/a	catFR1	3	R1493T
1005.965	0.799	1010351	WORD_OFF	n/a	n/a	LILAC	Flowers	2	9	[0, 0, 0]	n/a	catFR1	3	R1493T
1006.764	1.6	1011144	WORD	n/a	wordpools/wordpool_categorized_EN.txt	SHIRT	Clothing	3	9	[0, 0, 0]	n/a	catFR1	3	R1493T
1008.364	0.817	1012746	WORD_OFF	n/a	n/a	SHIRT	Clothing	3	9	[0, 0, 0]	n/a	catFR1	3	R1493T
1009.181	1.6	1013568	WORD	n/a	wordpools/wordpool_categorized_EN.txt	UNDERWEAR	Clothing	4	9	[0, 0, 0]	n/a	catFR1	3	R1493T
1010.781	0.967	1015169	WORD_OFF	n/a	n/a	UNDERWEAR	Clothing	4	9	[0, 0, 0]	n/a	catFR1	3	R1493T
1011.748	1.6	1016133	WORD	n/a	wordpools/wordpool_categorized_EN.txt	MOSQUITO	Insects	5	9	[0, 0, 0]	n/a	catFR1	3	R1493T
1013.348	0.967	1017734	WORD_OFF	n/a	n/a	MOSQUITO	Insects	5	9	[0, 0, 0]	n/a	catFR1	3	R1493T
1014.315	1.6	1018698	WORD	n/a	wordpools/wordpool_categorized_EN.txt	LADYBUG	Insects	6	9	[0, 0, 0]	n/a	catFR1	3	R1493T
1015.931	1.0	1020313	WORD_OFF	n/a	n/a	LADYBUG	Insects	6	9	[0, 0, 0]	n/a	catFR1	3	R1493T
1016.931	1.6	1021319	WORD	n/a	wordpools/wordpool_categorized_EN.txt	DAFFODIL	Flowers	7	9	[0, 0, 0]	n/a	catFR1	3	R1493T
1018.548	0.85	1022935	WORD_OFF	n/a	n/a	DAFFODIL	Flowers	7	9	[0, 0, 0]	n/a	catFR1	3	R1493T
1019.398	1.6	1023785	WORD	n/a	wordpools/wordpool_categorized_EN.txt	CARNATION	Flowers	8	9	[0, 0, 0]	n/a	catFR1	3	R1493T
1020.998	0.983	1025386	WORD_OFF	n/a	n/a	CARNATION	Flowers	8	9	[0, 0, 0]	n/a	catFR1	3	R1493T
1021.981	1.6	1026364	WORD	n/a	wordpools/wordpool_categorized_EN.txt	DRESS	Clothing	9	9	[0, 0, 0]	n/a	catFR1	3	R1493T
1023.597	1.001	1027980	WORD_OFF	n/a	n/a	DRESS	Clothing	9	9	[0, 0, 0]	n/a	catFR1	3	R1493T
1024.598	1.6	1028986	WORD	n/a	wordpools/wordpool_categorized_EN.txt	SOCKS	Clothing	10	9	[0, 0, 0]	n/a	catFR1	3	R1493T
1026.214	0.917	1030602	WORD_OFF	n/a	n/a	SOCKS	Clothing	10	9	[0, 0, 0]	n/a	catFR1	3	R1493T
1027.131	1.6	1031523	WORD	n/a	wordpools/wordpool_categorized_EN.txt	SPIDER	Insects	11	9	[0, 0, 0]	n/a	catFR1	3	R1493T
1028.731	0.784	1033110	WORD_OFF	n/a	n/a	SPIDER	Insects	11	9	[0, 0, 0]	n/a	catFR1	3	R1493T
1029.515	1.6	1033903	WORD	n/a	wordpools/wordpool_categorized_EN.txt	ROACH	Insects	12	9	[0, 0, 0]	n/a	catFR1	3	R1493T
1031.132	0.003	1035514	PROB	10.566	n/a	n/a	n/a	-999	9	[3, 8, 6]	17.0	catFR1	3	R1493T
1031.135	0.0	1035517	START	n/a	n/a	n/a	n/a	-999	9	[-999, -999, -999]	n/a	catFR1	3	R1493T
1031.131	0.004	1035519	WORD_OFF	n/a	n/a	ROACH	Insects	12	9	[0, 0, 0]	n/a	catFR1	3	R1493T
1031.135	0.0	1035519	ENCODING_END	n/a	n/a	n/a	n/a	-999	9	[0, 0, 0]	n/a	catFR1	3	R1493T
1031.135	10.58	1035519	DISTRACT_START	n/a	n/a	n/a	n/a	-999	9	[0, 0, 0]	n/a	catFR1	3	R1493T
1041.715	10.598	1046097	PROB	10.582	n/a	n/a	n/a	-999	9	[6, 5, 6]	17.0	catFR1	3	R1493T
1052.313	0.0	1056691	DISTRACT_END	n/a	n/a	n/a	n/a	-999	9	[0, 0, 0]	n/a	catFR1	3	R1493T
1052.313	2.284	1056694	STOP	n/a	n/a	n/a	n/a	-999	9	[-999, -999, -999]	n/a	catFR1	3	R1493T
1054.597	5.499	1058981	REC_START	n/a	n/a	n/a	n/a	-999	9	[0, 0, 0]	n/a	catFR1	3	R1493T
1060.096	4.421	1064477	REC_WORD	5.499	n/a	TURKEY	FarmAnimals	-999	9	[0, 0, 0]	n/a	catFR1	3	R1493T
1064.517	20.309	1068898	REC_WORD	9.92	n/a	TRUMPET	Instruments	-999	9	[0, 0, 0]	n/a	catFR1	3	R1493T
1084.826	3.538	1089214	REC_END	n/a	n/a	n/a	n/a	-999	9	[0, 0, 0]	n/a	catFR1	3	R1493T
1088.364	10.0	1092743	COUNTDOWN_START	n/a	n/a	n/a	n/a	-999	10	[0, 0, 0]	n/a	catFR1	3	R1493T
1098.715	0.0	1103102	COUNTDOWN_END	n/a	n/a	n/a	n/a	-999	10	[0, 0, 0]	n/a	catFR1	3	R1493T
1098.715	2.017	1103102	ENCODING_START	n/a	n/a	n/a	n/a	-999	10	[0, 0, 0]	n/a	catFR1	3	R1493T
1100.732	1.6	1105115	WORD	n/a	wordpools/wordpool_categorized_EN.txt	MOUNTAIN	Landscapes	1	10	[0, 0, 0]	n/a	catFR1	3	R1493T
1102.348	0.95	1106730	WORD_OFF	n/a	n/a	MOUNTAIN	Landscapes	1	10	[0, 0, 0]	n/a	catFR1	3	R1493T
1103.298	1.6	1107680	WORD	n/a	wordpools/wordpool_categorized_EN.txt	WOODS	Landscapes	2	10	[0, 0, 0]	n/a	catFR1	3	R1493T
1104.898	0.9	1109281	WORD_OFF	n/a	n/a	WOODS	Landscapes	2	10	[0, 0, 0]	n/a	catFR1	3	R1493T
1105.798	1.6	1110174	WORD	n/a	wordpools/wordpool_categorized_EN.txt	BULL	FarmAnimals	3	10	[0, 0, 0]	n/a	catFR1	3	R1493T
1107.414	0.866	1111804	WORD_OFF	n/a	n/a	BULL	FarmAnimals	3	10	[0, 0, 0]	n/a	catFR1	3	R1493T
1108.28	1.6	1112668	WORD	n/a	wordpools/wordpool_categorized_EN.txt	CALF	FarmAnimals	4	10	[0, 0, 0]	n/a	catFR1	3	R1493T
1109.882	0.799	1114255	WORD_OFF	n/a	n/a	CALF	FarmAnimals	4	10	[0, 0, 0]	n/a	catFR1	3	R1493T
1110.681	1.6	1115063	WORD	n/a	wordpools/wordpool_categorized_EN.txt	THUNDERSTORM	Weather	5	10	[0, 0, 0]	n/a	catFR1	3	R1493T
1112.281	0.784	1116665	WORD_OFF	n/a	n/a	THUNDERSTORM	Weather	5	10	[0, 0, 0]	n/a	catFR1	3	R1493T
1113.065	1.6	1117444	WORD	n/a	wordpools/wordpool_categorized_EN.txt	DRIZZLE	Weather	6	10	[0, 0, 0]	n/a	catFR1	3	R1493T
1114.665	0.933	1119045	WORD_OFF	n/a	n/a	DRIZZLE	Weather	6	10	[0, 0, 0]	n/a	catFR1	3	R1493T
1115.598	1.6	1119981	WORD	n/a	wordpools/wordpool_categorized_EN.txt	LAMB	FarmAnimals	7	10	[0, 0, 0]	n/a	catFR1	3	R1493T
1117.214	0.766	1121596	WORD_OFF	n/a	n/a	LAMB	FarmAnimals	7	10	[0, 0, 0]	n/a	catFR1	3	R1493T
1117.98	1.6	1122361	WORD	n/a	wordpools/wordpool_categorized_EN.txt	HORSE	FarmAnimals	8	10	[0, 0, 0]	n/a	catFR1	3	R1493T
1119.581	0.95	1123963	WORD_OFF	n/a	n/a	HORSE	FarmAnimals	8	10	[0, 0, 0]	n/a	catFR1	3	R1493T
1120.531	1.6	1124912	WORD	n/a	wordpools/wordpool_categorized_EN.txt	STREAM	Landscapes	9	10	[0, 0, 0]	n/a	catFR1	3	R1493T
1122.131	0.95	1126514	WORD_OFF	n/a	n/a	STREAM	Landscapes	9	10	[0, 0, 0]	n/a	catFR1	3	R1493T
1123.081	1.6	1127463	WORD	n/a	wordpools/wordpool_categorized_EN.txt	LAKE	Landscapes	10	10	[0, 0, 0]	n/a	catFR1	3	R1493T
1124.681	0.833	1129065	WORD_OFF	n/a	n/a	LAKE	Landscapes	10	10	[0, 0, 0]	n/a	catFR1	3	R1493T
1125.514	1.6	1129901	WORD	n/a	wordpools/wordpool_categorized_EN.txt	FOG	Weather	11	10	[0, 0, 0]	n/a	catFR1	3	R1493T
1127.115	0.766	1131488	WORD_OFF	n/a	n/a	FOG	Weather	11	10	[0, 0, 0]	n/a	catFR1	3	R1493T
1127.881	1.6	1132267	WORD	n/a	wordpools/wordpool_categorized_EN.txt	TORNADO	Weather	12	10	[0, 0, 0]	n/a	catFR1	3	R1493T
1129.481	0.001	1133854	WORD_OFF	n/a	n/a	TORNADO	Weather	12	10	[0, 0, 0]	n/a	catFR1	3	R1493T
1129.482	0.003	1133859	PROB	16.399	n/a	n/a	n/a	-999	10	[8, 8, 6]	22.0	catFR1	3	R1493T
1129.485	0.0	1133862	START	n/a	n/a	n/a	n/a	-999	10	[-999, -999, -999]	n/a	catFR1	3	R1493T
1129.484	0.001	1133869	ENCODING_END	n/a	n/a	n/a	n/a	-999	10	[0, 0, 0]	n/a	catFR1	3	R1493T
1129.485	16.414	1133869	DISTRACT_START	n/a	n/a	n/a	n/a	-999	10	[0, 0, 0]	n/a	catFR1	3	R1493T
1145.899	6.132	1150275	PROB	6.116	n/a	n/a	n/a	-999	10	[4, 5, 2]	11.0	catFR1	3	R1493T
1152.031	0.0	1156407	STOP	n/a	n/a	n/a	n/a	-999	10	[-999, -999, -999]	n/a	catFR1	3	R1493T
1152.031	2.133	1156415	DISTRACT_END	n/a	n/a	n/a	n/a	-999	10	[0, 0, 0]	n/a	catFR1	3	R1493T
1154.164	4.318	1158549	REC_START	n/a	n/a	n/a	n/a	-999	10	[0, 0, 0]	n/a	catFR1	3	R1493T
1158.482	1.896	1162858	REC_WORD	4.318	n/a	MOUNTAIN	Landscapes	1	10	[0, 0, 0]	n/a	catFR1	3	R1493T
1160.378	24.023	1164754	REC_WORD_VV	6.214	n/a	<>	n/a	-999	10	[0, 0, 0]	n/a	catFR1	3	R1493T
1184.401	4.313	1188783	REC_END	n/a	n/a	n/a	n/a	-999	10	[0, 0, 0]	n/a	catFR1	3	R1493T
1188.714	10.0	1193091	COUNTDOWN_START	n/a	n/a	n/a	n/a	-999	11	[0, 0, 0]	n/a	catFR1	3	R1493T
1199.065	0.0	1203436	COUNTDOWN_END	n/a	n/a	n/a	n/a	-999	11	[0, 0, 0]	n/a	catFR1	3	R1493T
1199.065	2.266	1203450	ENCODING_START	n/a	n/a	n/a	n/a	-999	11	[0, 0, 0]	n/a	catFR1	3	R1493T
1201.331	1.6	1205704	WORD	n/a	wordpools/wordpool_categorized_EN.txt	HUMIDITY	Weather	1	11	[0, 0, 0]	n/a	catFR1	3	R1493T
1202.931	0.783	1207305	WORD_OFF	n/a	n/a	HUMIDITY	Weather	1	11	[0, 0, 0]	n/a	catFR1	3	R1493T
1203.714	1.6	1208084	WORD	n/a	wordpools/wordpool_categorized_EN.txt	CLOUD	Weather	2	11	[0, 0, 0]	n/a	catFR1	3	R1493T
1205.315	0.949	1209686	WORD_OFF	n/a	n/a	CLOUD	Weather	2	11	[0, 0, 0]	n/a	catFR1	3	R1493T
1206.264	1.6	1210635	WORD	n/a	wordpools/wordpool_categorized_EN.txt	RIVER	Landscapes	3	11	[0, 0, 0]	n/a	catFR1	3	R1493T
1207.881	0.9	1212251	WORD_OFF	n/a	n/a	RIVER	Landscapes	3	11	[0, 0, 0]	n/a	catFR1	3	R1493T
1208.781	1.6	1213158	WORD	n/a	wordpools/wordpool_categorized_EN.txt	OCEAN	Landscapes	4	11	[0, 0, 0]	n/a	catFR1	3	R1493T
1210.398	0.95	1214773	WORD_OFF	n/a	n/a	OCEAN	Landscapes	4	11	[0, 0, 0]	n/a	catFR1	3	R1493T
1211.348	1.6	1215723	WORD	n/a	wordpools/wordpool_categorized_EN.txt	TELEVISION	Electronics	5	11	[0, 0, 0]	n/a	catFR1	3	R1493T
1212.948	0.95	1217324	WORD_OFF	n/a	n/a	TELEVISION	Electronics	5	11	[0, 0, 0]	n/a	catFR1	3	R1493T
1213.898	1.6	1218274	WORD	n/a	wordpools/wordpool_categorized_EN.txt	COMPUTER	Electronics	6	11	[0, 0, 0]	n/a	catFR1	3	R1493T
1215.514	0.934	1219889	WORD_OFF	n/a	n/a	COMPUTER	Electronics	6	11	[0, 0, 0]	n/a	catFR1	3	R1493T
1216.448	1.6	1220824	WORD	n/a	wordpools/wordpool_categorized_EN.txt	VALLEY	Landscapes	7	11	[0, 0, 0]	n/a	catFR1	3	R1493T
1218.048	0.983	1222426	WORD_OFF	n/a	n/a	VALLEY	Landscapes	7	11	[0, 0, 0]	n/a	catFR1	3	R1493T
1219.031	1.6	1223404	WORD	n/a	wordpools/wordpool_categorized_EN.txt	BEACH	Landscapes	8	11	[0, 0, 0]	n/a	catFR1	3	R1493T
1220.631	0.899	1225005	WORD_OFF	n/a	n/a	BEACH	Landscapes	8	11	[0, 0, 0]	n/a	catFR1	3	R1493T
1221.53	1.6	1225912	WORD	n/a	wordpools/wordpool_categorized_EN.txt	PRINTER	Electronics	9	11	[0, 0, 0]	n/a	catFR1	3	R1493T
1223.131	0.852	1227499	WORD_OFF	n/a	n/a	PRINTER	Electronics	9	11	[0, 0, 0]	n/a	catFR1	3	R1493T
1223.983	1.6	1228364	WORD	n/a	wordpools/wordpool_categorized_EN.txt	CALCULATOR	Electronics	10	11	[0, 0, 0]	n/a	catFR1	3	R1493T
1225.597	0.801	1229979	WORD_OFF	n/a	n/a	CALCULATOR	Electronics	10	11	[0, 0, 0]	n/a	catFR1	3	R1493T
1226.398	1.6	1230773	WORD	n/a	wordpools/wordpool_categorized_EN.txt	THUNDER	Weather	11	11	[0, 0, 0]	n/a	catFR1	3	R1493T
1228.015	0.883	1232388	WORD_OFF	n/a	n/a	THUNDER	Weather	11	11	[0, 0, 0]	n/a	catFR1	3	R1493T
1228.898	1.6	1233267	WORD	n/a	wordpools/wordpool_categorized_EN.txt	HURRICANE	Weather	12	11	[0, 0, 0]	n/a	catFR1	3	R1493T
1230.498	0.001	1234868	WORD_OFF	n/a	n/a	HURRICANE	Weather	12	11	[0, 0, 0]	n/a	catFR1	3	R1493T
1230.499	0.0	1234871	START	n/a	n/a	n/a	n/a	-999	11	[-999, -999, -999]	n/a	catFR1	3	R1493T
1230.499	0.0	1234871	PROB	8.699	n/a	n/a	n/a	-999	11	[7, 1, 7]	15.0	catFR1	3	R1493T
1230.499	0.0	1234882	ENCODING_END	n/a	n/a	n/a	n/a	-999	11	[0, 0, 0]	n/a	catFR1	3	R1493T
1230.499	8.717	1234882	DISTRACT_START	n/a	n/a	n/a	n/a	-999	11	[0, 0, 0]	n/a	catFR1	3	R1493T
1239.216	7.782	1243588	PROB	7.767	n/a	n/a	n/a	-999	11	[6, 5, 6]	17.0	catFR1	3	R1493T
1246.998	11.116	1251369	PROB	11.1	n/a	n/a	n/a	-999	11	[5, 6, 7]	18.0	catFR1	3	R1493T
1258.114	0.0	1262485	STOP	n/a	n/a	n/a	n/a	-999	11	[-999, -999, -999]	n/a	catFR1	3	R1493T
1258.114	2.234	1262488	DISTRACT_END	n/a	n/a	n/a	n/a	-999	11	[0, 0, 0]	n/a	catFR1	3	R1493T
1260.348	1.891	1264721	REC_START	n/a	n/a	n/a	n/a	-999	11	[0, 0, 0]	n/a	catFR1	3	R1493T
1262.239	28.034	1266610	REC_WORD	1.891	n/a	MOUNTAIN	Landscapes	-999	11	[0, 0, 0]	n/a	catFR1	3	R1493T
1290.273	0.306	1294642	REC_WORD_VV	29.925	n/a	<>	n/a	-999	11	[0, 0, 0]	n/a	catFR1	3	R1493T
1290.579	6.502	1294955	REC_END	n/a	n/a	n/a	n/a	-999	11	[0, 0, 0]	n/a	catFR1	3	R1493T
1297.081	10.0	1301460	COUNTDOWN_START	n/a	n/a	n/a	n/a	-999	12	[0, 0, 0]	n/a	catFR1	3	R1493T
1307.431	0.0	1311805	COUNTDOWN_END	n/a	n/a	n/a	n/a	-999	12	[0, 0, 0]	n/a	catFR1	3	R1493T
1307.431	2.367	1311805	ENCODING_START	n/a	n/a	n/a	n/a	-999	12	[0, 0, 0]	n/a	catFR1	3	R1493T
1309.798	1.6	1314172	WORD	n/a	wordpools/wordpool_categorized_EN.txt	DOLL	Toys	1	12	[0, 0, 0]	n/a	catFR1	3	R1493T
1311.398	0.799	1315773	WORD_OFF	n/a	n/a	DOLL	Toys	1	12	[0, 0, 0]	n/a	catFR1	3	R1493T
1312.197	1.6	1316567	WORD	n/a	wordpools/wordpool_categorized_EN.txt	FOOTBALL	Toys	2	12	[0, 0, 0]	n/a	catFR1	3	R1493T
1313.798	0.784	1318168	WORD_OFF	n/a	n/a	FOOTBALL	Toys	2	12	[0, 0, 0]	n/a	catFR1	3	R1493T
1314.582	1.6	1318947	WORD	n/a	wordpools/wordpool_categorized_EN.txt	BANJO	Instruments	3	12	[0, 0, 0]	n/a	catFR1	3	R1493T
1316.198	0.783	1320563	WORD_OFF	n/a	n/a	BANJO	Instruments	3	12	[0, 0, 0]	n/a	catFR1	3	R1493T
1316.981	1.6	1321356	WORD	n/a	wordpools/wordpool_categorized_EN.txt	TROMBONE	Instruments	4	12	[0, 0, 0]	n/a	catFR1	3	R1493T
1318.581	0.884	1322958	WORD_OFF	n/a	n/a	TROMBONE	Instruments	4	12	[0, 0, 0]	n/a	catFR1	3	R1493T
1319.465	1.6	1323836	WORD	n/a	wordpools/wordpool_categorized_EN.txt	HILLS	Landscapes	5	12	[0, 0, 0]	n/a	catFR1	3	R1493T
1321.081	0.933	1325452	WORD_OFF	n/a	n/a	HILLS	Landscapes	5	12	[0, 0, 0]	n/a	catFR1	3	R1493T
1322.014	1.6	1326387	WORD	n/a	wordpools/wordpool_categorized_EN.txt	FOREST	Landscapes	6	12	[0, 0, 0]	n/a	catFR1	3	R1493T
1323.617	0.863	1327989	WORD_OFF	n/a	n/a	FOREST	Landscapes	6	12	[0, 0, 0]	n/a	catFR1	3	R1493T
1324.48	1.6	1328853	WORD	n/a	wordpools/wordpool_categorized_EN.txt	GUITAR	Instruments	7	12	[0, 0, 0]	n/a	catFR1	3	R1493T
1326.081	0.85	1330454	WORD_OFF	n/a	n/a	GUITAR	Instruments	7	12	[0, 0, 0]	n/a	catFR1	3	R1493T
1326.931	1.6	1331305	WORD	n/a	wordpools/wordpool_categorized_EN.txt	TUBA	Instruments	8	12	[0, 0, 0]	n/a	catFR1	3	R1493T
1328.531	0.967	1332906	WORD_OFF	n/a	n/a	TUBA	Instruments	8	12	[0, 0, 0]	n/a	catFR1	3	R1493T
1329.498	1.6	1333870	WORD	n/a	wordpools/wordpool_categorized_EN.txt	ISLAND	Landscapes	9	12	[0, 0, 0]	n/a	catFR1	3	R1493T
1331.098	0.849	1335471	WORD_OFF	n/a	n/a	ISLAND	Landscapes	9	12	[0, 0, 0]	n/a	catFR1	3	R1493T
1331.947	1.6	1336321	WORD	n/a	wordpools/wordpool_categorized_EN.txt	CREEK	Landscapes	10	12	[0, 0, 0]	n/a	catFR1	3	R1493T
1333.548	0.783	1337923	WORD_OFF	n/a	n/a	CREEK	Landscapes	10	12	[0, 0, 0]	n/a	catFR1	3	R1493T
1334.331	1.6	1338702	WORD	n/a	wordpools/wordpool_categorized_EN.txt	BALL	Toys	11	12	[0, 0, 0]	n/a	catFR1	3	R1493T
1335.931	0.783	1340304	WORD_OFF	n/a	n/a	BALL	Toys	11	12	[0, 0, 0]	n/a	catFR1	3	R1493T
1336.714	1.6	1341083	WORD	n/a	wordpools/wordpool_categorized_EN.txt	MARBLES	Toys	12	12	[0, 0, 0]	n/a	catFR1	3	R1493T
1338.331	0.0	1342698	PROB	7.933	n/a	n/a	n/a	-999	12	[2, 5, 8]	15.0	catFR1	3	R1493T
1338.331	0.004	1342699	WORD_OFF	n/a	n/a	MARBLES	Toys	12	12	[0, 0, 0]	n/a	catFR1	3	R1493T
1338.335	0.0	1342699	ENCODING_END	n/a	n/a	n/a	n/a	-999	12	[0, 0, 0]	n/a	catFR1	3	R1493T
1338.335	0.0	1342699	DISTRACT_START	n/a	n/a	n/a	n/a	-999	12	[0, 0, 0]	n/a	catFR1	3	R1493T
1338.335	7.946	1342702	START	n/a	n/a	n/a	n/a	-999	12	[-999, -999, -999]	n/a	catFR1	3	R1493T
1346.281	5.766	1350647	PROB	5.75	n/a	n/a	n/a	-999	12	[4, 3, 4]	11.0	catFR1	3	R1493T
1352.047	9.751	1356413	PROB	9.734	n/a	n/a	n/a	-999	12	[3, 3, 4]	10.0	catFR1	3	R1493T
1361.798	0.0	1366164	STOP	n/a	n/a	n/a	n/a	-999	12	[-999, -999, -999]	n/a	catFR1	3	R1493T
1361.798	2.15	1366166	DISTRACT_END	n/a	n/a	n/a	n/a	-999	12	[0, 0, 0]	n/a	catFR1	3	R1493T
1363.948	30.011	1368314	REC_START	n/a	n/a	n/a	n/a	-999	12	[0, 0, 0]	n/a	catFR1	3	R1493T
1393.959	0.242	1398323	REC_WORD_VV	30.011	n/a	<>	n/a	-999	12	[0, 0, 0]	n/a	catFR1	3	R1493T
1394.201	0.0	1398562	REC_END	n/a	n/a	n/a	n/a	-999	12	[0, 0, 0]	n/a	catFR1	3	R1493T
