onset	duration	sample	trial_type	response_time	stim_file	item_name	category	serialpos	list	test	answer	experiment	session	subject
0.0	0.0	9675	INSTRUCT_START	n/a	n/a	n/a	n/a	-999	-999	[0, 0, 0]	n/a	catFR1	1	R1202M
0.0	10.939	9675	INSTRUCT_END	n/a	n/a	n/a	n/a	-999	-999	[0, 0, 0]	n/a	catFR1	1	R1202M
10.939	0.0	20613	SESS_START	n/a	n/a	n/a	n/a	-999	-999	[0, 0, 0]	n/a	catFR1	1	R1202M
10.939	52.0	20613	MIC_TEST	n/a	n/a	n/a	n/a	-999	-999	[0, 0, 0]	n/a	catFR1	1	R1202M
62.939	2.54	72610	PRACTICE_TRIAL	n/a	n/a	n/a	n/a	-999	-1	[0, 0, 0]	n/a	catFR1	1	R1202M
65.479	10.428	75150	COUNTDOWN_START	n/a	n/a	n/a	n/a	-999	-1	[0, 0, 0]	n/a	catFR1	1	R1202M
75.907	0.009	85577	COUNTDOWN_END	n/a	n/a	n/a	n/a	-999	-1	[0, 0, 0]	n/a	catFR1	1	R1202M
75.916	1.616	85586	PRACTICE_ORIENT	n/a	n/a	n/a	n/a	-999	-1	[0, 0, 0]	n/a	catFR1	1	R1202M
77.532	2.267	87202	PRACTICE_ORIENT_OFF	n/a	n/a	n/a	n/a	-999	-1	[0, 0, 0]	n/a	catFR1	1	R1202M
79.799	1.617	89469	PRACTICE_WORD	n/a	n/a	ATTIC	n/a	-1	-1	[0, 0, 0]	n/a	catFR1	1	R1202M
81.416	0.767	91086	PRACTICE_WORD_OFF	n/a	n/a	ATTIC	n/a	-999	-1	[0, 0, 0]	n/a	catFR1	1	R1202M
82.183	1.617	91853	PRACTICE_WORD	n/a	n/a	IRON	n/a	-1	-1	[0, 0, 0]	n/a	catFR1	1	R1202M
83.8	0.766	93470	PRACTICE_WORD_OFF	n/a	n/a	IRON	n/a	-999	-1	[0, 0, 0]	n/a	catFR1	1	R1202M
84.566	1.617	94236	PRACTICE_WORD	n/a	n/a	COTTON	n/a	-1	-1	[0, 0, 0]	n/a	catFR1	1	R1202M
86.183	0.867	95853	PRACTICE_WORD_OFF	n/a	n/a	COTTON	n/a	-999	-1	[0, 0, 0]	n/a	catFR1	1	R1202M
87.05	1.617	96720	PRACTICE_WORD	n/a	n/a	RING	n/a	-1	-1	[0, 0, 0]	n/a	catFR1	1	R1202M
88.667	0.884	98337	PRACTICE_WORD_OFF	n/a	n/a	RING	n/a	-999	-1	[0, 0, 0]	n/a	catFR1	1	R1202M
89.551	1.617	99221	PRACTICE_WORD	n/a	n/a	CAMEL	n/a	-1	-1	[0, 0, 0]	n/a	catFR1	1	R1202M
91.168	0.768	100838	PRACTICE_WORD_OFF	n/a	n/a	CAMEL	n/a	-999	-1	[0, 0, 0]	n/a	catFR1	1	R1202M
91.936	1.616	101606	PRACTICE_WORD	n/a	n/a	WATCH	n/a	-1	-1	[0, 0, 0]	n/a	catFR1	1	R1202M
93.552	0.9	103221	PRACTICE_WORD_OFF	n/a	n/a	WATCH	n/a	-999	-1	[0, 0, 0]	n/a	catFR1	1	R1202M
94.452	1.617	104121	PRACTICE_WORD	n/a	n/a	WAGON	n/a	-1	-1	[0, 0, 0]	n/a	catFR1	1	R1202M
96.069	0.834	105738	PRACTICE_WORD_OFF	n/a	n/a	WAGON	n/a	-999	-1	[0, 0, 0]	n/a	catFR1	1	R1202M
96.903	1.616	106572	PRACTICE_WORD	n/a	n/a	FLOOD	n/a	-1	-1	[0, 0, 0]	n/a	catFR1	1	R1202M
98.519	0.883	108188	PRACTICE_WORD_OFF	n/a	n/a	FLOOD	n/a	-999	-1	[0, 0, 0]	n/a	catFR1	1	R1202M
99.402	1.618	109071	PRACTICE_WORD	n/a	n/a	BEAM	n/a	-1	-1	[0, 0, 0]	n/a	catFR1	1	R1202M
101.02	0.901	110689	PRACTICE_WORD_OFF	n/a	n/a	BEAM	n/a	-999	-1	[0, 0, 0]	n/a	catFR1	1	R1202M
101.921	1.616	111590	PRACTICE_WORD	n/a	n/a	CHEST	n/a	-1	-1	[0, 0, 0]	n/a	catFR1	1	R1202M
103.537	0.833	113206	PRACTICE_WORD_OFF	n/a	n/a	CHEST	n/a	-999	-1	[0, 0, 0]	n/a	catFR1	1	R1202M
104.37	1.617	114039	PRACTICE_WORD	n/a	n/a	TONGUE	n/a	-1	-1	[0, 0, 0]	n/a	catFR1	1	R1202M
105.987	0.867	115656	PRACTICE_WORD_OFF	n/a	n/a	TONGUE	n/a	-999	-1	[0, 0, 0]	n/a	catFR1	1	R1202M
106.854	1.617	116523	PRACTICE_WORD	n/a	n/a	RHINO	n/a	-1	-1	[0, 0, 0]	n/a	catFR1	1	R1202M
108.471	0.0	118140	ENCODING_END	n/a	n/a	n/a	n/a	-999	-1	[0, 0, 0]	n/a	catFR1	1	R1202M
108.471	0.001	118140	PRACTICE_WORD_OFF	n/a	n/a	RHINO	n/a	-999	-1	[0, 0, 0]	n/a	catFR1	1	R1202M
108.472	0.0	118141	DISTRACT_START	n/a	n/a	n/a	n/a	-999	-1	[0, 0, 0]	n/a	catFR1	1	R1202M
108.472	0.033	118141	START	n/a	n/a	n/a	n/a	-999	-1	[-999, -999, -999]	n/a	catFR1	1	R1202M
108.505	4.184	118174	PROB	4.157	n/a	n/a	n/a	-999	-1	[9, 1, 8]	18.0	catFR1	1	R1202M
112.689	4.417	122357	PROB	4.389	n/a	n/a	n/a	-999	-1	[8, 4, 6]	18.0	catFR1	1	R1202M
117.106	3.634	126774	PROB	3.605	n/a	n/a	n/a	-999	-1	[1, 4, 1]	6.0	catFR1	1	R1202M
120.74	2.518	130408	PROB	2.467	n/a	n/a	n/a	-999	-1	[6, 1, 5]	12.0	catFR1	1	R1202M
123.258	6.236	132926	PROB	6.236	n/a	n/a	n/a	-999	-1	[2, 3, 1]	6.0	catFR1	1	R1202M
129.494	0.015	139162	STOP	n/a	n/a	n/a	n/a	-999	-1	[-999, -999, -999]	n/a	catFR1	1	R1202M
129.509	0.516	139177	DISTRACT_END	n/a	n/a	n/a	n/a	-999	-1	[0, 0, 0]	n/a	catFR1	1	R1202M
130.025	0.518	139693	RETRIEVAL_ORIENT	n/a	n/a	n/a	n/a	-999	-1	[0, 0, 0]	n/a	catFR1	1	R1202M
130.543	30.013	140210	PRACTICE_REC_START	n/a	n/a	n/a	n/a	-999	-1	[0, 0, 0]	n/a	catFR1	1	R1202M
160.556	12.044	170222	PRACTICE_REC_END	n/a	n/a	n/a	n/a	-999	-1	[0, 0, 0]	n/a	catFR1	1	R1202M
172.6	0.5	182265	TRIAL	n/a	n/a	n/a	n/a	-999	1	[0, 0, 0]	n/a	catFR1	1	R1202M
173.1	10.428	182765	COUNTDOWN_START	n/a	n/a	n/a	n/a	-999	1	[0, 0, 0]	n/a	catFR1	1	R1202M
183.528	0.008	193193	COUNTDOWN_END	n/a	n/a	n/a	n/a	-999	1	[0, 0, 0]	n/a	catFR1	1	R1202M
183.536	1.617	193201	ORIENT	n/a	n/a	n/a	n/a	-999	1	[0, 0, 0]	n/a	catFR1	1	R1202M
185.153	2.1	194818	ORIENT_OFF	n/a	n/a	n/a	n/a	-999	1	[0, 0, 0]	n/a	catFR1	1	R1202M
187.253	1.617	196917	WORD	n/a	wordpools/wordpool_categorized_EN.txt	CUCUMBER	Vegetables	1	1	[0, 0, 0]	n/a	catFR1	1	R1202M
188.87	0.834	198534	WORD_OFF	n/a	n/a	CUCUMBER	n/a	1	1	[0, 0, 0]	n/a	catFR1	1	R1202M
189.704	1.617	199368	WORD	n/a	wordpools/wordpool_categorized_EN.txt	CAULIFLOWER	Vegetables	2	1	[0, 0, 0]	n/a	catFR1	1	R1202M
191.321	0.983	200985	WORD_OFF	n/a	n/a	CAULIFLOWER	n/a	2	1	[0, 0, 0]	n/a	catFR1	1	R1202M
192.304	1.619	201968	WORD	n/a	wordpools/wordpool_categorized_EN.txt	CEILING	Building	3	1	[0, 0, 0]	n/a	catFR1	1	R1202M
193.923	0.983	203587	WORD_OFF	n/a	n/a	CEILING	n/a	3	1	[0, 0, 0]	n/a	catFR1	1	R1202M
194.906	1.616	204570	WORD	n/a	wordpools/wordpool_categorized_EN.txt	FLOOR	Building	4	1	[0, 0, 0]	n/a	catFR1	1	R1202M
196.522	0.85	206186	WORD_OFF	n/a	n/a	FLOOR	n/a	4	1	[0, 0, 0]	n/a	catFR1	1	R1202M
197.372	1.617	207036	WORD	n/a	wordpools/wordpool_categorized_EN.txt	BASEBALL	Toys	5	1	[0, 0, 0]	n/a	catFR1	1	R1202M
198.989	0.8	208653	WORD_OFF	n/a	n/a	BASEBALL	n/a	5	1	[0, 0, 0]	n/a	catFR1	1	R1202M
199.789	1.617	209453	WORD	n/a	wordpools/wordpool_categorized_EN.txt	FRISBEE	Toys	6	1	[0, 0, 0]	n/a	catFR1	1	R1202M
201.406	0.95	211070	WORD_OFF	n/a	n/a	FRISBEE	n/a	6	1	[0, 0, 0]	n/a	catFR1	1	R1202M
202.356	1.601	212020	WORD	n/a	wordpools/wordpool_categorized_EN.txt	FOUNDATION	Building	7	1	[0, 0, 0]	n/a	catFR1	1	R1202M
203.957	0.8	213620	WORD_OFF	n/a	n/a	FOUNDATION	n/a	7	1	[0, 0, 0]	n/a	catFR1	1	R1202M
204.757	1.617	214420	WORD	n/a	wordpools/wordpool_categorized_EN.txt	WALL	Building	8	1	[0, 0, 0]	n/a	catFR1	1	R1202M
206.374	0.85	216037	WORD_OFF	n/a	n/a	WALL	n/a	8	1	[0, 0, 0]	n/a	catFR1	1	R1202M
207.224	1.617	216887	WORD	n/a	wordpools/wordpool_categorized_EN.txt	CARROT	Vegetables	9	1	[0, 0, 0]	n/a	catFR1	1	R1202M
208.841	0.784	218504	WORD_OFF	n/a	n/a	CARROT	n/a	9	1	[0, 0, 0]	n/a	catFR1	1	R1202M
209.625	1.617	219288	WORD	n/a	wordpools/wordpool_categorized_EN.txt	CORN	Vegetables	10	1	[0, 0, 0]	n/a	catFR1	1	R1202M
211.242	0.833	220905	WORD_OFF	n/a	n/a	CORN	n/a	10	1	[0, 0, 0]	n/a	catFR1	1	R1202M
212.075	1.617	221738	WORD	n/a	wordpools/wordpool_categorized_EN.txt	BARBIE	Toys	11	1	[0, 0, 0]	n/a	catFR1	1	R1202M
213.692	0.95	223355	WORD_OFF	n/a	n/a	BARBIE	n/a	11	1	[0, 0, 0]	n/a	catFR1	1	R1202M
214.642	1.617	224305	WORD	n/a	wordpools/wordpool_categorized_EN.txt	SLINKY	Toys	12	1	[0, 0, 0]	n/a	catFR1	1	R1202M
216.259	0.0	225922	ENCODING_END	n/a	n/a	n/a	n/a	-999	1	[0, 0, 0]	n/a	catFR1	1	R1202M
216.259	0.133	225922	WORD_OFF	n/a	n/a	SLINKY	n/a	12	1	[0, 0, 0]	n/a	catFR1	1	R1202M
216.392	0.0	226055	DISTRACT_START	n/a	n/a	n/a	n/a	-999	1	[0, 0, 0]	n/a	catFR1	1	R1202M
216.392	0.017	226055	START	n/a	n/a	n/a	n/a	-999	1	[-999, -999, -999]	n/a	catFR1	1	R1202M
216.409	8.352	226072	PROB	8.325	n/a	n/a	n/a	-999	1	[9, 8, 2]	20.0	catFR1	1	R1202M
224.761	4.367	234423	PROB	4.342	n/a	n/a	n/a	-999	1	[6, 9, 7]	22.0	catFR1	1	R1202M
229.128	6.085	238790	PROB	6.03	n/a	n/a	n/a	-999	1	[9, 2, 8]	19.0	catFR1	1	R1202M
235.213	3.098	244875	PROB	3.098	n/a	n/a	n/a	-999	1	[5, 3, 2]	10.0	catFR1	1	R1202M
238.311	0.019	247973	STOP	n/a	n/a	n/a	n/a	-999	1	[-999, -999, -999]	n/a	catFR1	1	R1202M
238.33	0.601	247992	DISTRACT_END	n/a	n/a	n/a	n/a	-999	1	[0, 0, 0]	n/a	catFR1	1	R1202M
238.931	0.517	248593	RETRIEVAL_ORIENT	n/a	n/a	n/a	n/a	-999	1	[0, 0, 0]	n/a	catFR1	1	R1202M
239.448	1.783	249110	REC_START	n/a	n/a	n/a	n/a	-999	1	[0, 0, 0]	n/a	catFR1	1	R1202M
241.231	2.618	250892	REC_WORD	1.783	n/a	FOUNDATION	Building	7	1	[0, 0, 0]	n/a	catFR1	1	R1202M
243.849	11.93	253510	REC_WORD	4.401	n/a	WALL	Building	8	1	[0, 0, 0]	n/a	catFR1	1	R1202M
255.779	9.158	265440	REC_WORD	16.331	n/a	ATTIC	n/a	-999	1	[0, 0, 0]	n/a	catFR1	1	R1202M
264.937	4.521	274597	REC_WORD	25.489	n/a	FRISBEE	Toys	6	1	[0, 0, 0]	n/a	catFR1	1	R1202M
269.458	4.996	279118	REC_END	n/a	n/a	n/a	n/a	-999	1	[0, 0, 0]	n/a	catFR1	1	R1202M
274.454	0.5	284114	TRIAL	n/a	n/a	n/a	n/a	-999	2	[0, 0, 0]	n/a	catFR1	1	R1202M
274.954	10.428	284614	COUNTDOWN_START	n/a	n/a	n/a	n/a	-999	2	[0, 0, 0]	n/a	catFR1	1	R1202M
285.382	0.008	295041	COUNTDOWN_END	n/a	n/a	n/a	n/a	-999	2	[0, 0, 0]	n/a	catFR1	1	R1202M
285.39	1.617	295049	ORIENT	n/a	n/a	n/a	n/a	-999	2	[0, 0, 0]	n/a	catFR1	1	R1202M
287.007	2.417	296666	ORIENT_OFF	n/a	n/a	n/a	n/a	-999	2	[0, 0, 0]	n/a	catFR1	1	R1202M
289.424	1.617	299083	WORD	n/a	wordpools/wordpool_categorized_EN.txt	DOLL	Toys	1	2	[0, 0, 0]	n/a	catFR1	1	R1202M
291.041	0.983	300700	WORD_OFF	n/a	n/a	DOLL	n/a	1	2	[0, 0, 0]	n/a	catFR1	1	R1202M
292.024	1.617	301683	WORD	n/a	wordpools/wordpool_categorized_EN.txt	FOOTBALL	Toys	2	2	[0, 0, 0]	n/a	catFR1	1	R1202M
293.641	0.884	303300	WORD_OFF	n/a	n/a	FOOTBALL	n/a	2	2	[0, 0, 0]	n/a	catFR1	1	R1202M
294.525	1.617	304184	WORD	n/a	wordpools/wordpool_categorized_EN.txt	MOTH	Insects	3	2	[0, 0, 0]	n/a	catFR1	1	R1202M
296.142	0.9	305800	WORD_OFF	n/a	n/a	MOTH	n/a	3	2	[0, 0, 0]	n/a	catFR1	1	R1202M
297.042	1.617	306700	WORD	n/a	wordpools/wordpool_categorized_EN.txt	BEETLE	Insects	4	2	[0, 0, 0]	n/a	catFR1	1	R1202M
298.659	0.867	308317	WORD_OFF	n/a	n/a	BEETLE	n/a	4	2	[0, 0, 0]	n/a	catFR1	1	R1202M
299.526	1.617	309184	WORD	n/a	wordpools/wordpool_categorized_EN.txt	PEN	OfficeSupplies	5	2	[0, 0, 0]	n/a	catFR1	1	R1202M
301.143	0.917	310801	WORD_OFF	n/a	n/a	PEN	n/a	5	2	[0, 0, 0]	n/a	catFR1	1	R1202M
302.06	1.616	311718	WORD	n/a	wordpools/wordpool_categorized_EN.txt	NOTEBOOK	OfficeSupplies	6	2	[0, 0, 0]	n/a	catFR1	1	R1202M
303.676	0.934	313334	WORD_OFF	n/a	n/a	NOTEBOOK	n/a	6	2	[0, 0, 0]	n/a	catFR1	1	R1202M
304.61	1.617	314268	WORD	n/a	wordpools/wordpool_categorized_EN.txt	ANT	Insects	7	2	[0, 0, 0]	n/a	catFR1	1	R1202M
306.227	0.8	315885	WORD_OFF	n/a	n/a	ANT	n/a	7	2	[0, 0, 0]	n/a	catFR1	1	R1202M
307.027	1.617	316685	WORD	n/a	wordpools/wordpool_categorized_EN.txt	GNAT	Insects	8	2	[0, 0, 0]	n/a	catFR1	1	R1202M
308.644	0.767	318302	WORD_OFF	n/a	n/a	GNAT	n/a	8	2	[0, 0, 0]	n/a	catFR1	1	R1202M
309.411	1.617	319069	WORD	n/a	wordpools/wordpool_categorized_EN.txt	BALL	Toys	9	2	[0, 0, 0]	n/a	catFR1	1	R1202M
311.028	1.0	320686	WORD_OFF	n/a	n/a	BALL	n/a	9	2	[0, 0, 0]	n/a	catFR1	1	R1202M
312.028	1.617	321686	WORD	n/a	wordpools/wordpool_categorized_EN.txt	BASKETBALL	Toys	10	2	[0, 0, 0]	n/a	catFR1	1	R1202M
313.645	0.967	323303	WORD_OFF	n/a	n/a	BASKETBALL	n/a	10	2	[0, 0, 0]	n/a	catFR1	1	R1202M
314.612	1.617	324269	WORD	n/a	wordpools/wordpool_categorized_EN.txt	STAPLER	OfficeSupplies	11	2	[0, 0, 0]	n/a	catFR1	1	R1202M
316.229	0.983	325886	WORD_OFF	n/a	n/a	STAPLER	n/a	11	2	[0, 0, 0]	n/a	catFR1	1	R1202M
317.212	1.617	326869	WORD	n/a	wordpools/wordpool_categorized_EN.txt	GLUE	OfficeSupplies	12	2	[0, 0, 0]	n/a	catFR1	1	R1202M
318.829	0.001	328486	WORD_OFF	n/a	n/a	GLUE	n/a	12	2	[0, 0, 0]	n/a	catFR1	1	R1202M
318.83	0.107	328487	ENCODING_END	n/a	n/a	n/a	n/a	-999	2	[0, 0, 0]	n/a	catFR1	1	R1202M
318.937	0.0	328594	DISTRACT_START	n/a	n/a	n/a	n/a	-999	2	[0, 0, 0]	n/a	catFR1	1	R1202M
318.937	0.01	328594	START	n/a	n/a	n/a	n/a	-999	2	[-999, -999, -999]	n/a	catFR1	1	R1202M
318.947	3.5	328604	PROB	3.468	n/a	n/a	n/a	-999	2	[8, 4, 1]	13.0	catFR1	1	R1202M
322.447	5.519	332104	PROB	5.464	n/a	n/a	n/a	-999	2	[7, 4, 1]	12.0	catFR1	1	R1202M
327.966	4.166	337623	PROB	4.112	n/a	n/a	n/a	-999	2	[2, 7, 1]	10.0	catFR1	1	R1202M
332.132	2.651	341788	PROB	2.618	n/a	n/a	n/a	-999	2	[5, 6, 2]	13.0	catFR1	1	R1202M
334.783	4.519	344439	PROB	4.519	n/a	n/a	n/a	-999	2	[6, 6, 5]	17.0	catFR1	1	R1202M
339.302	0.015	348958	STOP	n/a	n/a	n/a	n/a	-999	2	[-999, -999, -999]	n/a	catFR1	1	R1202M
339.317	0.601	348973	DISTRACT_END	n/a	n/a	n/a	n/a	-999	2	[0, 0, 0]	n/a	catFR1	1	R1202M
339.918	0.516	349574	RETRIEVAL_ORIENT	n/a	n/a	n/a	n/a	-999	2	[0, 0, 0]	n/a	catFR1	1	R1202M
340.434	2.038	350090	REC_START	n/a	n/a	n/a	n/a	-999	2	[0, 0, 0]	n/a	catFR1	1	R1202M
342.472	2.723	352128	REC_WORD	2.038	n/a	DOLL	Toys	1	2	[0, 0, 0]	n/a	catFR1	1	R1202M
345.195	2.996	354851	REC_WORD	4.761	n/a	MOTH	Insects	3	2	[0, 0, 0]	n/a	catFR1	1	R1202M
348.191	4.51	357847	REC_WORD	7.757	n/a	FOOTBALL	Toys	2	2	[0, 0, 0]	n/a	catFR1	1	R1202M
352.701	3.543	362356	REC_WORD	12.267	n/a	GNAT	Insects	8	2	[0, 0, 0]	n/a	catFR1	1	R1202M
356.244	12.866	365899	REC_WORD	15.81	n/a	BASEBALL	n/a	-999	2	[0, 0, 0]	n/a	catFR1	1	R1202M
369.11	1.336	378764	REC_WORD	28.676	n/a	BEETLE	Insects	4	2	[0, 0, 0]	n/a	catFR1	1	R1202M
370.446	4.077	380100	REC_END	n/a	n/a	n/a	n/a	-999	2	[0, 0, 0]	n/a	catFR1	1	R1202M
374.523	0.5	384177	TRIAL	n/a	n/a	n/a	n/a	-999	3	[0, 0, 0]	n/a	catFR1	1	R1202M
375.023	10.428	384677	COUNTDOWN_START	n/a	n/a	n/a	n/a	-999	3	[0, 0, 0]	n/a	catFR1	1	R1202M
385.451	0.008	395105	COUNTDOWN_END	n/a	n/a	n/a	n/a	-999	3	[0, 0, 0]	n/a	catFR1	1	R1202M
385.459	1.617	395113	ORIENT	n/a	n/a	n/a	n/a	-999	3	[0, 0, 0]	n/a	catFR1	1	R1202M
387.076	1.967	396729	ORIENT_OFF	n/a	n/a	n/a	n/a	-999	3	[0, 0, 0]	n/a	catFR1	1	R1202M
389.043	1.617	398696	WORD	n/a	wordpools/wordpool_categorized_EN.txt	LEMONADE	Beverages	1	3	[0, 0, 0]	n/a	catFR1	1	R1202M
390.66	0.984	400313	WORD_OFF	n/a	n/a	LEMONADE	n/a	1	3	[0, 0, 0]	n/a	catFR1	1	R1202M
391.644	1.617	401297	WORD	n/a	wordpools/wordpool_categorized_EN.txt	CIDER	Beverages	2	3	[0, 0, 0]	n/a	catFR1	1	R1202M
393.261	0.867	402914	WORD_OFF	n/a	n/a	CIDER	n/a	2	3	[0, 0, 0]	n/a	catFR1	1	R1202M
394.128	1.617	403781	WORD	n/a	wordpools/wordpool_categorized_EN.txt	BANANA	Fruit	3	3	[0, 0, 0]	n/a	catFR1	1	R1202M
395.745	0.866	405398	WORD_OFF	n/a	n/a	BANANA	n/a	3	3	[0, 0, 0]	n/a	catFR1	1	R1202M
396.611	1.618	406264	WORD	n/a	wordpools/wordpool_categorized_EN.txt	PLUM	Fruit	4	3	[0, 0, 0]	n/a	catFR1	1	R1202M
398.229	0.983	407882	WORD_OFF	n/a	n/a	PLUM	n/a	4	3	[0, 0, 0]	n/a	catFR1	1	R1202M
399.212	1.617	408865	WORD	n/a	wordpools/wordpool_categorized_EN.txt	PUDDING	Desserts	5	3	[0, 0, 0]	n/a	catFR1	1	R1202M
400.829	0.8	410482	WORD_OFF	n/a	n/a	PUDDING	n/a	5	3	[0, 0, 0]	n/a	catFR1	1	R1202M
401.629	1.617	411282	WORD	n/a	wordpools/wordpool_categorized_EN.txt	BROWNIES	Desserts	6	3	[0, 0, 0]	n/a	catFR1	1	R1202M
403.246	1.0	412899	WORD_OFF	n/a	n/a	BROWNIES	n/a	6	3	[0, 0, 0]	n/a	catFR1	1	R1202M
404.246	1.617	413899	WORD	n/a	wordpools/wordpool_categorized_EN.txt	ORANGE	Fruit	7	3	[0, 0, 0]	n/a	catFR1	1	R1202M
405.863	1.017	415515	WORD_OFF	n/a	n/a	ORANGE	n/a	7	3	[0, 0, 0]	n/a	catFR1	1	R1202M
406.88	1.617	416532	WORD	n/a	wordpools/wordpool_categorized_EN.txt	PEACH	Fruit	8	3	[0, 0, 0]	n/a	catFR1	1	R1202M
408.497	0.833	418149	WORD_OFF	n/a	n/a	PEACH	n/a	8	3	[0, 0, 0]	n/a	catFR1	1	R1202M
409.33	1.602	418982	WORD	n/a	wordpools/wordpool_categorized_EN.txt	TEA	Beverages	9	3	[0, 0, 0]	n/a	catFR1	1	R1202M
410.932	0.899	420584	WORD_OFF	n/a	n/a	TEA	n/a	9	3	[0, 0, 0]	n/a	catFR1	1	R1202M
411.831	1.617	421483	WORD	n/a	wordpools/wordpool_categorized_EN.txt	COLA	Beverages	10	3	[0, 0, 0]	n/a	catFR1	1	R1202M
413.448	0.784	423100	WORD_OFF	n/a	n/a	COLA	n/a	10	3	[0, 0, 0]	n/a	catFR1	1	R1202M
414.232	1.617	423884	WORD	n/a	wordpools/wordpool_categorized_EN.txt	JELLO	Desserts	11	3	[0, 0, 0]	n/a	catFR1	1	R1202M
415.849	0.9	425501	WORD_OFF	n/a	n/a	JELLO	n/a	11	3	[0, 0, 0]	n/a	catFR1	1	R1202M
416.749	1.617	426401	WORD	n/a	wordpools/wordpool_categorized_EN.txt	CAKE	Desserts	12	3	[0, 0, 0]	n/a	catFR1	1	R1202M
418.366	0.0	428018	ENCODING_END	n/a	n/a	n/a	n/a	-999	3	[0, 0, 0]	n/a	catFR1	1	R1202M
418.366	0.111	428018	WORD_OFF	n/a	n/a	CAKE	n/a	12	3	[0, 0, 0]	n/a	catFR1	1	R1202M
418.477	0.0	428129	DISTRACT_START	n/a	n/a	n/a	n/a	-999	3	[0, 0, 0]	n/a	catFR1	1	R1202M
418.477	0.022	428129	START	n/a	n/a	n/a	n/a	-999	3	[-999, -999, -999]	n/a	catFR1	1	R1202M
418.499	3.634	428151	PROB	3.611	n/a	n/a	n/a	-999	3	[2, 2, 6]	10.0	catFR1	1	R1202M
422.133	3.951	431785	PROB	3.921	n/a	n/a	n/a	-999	3	[3, 2, 4]	9.0	catFR1	1	R1202M
426.084	3.234	435735	PROB	3.202	n/a	n/a	n/a	-999	3	[9, 9, 9]	27.0	catFR1	1	R1202M
429.318	4.151	438969	PROB	4.121	n/a	n/a	n/a	-999	3	[6, 7, 1]	14.0	catFR1	1	R1202M
433.469	9.289	443120	PROB	9.289	n/a	n/a	n/a	-999	3	[6, 7, 8]	23.0	catFR1	1	R1202M
442.758	0.013	452408	STOP	n/a	n/a	n/a	n/a	-999	3	[-999, -999, -999]	n/a	catFR1	1	R1202M
442.771	0.683	452421	DISTRACT_END	n/a	n/a	n/a	n/a	-999	3	[0, 0, 0]	n/a	catFR1	1	R1202M
443.454	0.517	453104	RETRIEVAL_ORIENT	n/a	n/a	n/a	n/a	-999	3	[0, 0, 0]	n/a	catFR1	1	R1202M
443.971	2.683	453621	REC_START	n/a	n/a	n/a	n/a	-999	3	[0, 0, 0]	n/a	catFR1	1	R1202M
446.654	2.234	456304	REC_WORD	2.683	n/a	CAKE	Desserts	12	3	[0, 0, 0]	n/a	catFR1	1	R1202M
448.888	1.918	458538	REC_WORD	4.917	n/a	LEMONADE	Beverages	1	3	[0, 0, 0]	n/a	catFR1	1	R1202M
450.806	2.295	460456	REC_WORD	6.835	n/a	TEA	Beverages	9	3	[0, 0, 0]	n/a	catFR1	1	R1202M
453.101	5.548	462751	REC_WORD	9.13	n/a	CIDER	Beverages	2	3	[0, 0, 0]	n/a	catFR1	1	R1202M
458.649	3.103	468299	REC_WORD	14.678	n/a	PIE	n/a	-999	3	[0, 0, 0]	n/a	catFR1	1	R1202M
461.752	6.251	471401	REC_WORD	17.781	n/a	BROWNIES	Desserts	6	3	[0, 0, 0]	n/a	catFR1	1	R1202M
468.003	5.979	477652	REC_WORD	24.032	n/a	JUICE	n/a	-999	3	[0, 0, 0]	n/a	catFR1	1	R1202M
473.982	5.829	483631	REC_END	n/a	n/a	n/a	n/a	-999	3	[0, 0, 0]	n/a	catFR1	1	R1202M
479.811	0.5	489459	TRIAL	n/a	n/a	n/a	n/a	-999	4	[0, 0, 0]	n/a	catFR1	1	R1202M
480.311	10.428	489959	COUNTDOWN_START	n/a	n/a	n/a	n/a	-999	4	[0, 0, 0]	n/a	catFR1	1	R1202M
490.739	0.008	500387	COUNTDOWN_END	n/a	n/a	n/a	n/a	-999	4	[0, 0, 0]	n/a	catFR1	1	R1202M
490.747	1.617	500395	ORIENT	n/a	n/a	n/a	n/a	-999	4	[0, 0, 0]	n/a	catFR1	1	R1202M
492.364	1.9	502012	ORIENT_OFF	n/a	n/a	n/a	n/a	-999	4	[0, 0, 0]	n/a	catFR1	1	R1202M
494.264	1.617	503912	WORD	n/a	wordpools/wordpool_categorized_EN.txt	KNIFE	KitchenTools	1	4	[0, 0, 0]	n/a	catFR1	1	R1202M
495.881	0.817	505529	WORD_OFF	n/a	n/a	KNIFE	n/a	1	4	[0, 0, 0]	n/a	catFR1	1	R1202M
496.698	1.617	506346	WORD	n/a	wordpools/wordpool_categorized_EN.txt	STRAINER	KitchenTools	2	4	[0, 0, 0]	n/a	catFR1	1	R1202M
498.315	0.8	507962	WORD_OFF	n/a	n/a	STRAINER	n/a	2	4	[0, 0, 0]	n/a	catFR1	1	R1202M
499.115	1.617	508762	WORD	n/a	wordpools/wordpool_categorized_EN.txt	OVEN	Appliances	3	4	[0, 0, 0]	n/a	catFR1	1	R1202M
500.732	0.95	510379	WORD_OFF	n/a	n/a	OVEN	n/a	3	4	[0, 0, 0]	n/a	catFR1	1	R1202M
501.682	1.617	511329	WORD	n/a	wordpools/wordpool_categorized_EN.txt	FREEZER	Appliances	4	4	[0, 0, 0]	n/a	catFR1	1	R1202M
503.299	0.984	512946	WORD_OFF	n/a	n/a	FREEZER	n/a	4	4	[0, 0, 0]	n/a	catFR1	1	R1202M
504.283	1.618	513930	WORD	n/a	wordpools/wordpool_categorized_EN.txt	OYSTER	OceanAnimals	5	4	[0, 0, 0]	n/a	catFR1	1	R1202M
505.901	0.849	515548	WORD_OFF	n/a	n/a	OYSTER	n/a	5	4	[0, 0, 0]	n/a	catFR1	1	R1202M
506.75	1.617	516397	WORD	n/a	wordpools/wordpool_categorized_EN.txt	JELLYFISH	OceanAnimals	6	4	[0, 0, 0]	n/a	catFR1	1	R1202M
508.367	0.95	518014	WORD_OFF	n/a	n/a	JELLYFISH	n/a	6	4	[0, 0, 0]	n/a	catFR1	1	R1202M
509.317	1.618	518964	WORD	n/a	wordpools/wordpool_categorized_EN.txt	TOASTER	Appliances	7	4	[0, 0, 0]	n/a	catFR1	1	R1202M
510.935	0.766	520582	WORD_OFF	n/a	n/a	TOASTER	n/a	7	4	[0, 0, 0]	n/a	catFR1	1	R1202M
511.701	1.617	521348	WORD	n/a	wordpools/wordpool_categorized_EN.txt	BLENDER	Appliances	8	4	[0, 0, 0]	n/a	catFR1	1	R1202M
513.318	0.934	522965	WORD_OFF	n/a	n/a	BLENDER	n/a	8	4	[0, 0, 0]	n/a	catFR1	1	R1202M
514.252	1.616	523899	WORD	n/a	wordpools/wordpool_categorized_EN.txt	GRATER	KitchenTools	9	4	[0, 0, 0]	n/a	catFR1	1	R1202M
515.868	0.817	525514	WORD_OFF	n/a	n/a	GRATER	n/a	9	4	[0, 0, 0]	n/a	catFR1	1	R1202M
516.685	1.617	526331	WORD	n/a	wordpools/wordpool_categorized_EN.txt	LADLE	KitchenTools	10	4	[0, 0, 0]	n/a	catFR1	1	R1202M
518.302	0.834	527948	WORD_OFF	n/a	n/a	LADLE	n/a	10	4	[0, 0, 0]	n/a	catFR1	1	R1202M
519.136	1.617	528782	WORD	n/a	wordpools/wordpool_categorized_EN.txt	WHALE	OceanAnimals	11	4	[0, 0, 0]	n/a	catFR1	1	R1202M
520.753	0.95	530399	WORD_OFF	n/a	n/a	WHALE	n/a	11	4	[0, 0, 0]	n/a	catFR1	1	R1202M
521.703	1.617	531349	WORD	n/a	wordpools/wordpool_categorized_EN.txt	SHRIMP	OceanAnimals	12	4	[0, 0, 0]	n/a	catFR1	1	R1202M
523.32	0.0	532966	ENCODING_END	n/a	n/a	n/a	n/a	-999	4	[0, 0, 0]	n/a	catFR1	1	R1202M
523.32	0.132	532966	WORD_OFF	n/a	n/a	SHRIMP	n/a	12	4	[0, 0, 0]	n/a	catFR1	1	R1202M
523.452	0.0	533098	DISTRACT_START	n/a	n/a	n/a	n/a	-999	4	[0, 0, 0]	n/a	catFR1	1	R1202M
523.452	0.018	533098	START	n/a	n/a	n/a	n/a	-999	4	[-999, -999, -999]	n/a	catFR1	1	R1202M
523.47	4.618	533116	PROB	4.592	n/a	n/a	n/a	-999	4	[6, 1, 3]	10.0	catFR1	1	R1202M
528.088	2.583	537734	PROB	2.559	n/a	n/a	n/a	-999	4	[4, 4, 1]	9.0	catFR1	1	R1202M
530.671	4.801	540317	PROB	4.767	n/a	n/a	n/a	-999	4	[4, 8, 7]	19.0	catFR1	1	R1202M
535.472	3.134	545117	PROB	3.102	n/a	n/a	n/a	-999	4	[7, 6, 4]	17.0	catFR1	1	R1202M
538.606	5.977	548251	PROB	5.977	n/a	n/a	n/a	-999	4	[4, 4, 1]	9.0	catFR1	1	R1202M
544.583	0.008	554228	STOP	n/a	n/a	n/a	n/a	-999	4	[-999, -999, -999]	n/a	catFR1	1	R1202M
544.591	0.55	554236	DISTRACT_END	n/a	n/a	n/a	n/a	-999	4	[0, 0, 0]	n/a	catFR1	1	R1202M
545.141	0.517	554786	RETRIEVAL_ORIENT	n/a	n/a	n/a	n/a	-999	4	[0, 0, 0]	n/a	catFR1	1	R1202M
545.658	1.541	555303	REC_START	n/a	n/a	n/a	n/a	-999	4	[0, 0, 0]	n/a	catFR1	1	R1202M
547.199	2.131	556844	REC_WORD	1.541	n/a	LADLE	KitchenTools	10	4	[0, 0, 0]	n/a	catFR1	1	R1202M
549.33	5.272	558975	REC_WORD	3.672	n/a	GRATER	KitchenTools	9	4	[0, 0, 0]	n/a	catFR1	1	R1202M
554.602	2.703	564246	REC_WORD	8.944	n/a	KNIFE	KitchenTools	1	4	[0, 0, 0]	n/a	catFR1	1	R1202M
557.305	2.926	566949	REC_WORD	11.647	n/a	OVEN	Appliances	3	4	[0, 0, 0]	n/a	catFR1	1	R1202M
560.231	6.852	569875	REC_WORD	14.573	n/a	STRAINER	KitchenTools	2	4	[0, 0, 0]	n/a	catFR1	1	R1202M
567.083	3.27	576727	REC_WORD	21.425	n/a	WHALE	OceanAnimals	11	4	[0, 0, 0]	n/a	catFR1	1	R1202M
570.353	5.317	579997	REC_WORD	24.695	n/a	OYSTER	OceanAnimals	5	4	[0, 0, 0]	n/a	catFR1	1	R1202M
575.67	9.812	585313	REC_END	n/a	n/a	n/a	n/a	-999	4	[0, 0, 0]	n/a	catFR1	1	R1202M
585.482	0.5	595125	TRIAL	n/a	n/a	n/a	n/a	-999	5	[0, 0, 0]	n/a	catFR1	1	R1202M
585.982	10.428	595625	COUNTDOWN_START	n/a	n/a	n/a	n/a	-999	5	[0, 0, 0]	n/a	catFR1	1	R1202M
596.41	0.008	606052	COUNTDOWN_END	n/a	n/a	n/a	n/a	-999	5	[0, 0, 0]	n/a	catFR1	1	R1202M
596.418	1.617	606060	ORIENT	n/a	n/a	n/a	n/a	-999	5	[0, 0, 0]	n/a	catFR1	1	R1202M
598.035	2.334	607677	ORIENT_OFF	n/a	n/a	n/a	n/a	-999	5	[0, 0, 0]	n/a	catFR1	1	R1202M
600.369	1.617	610011	WORD	n/a	wordpools/wordpool_categorized_EN.txt	TABLET	Electronics	1	5	[0, 0, 0]	n/a	catFR1	1	R1202M
601.986	0.901	611628	WORD_OFF	n/a	n/a	TABLET	n/a	1	5	[0, 0, 0]	n/a	catFR1	1	R1202M
602.887	1.616	612529	WORD	n/a	wordpools/wordpool_categorized_EN.txt	SPEAKER	Electronics	2	5	[0, 0, 0]	n/a	catFR1	1	R1202M
604.503	0.85	614145	WORD_OFF	n/a	n/a	SPEAKER	n/a	2	5	[0, 0, 0]	n/a	catFR1	1	R1202M
605.353	1.618	614995	WORD	n/a	wordpools/wordpool_categorized_EN.txt	BINDER	OfficeSupplies	3	5	[0, 0, 0]	n/a	catFR1	1	R1202M
606.971	0.849	616613	WORD_OFF	n/a	n/a	BINDER	n/a	3	5	[0, 0, 0]	n/a	catFR1	1	R1202M
607.82	1.617	617461	WORD	n/a	wordpools/wordpool_categorized_EN.txt	PENCIL	OfficeSupplies	4	5	[0, 0, 0]	n/a	catFR1	1	R1202M
609.437	0.783	619078	WORD_OFF	n/a	n/a	PENCIL	n/a	4	5	[0, 0, 0]	n/a	catFR1	1	R1202M
610.22	1.618	619861	WORD	n/a	wordpools/wordpool_categorized_EN.txt	SHOVEL	Tools	5	5	[0, 0, 0]	n/a	catFR1	1	R1202M
611.838	0.866	621479	WORD_OFF	n/a	n/a	SHOVEL	n/a	5	5	[0, 0, 0]	n/a	catFR1	1	R1202M
612.704	1.617	622345	WORD	n/a	wordpools/wordpool_categorized_EN.txt	WRENCH	Tools	6	5	[0, 0, 0]	n/a	catFR1	1	R1202M
614.321	0.867	623962	WORD_OFF	n/a	n/a	WRENCH	n/a	6	5	[0, 0, 0]	n/a	catFR1	1	R1202M
615.188	1.617	624829	WORD	n/a	wordpools/wordpool_categorized_EN.txt	ERASER	OfficeSupplies	7	5	[0, 0, 0]	n/a	catFR1	1	R1202M
616.805	0.9	626446	WORD_OFF	n/a	n/a	ERASER	n/a	7	5	[0, 0, 0]	n/a	catFR1	1	R1202M
617.705	1.617	627346	WORD	n/a	wordpools/wordpool_categorized_EN.txt	FOLDER	OfficeSupplies	8	5	[0, 0, 0]	n/a	catFR1	1	R1202M
619.322	0.834	628963	WORD_OFF	n/a	n/a	FOLDER	n/a	8	5	[0, 0, 0]	n/a	catFR1	1	R1202M
620.156	1.617	629797	WORD	n/a	wordpools/wordpool_categorized_EN.txt	RADIO	Electronics	9	5	[0, 0, 0]	n/a	catFR1	1	R1202M
621.773	0.95	631414	WORD_OFF	n/a	n/a	RADIO	n/a	9	5	[0, 0, 0]	n/a	catFR1	1	R1202M
622.723	1.617	632364	WORD	n/a	wordpools/wordpool_categorized_EN.txt	STEREO	Electronics	10	5	[0, 0, 0]	n/a	catFR1	1	R1202M
624.34	0.767	633981	WORD_OFF	n/a	n/a	STEREO	n/a	10	5	[0, 0, 0]	n/a	catFR1	1	R1202M
625.107	1.617	634748	WORD	n/a	wordpools/wordpool_categorized_EN.txt	AXE	Tools	11	5	[0, 0, 0]	n/a	catFR1	1	R1202M
626.724	1.0	636364	WORD_OFF	n/a	n/a	AXE	n/a	11	5	[0, 0, 0]	n/a	catFR1	1	R1202M
627.724	1.617	637364	WORD	n/a	wordpools/wordpool_categorized_EN.txt	SAW	Tools	12	5	[0, 0, 0]	n/a	catFR1	1	R1202M
629.341	0.0	638981	WORD_OFF	n/a	n/a	SAW	n/a	12	5	[0, 0, 0]	n/a	catFR1	1	R1202M
629.341	0.106	638981	ENCODING_END	n/a	n/a	n/a	n/a	-999	5	[0, 0, 0]	n/a	catFR1	1	R1202M
629.447	0.0	639087	DISTRACT_START	n/a	n/a	n/a	n/a	-999	5	[0, 0, 0]	n/a	catFR1	1	R1202M
629.447	0.011	639087	START	n/a	n/a	n/a	n/a	-999	5	[-999, -999, -999]	n/a	catFR1	1	R1202M
629.458	8.768	639098	PROB	8.74	n/a	n/a	n/a	-999	5	[8, 9, 7]	25.0	catFR1	1	R1202M
638.226	4.017	647866	PROB	3.989	n/a	n/a	n/a	-999	5	[6, 8, 2]	16.0	catFR1	1	R1202M
642.243	3.268	651883	PROB	3.235	n/a	n/a	n/a	-999	5	[5, 2, 6]	13.0	catFR1	1	R1202M
645.511	2.55	655150	PROB	2.519	n/a	n/a	n/a	-999	5	[4, 6, 2]	12.0	catFR1	1	R1202M
648.061	2.81	657700	PROB	2.81	n/a	n/a	n/a	-999	5	[2, 6, 3]	11.0	catFR1	1	R1202M
650.871	0.008	660510	STOP	n/a	n/a	n/a	n/a	-999	5	[-999, -999, -999]	n/a	catFR1	1	R1202M
650.879	0.666	660518	DISTRACT_END	n/a	n/a	n/a	n/a	-999	5	[0, 0, 0]	n/a	catFR1	1	R1202M
651.545	0.518	661184	RETRIEVAL_ORIENT	n/a	n/a	n/a	n/a	-999	5	[0, 0, 0]	n/a	catFR1	1	R1202M
652.063	2.562	661702	REC_START	n/a	n/a	n/a	n/a	-999	5	[0, 0, 0]	n/a	catFR1	1	R1202M
654.625	4.296	664264	REC_WORD	2.562	n/a	SAW	Tools	12	5	[0, 0, 0]	n/a	catFR1	1	R1202M
658.921	9.398	668560	REC_WORD	6.858	n/a	BOULDER	n/a	-999	5	[0, 0, 0]	n/a	catFR1	1	R1202M
668.319	3.307	677957	REC_WORD	16.256	n/a	SPIRAL	n/a	-999	5	[0, 0, 0]	n/a	catFR1	1	R1202M
671.626	3.044	681264	REC_WORD	19.563	n/a	TABLET	Electronics	1	5	[0, 0, 0]	n/a	catFR1	1	R1202M
674.67	2.439	684308	REC_WORD	22.607	n/a	STEREO	Electronics	10	5	[0, 0, 0]	n/a	catFR1	1	R1202M
677.109	3.739	686747	REC_WORD	25.046	n/a	RADIO	Electronics	9	5	[0, 0, 0]	n/a	catFR1	1	R1202M
680.848	1.225	690485	REC_WORD_VV	28.785	n/a	<>	n/a	-999	5	[0, 0, 0]	n/a	catFR1	1	R1202M
682.073	4.546	691710	REC_END	n/a	n/a	n/a	n/a	-999	5	[0, 0, 0]	n/a	catFR1	1	R1202M
686.619	0.5	696256	TRIAL	n/a	n/a	n/a	n/a	-999	6	[0, 0, 0]	n/a	catFR1	1	R1202M
687.119	10.428	696756	COUNTDOWN_START	n/a	n/a	n/a	n/a	-999	6	[0, 0, 0]	n/a	catFR1	1	R1202M
697.547	0.007	707184	COUNTDOWN_END	n/a	n/a	n/a	n/a	-999	6	[0, 0, 0]	n/a	catFR1	1	R1202M
697.554	1.618	707191	ORIENT	n/a	n/a	n/a	n/a	-999	6	[0, 0, 0]	n/a	catFR1	1	R1202M
699.172	2.167	708808	ORIENT_OFF	n/a	n/a	n/a	n/a	-999	6	[0, 0, 0]	n/a	catFR1	1	R1202M
701.339	1.618	710975	WORD	n/a	wordpools/wordpool_categorized_EN.txt	OAK	Trees	1	6	[0, 0, 0]	n/a	catFR1	1	R1202M
702.957	0.832	712593	WORD_OFF	n/a	n/a	OAK	n/a	1	6	[0, 0, 0]	n/a	catFR1	1	R1202M
703.789	1.617	713425	WORD	n/a	wordpools/wordpool_categorized_EN.txt	WALNUT	Trees	2	6	[0, 0, 0]	n/a	catFR1	1	R1202M
705.406	0.784	715042	WORD_OFF	n/a	n/a	WALNUT	n/a	2	6	[0, 0, 0]	n/a	catFR1	1	R1202M
706.19	1.617	715826	WORD	n/a	wordpools/wordpool_categorized_EN.txt	COUCH	Furniture	3	6	[0, 0, 0]	n/a	catFR1	1	R1202M
707.807	0.9	717443	WORD_OFF	n/a	n/a	COUCH	n/a	3	6	[0, 0, 0]	n/a	catFR1	1	R1202M
708.707	1.617	718343	WORD	n/a	wordpools/wordpool_categorized_EN.txt	TABLE	Furniture	4	6	[0, 0, 0]	n/a	catFR1	1	R1202M
710.324	0.833	719960	WORD_OFF	n/a	n/a	TABLE	n/a	4	6	[0, 0, 0]	n/a	catFR1	1	R1202M
711.157	1.617	720793	WORD	n/a	wordpools/wordpool_categorized_EN.txt	TRAIN	Vehicles	5	6	[0, 0, 0]	n/a	catFR1	1	R1202M
712.774	0.8	722410	WORD_OFF	n/a	n/a	TRAIN	n/a	5	6	[0, 0, 0]	n/a	catFR1	1	R1202M
713.574	1.617	723210	WORD	n/a	wordpools/wordpool_categorized_EN.txt	PLANE	Vehicles	6	6	[0, 0, 0]	n/a	catFR1	1	R1202M
715.191	0.967	724827	WORD_OFF	n/a	n/a	PLANE	n/a	6	6	[0, 0, 0]	n/a	catFR1	1	R1202M
716.158	1.617	725794	WORD	n/a	wordpools/wordpool_categorized_EN.txt	CEDAR	Trees	7	6	[0, 0, 0]	n/a	catFR1	1	R1202M
717.775	0.917	727410	WORD_OFF	n/a	n/a	CEDAR	n/a	7	6	[0, 0, 0]	n/a	catFR1	1	R1202M
718.692	1.617	728327	WORD	n/a	wordpools/wordpool_categorized_EN.txt	BIRCH	Trees	8	6	[0, 0, 0]	n/a	catFR1	1	R1202M
720.309	0.95	729944	WORD_OFF	n/a	n/a	BIRCH	n/a	8	6	[0, 0, 0]	n/a	catFR1	1	R1202M
721.259	1.617	730894	WORD	n/a	wordpools/wordpool_categorized_EN.txt	NIGHTSTAND	Furniture	9	6	[0, 0, 0]	n/a	catFR1	1	R1202M
722.876	0.767	732511	WORD_OFF	n/a	n/a	NIGHTSTAND	n/a	9	6	[0, 0, 0]	n/a	catFR1	1	R1202M
723.643	1.617	733278	WORD	n/a	wordpools/wordpool_categorized_EN.txt	SOFA	Furniture	10	6	[0, 0, 0]	n/a	catFR1	1	R1202M
725.26	0.767	734895	WORD_OFF	n/a	n/a	SOFA	n/a	10	6	[0, 0, 0]	n/a	catFR1	1	R1202M
726.027	1.617	735662	WORD	n/a	wordpools/wordpool_categorized_EN.txt	JEEP	Vehicles	11	6	[0, 0, 0]	n/a	catFR1	1	R1202M
727.644	0.85	737279	WORD_OFF	n/a	n/a	JEEP	n/a	11	6	[0, 0, 0]	n/a	catFR1	1	R1202M
728.494	1.617	738129	WORD	n/a	wordpools/wordpool_categorized_EN.txt	BOAT	Vehicles	12	6	[0, 0, 0]	n/a	catFR1	1	R1202M
730.111	0.0	739746	WORD_OFF	n/a	n/a	BOAT	n/a	12	6	[0, 0, 0]	n/a	catFR1	1	R1202M
730.111	0.14	739746	ENCODING_END	n/a	n/a	n/a	n/a	-999	6	[0, 0, 0]	n/a	catFR1	1	R1202M
730.251	0.001	739886	DISTRACT_START	n/a	n/a	n/a	n/a	-999	6	[0, 0, 0]	n/a	catFR1	1	R1202M
730.252	0.009	739887	START	n/a	n/a	n/a	n/a	-999	6	[-999, -999, -999]	n/a	catFR1	1	R1202M
730.261	3.817	739896	PROB	3.786	n/a	n/a	n/a	-999	6	[6, 3, 2]	11.0	catFR1	1	R1202M
734.078	4.418	743713	PROB	4.392	n/a	n/a	n/a	-999	6	[6, 9, 4]	19.0	catFR1	1	R1202M
738.496	4.818	748130	PROB	4.79	n/a	n/a	n/a	-999	6	[8, 4, 7]	19.0	catFR1	1	R1202M
743.314	3.5	752948	PROB	3.476	n/a	n/a	n/a	-999	6	[1, 9, 9]	19.0	catFR1	1	R1202M
746.814	3.865	756448	PROB	3.865	n/a	n/a	n/a	-999	6	[7, 4, 7]	18.0	catFR1	1	R1202M
750.679	0.02	760313	STOP	n/a	n/a	n/a	n/a	-999	6	[-999, -999, -999]	n/a	catFR1	1	R1202M
750.699	0.7	760333	DISTRACT_END	n/a	n/a	n/a	n/a	-999	6	[0, 0, 0]	n/a	catFR1	1	R1202M
751.399	0.518	761033	RETRIEVAL_ORIENT	n/a	n/a	n/a	n/a	-999	6	[0, 0, 0]	n/a	catFR1	1	R1202M
751.917	2.183	761551	REC_START	n/a	n/a	n/a	n/a	-999	6	[0, 0, 0]	n/a	catFR1	1	R1202M
754.1	2.072	763734	REC_WORD	2.183	n/a	NIGHTSTAND	Furniture	9	6	[0, 0, 0]	n/a	catFR1	1	R1202M
756.172	2.25	765805	REC_WORD	4.255	n/a	COUCH	Furniture	3	6	[0, 0, 0]	n/a	catFR1	1	R1202M
758.422	4.585	768055	REC_WORD	6.505	n/a	BOAT	Vehicles	12	6	[0, 0, 0]	n/a	catFR1	1	R1202M
763.007	13.753	772640	REC_WORD	11.09	n/a	TABLE	Furniture	4	6	[0, 0, 0]	n/a	catFR1	1	R1202M
776.76	3.605	786392	REC_WORD	24.843	n/a	LOUNGE	n/a	-999	6	[0, 0, 0]	n/a	catFR1	1	R1202M
780.365	1.563	789997	REC_WORD	28.448	n/a	CHAIR	n/a	-999	6	[0, 0, 0]	n/a	catFR1	1	R1202M
781.928	4.561	791560	REC_END	n/a	n/a	n/a	n/a	-999	6	[0, 0, 0]	n/a	catFR1	1	R1202M
786.489	0.5	796121	TRIAL	n/a	n/a	n/a	n/a	-999	7	[0, 0, 0]	n/a	catFR1	1	R1202M
786.989	10.428	796621	COUNTDOWN_START	n/a	n/a	n/a	n/a	-999	7	[0, 0, 0]	n/a	catFR1	1	R1202M
797.417	0.007	807048	COUNTDOWN_END	n/a	n/a	n/a	n/a	-999	7	[0, 0, 0]	n/a	catFR1	1	R1202M
797.424	1.617	807055	ORIENT	n/a	n/a	n/a	n/a	-999	7	[0, 0, 0]	n/a	catFR1	1	R1202M
799.041	1.885	808672	ORIENT_OFF	n/a	n/a	n/a	n/a	-999	7	[0, 0, 0]	n/a	catFR1	1	R1202M
800.926	1.616	810557	WORD	n/a	wordpools/wordpool_categorized_EN.txt	PLANKTON	OceanAnimals	1	7	[0, 0, 0]	n/a	catFR1	1	R1202M
802.542	1.0	812173	WORD_OFF	n/a	n/a	PLANKTON	n/a	1	7	[0, 0, 0]	n/a	catFR1	1	R1202M
803.542	1.617	813173	WORD	n/a	wordpools/wordpool_categorized_EN.txt	CRAB	OceanAnimals	2	7	[0, 0, 0]	n/a	catFR1	1	R1202M
805.159	0.768	814790	WORD_OFF	n/a	n/a	CRAB	n/a	2	7	[0, 0, 0]	n/a	catFR1	1	R1202M
805.927	1.616	815558	WORD	n/a	wordpools/wordpool_categorized_EN.txt	LEG	BodyParts	3	7	[0, 0, 0]	n/a	catFR1	1	R1202M
807.543	0.95	817174	WORD_OFF	n/a	n/a	LEG	n/a	3	7	[0, 0, 0]	n/a	catFR1	1	R1202M
808.493	1.617	818124	WORD	n/a	wordpools/wordpool_categorized_EN.txt	FOOT	BodyParts	4	7	[0, 0, 0]	n/a	catFR1	1	R1202M
810.11	0.917	819740	WORD_OFF	n/a	n/a	FOOT	n/a	4	7	[0, 0, 0]	n/a	catFR1	1	R1202M
811.027	1.617	820657	WORD	n/a	wordpools/wordpool_categorized_EN.txt	PIANO	Instruments	5	7	[0, 0, 0]	n/a	catFR1	1	R1202M
812.644	0.834	822274	WORD_OFF	n/a	n/a	PIANO	n/a	5	7	[0, 0, 0]	n/a	catFR1	1	R1202M
813.478	1.617	823108	WORD	n/a	wordpools/wordpool_categorized_EN.txt	FLUTE	Instruments	6	7	[0, 0, 0]	n/a	catFR1	1	R1202M
815.095	0.85	824725	WORD_OFF	n/a	n/a	FLUTE	n/a	6	7	[0, 0, 0]	n/a	catFR1	1	R1202M
815.945	1.617	825575	WORD	n/a	wordpools/wordpool_categorized_EN.txt	EYE	BodyParts	7	7	[0, 0, 0]	n/a	catFR1	1	R1202M
817.562	0.883	827192	WORD_OFF	n/a	n/a	EYE	n/a	7	7	[0, 0, 0]	n/a	catFR1	1	R1202M
818.445	1.617	828075	WORD	n/a	wordpools/wordpool_categorized_EN.txt	KNEE	BodyParts	8	7	[0, 0, 0]	n/a	catFR1	1	R1202M
820.062	0.901	829692	WORD_OFF	n/a	n/a	KNEE	n/a	8	7	[0, 0, 0]	n/a	catFR1	1	R1202M
820.963	1.616	830593	WORD	n/a	wordpools/wordpool_categorized_EN.txt	FISH	OceanAnimals	9	7	[0, 0, 0]	n/a	catFR1	1	R1202M
822.579	0.9	832209	WORD_OFF	n/a	n/a	FISH	n/a	9	7	[0, 0, 0]	n/a	catFR1	1	R1202M
823.479	1.617	833109	WORD	n/a	wordpools/wordpool_categorized_EN.txt	SQUID	OceanAnimals	10	7	[0, 0, 0]	n/a	catFR1	1	R1202M
825.096	1.001	834726	WORD_OFF	n/a	n/a	SQUID	n/a	10	7	[0, 0, 0]	n/a	catFR1	1	R1202M
826.097	1.617	835727	WORD	n/a	wordpools/wordpool_categorized_EN.txt	TUBA	Instruments	11	7	[0, 0, 0]	n/a	catFR1	1	R1202M
827.714	0.866	837343	WORD_OFF	n/a	n/a	TUBA	n/a	11	7	[0, 0, 0]	n/a	catFR1	1	R1202M
828.58	1.617	838209	WORD	n/a	wordpools/wordpool_categorized_EN.txt	GUITAR	Instruments	12	7	[0, 0, 0]	n/a	catFR1	1	R1202M
830.197	0.001	839826	WORD_OFF	n/a	n/a	GUITAR	n/a	12	7	[0, 0, 0]	n/a	catFR1	1	R1202M
830.198	0.139	839827	ENCODING_END	n/a	n/a	n/a	n/a	-999	7	[0, 0, 0]	n/a	catFR1	1	R1202M
830.337	0.0	839966	DISTRACT_START	n/a	n/a	n/a	n/a	-999	7	[0, 0, 0]	n/a	catFR1	1	R1202M
830.337	0.011	839966	START	n/a	n/a	n/a	n/a	-999	7	[-999, -999, -999]	n/a	catFR1	1	R1202M
830.348	7.218	839977	PROB	7.195	n/a	n/a	n/a	-999	7	[8, 1, 5]	15.0	catFR1	1	R1202M
837.566	3.717	847195	PROB	3.688	n/a	n/a	n/a	-999	7	[9, 1, 6]	16.0	catFR1	1	R1202M
841.283	1.967	850912	PROB	1.932	n/a	n/a	n/a	-999	7	[6, 4, 2]	12.0	catFR1	1	R1202M
843.25	3.501	852879	PROB	3.468	n/a	n/a	n/a	-999	7	[7, 1, 2]	10.0	catFR1	1	R1202M
846.751	3.067	856379	PROB	3.015	n/a	n/a	n/a	-999	7	[1, 9, 7]	17.0	catFR1	1	R1202M
849.818	5.396	859446	PROB	5.396	n/a	n/a	n/a	-999	7	[8, 9, 7]	24.0	catFR1	1	R1202M
855.214	0.022	864842	STOP	n/a	n/a	n/a	n/a	-999	7	[-999, -999, -999]	n/a	catFR1	1	R1202M
855.236	0.633	864864	DISTRACT_END	n/a	n/a	n/a	n/a	-999	7	[0, 0, 0]	n/a	catFR1	1	R1202M
855.869	0.518	865497	RETRIEVAL_ORIENT	n/a	n/a	n/a	n/a	-999	7	[0, 0, 0]	n/a	catFR1	1	R1202M
856.387	6.292	866015	REC_START	n/a	n/a	n/a	n/a	-999	7	[0, 0, 0]	n/a	catFR1	1	R1202M
862.679	5.032	872307	REC_WORD	6.292	n/a	PLANKTON	OceanAnimals	1	7	[0, 0, 0]	n/a	catFR1	1	R1202M
867.711	4.584	877338	REC_WORD	11.324	n/a	CRAB	OceanAnimals	2	7	[0, 0, 0]	n/a	catFR1	1	R1202M
872.295	3.673	881922	REC_WORD	15.908	n/a	KNEE	BodyParts	8	7	[0, 0, 0]	n/a	catFR1	1	R1202M
875.968	9.6	885595	REC_WORD	19.581	n/a	LEG	BodyParts	3	7	[0, 0, 0]	n/a	catFR1	1	R1202M
885.568	0.829	895194	REC_WORD	29.181	n/a	ANKLE	n/a	-999	7	[0, 0, 0]	n/a	catFR1	1	R1202M
886.397	8.747	896023	REC_END	n/a	n/a	n/a	n/a	-999	7	[0, 0, 0]	n/a	catFR1	1	R1202M
895.144	0.5	904770	TRIAL	n/a	n/a	n/a	n/a	-999	8	[0, 0, 0]	n/a	catFR1	1	R1202M
895.644	10.428	905270	COUNTDOWN_START	n/a	n/a	n/a	n/a	-999	8	[0, 0, 0]	n/a	catFR1	1	R1202M
906.072	0.007	915697	COUNTDOWN_END	n/a	n/a	n/a	n/a	-999	8	[0, 0, 0]	n/a	catFR1	1	R1202M
906.079	1.617	915704	ORIENT	n/a	n/a	n/a	n/a	-999	8	[0, 0, 0]	n/a	catFR1	1	R1202M
907.696	1.967	917321	ORIENT_OFF	n/a	n/a	n/a	n/a	-999	8	[0, 0, 0]	n/a	catFR1	1	R1202M
909.663	1.617	919288	WORD	n/a	wordpools/wordpool_categorized_EN.txt	DISHWASHER	Appliances	1	8	[0, 0, 0]	n/a	catFR1	1	R1202M
911.28	0.784	920905	WORD_OFF	n/a	n/a	DISHWASHER	n/a	1	8	[0, 0, 0]	n/a	catFR1	1	R1202M
912.064	1.617	921689	WORD	n/a	wordpools/wordpool_categorized_EN.txt	STOVE	Appliances	2	8	[0, 0, 0]	n/a	catFR1	1	R1202M
913.681	0.966	923306	WORD_OFF	n/a	n/a	STOVE	n/a	2	8	[0, 0, 0]	n/a	catFR1	1	R1202M
914.647	1.618	924272	WORD	n/a	wordpools/wordpool_categorized_EN.txt	DAFFODIL	Flowers	3	8	[0, 0, 0]	n/a	catFR1	1	R1202M
916.265	1.016	925890	WORD_OFF	n/a	n/a	DAFFODIL	n/a	3	8	[0, 0, 0]	n/a	catFR1	1	R1202M
917.281	1.618	926906	WORD	n/a	wordpools/wordpool_categorized_EN.txt	PETUNIA	Flowers	4	8	[0, 0, 0]	n/a	catFR1	1	R1202M
918.899	0.883	928524	WORD_OFF	n/a	n/a	PETUNIA	n/a	4	8	[0, 0, 0]	n/a	catFR1	1	R1202M
919.782	1.617	929406	WORD	n/a	wordpools/wordpool_categorized_EN.txt	BLOUSE	Clothing	5	8	[0, 0, 0]	n/a	catFR1	1	R1202M
921.399	0.967	931023	WORD_OFF	n/a	n/a	BLOUSE	n/a	5	8	[0, 0, 0]	n/a	catFR1	1	R1202M
922.366	1.617	931990	WORD	n/a	wordpools/wordpool_categorized_EN.txt	SKIRT	Clothing	6	8	[0, 0, 0]	n/a	catFR1	1	R1202M
923.983	1.0	933607	WORD_OFF	n/a	n/a	SKIRT	n/a	6	8	[0, 0, 0]	n/a	catFR1	1	R1202M
924.983	1.617	934607	WORD	n/a	wordpools/wordpool_categorized_EN.txt	MARIGOLD	Flowers	7	8	[0, 0, 0]	n/a	catFR1	1	R1202M
926.6	0.867	936224	WORD_OFF	n/a	n/a	MARIGOLD	n/a	7	8	[0, 0, 0]	n/a	catFR1	1	R1202M
927.467	1.617	937091	WORD	n/a	wordpools/wordpool_categorized_EN.txt	LILY	Flowers	8	8	[0, 0, 0]	n/a	catFR1	1	R1202M
929.084	0.834	938708	WORD_OFF	n/a	n/a	LILY	n/a	8	8	[0, 0, 0]	n/a	catFR1	1	R1202M
929.918	1.616	939542	WORD	n/a	wordpools/wordpool_categorized_EN.txt	IRON	Appliances	9	8	[0, 0, 0]	n/a	catFR1	1	R1202M
931.534	0.967	941158	WORD_OFF	n/a	n/a	IRON	n/a	9	8	[0, 0, 0]	n/a	catFR1	1	R1202M
932.501	1.617	942125	WORD	n/a	wordpools/wordpool_categorized_EN.txt	MIXER	Appliances	10	8	[0, 0, 0]	n/a	catFR1	1	R1202M
934.118	0.818	943742	WORD_OFF	n/a	n/a	MIXER	n/a	10	8	[0, 0, 0]	n/a	catFR1	1	R1202M
934.936	1.616	944560	WORD	n/a	wordpools/wordpool_categorized_EN.txt	DRESS	Clothing	11	8	[0, 0, 0]	n/a	catFR1	1	R1202M
936.552	0.783	946176	WORD_OFF	n/a	n/a	DRESS	n/a	11	8	[0, 0, 0]	n/a	catFR1	1	R1202M
937.335	1.601	946959	WORD	n/a	wordpools/wordpool_categorized_EN.txt	SHIRT	Clothing	12	8	[0, 0, 0]	n/a	catFR1	1	R1202M
938.936	0.001	948559	WORD_OFF	n/a	n/a	SHIRT	n/a	12	8	[0, 0, 0]	n/a	catFR1	1	R1202M
938.937	0.11	948560	ENCODING_END	n/a	n/a	n/a	n/a	-999	8	[0, 0, 0]	n/a	catFR1	1	R1202M
939.047	0.0	948670	DISTRACT_START	n/a	n/a	n/a	n/a	-999	8	[0, 0, 0]	n/a	catFR1	1	R1202M
939.047	0.022	948670	START	n/a	n/a	n/a	n/a	-999	8	[-999, -999, -999]	n/a	catFR1	1	R1202M
939.069	3.667	948692	PROB	3.641	n/a	n/a	n/a	-999	8	[1, 8, 1]	10.0	catFR1	1	R1202M
942.736	4.101	952359	PROB	4.063	n/a	n/a	n/a	-999	8	[1, 6, 8]	15.0	catFR1	1	R1202M
946.837	4.151	956460	PROB	4.123	n/a	n/a	n/a	-999	8	[9, 8, 7]	24.0	catFR1	1	R1202M
950.988	4.001	960611	PROB	3.979	n/a	n/a	n/a	-999	8	[3, 1, 2]	6.0	catFR1	1	R1202M
954.989	2.52	964612	PROB	2.482	n/a	n/a	n/a	-999	8	[3, 4, 1]	8.0	catFR1	1	R1202M
957.509	2.978	967131	PROB	2.978	n/a	n/a	n/a	-999	8	[1, 2, 8]	11.0	catFR1	1	R1202M
960.487	0.02	970109	STOP	n/a	n/a	n/a	n/a	-999	8	[-999, -999, -999]	n/a	catFR1	1	R1202M
960.507	0.65	970129	DISTRACT_END	n/a	n/a	n/a	n/a	-999	8	[0, 0, 0]	n/a	catFR1	1	R1202M
961.157	0.517	970779	RETRIEVAL_ORIENT	n/a	n/a	n/a	n/a	-999	8	[0, 0, 0]	n/a	catFR1	1	R1202M
961.674	1.83	971296	REC_START	n/a	n/a	n/a	n/a	-999	8	[0, 0, 0]	n/a	catFR1	1	R1202M
963.504	3.544	973126	REC_WORD	1.83	n/a	DRESS	Clothing	11	8	[0, 0, 0]	n/a	catFR1	1	R1202M
967.048	1.724	976670	REC_WORD	5.374	n/a	LILY	Flowers	8	8	[0, 0, 0]	n/a	catFR1	1	R1202M
968.772	2.675	978394	REC_WORD	7.098	n/a	MARIGOLD	Flowers	7	8	[0, 0, 0]	n/a	catFR1	1	R1202M
971.447	11.842	981069	REC_WORD	9.773	n/a	PETUNIA	Flowers	4	8	[0, 0, 0]	n/a	catFR1	1	R1202M
983.289	8.398	992910	REC_WORD	21.615	n/a	PERENNIAL	n/a	-999	8	[0, 0, 0]	n/a	catFR1	1	R1202M
991.687	6.71	1001308	REC_END	n/a	n/a	n/a	n/a	-999	8	[0, 0, 0]	n/a	catFR1	1	R1202M
998.397	0.5	1008017	TRIAL	n/a	n/a	n/a	n/a	-999	9	[0, 0, 0]	n/a	catFR1	1	R1202M
998.897	10.428	1008517	COUNTDOWN_START	n/a	n/a	n/a	n/a	-999	9	[0, 0, 0]	n/a	catFR1	1	R1202M
1009.325	0.008	1018945	COUNTDOWN_END	n/a	n/a	n/a	n/a	-999	9	[0, 0, 0]	n/a	catFR1	1	R1202M
1009.333	1.601	1018953	ORIENT	n/a	n/a	n/a	n/a	-999	9	[0, 0, 0]	n/a	catFR1	1	R1202M
1010.934	1.9	1020554	ORIENT_OFF	n/a	n/a	n/a	n/a	-999	9	[0, 0, 0]	n/a	catFR1	1	R1202M
1012.834	1.617	1022453	WORD	n/a	wordpools/wordpool_categorized_EN.txt	PEAR	Fruit	1	9	[0, 0, 0]	n/a	catFR1	1	R1202M
1014.451	0.9	1024070	WORD_OFF	n/a	n/a	PEAR	n/a	1	9	[0, 0, 0]	n/a	catFR1	1	R1202M
1015.351	1.618	1024970	WORD	n/a	wordpools/wordpool_categorized_EN.txt	CHERRY	Fruit	2	9	[0, 0, 0]	n/a	catFR1	1	R1202M
1016.969	0.799	1026588	WORD_OFF	n/a	n/a	CHERRY	n/a	2	9	[0, 0, 0]	n/a	catFR1	1	R1202M
1017.768	1.617	1027387	WORD	n/a	wordpools/wordpool_categorized_EN.txt	THUNDER	Weather	3	9	[0, 0, 0]	n/a	catFR1	1	R1202M
1019.385	0.833	1029004	WORD_OFF	n/a	n/a	THUNDER	n/a	3	9	[0, 0, 0]	n/a	catFR1	1	R1202M
1020.218	1.617	1029837	WORD	n/a	wordpools/wordpool_categorized_EN.txt	HUMIDITY	Weather	4	9	[0, 0, 0]	n/a	catFR1	1	R1202M
1021.835	0.767	1031454	WORD_OFF	n/a	n/a	HUMIDITY	n/a	4	9	[0, 0, 0]	n/a	catFR1	1	R1202M
1022.602	1.617	1032221	WORD	n/a	wordpools/wordpool_categorized_EN.txt	SOCKS	Clothing	5	9	[0, 0, 0]	n/a	catFR1	1	R1202M
1024.219	0.884	1033838	WORD_OFF	n/a	n/a	SOCKS	n/a	5	9	[0, 0, 0]	n/a	catFR1	1	R1202M
1025.103	1.617	1034722	WORD	n/a	wordpools/wordpool_categorized_EN.txt	JEANS	Clothing	6	9	[0, 0, 0]	n/a	catFR1	1	R1202M
1026.72	0.783	1036339	WORD_OFF	n/a	n/a	JEANS	n/a	6	9	[0, 0, 0]	n/a	catFR1	1	R1202M
1027.503	1.617	1037122	WORD	n/a	wordpools/wordpool_categorized_EN.txt	DRIZZLE	Weather	7	9	[0, 0, 0]	n/a	catFR1	1	R1202M
1029.12	0.785	1038739	WORD_OFF	n/a	n/a	DRIZZLE	n/a	7	9	[0, 0, 0]	n/a	catFR1	1	R1202M
1029.905	1.616	1039523	WORD	n/a	wordpools/wordpool_categorized_EN.txt	WIND	Weather	8	9	[0, 0, 0]	n/a	catFR1	1	R1202M
1031.521	0.783	1041139	WORD_OFF	n/a	n/a	WIND	n/a	8	9	[0, 0, 0]	n/a	catFR1	1	R1202M
1032.304	1.618	1041922	WORD	n/a	wordpools/wordpool_categorized_EN.txt	STRAWBERRY	Fruit	9	9	[0, 0, 0]	n/a	catFR1	1	R1202M
1033.922	0.816	1043540	WORD_OFF	n/a	n/a	STRAWBERRY	n/a	9	9	[0, 0, 0]	n/a	catFR1	1	R1202M
1034.738	1.617	1044356	WORD	n/a	wordpools/wordpool_categorized_EN.txt	GRAPE	Fruit	10	9	[0, 0, 0]	n/a	catFR1	1	R1202M
1036.355	0.85	1045973	WORD_OFF	n/a	n/a	GRAPE	n/a	10	9	[0, 0, 0]	n/a	catFR1	1	R1202M
1037.205	1.617	1046823	WORD	n/a	wordpools/wordpool_categorized_EN.txt	SHOES	Clothing	11	9	[0, 0, 0]	n/a	catFR1	1	R1202M
1038.822	0.867	1048440	WORD_OFF	n/a	n/a	SHOES	n/a	11	9	[0, 0, 0]	n/a	catFR1	1	R1202M
1039.689	1.617	1049307	WORD	n/a	wordpools/wordpool_categorized_EN.txt	JACKET	Clothing	12	9	[0, 0, 0]	n/a	catFR1	1	R1202M
1041.306	0.0	1050924	WORD_OFF	n/a	n/a	JACKET	n/a	12	9	[0, 0, 0]	n/a	catFR1	1	R1202M
1041.306	0.143	1050924	ENCODING_END	n/a	n/a	n/a	n/a	-999	9	[0, 0, 0]	n/a	catFR1	1	R1202M
1041.449	0.0	1051067	DISTRACT_START	n/a	n/a	n/a	n/a	-999	9	[0, 0, 0]	n/a	catFR1	1	R1202M
1041.449	0.024	1051067	START	n/a	n/a	n/a	n/a	-999	9	[-999, -999, -999]	n/a	catFR1	1	R1202M
1041.473	3.584	1051091	PROB	3.558	n/a	n/a	n/a	-999	9	[9, 3, 1]	13.0	catFR1	1	R1202M
1045.057	6.368	1054675	PROB	6.317	n/a	n/a	n/a	-999	9	[9, 4, 1]	14.0	catFR1	1	R1202M
1051.425	2.803	1061042	PROB	2.766	n/a	n/a	n/a	-999	9	[6, 4, 2]	12.0	catFR1	1	R1202M
1054.228	14.323	1063845	PROB	14.323	n/a	n/a	n/a	-999	9	[4, 4, 8]	18.0	catFR1	1	R1202M
1068.551	0.011	1078167	STOP	n/a	n/a	n/a	n/a	-999	9	[-999, -999, -999]	n/a	catFR1	1	R1202M
1068.562	0.516	1078178	DISTRACT_END	n/a	n/a	n/a	n/a	-999	9	[0, 0, 0]	n/a	catFR1	1	R1202M
1069.078	0.517	1078694	RETRIEVAL_ORIENT	n/a	n/a	n/a	n/a	-999	9	[0, 0, 0]	n/a	catFR1	1	R1202M
1069.595	3.826	1079211	REC_START	n/a	n/a	n/a	n/a	-999	9	[0, 0, 0]	n/a	catFR1	1	R1202M
1073.421	2.263	1083037	REC_WORD	3.826	n/a	SHIRT	n/a	-999	9	[0, 0, 0]	n/a	catFR1	1	R1202M
1075.684	3.592	1085300	REC_WORD	6.089	n/a	JEANS	Clothing	6	9	[0, 0, 0]	n/a	catFR1	1	R1202M
1079.276	3.186	1088892	REC_WORD	9.681	n/a	JACKET	Clothing	12	9	[0, 0, 0]	n/a	catFR1	1	R1202M
1082.462	2.063	1092078	REC_WORD	12.867	n/a	THUNDER	Weather	3	9	[0, 0, 0]	n/a	catFR1	1	R1202M
1084.525	6.179	1094140	REC_WORD	14.93	n/a	DRIZZLE	Weather	7	9	[0, 0, 0]	n/a	catFR1	1	R1202M
1090.704	1.66	1100319	REC_WORD	21.109	n/a	CHERRY	Fruit	2	9	[0, 0, 0]	n/a	catFR1	1	R1202M
1092.364	6.274	1101979	REC_WORD	22.769	n/a	STRAWBERRY	Fruit	9	9	[0, 0, 0]	n/a	catFR1	1	R1202M
1098.638	0.968	1108253	REC_WORD	29.043	n/a	JACKET	Clothing	12	9	[0, 0, 0]	n/a	catFR1	1	R1202M
1099.606	4.363	1109221	REC_END	n/a	n/a	n/a	n/a	-999	9	[0, 0, 0]	n/a	catFR1	1	R1202M
1103.969	0.5	1113583	TRIAL	n/a	n/a	n/a	n/a	-999	10	[0, 0, 0]	n/a	catFR1	1	R1202M
1104.469	10.428	1114083	COUNTDOWN_START	n/a	n/a	n/a	n/a	-999	10	[0, 0, 0]	n/a	catFR1	1	R1202M
1114.897	0.008	1124511	COUNTDOWN_END	n/a	n/a	n/a	n/a	-999	10	[0, 0, 0]	n/a	catFR1	1	R1202M
1114.905	1.616	1124519	ORIENT	n/a	n/a	n/a	n/a	-999	10	[0, 0, 0]	n/a	catFR1	1	R1202M
1116.521	1.884	1126135	ORIENT_OFF	n/a	n/a	n/a	n/a	-999	10	[0, 0, 0]	n/a	catFR1	1	R1202M
1118.405	1.617	1128019	WORD	n/a	wordpools/wordpool_categorized_EN.txt	ONION	Vegetables	1	10	[0, 0, 0]	n/a	catFR1	1	R1202M
1120.022	0.901	1129636	WORD_OFF	n/a	n/a	ONION	n/a	1	10	[0, 0, 0]	n/a	catFR1	1	R1202M
1120.923	1.616	1130537	WORD	n/a	wordpools/wordpool_categorized_EN.txt	CABBAGE	Vegetables	2	10	[0, 0, 0]	n/a	catFR1	1	R1202M
1122.539	0.95	1132152	WORD_OFF	n/a	n/a	CABBAGE	n/a	2	10	[0, 0, 0]	n/a	catFR1	1	R1202M
1123.489	1.617	1133102	WORD	n/a	wordpools/wordpool_categorized_EN.txt	BLUEBERRY	Fruit	3	10	[0, 0, 0]	n/a	catFR1	1	R1202M
1125.106	0.95	1134719	WORD_OFF	n/a	n/a	BLUEBERRY	n/a	3	10	[0, 0, 0]	n/a	catFR1	1	R1202M
1126.056	1.617	1135669	WORD	n/a	wordpools/wordpool_categorized_EN.txt	APPLE	Fruit	4	10	[0, 0, 0]	n/a	catFR1	1	R1202M
1127.673	0.967	1137286	WORD_OFF	n/a	n/a	APPLE	n/a	4	10	[0, 0, 0]	n/a	catFR1	1	R1202M
1128.64	1.617	1138253	WORD	n/a	wordpools/wordpool_categorized_EN.txt	WILLOW	Trees	5	10	[0, 0, 0]	n/a	catFR1	1	R1202M
1130.257	0.983	1139870	WORD_OFF	n/a	n/a	WILLOW	n/a	5	10	[0, 0, 0]	n/a	catFR1	1	R1202M
1131.24	1.618	1140853	WORD	n/a	wordpools/wordpool_categorized_EN.txt	PINE	Trees	6	10	[0, 0, 0]	n/a	catFR1	1	R1202M
1132.858	0.966	1142471	WORD_OFF	n/a	n/a	PINE	n/a	6	10	[0, 0, 0]	n/a	catFR1	1	R1202M
1133.824	1.617	1143437	WORD	n/a	wordpools/wordpool_categorized_EN.txt	LEMON	Fruit	7	10	[0, 0, 0]	n/a	catFR1	1	R1202M
1135.441	0.901	1145054	WORD_OFF	n/a	n/a	LEMON	n/a	7	10	[0, 0, 0]	n/a	catFR1	1	R1202M
1136.342	1.618	1145955	WORD	n/a	wordpools/wordpool_categorized_EN.txt	LIME	Fruit	8	10	[0, 0, 0]	n/a	catFR1	1	R1202M
1137.96	0.899	1147573	WORD_OFF	n/a	n/a	LIME	n/a	8	10	[0, 0, 0]	n/a	catFR1	1	R1202M
1138.859	1.617	1148472	WORD	n/a	wordpools/wordpool_categorized_EN.txt	CELERY	Vegetables	9	10	[0, 0, 0]	n/a	catFR1	1	R1202M
1140.476	0.967	1150088	WORD_OFF	n/a	n/a	CELERY	n/a	9	10	[0, 0, 0]	n/a	catFR1	1	R1202M
1141.443	1.617	1151055	WORD	n/a	wordpools/wordpool_categorized_EN.txt	SPINACH	Vegetables	10	10	[0, 0, 0]	n/a	catFR1	1	R1202M
1143.06	0.901	1152672	WORD_OFF	n/a	n/a	SPINACH	n/a	10	10	[0, 0, 0]	n/a	catFR1	1	R1202M
1143.961	1.616	1153573	WORD	n/a	wordpools/wordpool_categorized_EN.txt	EVERGREEN	Trees	11	10	[0, 0, 0]	n/a	catFR1	1	R1202M
1145.577	0.883	1155189	WORD_OFF	n/a	n/a	EVERGREEN	n/a	11	10	[0, 0, 0]	n/a	catFR1	1	R1202M
1146.46	1.617	1156072	WORD	n/a	wordpools/wordpool_categorized_EN.txt	MAPLE	Trees	12	10	[0, 0, 0]	n/a	catFR1	1	R1202M
1148.077	0.0	1157689	ENCODING_END	n/a	n/a	n/a	n/a	-999	10	[0, 0, 0]	n/a	catFR1	1	R1202M
1148.077	0.106	1157689	WORD_OFF	n/a	n/a	MAPLE	n/a	12	10	[0, 0, 0]	n/a	catFR1	1	R1202M
1148.183	0.0	1157795	DISTRACT_START	n/a	n/a	n/a	n/a	-999	10	[0, 0, 0]	n/a	catFR1	1	R1202M
1148.183	0.011	1157795	START	n/a	n/a	n/a	n/a	-999	10	[-999, -999, -999]	n/a	catFR1	1	R1202M
1148.194	3.667	1157806	PROB	3.636	n/a	n/a	n/a	-999	10	[9, 9, 3]	21.0	catFR1	1	R1202M
1151.861	4.451	1161473	PROB	4.426	n/a	n/a	n/a	-999	10	[9, 3, 7]	19.0	catFR1	1	R1202M
1156.312	2.404	1165924	PROB	2.366	n/a	n/a	n/a	-999	10	[1, 9, 4]	14.0	catFR1	1	R1202M
1158.716	3.097	1168327	PROB	3.074	n/a	n/a	n/a	-999	10	[1, 9, 7]	17.0	catFR1	1	R1202M
1161.813	5.335	1171424	PROB	5.305	n/a	n/a	n/a	-999	10	[8, 7, 7]	22.0	catFR1	1	R1202M
1167.148	3.714	1176759	PROB	3.714	n/a	n/a	n/a	-999	10	[4, 7, 6]	17.0	catFR1	1	R1202M
1170.862	0.02	1180473	STOP	n/a	n/a	n/a	n/a	-999	10	[-999, -999, -999]	n/a	catFR1	1	R1202M
1170.882	0.566	1180493	DISTRACT_END	n/a	n/a	n/a	n/a	-999	10	[0, 0, 0]	n/a	catFR1	1	R1202M
1171.448	0.519	1181059	RETRIEVAL_ORIENT	n/a	n/a	n/a	n/a	-999	10	[0, 0, 0]	n/a	catFR1	1	R1202M
1171.967	1.916	1181578	REC_START	n/a	n/a	n/a	n/a	-999	10	[0, 0, 0]	n/a	catFR1	1	R1202M
1173.883	2.043	1183494	REC_WORD	1.916	n/a	MAPLE	Trees	12	10	[0, 0, 0]	n/a	catFR1	1	R1202M
1175.926	7.722	1185537	REC_WORD	3.959	n/a	EVERGREEN	Trees	11	10	[0, 0, 0]	n/a	catFR1	1	R1202M
1183.648	6.065	1193258	REC_WORD	11.681	n/a	GRAPE	n/a	-999	10	[0, 0, 0]	n/a	catFR1	1	R1202M
1189.713	6.136	1199323	REC_WORD	17.746	n/a	BLUEBERRY	Fruit	3	10	[0, 0, 0]	n/a	catFR1	1	R1202M
1195.849	6.127	1205458	REC_WORD	23.882	n/a	SPINACH	Vegetables	10	10	[0, 0, 0]	n/a	catFR1	1	R1202M
1201.976	4.563	1211585	REC_END	n/a	n/a	n/a	n/a	-999	10	[0, 0, 0]	n/a	catFR1	1	R1202M
1206.539	0.5	1216148	TRIAL	n/a	n/a	n/a	n/a	-999	11	[0, 0, 0]	n/a	catFR1	1	R1202M
1207.039	10.428	1216648	COUNTDOWN_START	n/a	n/a	n/a	n/a	-999	11	[0, 0, 0]	n/a	catFR1	1	R1202M
1217.467	0.007	1227075	COUNTDOWN_END	n/a	n/a	n/a	n/a	-999	11	[0, 0, 0]	n/a	catFR1	1	R1202M
1217.474	1.617	1227082	ORIENT	n/a	n/a	n/a	n/a	-999	11	[0, 0, 0]	n/a	catFR1	1	R1202M
1219.091	2.267	1228699	ORIENT_OFF	n/a	n/a	n/a	n/a	-999	11	[0, 0, 0]	n/a	catFR1	1	R1202M
1221.358	1.617	1230966	WORD	n/a	wordpools/wordpool_categorized_EN.txt	LAMB	FarmAnimals	1	11	[0, 0, 0]	n/a	catFR1	1	R1202M
1222.975	0.918	1232583	WORD_OFF	n/a	n/a	LAMB	n/a	1	11	[0, 0, 0]	n/a	catFR1	1	R1202M
1223.893	1.616	1233501	WORD	n/a	wordpools/wordpool_categorized_EN.txt	ROOSTER	FarmAnimals	2	11	[0, 0, 0]	n/a	catFR1	1	R1202M
1225.509	0.8	1235117	WORD_OFF	n/a	n/a	ROOSTER	n/a	2	11	[0, 0, 0]	n/a	catFR1	1	R1202M
1226.309	1.618	1235917	WORD	n/a	wordpools/wordpool_categorized_EN.txt	ZEBRA	Zoo	3	11	[0, 0, 0]	n/a	catFR1	1	R1202M
1227.927	0.849	1237535	WORD_OFF	n/a	n/a	ZEBRA	n/a	3	11	[0, 0, 0]	n/a	catFR1	1	R1202M
1228.776	1.618	1238384	WORD	n/a	wordpools/wordpool_categorized_EN.txt	MONKEY	Zoo	4	11	[0, 0, 0]	n/a	catFR1	1	R1202M
1230.394	0.933	1240002	WORD_OFF	n/a	n/a	MONKEY	n/a	4	11	[0, 0, 0]	n/a	catFR1	1	R1202M
1231.327	1.618	1240934	WORD	n/a	wordpools/wordpool_categorized_EN.txt	DRESSER	Furniture	5	11	[0, 0, 0]	n/a	catFR1	1	R1202M
1232.945	0.849	1242552	WORD_OFF	n/a	n/a	DRESSER	n/a	5	11	[0, 0, 0]	n/a	catFR1	1	R1202M
1233.794	1.617	1243401	WORD	n/a	wordpools/wordpool_categorized_EN.txt	BOOKCASE	Furniture	6	11	[0, 0, 0]	n/a	catFR1	1	R1202M
1235.411	0.767	1245018	WORD_OFF	n/a	n/a	BOOKCASE	n/a	6	11	[0, 0, 0]	n/a	catFR1	1	R1202M
1236.178	1.617	1245785	WORD	n/a	wordpools/wordpool_categorized_EN.txt	HEN	FarmAnimals	7	11	[0, 0, 0]	n/a	catFR1	1	R1202M
1237.795	0.967	1247402	WORD_OFF	n/a	n/a	HEN	n/a	7	11	[0, 0, 0]	n/a	catFR1	1	R1202M
1238.762	1.617	1248369	WORD	n/a	wordpools/wordpool_categorized_EN.txt	PIG	FarmAnimals	8	11	[0, 0, 0]	n/a	catFR1	1	R1202M
1240.379	0.967	1249986	WORD_OFF	n/a	n/a	PIG	n/a	8	11	[0, 0, 0]	n/a	catFR1	1	R1202M
1241.346	1.618	1250953	WORD	n/a	wordpools/wordpool_categorized_EN.txt	TIGER	Zoo	9	11	[0, 0, 0]	n/a	catFR1	1	R1202M
1242.964	0.816	1252571	WORD_OFF	n/a	n/a	TIGER	n/a	9	11	[0, 0, 0]	n/a	catFR1	1	R1202M
1243.78	1.617	1253387	WORD	n/a	wordpools/wordpool_categorized_EN.txt	ELEPHANT	Zoo	10	11	[0, 0, 0]	n/a	catFR1	1	R1202M
1245.397	0.783	1255004	WORD_OFF	n/a	n/a	ELEPHANT	n/a	10	11	[0, 0, 0]	n/a	catFR1	1	R1202M
1246.18	1.617	1255787	WORD	n/a	wordpools/wordpool_categorized_EN.txt	BED	Furniture	11	11	[0, 0, 0]	n/a	catFR1	1	R1202M
1247.797	0.8	1257404	WORD_OFF	n/a	n/a	BED	n/a	11	11	[0, 0, 0]	n/a	catFR1	1	R1202M
1248.597	1.617	1258204	WORD	n/a	wordpools/wordpool_categorized_EN.txt	CABINET	Furniture	12	11	[0, 0, 0]	n/a	catFR1	1	R1202M
1250.214	0.0	1259820	ENCODING_END	n/a	n/a	n/a	n/a	-999	11	[0, 0, 0]	n/a	catFR1	1	R1202M
1250.214	0.108	1259820	WORD_OFF	n/a	n/a	CABINET	n/a	12	11	[0, 0, 0]	n/a	catFR1	1	R1202M
1250.322	0.0	1259928	DISTRACT_START	n/a	n/a	n/a	n/a	-999	11	[0, 0, 0]	n/a	catFR1	1	R1202M
1250.322	0.009	1259928	START	n/a	n/a	n/a	n/a	-999	11	[-999, -999, -999]	n/a	catFR1	1	R1202M
1250.331	4.151	1259937	PROB	4.123	n/a	n/a	n/a	-999	11	[3, 8, 4]	15.0	catFR1	1	R1202M
1254.482	3.684	1264088	PROB	3.629	n/a	n/a	n/a	-999	11	[9, 2, 5]	16.0	catFR1	1	R1202M
1258.166	3.3	1267772	PROB	3.249	n/a	n/a	n/a	-999	11	[8, 3, 7]	18.0	catFR1	1	R1202M
1261.466	1.817	1271072	PROB	1.789	n/a	n/a	n/a	-999	11	[4, 6, 2]	12.0	catFR1	1	R1202M
1263.283	3.784	1272889	PROB	3.732	n/a	n/a	n/a	-999	11	[6, 9, 3]	18.0	catFR1	1	R1202M
1267.067	2.418	1276673	PROB	2.364	n/a	n/a	n/a	-999	11	[5, 6, 2]	13.0	catFR1	1	R1202M
1269.485	2.419	1279090	PROB	2.419	n/a	n/a	n/a	-999	11	[3, 5, 4]	12.0	catFR1	1	R1202M
1271.904	0.016	1281509	STOP	n/a	n/a	n/a	n/a	-999	11	[-999, -999, -999]	n/a	catFR1	1	R1202M
1271.92	0.682	1281525	DISTRACT_END	n/a	n/a	n/a	n/a	-999	11	[0, 0, 0]	n/a	catFR1	1	R1202M
1272.602	0.518	1282207	RETRIEVAL_ORIENT	n/a	n/a	n/a	n/a	-999	11	[0, 0, 0]	n/a	catFR1	1	R1202M
1273.12	3.347	1282725	REC_START	n/a	n/a	n/a	n/a	-999	11	[0, 0, 0]	n/a	catFR1	1	R1202M
1276.467	2.68	1286072	REC_WORD	3.347	n/a	BOOKCASE	Furniture	6	11	[0, 0, 0]	n/a	catFR1	1	R1202M
1279.147	11.058	1288752	REC_WORD	6.027	n/a	DRESSER	Furniture	5	11	[0, 0, 0]	n/a	catFR1	1	R1202M
1290.205	2.523	1299809	REC_WORD	17.085	n/a	ELEPHANT	Zoo	10	11	[0, 0, 0]	n/a	catFR1	1	R1202M
1292.728	2.848	1302332	REC_WORD	19.608	n/a	ZEBRA	Zoo	3	11	[0, 0, 0]	n/a	catFR1	1	R1202M
1295.576	6.147	1305180	REC_WORD	22.456	n/a	MONKEY	Zoo	4	11	[0, 0, 0]	n/a	catFR1	1	R1202M
1301.723	1.409	1311327	REC_WORD	28.603	n/a	TIGER	Zoo	9	11	[0, 0, 0]	n/a	catFR1	1	R1202M
1303.132	6.144	1312736	REC_END	n/a	n/a	n/a	n/a	-999	11	[0, 0, 0]	n/a	catFR1	1	R1202M
1309.276	0.5	1318879	TRIAL	n/a	n/a	n/a	n/a	-999	12	[0, 0, 0]	n/a	catFR1	1	R1202M
1309.776	10.428	1319379	COUNTDOWN_START	n/a	n/a	n/a	n/a	-999	12	[0, 0, 0]	n/a	catFR1	1	R1202M
1320.204	0.007	1329807	COUNTDOWN_END	n/a	n/a	n/a	n/a	-999	12	[0, 0, 0]	n/a	catFR1	1	R1202M
1320.211	1.617	1329814	ORIENT	n/a	n/a	n/a	n/a	-999	12	[0, 0, 0]	n/a	catFR1	1	R1202M
1321.828	2.135	1331431	ORIENT_OFF	n/a	n/a	n/a	n/a	-999	12	[0, 0, 0]	n/a	catFR1	1	R1202M
1323.963	1.616	1333565	WORD	n/a	wordpools/wordpool_categorized_EN.txt	ORGAN	Instruments	1	12	[0, 0, 0]	n/a	catFR1	1	R1202M
1325.579	0.767	1335181	WORD_OFF	n/a	n/a	ORGAN	n/a	1	12	[0, 0, 0]	n/a	catFR1	1	R1202M
1326.346	1.618	1335948	WORD	n/a	wordpools/wordpool_categorized_EN.txt	BASS	Instruments	2	12	[0, 0, 0]	n/a	catFR1	1	R1202M
1327.964	0.95	1337566	WORD_OFF	n/a	n/a	BASS	n/a	2	12	[0, 0, 0]	n/a	catFR1	1	R1202M
1328.914	1.616	1338516	WORD	n/a	wordpools/wordpool_categorized_EN.txt	WINE	Beverages	3	12	[0, 0, 0]	n/a	catFR1	1	R1202M
1330.53	0.784	1340132	WORD_OFF	n/a	n/a	WINE	n/a	3	12	[0, 0, 0]	n/a	catFR1	1	R1202M
1331.314	1.618	1340916	WORD	n/a	wordpools/wordpool_categorized_EN.txt	JUICE	Beverages	4	12	[0, 0, 0]	n/a	catFR1	1	R1202M
1332.932	0.882	1342534	WORD_OFF	n/a	n/a	JUICE	n/a	4	12	[0, 0, 0]	n/a	catFR1	1	R1202M
1333.814	1.617	1343416	WORD	n/a	wordpools/wordpool_categorized_EN.txt	MOPED	Vehicles	5	12	[0, 0, 0]	n/a	catFR1	1	R1202M
1335.431	0.9	1345033	WORD_OFF	n/a	n/a	MOPED	n/a	5	12	[0, 0, 0]	n/a	catFR1	1	R1202M
1336.331	1.618	1345933	WORD	n/a	wordpools/wordpool_categorized_EN.txt	BUS	Vehicles	6	12	[0, 0, 0]	n/a	catFR1	1	R1202M
1337.949	1.017	1347551	WORD_OFF	n/a	n/a	BUS	n/a	6	12	[0, 0, 0]	n/a	catFR1	1	R1202M
1338.966	1.616	1348568	WORD	n/a	wordpools/wordpool_categorized_EN.txt	TRUMPET	Instruments	7	12	[0, 0, 0]	n/a	catFR1	1	R1202M
1340.582	0.784	1350184	WORD_OFF	n/a	n/a	TRUMPET	n/a	7	12	[0, 0, 0]	n/a	catFR1	1	R1202M
1341.366	1.617	1350968	WORD	n/a	wordpools/wordpool_categorized_EN.txt	VIOLIN	Instruments	8	12	[0, 0, 0]	n/a	catFR1	1	R1202M
1342.983	0.833	1352584	WORD_OFF	n/a	n/a	VIOLIN	n/a	8	12	[0, 0, 0]	n/a	catFR1	1	R1202M
1343.816	1.617	1353417	WORD	n/a	wordpools/wordpool_categorized_EN.txt	COFFEE	Beverages	9	12	[0, 0, 0]	n/a	catFR1	1	R1202M
1345.433	0.767	1355034	WORD_OFF	n/a	n/a	COFFEE	n/a	9	12	[0, 0, 0]	n/a	catFR1	1	R1202M
1346.2	1.617	1355801	WORD	n/a	wordpools/wordpool_categorized_EN.txt	SODA	Beverages	10	12	[0, 0, 0]	n/a	catFR1	1	R1202M
1347.817	0.967	1357418	WORD_OFF	n/a	n/a	SODA	n/a	10	12	[0, 0, 0]	n/a	catFR1	1	R1202M
1348.784	1.617	1358385	WORD	n/a	wordpools/wordpool_categorized_EN.txt	MOTORCYCLE	Vehicles	11	12	[0, 0, 0]	n/a	catFR1	1	R1202M
1350.401	0.95	1360002	WORD_OFF	n/a	n/a	MOTORCYCLE	n/a	11	12	[0, 0, 0]	n/a	catFR1	1	R1202M
1351.351	1.618	1360952	WORD	n/a	wordpools/wordpool_categorized_EN.txt	CAR	Vehicles	12	12	[0, 0, 0]	n/a	catFR1	1	R1202M
1352.969	0.0	1362570	ENCODING_END	n/a	n/a	n/a	n/a	-999	12	[0, 0, 0]	n/a	catFR1	1	R1202M
1352.969	0.137	1362570	WORD_OFF	n/a	n/a	CAR	n/a	12	12	[0, 0, 0]	n/a	catFR1	1	R1202M
1353.106	0.0	1362707	DISTRACT_START	n/a	n/a	n/a	n/a	-999	12	[0, 0, 0]	n/a	catFR1	1	R1202M
1353.106	0.012	1362707	START	n/a	n/a	n/a	n/a	-999	12	[-999, -999, -999]	n/a	catFR1	1	R1202M
1353.118	5.551	1362719	PROB	5.521	n/a	n/a	n/a	-999	12	[9, 4, 2]	15.0	catFR1	1	R1202M
1358.669	4.734	1368270	PROB	4.706	n/a	n/a	n/a	-999	12	[7, 4, 8]	19.0	catFR1	1	R1202M
1363.403	2.884	1373003	PROB	2.86	n/a	n/a	n/a	-999	12	[1, 1, 7]	9.0	catFR1	1	R1202M
1366.287	2.27	1375887	PROB	2.232	n/a	n/a	n/a	-999	12	[4, 1, 6]	11.0	catFR1	1	R1202M
1368.557	4.065	1378157	PROB	4.041	n/a	n/a	n/a	-999	12	[5, 8, 2]	15.0	catFR1	1	R1202M
1372.622	3.545	1382222	PROB	3.545	n/a	n/a	n/a	-999	12	[9, 2, 9]	20.0	catFR1	1	R1202M
1376.167	0.006	1385767	STOP	n/a	n/a	n/a	n/a	-999	12	[-999, -999, -999]	n/a	catFR1	1	R1202M
1376.173	0.616	1385773	DISTRACT_END	n/a	n/a	n/a	n/a	-999	12	[0, 0, 0]	n/a	catFR1	1	R1202M
1376.789	0.518	1386389	RETRIEVAL_ORIENT	n/a	n/a	n/a	n/a	-999	12	[0, 0, 0]	n/a	catFR1	1	R1202M
1377.307	1.813	1386907	REC_START	n/a	n/a	n/a	n/a	-999	12	[0, 0, 0]	n/a	catFR1	1	R1202M
1379.12	1.418	1388719	REC_WORD	1.813	n/a	BUS	Vehicles	6	12	[0, 0, 0]	n/a	catFR1	1	R1202M
1380.538	3.561	1390137	REC_WORD	3.231	n/a	MOTORCYCLE	Vehicles	11	12	[0, 0, 0]	n/a	catFR1	1	R1202M
1384.099	23.219	1393698	REC_WORD	6.792	n/a	MOPED	Vehicles	5	12	[0, 0, 0]	n/a	catFR1	1	R1202M
1407.318	7.646	1416916	REC_END	n/a	n/a	n/a	n/a	-999	12	[0, 0, 0]	n/a	catFR1	1	R1202M
1414.964	0.5	1424561	TRIAL	n/a	n/a	n/a	n/a	-999	13	[0, 0, 0]	n/a	catFR1	1	R1202M
1415.464	10.428	1425061	COUNTDOWN_START	n/a	n/a	n/a	n/a	-999	13	[0, 0, 0]	n/a	catFR1	1	R1202M
1425.892	0.008	1435489	COUNTDOWN_END	n/a	n/a	n/a	n/a	-999	13	[0, 0, 0]	n/a	catFR1	1	R1202M
1425.9	1.616	1435497	ORIENT	n/a	n/a	n/a	n/a	-999	13	[0, 0, 0]	n/a	catFR1	1	R1202M
1427.516	2.35	1437113	ORIENT_OFF	n/a	n/a	n/a	n/a	-999	13	[0, 0, 0]	n/a	catFR1	1	R1202M
1429.866	1.618	1439463	WORD	n/a	wordpools/wordpool_categorized_EN.txt	UNDERWEAR	Clothing	1	13	[0, 0, 0]	n/a	catFR1	1	R1202M
1431.484	0.849	1441081	WORD_OFF	n/a	n/a	UNDERWEAR	n/a	1	13	[0, 0, 0]	n/a	catFR1	1	R1202M
1432.333	1.602	1441930	WORD	n/a	wordpools/wordpool_categorized_EN.txt	COAT	Clothing	2	13	[0, 0, 0]	n/a	catFR1	1	R1202M
1433.935	0.967	1443531	WORD_OFF	n/a	n/a	COAT	n/a	2	13	[0, 0, 0]	n/a	catFR1	1	R1202M
1434.902	1.616	1444498	WORD	n/a	wordpools/wordpool_categorized_EN.txt	CYPRESS	Trees	3	13	[0, 0, 0]	n/a	catFR1	1	R1202M
1436.518	0.933	1446114	WORD_OFF	n/a	n/a	CYPRESS	n/a	3	13	[0, 0, 0]	n/a	catFR1	1	R1202M
1437.451	1.617	1447047	WORD	n/a	wordpools/wordpool_categorized_EN.txt	SPRUCE	Trees	4	13	[0, 0, 0]	n/a	catFR1	1	R1202M
1439.068	0.8	1448664	WORD_OFF	n/a	n/a	SPRUCE	n/a	4	13	[0, 0, 0]	n/a	catFR1	1	R1202M
1439.868	1.618	1449464	WORD	n/a	wordpools/wordpool_categorized_EN.txt	MILK	Beverages	5	13	[0, 0, 0]	n/a	catFR1	1	R1202M
1441.486	0.783	1451082	WORD_OFF	n/a	n/a	MILK	n/a	5	13	[0, 0, 0]	n/a	catFR1	1	R1202M
1442.269	1.618	1451865	WORD	n/a	wordpools/wordpool_categorized_EN.txt	WATER	Beverages	6	13	[0, 0, 0]	n/a	catFR1	1	R1202M
1443.887	0.882	1453483	WORD_OFF	n/a	n/a	WATER	n/a	6	13	[0, 0, 0]	n/a	catFR1	1	R1202M
1444.769	1.617	1454365	WORD	n/a	wordpools/wordpool_categorized_EN.txt	PANTS	Clothing	7	13	[0, 0, 0]	n/a	catFR1	1	R1202M
1446.386	0.85	1455982	WORD_OFF	n/a	n/a	PANTS	n/a	7	13	[0, 0, 0]	n/a	catFR1	1	R1202M
1447.236	1.618	1456832	WORD	n/a	wordpools/wordpool_categorized_EN.txt	SHORTS	Clothing	8	13	[0, 0, 0]	n/a	catFR1	1	R1202M
1448.854	0.933	1458450	WORD_OFF	n/a	n/a	SHORTS	n/a	8	13	[0, 0, 0]	n/a	catFR1	1	R1202M
1449.787	1.617	1459383	WORD	n/a	wordpools/wordpool_categorized_EN.txt	ELM	Trees	9	13	[0, 0, 0]	n/a	catFR1	1	R1202M
1451.404	0.934	1461000	WORD_OFF	n/a	n/a	ELM	n/a	9	13	[0, 0, 0]	n/a	catFR1	1	R1202M
1452.338	1.618	1461933	WORD	n/a	wordpools/wordpool_categorized_EN.txt	HICKORY	Trees	10	13	[0, 0, 0]	n/a	catFR1	1	R1202M
1453.956	0.865	1463551	WORD_OFF	n/a	n/a	HICKORY	n/a	10	13	[0, 0, 0]	n/a	catFR1	1	R1202M
1454.821	1.617	1464416	WORD	n/a	wordpools/wordpool_categorized_EN.txt	RUM	Beverages	11	13	[0, 0, 0]	n/a	catFR1	1	R1202M
1456.438	0.784	1466033	WORD_OFF	n/a	n/a	RUM	n/a	11	13	[0, 0, 0]	n/a	catFR1	1	R1202M
1457.222	1.617	1466817	WORD	n/a	wordpools/wordpool_categorized_EN.txt	BEER	Beverages	12	13	[0, 0, 0]	n/a	catFR1	1	R1202M
1458.839	0.0	1468434	WORD_OFF	n/a	n/a	BEER	n/a	12	13	[0, 0, 0]	n/a	catFR1	1	R1202M
1458.839	0.108	1468434	ENCODING_END	n/a	n/a	n/a	n/a	-999	13	[0, 0, 0]	n/a	catFR1	1	R1202M
1458.947	0.0	1468542	DISTRACT_START	n/a	n/a	n/a	n/a	-999	13	[0, 0, 0]	n/a	catFR1	1	R1202M
1458.947	0.01	1468542	START	n/a	n/a	n/a	n/a	-999	13	[-999, -999, -999]	n/a	catFR1	1	R1202M
1458.957	4.799	1468552	PROB	4.762	n/a	n/a	n/a	-999	13	[9, 5, 5]	19.0	catFR1	1	R1202M
1463.756	4.751	1473351	PROB	4.715	n/a	n/a	n/a	-999	13	[3, 3, 7]	13.0	catFR1	1	R1202M
1468.507	4.118	1478102	PROB	4.084	n/a	n/a	n/a	-999	13	[8, 4, 4]	16.0	catFR1	1	R1202M
1472.625	3.767	1482219	PROB	3.734	n/a	n/a	n/a	-999	13	[8, 5, 3]	16.0	catFR1	1	R1202M
1476.392	4.52	1485986	PROB	4.52	n/a	n/a	n/a	-999	13	[6, 6, 8]	20.0	catFR1	1	R1202M
1480.912	0.016	1490506	STOP	n/a	n/a	n/a	n/a	-999	13	[-999, -999, -999]	n/a	catFR1	1	R1202M
1480.928	0.665	1490522	DISTRACT_END	n/a	n/a	n/a	n/a	-999	13	[0, 0, 0]	n/a	catFR1	1	R1202M
1481.593	0.518	1491187	RETRIEVAL_ORIENT	n/a	n/a	n/a	n/a	-999	13	[0, 0, 0]	n/a	catFR1	1	R1202M
1482.111	6.171	1491705	REC_START	n/a	n/a	n/a	n/a	-999	13	[0, 0, 0]	n/a	catFR1	1	R1202M
1488.282	2.781	1497875	REC_WORD	6.171	n/a	WATER	Beverages	6	13	[0, 0, 0]	n/a	catFR1	1	R1202M
1491.063	4.43	1500656	REC_WORD	8.952	n/a	WINE	n/a	-999	13	[0, 0, 0]	n/a	catFR1	1	R1202M
1495.493	2.595	1505086	REC_WORD	13.382	n/a	BEER	Beverages	12	13	[0, 0, 0]	n/a	catFR1	1	R1202M
1498.088	2.11	1507681	REC_WORD	15.977	n/a	PANTS	Clothing	7	13	[0, 0, 0]	n/a	catFR1	1	R1202M
1500.198	5.385	1509791	REC_WORD	18.087	n/a	SHIRT	n/a	-999	13	[0, 0, 0]	n/a	catFR1	1	R1202M
1505.583	6.538	1515176	REC_WORD	23.472	n/a	UNDERWEAR	Clothing	1	13	[0, 0, 0]	n/a	catFR1	1	R1202M
1512.121	5.18	1521713	REC_END	n/a	n/a	n/a	n/a	-999	13	[0, 0, 0]	n/a	catFR1	1	R1202M
1517.301	0.5	1526893	TRIAL	n/a	n/a	n/a	n/a	-999	14	[0, 0, 0]	n/a	catFR1	1	R1202M
1517.801	10.428	1527393	COUNTDOWN_START	n/a	n/a	n/a	n/a	-999	14	[0, 0, 0]	n/a	catFR1	1	R1202M
1528.229	0.007	1537820	COUNTDOWN_END	n/a	n/a	n/a	n/a	-999	14	[0, 0, 0]	n/a	catFR1	1	R1202M
1528.236	1.617	1537827	ORIENT	n/a	n/a	n/a	n/a	-999	14	[0, 0, 0]	n/a	catFR1	1	R1202M
1529.853	1.984	1539444	ORIENT_OFF	n/a	n/a	n/a	n/a	-999	14	[0, 0, 0]	n/a	catFR1	1	R1202M
1531.837	1.617	1541428	WORD	n/a	wordpools/wordpool_categorized_EN.txt	TURTLE	OceanAnimals	1	14	[0, 0, 0]	n/a	catFR1	1	R1202M
1533.454	0.833	1543045	WORD_OFF	n/a	n/a	TURTLE	n/a	1	14	[0, 0, 0]	n/a	catFR1	1	R1202M
1534.287	1.601	1543878	WORD	n/a	wordpools/wordpool_categorized_EN.txt	LOBSTER	OceanAnimals	2	14	[0, 0, 0]	n/a	catFR1	1	R1202M
1535.888	0.966	1545479	WORD_OFF	n/a	n/a	LOBSTER	n/a	2	14	[0, 0, 0]	n/a	catFR1	1	R1202M
1536.854	1.617	1546445	WORD	n/a	wordpools/wordpool_categorized_EN.txt	DUCK	Birds	3	14	[0, 0, 0]	n/a	catFR1	1	R1202M
1538.471	0.867	1548062	WORD_OFF	n/a	n/a	DUCK	n/a	3	14	[0, 0, 0]	n/a	catFR1	1	R1202M
1539.338	1.618	1548929	WORD	n/a	wordpools/wordpool_categorized_EN.txt	PIGEON	Birds	4	14	[0, 0, 0]	n/a	catFR1	1	R1202M
1540.956	0.916	1550547	WORD_OFF	n/a	n/a	PIGEON	n/a	4	14	[0, 0, 0]	n/a	catFR1	1	R1202M
1541.872	1.617	1551463	WORD	n/a	wordpools/wordpool_categorized_EN.txt	LAKE	Landscapes	5	14	[0, 0, 0]	n/a	catFR1	1	R1202M
1543.489	0.984	1553079	WORD_OFF	n/a	n/a	LAKE	n/a	5	14	[0, 0, 0]	n/a	catFR1	1	R1202M
1544.473	1.617	1554063	WORD	n/a	wordpools/wordpool_categorized_EN.txt	VALLEY	Landscapes	6	14	[0, 0, 0]	n/a	catFR1	1	R1202M
1546.09	0.9	1555680	WORD_OFF	n/a	n/a	VALLEY	n/a	6	14	[0, 0, 0]	n/a	catFR1	1	R1202M
1546.99	1.617	1556580	WORD	n/a	wordpools/wordpool_categorized_EN.txt	CARDINAL	Birds	7	14	[0, 0, 0]	n/a	catFR1	1	R1202M
1548.607	0.817	1558197	WORD_OFF	n/a	n/a	CARDINAL	n/a	7	14	[0, 0, 0]	n/a	catFR1	1	R1202M
1549.424	1.617	1559014	WORD	n/a	wordpools/wordpool_categorized_EN.txt	CROW	Birds	8	14	[0, 0, 0]	n/a	catFR1	1	R1202M
1551.041	0.8	1560631	WORD_OFF	n/a	n/a	CROW	n/a	8	14	[0, 0, 0]	n/a	catFR1	1	R1202M
1551.841	1.617	1561431	WORD	n/a	wordpools/wordpool_categorized_EN.txt	DOLPHIN	OceanAnimals	9	14	[0, 0, 0]	n/a	catFR1	1	R1202M
1553.458	1.0	1563048	WORD_OFF	n/a	n/a	DOLPHIN	n/a	9	14	[0, 0, 0]	n/a	catFR1	1	R1202M
1554.458	1.617	1564048	WORD	n/a	wordpools/wordpool_categorized_EN.txt	OCTOPUS	OceanAnimals	10	14	[0, 0, 0]	n/a	catFR1	1	R1202M
1556.075	0.818	1565665	WORD_OFF	n/a	n/a	OCTOPUS	n/a	10	14	[0, 0, 0]	n/a	catFR1	1	R1202M
1556.893	1.616	1566483	WORD	n/a	wordpools/wordpool_categorized_EN.txt	MOUNTAIN	Landscapes	11	14	[0, 0, 0]	n/a	catFR1	1	R1202M
1558.509	0.883	1568099	WORD_OFF	n/a	n/a	MOUNTAIN	n/a	11	14	[0, 0, 0]	n/a	catFR1	1	R1202M
1559.392	1.617	1568982	WORD	n/a	wordpools/wordpool_categorized_EN.txt	OCEAN	Landscapes	12	14	[0, 0, 0]	n/a	catFR1	1	R1202M
1561.009	0.0	1570599	WORD_OFF	n/a	n/a	OCEAN	n/a	12	14	[0, 0, 0]	n/a	catFR1	1	R1202M
1561.009	0.111	1570599	ENCODING_END	n/a	n/a	n/a	n/a	-999	14	[0, 0, 0]	n/a	catFR1	1	R1202M
1561.12	0.0	1570710	DISTRACT_START	n/a	n/a	n/a	n/a	-999	14	[0, 0, 0]	n/a	catFR1	1	R1202M
1561.12	0.023	1570710	START	n/a	n/a	n/a	n/a	-999	14	[-999, -999, -999]	n/a	catFR1	1	R1202M
1561.143	4.334	1570733	PROB	4.312	n/a	n/a	n/a	-999	14	[5, 7, 3]	15.0	catFR1	1	R1202M
1565.477	3.25	1575066	PROB	3.218	n/a	n/a	n/a	-999	14	[2, 1, 5]	8.0	catFR1	1	R1202M
1568.727	2.951	1578316	PROB	2.92	n/a	n/a	n/a	-999	14	[5, 9, 5]	19.0	catFR1	1	R1202M
1571.678	3.801	1581267	PROB	3.777	n/a	n/a	n/a	-999	14	[9, 2, 6]	17.0	catFR1	1	R1202M
1575.479	2.317	1585068	PROB	2.28	n/a	n/a	n/a	-999	14	[1, 3, 8]	12.0	catFR1	1	R1202M
1577.796	4.139	1587385	PROB	4.139	n/a	n/a	n/a	-999	14	[3, 9, 7]	19.0	catFR1	1	R1202M
1581.935	0.013	1591523	STOP	n/a	n/a	n/a	n/a	-999	14	[-999, -999, -999]	n/a	catFR1	1	R1202M
1581.948	0.666	1591536	DISTRACT_END	n/a	n/a	n/a	n/a	-999	14	[0, 0, 0]	n/a	catFR1	1	R1202M
1582.614	0.517	1592202	RETRIEVAL_ORIENT	n/a	n/a	n/a	n/a	-999	14	[0, 0, 0]	n/a	catFR1	1	R1202M
1583.131	4.033	1592719	REC_START	n/a	n/a	n/a	n/a	-999	14	[0, 0, 0]	n/a	catFR1	1	R1202M
1587.164	2.234	1596752	REC_WORD	4.033	n/a	TURTLE	OceanAnimals	1	14	[0, 0, 0]	n/a	catFR1	1	R1202M
1589.398	2.638	1598986	REC_WORD	6.267	n/a	OCEAN	Landscapes	12	14	[0, 0, 0]	n/a	catFR1	1	R1202M
1592.036	1.69	1601624	REC_WORD	8.905	n/a	LOBSTER	OceanAnimals	2	14	[0, 0, 0]	n/a	catFR1	1	R1202M
1593.726	14.492	1603314	REC_WORD	10.595	n/a	LAKE	Landscapes	5	14	[0, 0, 0]	n/a	catFR1	1	R1202M
1608.218	4.924	1617805	REC_WORD	25.087	n/a	PIGEON	Birds	4	14	[0, 0, 0]	n/a	catFR1	1	R1202M
1613.142	6.195	1622729	REC_END	n/a	n/a	n/a	n/a	-999	14	[0, 0, 0]	n/a	catFR1	1	R1202M
1619.337	0.5	1628923	TRIAL	n/a	n/a	n/a	n/a	-999	15	[0, 0, 0]	n/a	catFR1	1	R1202M
1619.837	10.428	1629423	COUNTDOWN_START	n/a	n/a	n/a	n/a	-999	15	[0, 0, 0]	n/a	catFR1	1	R1202M
1630.265	0.008	1639851	COUNTDOWN_END	n/a	n/a	n/a	n/a	-999	15	[0, 0, 0]	n/a	catFR1	1	R1202M
1630.273	1.618	1639859	ORIENT	n/a	n/a	n/a	n/a	-999	15	[0, 0, 0]	n/a	catFR1	1	R1202M
1631.891	1.783	1641477	ORIENT_OFF	n/a	n/a	n/a	n/a	-999	15	[0, 0, 0]	n/a	catFR1	1	R1202M
1633.674	1.617	1643260	WORD	n/a	wordpools/wordpool_categorized_EN.txt	COMPUTER	Electronics	1	15	[0, 0, 0]	n/a	catFR1	1	R1202M
1635.291	0.917	1644876	WORD_OFF	n/a	n/a	COMPUTER	n/a	1	15	[0, 0, 0]	n/a	catFR1	1	R1202M
1636.208	1.616	1645793	WORD	n/a	wordpools/wordpool_categorized_EN.txt	SCANNER	Electronics	2	15	[0, 0, 0]	n/a	catFR1	1	R1202M
1637.824	0.984	1647409	WORD_OFF	n/a	n/a	SCANNER	n/a	2	15	[0, 0, 0]	n/a	catFR1	1	R1202M
1638.808	1.617	1648393	WORD	n/a	wordpools/wordpool_categorized_EN.txt	SCOOTER	Vehicles	3	15	[0, 0, 0]	n/a	catFR1	1	R1202M
1640.425	0.784	1650010	WORD_OFF	n/a	n/a	SCOOTER	n/a	3	15	[0, 0, 0]	n/a	catFR1	1	R1202M
1641.209	1.616	1650794	WORD	n/a	wordpools/wordpool_categorized_EN.txt	TRUCK	Vehicles	4	15	[0, 0, 0]	n/a	catFR1	1	R1202M
1642.825	0.784	1652410	WORD_OFF	n/a	n/a	TRUCK	n/a	4	15	[0, 0, 0]	n/a	catFR1	1	R1202M
1643.609	1.617	1653194	WORD	n/a	wordpools/wordpool_categorized_EN.txt	RIVER	Landscapes	5	15	[0, 0, 0]	n/a	catFR1	1	R1202M
1645.226	0.783	1654811	WORD_OFF	n/a	n/a	RIVER	n/a	5	15	[0, 0, 0]	n/a	catFR1	1	R1202M
1646.009	1.617	1655594	WORD	n/a	wordpools/wordpool_categorized_EN.txt	FOREST	Landscapes	6	15	[0, 0, 0]	n/a	catFR1	1	R1202M
1647.626	1.0	1657211	WORD_OFF	n/a	n/a	FOREST	n/a	6	15	[0, 0, 0]	n/a	catFR1	1	R1202M
1648.626	1.618	1658211	WORD	n/a	wordpools/wordpool_categorized_EN.txt	TELEVISION	Electronics	7	15	[0, 0, 0]	n/a	catFR1	1	R1202M
1650.244	0.9	1659829	WORD_OFF	n/a	n/a	TELEVISION	n/a	7	15	[0, 0, 0]	n/a	catFR1	1	R1202M
1651.144	1.617	1660729	WORD	n/a	wordpools/wordpool_categorized_EN.txt	CALCULATOR	Electronics	8	15	[0, 0, 0]	n/a	catFR1	1	R1202M
1652.761	0.9	1662346	WORD_OFF	n/a	n/a	CALCULATOR	n/a	8	15	[0, 0, 0]	n/a	catFR1	1	R1202M
1653.661	1.617	1663245	WORD	n/a	wordpools/wordpool_categorized_EN.txt	VAN	Vehicles	9	15	[0, 0, 0]	n/a	catFR1	1	R1202M
1655.278	0.9	1664862	WORD_OFF	n/a	n/a	VAN	n/a	9	15	[0, 0, 0]	n/a	catFR1	1	R1202M
1656.178	1.617	1665762	WORD	n/a	wordpools/wordpool_categorized_EN.txt	BIKE	Vehicles	10	15	[0, 0, 0]	n/a	catFR1	1	R1202M
1657.795	1.017	1667379	WORD_OFF	n/a	n/a	BIKE	n/a	10	15	[0, 0, 0]	n/a	catFR1	1	R1202M
1658.812	1.617	1668396	WORD	n/a	wordpools/wordpool_categorized_EN.txt	BEACH	Landscapes	11	15	[0, 0, 0]	n/a	catFR1	1	R1202M
1660.429	0.984	1670013	WORD_OFF	n/a	n/a	BEACH	n/a	11	15	[0, 0, 0]	n/a	catFR1	1	R1202M
1661.413	1.616	1670997	WORD	n/a	wordpools/wordpool_categorized_EN.txt	STREAM	Landscapes	12	15	[0, 0, 0]	n/a	catFR1	1	R1202M
1663.029	0.001	1672613	WORD_OFF	n/a	n/a	STREAM	n/a	12	15	[0, 0, 0]	n/a	catFR1	1	R1202M
1663.03	0.136	1672614	ENCODING_END	n/a	n/a	n/a	n/a	-999	15	[0, 0, 0]	n/a	catFR1	1	R1202M
1663.166	0.0	1672750	DISTRACT_START	n/a	n/a	n/a	n/a	-999	15	[0, 0, 0]	n/a	catFR1	1	R1202M
1663.166	0.013	1672750	START	n/a	n/a	n/a	n/a	-999	15	[-999, -999, -999]	n/a	catFR1	1	R1202M
1663.179	10.703	1672763	PROB	10.675	n/a	n/a	n/a	-999	15	[4, 8, 4]	16.0	catFR1	1	R1202M
1673.882	2.45	1683465	PROB	2.421	n/a	n/a	n/a	-999	15	[2, 8, 2]	12.0	catFR1	1	R1202M
1676.332	4.501	1685915	PROB	4.474	n/a	n/a	n/a	-999	15	[7, 7, 4]	18.0	catFR1	1	R1202M
1680.833	5.206	1690416	PROB	5.206	n/a	n/a	n/a	-999	15	[6, 3, 8]	15.0	catFR1	1	R1202M
1686.039	0.012	1695622	STOP	n/a	n/a	n/a	n/a	-999	15	[-999, -999, -999]	n/a	catFR1	1	R1202M
1686.051	0.55	1695634	DISTRACT_END	n/a	n/a	n/a	n/a	-999	15	[0, 0, 0]	n/a	catFR1	1	R1202M
1686.601	0.517	1696184	RETRIEVAL_ORIENT	n/a	n/a	n/a	n/a	-999	15	[0, 0, 0]	n/a	catFR1	1	R1202M
1687.118	2.738	1696701	REC_START	n/a	n/a	n/a	n/a	-999	15	[0, 0, 0]	n/a	catFR1	1	R1202M
1689.856	2.037	1699439	REC_WORD	2.738	n/a	TRUCK	Vehicles	4	15	[0, 0, 0]	n/a	catFR1	1	R1202M
1691.893	25.237	1701475	REC_WORD	4.775	n/a	BEACH	Landscapes	11	15	[0, 0, 0]	n/a	catFR1	1	R1202M
1717.13	10.429	1726711	REC_END	n/a	n/a	n/a	n/a	-999	15	[0, 0, 0]	n/a	catFR1	1	R1202M
1727.559	0.0	1737139	TRIAL	n/a	n/a	n/a	n/a	-999	16	[0, 0, 0]	n/a	catFR1	1	R1202M
