onset	duration	sample	trial_type	response_time	stim_file	item_name	category	serialpos	list	test	answer	experiment	session	subject
0.0	164.832	162952	INSTRUCT_START	n/a	n/a	n/a	n/a	-999	-999	[0, 0, 0]	n/a	catFR1	0	R1501J
164.832	44.852	327769	INSTRUCT_END	n/a	n/a	n/a	n/a	-999	-999	[0, 0, 0]	n/a	catFR1	0	R1501J
209.684	10.349	372621	COUNTDOWN_START	n/a	n/a	n/a	n/a	-999	-999	[0, 0, 0]	n/a	catFR1	0	R1501J
220.033	0.0	382964	COUNTDOWN_END	n/a	n/a	n/a	n/a	-999	-999	[0, 0, 0]	n/a	catFR1	0	R1501J
220.033	2.218	382977	ENCODING_START	n/a	n/a	n/a	n/a	-999	-1	[0, 0, 0]	n/a	catFR1	0	R1501J
222.251	1.615	385186	WORD	n/a	n/a	SPINACH	Vegetables	1	-1	[0, 0, 0]	n/a	catFR1	0	R1501J
223.866	0.984	386800	WORD_OFF	n/a	n/a	SPINACH	Vegetables	1	-1	[0, 0, 0]	n/a	catFR1	0	R1501J
224.85	1.616	387779	WORD	n/a	n/a	CUCUMBER	Vegetables	2	-1	[0, 0, 0]	n/a	catFR1	0	R1501J
226.466	0.817	389405	WORD_OFF	n/a	n/a	CUCUMBER	Vegetables	2	-1	[0, 0, 0]	n/a	catFR1	0	R1501J
227.283	1.6	390212	WORD	n/a	n/a	BIKE	Vehicles	3	-1	[0, 0, 0]	n/a	catFR1	0	R1501J
228.883	0.9	391813	WORD_OFF	n/a	n/a	BIKE	Vehicles	3	-1	[0, 0, 0]	n/a	catFR1	0	R1501J
229.783	1.6	392712	WORD	n/a	n/a	TRUCK	Vehicles	4	-1	[0, 0, 0]	n/a	catFR1	0	R1501J
231.383	0.849	394313	WORD_OFF	n/a	n/a	TRUCK	Vehicles	4	-1	[0, 0, 0]	n/a	catFR1	0	R1501J
232.232	1.616	395172	WORD	n/a	n/a	GRATER	KitchenTools	5	-1	[0, 0, 0]	n/a	catFR1	0	R1501J
233.848	1.001	396786	WORD_OFF	n/a	n/a	GRATER	KitchenTools	5	-1	[0, 0, 0]	n/a	catFR1	0	R1501J
234.849	1.617	397778	WORD	n/a	n/a	SPOON	KitchenTools	6	-1	[0, 0, 0]	n/a	catFR1	0	R1501J
236.466	0.866	399405	WORD_OFF	n/a	n/a	SPOON	KitchenTools	6	-1	[0, 0, 0]	n/a	catFR1	0	R1501J
237.332	1.618	400265	WORD	n/a	n/a	CELERY	Vegetables	7	-1	[0, 0, 0]	n/a	catFR1	0	R1501J
238.95	0.866	401878	WORD_OFF	n/a	n/a	CELERY	Vegetables	7	-1	[0, 0, 0]	n/a	catFR1	0	R1501J
239.816	1.618	402751	WORD	n/a	n/a	CORN	Vegetables	8	-1	[0, 0, 0]	n/a	catFR1	0	R1501J
241.434	0.781	404365	WORD_OFF	n/a	n/a	CORN	Vegetables	8	-1	[0, 0, 0]	n/a	catFR1	0	R1501J
242.215	1.601	405145	WORD	n/a	n/a	COLANDER	KitchenTools	9	-1	[0, 0, 0]	n/a	catFR1	0	R1501J
243.816	0.984	406746	WORD_OFF	n/a	n/a	COLANDER	KitchenTools	9	-1	[0, 0, 0]	n/a	catFR1	0	R1501J
244.8	1.616	407738	WORD	n/a	n/a	KNIFE	KitchenTools	10	-1	[0, 0, 0]	n/a	catFR1	0	R1501J
246.416	0.766	409351	WORD_OFF	n/a	n/a	KNIFE	KitchenTools	10	-1	[0, 0, 0]	n/a	catFR1	0	R1501J
247.182	1.6	410118	WORD	n/a	n/a	PLANE	Vehicles	11	-1	[0, 0, 0]	n/a	catFR1	0	R1501J
248.782	0.883	411719	WORD_OFF	n/a	n/a	PLANE	Vehicles	11	-1	[0, 0, 0]	n/a	catFR1	0	R1501J
249.665	1.6	412605	WORD	n/a	n/a	MOPED	Vehicles	12	-1	[0, 0, 0]	n/a	catFR1	0	R1501J
251.265	0.001	414192	WORD_OFF	n/a	n/a	MOPED	Vehicles	12	-1	[0, 0, 0]	n/a	catFR1	0	R1501J
251.266	0.0	414198	START	n/a	n/a	n/a	n/a	-999	-1	[-999, -999, -999]	n/a	catFR1	0	R1501J
251.266	0.0	414198	PROB	0.0	n/a	n/a	n/a	-999	-1	[7, 2, 1]	10	catFR1	0	R1501J
251.266	0.0	414205	ENCODING_END	n/a	n/a	n/a	n/a	-999	-1	[0, 0, 0]	n/a	catFR1	0	R1501J
251.266	5.916	414205	DISTRACT_START	n/a	n/a	n/a	n/a	-999	-1	[0, 0, 0]	n/a	catFR1	0	R1501J
257.182	5.785	420114	PROB	5.785	n/a	n/a	n/a	-999	-1	[3, 6, 2]	11	catFR1	0	R1501J
262.967	10.682	425899	PROB	10.682	n/a	n/a	n/a	-999	-1	[4, 7, 6]	17	catFR1	0	R1501J
273.649	0.0	436580	STOP	n/a	n/a	n/a	n/a	-999	-1	[-999, -999, -999]	n/a	catFR1	0	R1501J
273.649	1.4	436585	DISTRACT_END	n/a	n/a	n/a	n/a	-999	-1	[0, 0, 0]	n/a	catFR1	0	R1501J
275.049	2.957	437987	REC_START	n/a	n/a	n/a	n/a	-999	-1	[0, 0, 0]	n/a	catFR1	0	R1501J
278.006	0.946	440937	REC_WORD	0.946	n/a	CELERY	Vegetables	7	-1	[0, 0, 0]	n/a	catFR1	0	R1501J
278.952	1.098	441883	REC_WORD	1.098	n/a	SPOON	KitchenTools	6	-1	[0, 0, 0]	n/a	catFR1	0	R1501J
280.05	1.891	442981	REC_WORD	1.891	n/a	SPINACH	Vegetables	1	-1	[0, 0, 0]	n/a	catFR1	0	R1501J
281.941	1.141	444872	REC_WORD	1.141	n/a	MOPED	Vehicles	12	-1	[0, 0, 0]	n/a	catFR1	0	R1501J
283.082	2.59	446013	REC_WORD	2.59	n/a	GRATER	KitchenTools	5	-1	[0, 0, 0]	n/a	catFR1	0	R1501J
285.672	1.0	448603	REC_WORD_VV	1.0	n/a	<>	n/a	-999	-1	[0, 0, 0]	n/a	catFR1	0	R1501J
286.672	19.574	449603	REC_WORD_VV	19.574	n/a	<>	n/a	-999	-1	[0, 0, 0]	n/a	catFR1	0	R1501J
306.246	42.204	469175	REC_END	n/a	n/a	n/a	n/a	-999	-1	[0, 0, 0]	n/a	catFR1	0	R1501J
348.45	10.35	511382	COUNTDOWN_START	n/a	n/a	n/a	n/a	-999	1	[0, 0, 0]	n/a	catFR1	0	R1501J
358.8	0.0	521725	COUNTDOWN_END	n/a	n/a	n/a	n/a	-999	1	[0, 0, 0]	n/a	catFR1	0	R1501J
358.8	2.048	521725	ENCODING_START	n/a	n/a	n/a	n/a	-999	1	[0, 0, 0]	n/a	catFR1	0	R1501J
360.848	1.602	523775	WORD	n/a	wordpools/wordpool_categorized_EN.txt	SODA	Beverages	1	1	[0, 0, 0]	n/a	catFR1	0	R1501J
362.45	0.933	525376	WORD_OFF	n/a	n/a	SODA	Beverages	1	1	[0, 0, 0]	n/a	catFR1	0	R1501J
363.383	1.616	526315	WORD	n/a	wordpools/wordpool_categorized_EN.txt	COFFEE	Beverages	2	1	[0, 0, 0]	n/a	catFR1	0	R1501J
364.999	0.767	527928	WORD_OFF	n/a	n/a	COFFEE	Beverages	2	1	[0, 0, 0]	n/a	catFR1	0	R1501J
365.766	1.617	528695	WORD	n/a	wordpools/wordpool_categorized_EN.txt	GOAT	FarmAnimals	3	1	[0, 0, 0]	n/a	catFR1	0	R1501J
367.383	0.833	530309	WORD_OFF	n/a	n/a	GOAT	FarmAnimals	3	1	[0, 0, 0]	n/a	catFR1	0	R1501J
368.216	1.616	531142	WORD	n/a	wordpools/wordpool_categorized_EN.txt	SHEEP	FarmAnimals	4	1	[0, 0, 0]	n/a	catFR1	0	R1501J
369.832	0.984	532756	WORD_OFF	n/a	n/a	SHEEP	FarmAnimals	4	1	[0, 0, 0]	n/a	catFR1	0	R1501J
370.816	1.616	533748	WORD	n/a	wordpools/wordpool_categorized_EN.txt	CARDINAL	Birds	5	1	[0, 0, 0]	n/a	catFR1	0	R1501J
372.432	0.834	535362	WORD_OFF	n/a	n/a	CARDINAL	Birds	5	1	[0, 0, 0]	n/a	catFR1	0	R1501J
373.266	1.617	536195	WORD	n/a	wordpools/wordpool_categorized_EN.txt	PIGEON	Birds	6	1	[0, 0, 0]	n/a	catFR1	0	R1501J
374.883	0.933	537809	WORD_OFF	n/a	n/a	PIGEON	Birds	6	1	[0, 0, 0]	n/a	catFR1	0	R1501J
375.816	1.6	538748	WORD	n/a	wordpools/wordpool_categorized_EN.txt	PIG	FarmAnimals	7	1	[0, 0, 0]	n/a	catFR1	0	R1501J
377.416	0.801	540348	WORD_OFF	n/a	n/a	PIG	FarmAnimals	7	1	[0, 0, 0]	n/a	catFR1	0	R1501J
378.217	1.615	541142	WORD	n/a	wordpools/wordpool_categorized_EN.txt	TURKEY	FarmAnimals	8	1	[0, 0, 0]	n/a	catFR1	0	R1501J
379.832	0.901	542755	WORD_OFF	n/a	n/a	TURKEY	FarmAnimals	8	1	[0, 0, 0]	n/a	catFR1	0	R1501J
380.733	1.6	543655	WORD	n/a	wordpools/wordpool_categorized_EN.txt	WINE	Beverages	9	1	[0, 0, 0]	n/a	catFR1	0	R1501J
382.333	0.783	545255	WORD_OFF	n/a	n/a	WINE	Beverages	9	1	[0, 0, 0]	n/a	catFR1	0	R1501J
383.116	1.6	546049	WORD	n/a	wordpools/wordpool_categorized_EN.txt	WATER	Beverages	10	1	[0, 0, 0]	n/a	catFR1	0	R1501J
384.716	0.966	547649	WORD_OFF	n/a	n/a	WATER	Beverages	10	1	[0, 0, 0]	n/a	catFR1	0	R1501J
385.682	1.6	548615	WORD	n/a	wordpools/wordpool_categorized_EN.txt	DOVE	Birds	11	1	[0, 0, 0]	n/a	catFR1	0	R1501J
387.282	0.9	550215	WORD_OFF	n/a	n/a	DOVE	Birds	11	1	[0, 0, 0]	n/a	catFR1	0	R1501J
388.182	1.617	551115	WORD	n/a	wordpools/wordpool_categorized_EN.txt	SPARROW	Birds	12	1	[0, 0, 0]	n/a	catFR1	0	R1501J
389.799	0.001	552725	PROB	0.001	n/a	n/a	n/a	-999	1	[5, 7, 3]	15	catFR1	0	R1501J
389.8	0.0	552726	START	n/a	n/a	n/a	n/a	-999	1	[-999, -999, -999]	n/a	catFR1	0	R1501J
389.799	0.001	552728	WORD_OFF	n/a	n/a	SPARROW	Birds	12	1	[0, 0, 0]	n/a	catFR1	0	R1501J
389.8	0.0	552728	ENCODING_END	n/a	n/a	n/a	n/a	-999	1	[0, 0, 0]	n/a	catFR1	0	R1501J
389.8	9.282	552728	DISTRACT_START	n/a	n/a	n/a	n/a	-999	1	[0, 0, 0]	n/a	catFR1	0	R1501J
399.082	3.35	562008	PROB	3.35	n/a	n/a	n/a	-999	1	[2, 8, 1]	11	catFR1	0	R1501J
402.432	17.134	565358	PROB	17.134	n/a	n/a	n/a	-999	1	[8, 6, 6]	20	catFR1	0	R1501J
419.566	0.0	582488	DISTRACT_END	n/a	n/a	n/a	n/a	-999	1	[0, 0, 0]	n/a	catFR1	0	R1501J
419.566	1.3	582491	STOP	n/a	n/a	n/a	n/a	-999	1	[-999, -999, -999]	n/a	catFR1	0	R1501J
420.866	1.168	583798	REC_START	n/a	n/a	n/a	n/a	-999	1	[0, 0, 0]	n/a	catFR1	0	R1501J
422.034	0.912	584959	REC_WORD	0.912	n/a	SODA	Beverages	1	1	[0, 0, 0]	n/a	catFR1	0	R1501J
422.946	1.198	585871	REC_WORD	1.198	n/a	WATER	Beverages	10	1	[0, 0, 0]	n/a	catFR1	0	R1501J
424.144	2.314	587069	REC_WORD	2.314	n/a	GOAT	FarmAnimals	3	1	[0, 0, 0]	n/a	catFR1	0	R1501J
426.458	3.61	589383	REC_WORD	3.61	n/a	CARDINAL	Birds	5	1	[0, 0, 0]	n/a	catFR1	0	R1501J
430.068	0.857	592993	REC_WORD	0.857	n/a	PIG	FarmAnimals	7	1	[0, 0, 0]	n/a	catFR1	0	R1501J
430.925	3.834	593850	REC_WORD	3.834	n/a	SHEEP	FarmAnimals	4	1	[0, 0, 0]	n/a	catFR1	0	R1501J
434.759	5.024	597683	REC_WORD	5.024	n/a	SPARROW	Birds	12	1	[0, 0, 0]	n/a	catFR1	0	R1501J
439.783	12.282	602707	REC_WORD	12.282	n/a	WINE	Beverages	9	1	[0, 0, 0]	n/a	catFR1	0	R1501J
452.065	3.653	614986	REC_END	n/a	n/a	n/a	n/a	-999	1	[0, 0, 0]	n/a	catFR1	0	R1501J
455.718	10.349	618650	COUNTDOWN_START	n/a	n/a	n/a	n/a	-999	2	[0, 0, 0]	n/a	catFR1	0	R1501J
466.067	0.0	628993	COUNTDOWN_END	n/a	n/a	n/a	n/a	-999	2	[0, 0, 0]	n/a	catFR1	0	R1501J
466.067	2.017	628993	ENCODING_START	n/a	n/a	n/a	n/a	-999	2	[0, 0, 0]	n/a	catFR1	0	R1501J
468.084	1.6	631004	WORD	n/a	wordpools/wordpool_categorized_EN.txt	ONION	Vegetables	1	2	[0, 0, 0]	n/a	catFR1	0	R1501J
469.684	0.899	632604	WORD_OFF	n/a	n/a	ONION	Vegetables	1	2	[0, 0, 0]	n/a	catFR1	0	R1501J
470.583	1.601	633503	WORD	n/a	wordpools/wordpool_categorized_EN.txt	PEAS	Vegetables	2	2	[0, 0, 0]	n/a	catFR1	0	R1501J
472.184	0.983	635104	WORD_OFF	n/a	n/a	PEAS	Vegetables	2	2	[0, 0, 0]	n/a	catFR1	0	R1501J
473.167	1.601	636096	WORD	n/a	wordpools/wordpool_categorized_EN.txt	PANDA	Zoo	3	2	[0, 0, 0]	n/a	catFR1	0	R1501J
474.768	0.85	637696	WORD_OFF	n/a	n/a	PANDA	Zoo	3	2	[0, 0, 0]	n/a	catFR1	0	R1501J
475.618	1.616	638543	WORD	n/a	wordpools/wordpool_categorized_EN.txt	TIGER	Zoo	4	2	[0, 0, 0]	n/a	catFR1	0	R1501J
477.234	0.849	640156	WORD_OFF	n/a	n/a	TIGER	Zoo	4	2	[0, 0, 0]	n/a	catFR1	0	R1501J
478.083	1.601	641003	WORD	n/a	wordpools/wordpool_categorized_EN.txt	OAK	Trees	5	2	[0, 0, 0]	n/a	catFR1	0	R1501J
479.684	0.867	642603	WORD_OFF	n/a	n/a	OAK	Trees	5	2	[0, 0, 0]	n/a	catFR1	0	R1501J
480.551	1.617	643476	WORD	n/a	wordpools/wordpool_categorized_EN.txt	CYPRESS	Trees	6	2	[0, 0, 0]	n/a	catFR1	0	R1501J
482.168	0.783	645090	WORD_OFF	n/a	n/a	CYPRESS	Trees	6	2	[0, 0, 0]	n/a	catFR1	0	R1501J
482.951	1.616	645870	WORD	n/a	wordpools/wordpool_categorized_EN.txt	GORILLA	Zoo	7	2	[0, 0, 0]	n/a	catFR1	0	R1501J
484.567	0.951	647484	WORD_OFF	n/a	n/a	GORILLA	Zoo	7	2	[0, 0, 0]	n/a	catFR1	0	R1501J
485.518	1.615	648436	WORD	n/a	wordpools/wordpool_categorized_EN.txt	GIRAFFE	Zoo	8	2	[0, 0, 0]	n/a	catFR1	0	R1501J
487.133	1.001	650063	WORD_OFF	n/a	n/a	GIRAFFE	Zoo	8	2	[0, 0, 0]	n/a	catFR1	0	R1501J
488.134	1.6	651055	WORD	n/a	wordpools/wordpool_categorized_EN.txt	HICKORY	Trees	9	2	[0, 0, 0]	n/a	catFR1	0	R1501J
489.734	0.833	652656	WORD_OFF	n/a	n/a	HICKORY	Trees	9	2	[0, 0, 0]	n/a	catFR1	0	R1501J
490.567	1.6	653489	WORD	n/a	wordpools/wordpool_categorized_EN.txt	EVERGREEN	Trees	10	2	[0, 0, 0]	n/a	catFR1	0	R1501J
492.167	0.932	655089	WORD_OFF	n/a	n/a	EVERGREEN	Trees	10	2	[0, 0, 0]	n/a	catFR1	0	R1501J
493.099	1.601	656028	WORD	n/a	wordpools/wordpool_categorized_EN.txt	CARROT	Vegetables	11	2	[0, 0, 0]	n/a	catFR1	0	R1501J
494.7	0.9	657629	WORD_OFF	n/a	n/a	CARROT	Vegetables	11	2	[0, 0, 0]	n/a	catFR1	0	R1501J
495.6	1.601	658528	WORD	n/a	wordpools/wordpool_categorized_EN.txt	LETTUCE	Vegetables	12	2	[0, 0, 0]	n/a	catFR1	0	R1501J
497.201	0.0	660123	START	n/a	n/a	n/a	n/a	-999	2	[-999, -999, -999]	n/a	catFR1	0	R1501J
497.201	0.0	660123	PROB	0.0	n/a	n/a	n/a	-999	2	[1, 2, 1]	4	catFR1	0	R1501J
497.2	0.001	660129	WORD_OFF	n/a	n/a	LETTUCE	Vegetables	12	2	[0, 0, 0]	n/a	catFR1	0	R1501J
497.201	0.0	660129	ENCODING_END	n/a	n/a	n/a	n/a	-999	2	[0, 0, 0]	n/a	catFR1	0	R1501J
497.201	3.566	660129	DISTRACT_START	n/a	n/a	n/a	n/a	-999	2	[0, 0, 0]	n/a	catFR1	0	R1501J
500.767	5.649	663689	PROB	5.649	n/a	n/a	n/a	-999	2	[2, 7, 7]	16	catFR1	0	R1501J
506.416	4.3	669337	PROB	4.3	n/a	n/a	n/a	-999	2	[1, 1, 6]	8	catFR1	0	R1501J
510.716	5.434	673637	PROB	5.434	n/a	n/a	n/a	-999	2	[1, 3, 8]	12	catFR1	0	R1501J
516.15	3.449	679071	PROB	3.449	n/a	n/a	n/a	-999	2	[3, 6, 2]	11	catFR1	0	R1501J
519.599	0.0	682520	STOP	n/a	n/a	n/a	n/a	-999	2	[-999, -999, -999]	n/a	catFR1	0	R1501J
519.599	1.118	682521	DISTRACT_END	n/a	n/a	n/a	n/a	-999	2	[0, 0, 0]	n/a	catFR1	0	R1501J
520.717	1.081	683632	REC_START	n/a	n/a	n/a	n/a	-999	2	[0, 0, 0]	n/a	catFR1	0	R1501J
521.798	1.0	684719	REC_WORD_VV	1.0	n/a	<>	n/a	-999	2	[0, 0, 0]	n/a	catFR1	0	R1501J
522.798	8.936	685719	REC_WORD_VV	8.936	n/a	<>	n/a	-999	2	[0, 0, 0]	n/a	catFR1	0	R1501J
531.734	1.766	694654	REC_WORD_VV	1.766	n/a	<>	n/a	-999	2	[0, 0, 0]	n/a	catFR1	0	R1501J
533.5	1.705	696420	REC_WORD	1.705	n/a	CARDINAL	Birds	-999	2	[0, 0, 0]	n/a	catFR1	0	R1501J
535.205	1.718	698125	REC_WORD	1.718	n/a	HICKORY	Trees	9	2	[0, 0, 0]	n/a	catFR1	0	R1501J
536.923	0.142	699843	REC_WORD_VV	0.142	n/a	<>	n/a	-999	2	[0, 0, 0]	n/a	catFR1	0	R1501J
537.065	0.414	699985	REC_WORD	0.414	n/a	CARDINAL	Birds	-999	2	[0, 0, 0]	n/a	catFR1	0	R1501J
537.479	1.0	700399	REC_WORD_VV	1.0	n/a	<>	n/a	-999	2	[0, 0, 0]	n/a	catFR1	0	R1501J
538.479	2.684	701399	REC_WORD_VV	2.684	n/a	<>	n/a	-999	2	[0, 0, 0]	n/a	catFR1	0	R1501J
541.163	3.315	704083	REC_WORD	3.315	n/a	PIG	FarmAnimals	-999	2	[0, 0, 0]	n/a	catFR1	0	R1501J
544.478	1.089	707398	REC_WORD	1.089	n/a	GOAT	FarmAnimals	-999	2	[0, 0, 0]	n/a	catFR1	0	R1501J
545.567	6.347	708487	REC_WORD_VV	6.347	n/a	<>	n/a	-999	2	[0, 0, 0]	n/a	catFR1	0	R1501J
551.914	2.537	714834	REC_END	n/a	n/a	n/a	n/a	-999	2	[0, 0, 0]	n/a	catFR1	0	R1501J
554.451	10.349	717374	COUNTDOWN_START	n/a	n/a	n/a	n/a	-999	3	[0, 0, 0]	n/a	catFR1	0	R1501J
564.8	0.0	727717	COUNTDOWN_END	n/a	n/a	n/a	n/a	-999	3	[0, 0, 0]	n/a	catFR1	0	R1501J
564.8	2.1	727717	ENCODING_START	n/a	n/a	n/a	n/a	-999	3	[0, 0, 0]	n/a	catFR1	0	R1501J
566.9	1.601	729820	WORD	n/a	wordpools/wordpool_categorized_EN.txt	LADLE	KitchenTools	1	3	[0, 0, 0]	n/a	catFR1	0	R1501J
568.501	0.917	731420	WORD_OFF	n/a	n/a	LADLE	KitchenTools	1	3	[0, 0, 0]	n/a	catFR1	0	R1501J
569.418	1.616	732333	WORD	n/a	wordpools/wordpool_categorized_EN.txt	SPATULA	KitchenTools	2	3	[0, 0, 0]	n/a	catFR1	0	R1501J
571.034	0.9	733947	WORD_OFF	n/a	n/a	SPATULA	KitchenTools	2	3	[0, 0, 0]	n/a	catFR1	0	R1501J
571.934	1.6	734859	WORD	n/a	wordpools/wordpool_categorized_EN.txt	FLEECE	Fabric	3	3	[0, 0, 0]	n/a	catFR1	0	R1501J
573.534	0.933	736460	WORD_OFF	n/a	n/a	FLEECE	Fabric	3	3	[0, 0, 0]	n/a	catFR1	0	R1501J
574.467	1.601	737386	WORD	n/a	wordpools/wordpool_categorized_EN.txt	WOOL	Fabric	4	3	[0, 0, 0]	n/a	catFR1	0	R1501J
576.068	0.933	738986	WORD_OFF	n/a	n/a	WOOL	Fabric	4	3	[0, 0, 0]	n/a	catFR1	0	R1501J
577.001	1.6	739925	WORD	n/a	wordpools/wordpool_categorized_EN.txt	BED	Furniture	5	3	[0, 0, 0]	n/a	catFR1	0	R1501J
578.601	0.832	741525	WORD_OFF	n/a	n/a	BED	Furniture	5	3	[0, 0, 0]	n/a	catFR1	0	R1501J
579.433	1.601	742346	WORD	n/a	wordpools/wordpool_categorized_EN.txt	CABINET	Furniture	6	3	[0, 0, 0]	n/a	catFR1	0	R1501J
581.034	0.782	743959	WORD_OFF	n/a	n/a	CABINET	Furniture	6	3	[0, 0, 0]	n/a	catFR1	0	R1501J
581.816	1.6	744740	WORD	n/a	wordpools/wordpool_categorized_EN.txt	VELVET	Fabric	7	3	[0, 0, 0]	n/a	catFR1	0	R1501J
583.416	0.9	746340	WORD_OFF	n/a	n/a	VELVET	Fabric	7	3	[0, 0, 0]	n/a	catFR1	0	R1501J
584.316	1.618	747239	WORD	n/a	wordpools/wordpool_categorized_EN.txt	LINEN	Fabric	8	3	[0, 0, 0]	n/a	catFR1	0	R1501J
585.934	0.883	748853	WORD_OFF	n/a	n/a	LINEN	Fabric	8	3	[0, 0, 0]	n/a	catFR1	0	R1501J
586.817	1.6	749739	WORD	n/a	wordpools/wordpool_categorized_EN.txt	CHAIR	Furniture	9	3	[0, 0, 0]	n/a	catFR1	0	R1501J
588.417	0.983	751340	WORD_OFF	n/a	n/a	CHAIR	Furniture	9	3	[0, 0, 0]	n/a	catFR1	0	R1501J
589.4	1.601	752318	WORD	n/a	wordpools/wordpool_categorized_EN.txt	COUCH	Furniture	10	3	[0, 0, 0]	n/a	catFR1	0	R1501J
591.001	0.916	753919	WORD_OFF	n/a	n/a	COUCH	Furniture	10	3	[0, 0, 0]	n/a	catFR1	0	R1501J
591.917	1.6	754832	WORD	n/a	wordpools/wordpool_categorized_EN.txt	FORK	KitchenTools	11	3	[0, 0, 0]	n/a	catFR1	0	R1501J
593.517	1.0	756432	WORD_OFF	n/a	n/a	FORK	KitchenTools	11	3	[0, 0, 0]	n/a	catFR1	0	R1501J
594.517	1.601	757437	WORD	n/a	wordpools/wordpool_categorized_EN.txt	PEELER	KitchenTools	12	3	[0, 0, 0]	n/a	catFR1	0	R1501J
596.118	0.0	759036	PROB	0.0	n/a	n/a	n/a	-999	3	[5, 1, 2]	8	catFR1	0	R1501J
596.118	0.0	759036	START	n/a	n/a	n/a	n/a	-999	3	[-999, -999, -999]	n/a	catFR1	0	R1501J
596.117	0.001	759038	WORD_OFF	n/a	n/a	PEELER	KitchenTools	12	3	[0, 0, 0]	n/a	catFR1	0	R1501J
596.118	0.0	759038	ENCODING_END	n/a	n/a	n/a	n/a	-999	3	[0, 0, 0]	n/a	catFR1	0	R1501J
596.118	4.099	759038	DISTRACT_START	n/a	n/a	n/a	n/a	-999	3	[0, 0, 0]	n/a	catFR1	0	R1501J
600.217	6.883	763135	PROB	6.883	n/a	n/a	n/a	-999	3	[8, 4, 2]	14	catFR1	0	R1501J
607.1	3.167	770017	PROB	3.167	n/a	n/a	n/a	-999	3	[4, 4, 4]	12	catFR1	0	R1501J
610.267	8.266	773184	PROB	8.266	n/a	n/a	n/a	-999	3	[1, 2, 5]	8	catFR1	0	R1501J
618.533	0.0	781450	STOP	n/a	n/a	n/a	n/a	-999	3	[-999, -999, -999]	n/a	catFR1	0	R1501J
618.533	1.266	781457	DISTRACT_END	n/a	n/a	n/a	n/a	-999	3	[0, 0, 0]	n/a	catFR1	0	R1501J
619.799	0.134	782713	REC_START	n/a	n/a	n/a	n/a	-999	3	[0, 0, 0]	n/a	catFR1	0	R1501J
619.933	0.708	782850	REC_WORD	0.708	n/a	LADLE	KitchenTools	1	3	[0, 0, 0]	n/a	catFR1	0	R1501J
620.641	0.889	783558	REC_WORD	0.889	n/a	SPATULA	KitchenTools	2	3	[0, 0, 0]	n/a	catFR1	0	R1501J
621.53	0.879	784447	REC_WORD	0.879	n/a	FLEECE	Fabric	3	3	[0, 0, 0]	n/a	catFR1	0	R1501J
622.409	1.165	785326	REC_WORD	1.165	n/a	WOOL	Fabric	4	3	[0, 0, 0]	n/a	catFR1	0	R1501J
623.574	3.564	786491	REC_WORD	3.564	n/a	BED	Furniture	5	3	[0, 0, 0]	n/a	catFR1	0	R1501J
627.138	11.746	790054	REC_WORD	11.746	n/a	CABINET	Furniture	6	3	[0, 0, 0]	n/a	catFR1	0	R1501J
638.884	4.419	801800	REC_WORD	4.419	n/a	HICKORY	Trees	-999	3	[0, 0, 0]	n/a	catFR1	0	R1501J
643.303	4.06	806219	REC_WORD	4.06	n/a	SHEEP	FarmAnimals	-999	3	[0, 0, 0]	n/a	catFR1	0	R1501J
647.363	3.653	810279	REC_WORD	3.653	n/a	PANDA	Zoo	-999	3	[0, 0, 0]	n/a	catFR1	0	R1501J
651.016	2.385	813928	REC_END	n/a	n/a	n/a	n/a	-999	3	[0, 0, 0]	n/a	catFR1	0	R1501J
653.401	10.349	816322	COUNTDOWN_START	n/a	n/a	n/a	n/a	-999	4	[0, 0, 0]	n/a	catFR1	0	R1501J
663.75	0.0	826665	COUNTDOWN_END	n/a	n/a	n/a	n/a	-999	4	[0, 0, 0]	n/a	catFR1	0	R1501J
663.75	2.018	826665	ENCODING_START	n/a	n/a	n/a	n/a	-999	4	[0, 0, 0]	n/a	catFR1	0	R1501J
665.768	1.616	828689	WORD	n/a	wordpools/wordpool_categorized_EN.txt	HILLS	Landscapes	1	4	[0, 0, 0]	n/a	catFR1	0	R1501J
667.384	1.0	830303	WORD_OFF	n/a	n/a	HILLS	Landscapes	1	4	[0, 0, 0]	n/a	catFR1	0	R1501J
668.384	1.617	831295	WORD	n/a	wordpools/wordpool_categorized_EN.txt	ISLAND	Landscapes	2	4	[0, 0, 0]	n/a	catFR1	0	R1501J
670.001	0.8	832922	WORD_OFF	n/a	n/a	ISLAND	Landscapes	2	4	[0, 0, 0]	n/a	catFR1	0	R1501J
670.801	1.6	833715	WORD	n/a	wordpools/wordpool_categorized_EN.txt	WHALE	OceanAnimals	3	4	[0, 0, 0]	n/a	catFR1	0	R1501J
672.401	0.833	835316	WORD_OFF	n/a	n/a	WHALE	OceanAnimals	3	4	[0, 0, 0]	n/a	catFR1	0	R1501J
673.234	1.616	836149	WORD	n/a	wordpools/wordpool_categorized_EN.txt	PLANKTON	OceanAnimals	4	4	[0, 0, 0]	n/a	catFR1	0	R1501J
674.85	0.9	837763	WORD_OFF	n/a	n/a	PLANKTON	OceanAnimals	4	4	[0, 0, 0]	n/a	catFR1	0	R1501J
675.75	1.601	838662	WORD	n/a	wordpools/wordpool_categorized_EN.txt	TUBA	Instruments	5	4	[0, 0, 0]	n/a	catFR1	0	R1501J
677.351	0.982	840262	WORD_OFF	n/a	n/a	TUBA	Instruments	5	4	[0, 0, 0]	n/a	catFR1	0	R1501J
678.333	1.6	841254	WORD	n/a	wordpools/wordpool_categorized_EN.txt	DRUM	Instruments	6	4	[0, 0, 0]	n/a	catFR1	0	R1501J
679.933	0.935	842842	WORD_OFF	n/a	n/a	DRUM	Instruments	6	4	[0, 0, 0]	n/a	catFR1	0	R1501J
680.868	1.616	843781	WORD	n/a	wordpools/wordpool_categorized_EN.txt	OCTOPUS	OceanAnimals	7	4	[0, 0, 0]	n/a	catFR1	0	R1501J
682.484	0.917	845394	WORD_OFF	n/a	n/a	OCTOPUS	OceanAnimals	7	4	[0, 0, 0]	n/a	catFR1	0	R1501J
683.401	1.599	846320	WORD	n/a	wordpools/wordpool_categorized_EN.txt	FISH	OceanAnimals	8	4	[0, 0, 0]	n/a	catFR1	0	R1501J
685.0	0.883	847921	WORD_OFF	n/a	n/a	FISH	OceanAnimals	8	4	[0, 0, 0]	n/a	catFR1	0	R1501J
685.883	1.601	848794	WORD	n/a	wordpools/wordpool_categorized_EN.txt	RIVER	Landscapes	9	4	[0, 0, 0]	n/a	catFR1	0	R1501J
687.484	0.916	850407	WORD_OFF	n/a	n/a	RIVER	Landscapes	9	4	[0, 0, 0]	n/a	catFR1	0	R1501J
688.4	1.601	851320	WORD	n/a	wordpools/wordpool_categorized_EN.txt	FOREST	Landscapes	10	4	[0, 0, 0]	n/a	catFR1	0	R1501J
690.001	0.966	852920	WORD_OFF	n/a	n/a	FOREST	Landscapes	10	4	[0, 0, 0]	n/a	catFR1	0	R1501J
690.967	1.617	853886	WORD	n/a	wordpools/wordpool_categorized_EN.txt	BASS	Instruments	11	4	[0, 0, 0]	n/a	catFR1	0	R1501J
692.584	0.833	855500	WORD_OFF	n/a	n/a	BASS	Instruments	11	4	[0, 0, 0]	n/a	catFR1	0	R1501J
693.417	1.601	856333	WORD	n/a	wordpools/wordpool_categorized_EN.txt	GUITAR	Instruments	12	4	[0, 0, 0]	n/a	catFR1	0	R1501J
695.018	0.0	857932	START	n/a	n/a	n/a	n/a	-999	4	[-999, -999, -999]	n/a	catFR1	0	R1501J
695.018	0.0	857932	PROB	0.0	n/a	n/a	n/a	-999	4	[1, 4, 8]	13	catFR1	0	R1501J
695.017	0.001	857933	WORD_OFF	n/a	n/a	GUITAR	Instruments	12	4	[0, 0, 0]	n/a	catFR1	0	R1501J
695.018	0.0	857933	ENCODING_END	n/a	n/a	n/a	n/a	-999	4	[0, 0, 0]	n/a	catFR1	0	R1501J
695.018	5.033	857933	DISTRACT_START	n/a	n/a	n/a	n/a	-999	4	[0, 0, 0]	n/a	catFR1	0	R1501J
700.051	5.232	862964	PROB	5.232	n/a	n/a	n/a	-999	4	[3, 1, 5]	9	catFR1	0	R1501J
705.283	5.551	868196	PROB	5.551	n/a	n/a	n/a	-999	4	[1, 6, 7]	14	catFR1	0	R1501J
710.834	5.166	873747	PROB	5.166	n/a	n/a	n/a	-999	4	[6, 8, 1]	15	catFR1	0	R1501J
716.0	0.0	878911	DISTRACT_END	n/a	n/a	n/a	n/a	-999	4	[0, 0, 0]	n/a	catFR1	0	R1501J
716.0	1.101	878913	STOP	n/a	n/a	n/a	n/a	-999	4	[-999, -999, -999]	n/a	catFR1	0	R1501J
717.101	0.608	880009	REC_START	n/a	n/a	n/a	n/a	-999	4	[0, 0, 0]	n/a	catFR1	0	R1501J
717.709	1.958	880622	REC_WORD_VV	1.958	n/a	<>	n/a	-999	4	[0, 0, 0]	n/a	catFR1	0	R1501J
719.667	6.539	882580	REC_WORD_VV	6.539	n/a	<>	n/a	-999	4	[0, 0, 0]	n/a	catFR1	0	R1501J
726.206	2.128	889118	REC_WORD	2.128	n/a	WHALE	OceanAnimals	3	4	[0, 0, 0]	n/a	catFR1	0	R1501J
728.334	7.955	891246	REC_WORD_VV	7.955	n/a	<>	n/a	-999	4	[0, 0, 0]	n/a	catFR1	0	R1501J
736.289	12.025	899201	REC_WORD	12.025	n/a	HICKORY	Trees	-999	4	[0, 0, 0]	n/a	catFR1	0	R1501J
748.314	2.57	911223	REC_END	n/a	n/a	n/a	n/a	-999	4	[0, 0, 0]	n/a	catFR1	0	R1501J
750.884	10.349	913803	COUNTDOWN_START	n/a	n/a	n/a	n/a	-999	5	[0, 0, 0]	n/a	catFR1	0	R1501J
761.233	0.0	924146	COUNTDOWN_END	n/a	n/a	n/a	n/a	-999	5	[0, 0, 0]	n/a	catFR1	0	R1501J
761.233	2.001	924146	ENCODING_START	n/a	n/a	n/a	n/a	-999	5	[0, 0, 0]	n/a	catFR1	0	R1501J
763.234	1.6	926143	WORD	n/a	wordpools/wordpool_categorized_EN.txt	SPIDER	Insects	1	5	[0, 0, 0]	n/a	catFR1	0	R1501J
764.834	0.8	927757	WORD_OFF	n/a	n/a	SPIDER	Insects	1	5	[0, 0, 0]	n/a	catFR1	0	R1501J
765.634	1.617	928550	WORD	n/a	wordpools/wordpool_categorized_EN.txt	MOTH	Insects	2	5	[0, 0, 0]	n/a	catFR1	0	R1501J
767.251	0.9	930164	WORD_OFF	n/a	n/a	MOTH	Insects	2	5	[0, 0, 0]	n/a	catFR1	0	R1501J
768.151	1.616	931063	WORD	n/a	wordpools/wordpool_categorized_EN.txt	MOUSSE	Desserts	3	5	[0, 0, 0]	n/a	catFR1	0	R1501J
769.767	0.949	932677	WORD_OFF	n/a	n/a	MOUSSE	Desserts	3	5	[0, 0, 0]	n/a	catFR1	0	R1501J
770.716	1.602	933629	WORD	n/a	wordpools/wordpool_categorized_EN.txt	FUDGE	Desserts	4	5	[0, 0, 0]	n/a	catFR1	0	R1501J
772.318	0.999	935230	WORD_OFF	n/a	n/a	FUDGE	Desserts	4	5	[0, 0, 0]	n/a	catFR1	0	R1501J
773.317	1.617	936235	WORD	n/a	wordpools/wordpool_categorized_EN.txt	VACUUM	Appliances	5	5	[0, 0, 0]	n/a	catFR1	0	R1501J
774.934	0.899	937849	WORD_OFF	n/a	n/a	VACUUM	Appliances	5	5	[0, 0, 0]	n/a	catFR1	0	R1501J
775.833	1.601	938748	WORD	n/a	wordpools/wordpool_categorized_EN.txt	MIXER	Appliances	6	5	[0, 0, 0]	n/a	catFR1	0	R1501J
777.434	0.816	940349	WORD_OFF	n/a	n/a	MIXER	Appliances	6	5	[0, 0, 0]	n/a	catFR1	0	R1501J
778.25	1.617	941155	WORD	n/a	wordpools/wordpool_categorized_EN.txt	COBBLER	Desserts	7	5	[0, 0, 0]	n/a	catFR1	0	R1501J
779.867	0.9	942782	WORD_OFF	n/a	n/a	COBBLER	Desserts	7	5	[0, 0, 0]	n/a	catFR1	0	R1501J
780.767	1.616	943682	WORD	n/a	wordpools/wordpool_categorized_EN.txt	COOKIE	Desserts	8	5	[0, 0, 0]	n/a	catFR1	0	R1501J
782.383	0.934	945295	WORD_OFF	n/a	n/a	COOKIE	Desserts	8	5	[0, 0, 0]	n/a	catFR1	0	R1501J
783.317	1.6	946234	WORD	n/a	wordpools/wordpool_categorized_EN.txt	ANT	Insects	9	5	[0, 0, 0]	n/a	catFR1	0	R1501J
784.917	0.783	947822	WORD_OFF	n/a	n/a	ANT	Insects	9	5	[0, 0, 0]	n/a	catFR1	0	R1501J
785.7	1.6	948615	WORD	n/a	wordpools/wordpool_categorized_EN.txt	LADYBUG	Insects	10	5	[0, 0, 0]	n/a	catFR1	0	R1501J
787.3	0.784	950216	WORD_OFF	n/a	n/a	LADYBUG	Insects	10	5	[0, 0, 0]	n/a	catFR1	0	R1501J
788.084	1.6	950996	WORD	n/a	wordpools/wordpool_categorized_EN.txt	STOVE	Appliances	11	5	[0, 0, 0]	n/a	catFR1	0	R1501J
789.684	0.999	952596	WORD_OFF	n/a	n/a	STOVE	Appliances	11	5	[0, 0, 0]	n/a	catFR1	0	R1501J
790.683	1.601	953588	WORD	n/a	wordpools/wordpool_categorized_EN.txt	REFRIGERATOR	Appliances	12	5	[0, 0, 0]	n/a	catFR1	0	R1501J
792.284	0.0	955189	WORD_OFF	n/a	n/a	REFRIGERATOR	Appliances	12	5	[0, 0, 0]	n/a	catFR1	0	R1501J
792.284	0.001	955194	PROB	0.001	n/a	n/a	n/a	-999	5	[3, 7, 7]	17	catFR1	0	R1501J
792.285	0.0	955195	START	n/a	n/a	n/a	n/a	-999	5	[-999, -999, -999]	n/a	catFR1	0	R1501J
792.285	0.0	955202	ENCODING_END	n/a	n/a	n/a	n/a	-999	5	[0, 0, 0]	n/a	catFR1	0	R1501J
792.285	7.398	955202	DISTRACT_START	n/a	n/a	n/a	n/a	-999	5	[0, 0, 0]	n/a	catFR1	0	R1501J
799.683	10.383	962592	PROB	10.383	n/a	n/a	n/a	-999	5	[6, 5, 8]	19	catFR1	0	R1501J
810.066	7.55	972975	PROB	7.55	n/a	n/a	n/a	-999	5	[7, 4, 2]	13	catFR1	0	R1501J
817.616	0.0	980525	STOP	n/a	n/a	n/a	n/a	-999	5	[-999, -999, -999]	n/a	catFR1	0	R1501J
817.616	1.35	980531	DISTRACT_END	n/a	n/a	n/a	n/a	-999	5	[0, 0, 0]	n/a	catFR1	0	R1501J
818.966	0.691	981880	REC_START	n/a	n/a	n/a	n/a	-999	5	[0, 0, 0]	n/a	catFR1	0	R1501J
819.657	9.644	982566	REC_WORD	9.644	n/a	ANT	Insects	9	5	[0, 0, 0]	n/a	catFR1	0	R1501J
829.301	1.0	992209	REC_WORD_VV	1.0	n/a	<>	n/a	-999	5	[0, 0, 0]	n/a	catFR1	0	R1501J
830.301	1.0	993209	REC_WORD_VV	1.0	n/a	<>	n/a	-999	5	[0, 0, 0]	n/a	catFR1	0	R1501J
831.301	1.494	994209	REC_WORD_VV	1.494	n/a	<>	n/a	-999	5	[0, 0, 0]	n/a	catFR1	0	R1501J
832.795	1.0	995703	REC_WORD_VV	1.0	n/a	<>	n/a	-999	5	[0, 0, 0]	n/a	catFR1	0	R1501J
833.795	2.076	996703	REC_WORD_VV	2.076	n/a	<>	n/a	-999	5	[0, 0, 0]	n/a	catFR1	0	R1501J
835.871	2.268	998779	REC_WORD	2.268	n/a	ANT	Insects	9	5	[0, 0, 0]	n/a	catFR1	0	R1501J
838.139	12.07	1001047	REC_WORD_VV	12.07	n/a	<>	n/a	-999	5	[0, 0, 0]	n/a	catFR1	0	R1501J
850.209	2.559	1013122	REC_END	n/a	n/a	n/a	n/a	-999	5	[0, 0, 0]	n/a	catFR1	0	R1501J
852.768	10.349	1015674	COUNTDOWN_START	n/a	n/a	n/a	n/a	-999	6	[0, 0, 0]	n/a	catFR1	0	R1501J
863.117	0.0	1026031	COUNTDOWN_END	n/a	n/a	n/a	n/a	-999	6	[0, 0, 0]	n/a	catFR1	0	R1501J
863.117	2.301	1026031	ENCODING_START	n/a	n/a	n/a	n/a	-999	6	[0, 0, 0]	n/a	catFR1	0	R1501J
865.418	1.6	1028319	WORD	n/a	wordpools/wordpool_categorized_EN.txt	TULIP	Flowers	1	6	[0, 0, 0]	n/a	catFR1	0	R1501J
867.018	0.815	1029919	WORD_OFF	n/a	n/a	TULIP	Flowers	1	6	[0, 0, 0]	n/a	catFR1	0	R1501J
867.833	1.618	1030740	WORD	n/a	wordpools/wordpool_categorized_EN.txt	DAFFODIL	Flowers	2	6	[0, 0, 0]	n/a	catFR1	0	R1501J
869.451	0.949	1032353	WORD_OFF	n/a	n/a	DAFFODIL	Flowers	2	6	[0, 0, 0]	n/a	catFR1	0	R1501J
870.4	1.601	1033305	WORD	n/a	wordpools/wordpool_categorized_EN.txt	SCREWDRIVER	Tools	3	6	[0, 0, 0]	n/a	catFR1	0	R1501J
872.001	0.95	1034906	WORD_OFF	n/a	n/a	SCREWDRIVER	Tools	3	6	[0, 0, 0]	n/a	catFR1	0	R1501J
872.951	1.6	1035858	WORD	n/a	wordpools/wordpool_categorized_EN.txt	SANDER	Tools	4	6	[0, 0, 0]	n/a	catFR1	0	R1501J
874.551	0.949	1037459	WORD_OFF	n/a	n/a	SANDER	Tools	4	6	[0, 0, 0]	n/a	catFR1	0	R1501J
875.5	1.601	1038411	WORD	n/a	wordpools/wordpool_categorized_EN.txt	PLUM	Fruit	5	6	[0, 0, 0]	n/a	catFR1	0	R1501J
877.101	0.816	1040011	WORD_OFF	n/a	n/a	PLUM	Fruit	5	6	[0, 0, 0]	n/a	catFR1	0	R1501J
877.917	1.616	1040818	WORD	n/a	wordpools/wordpool_categorized_EN.txt	PEAR	Fruit	6	6	[0, 0, 0]	n/a	catFR1	0	R1501J
879.533	0.85	1042445	WORD_OFF	n/a	n/a	PEAR	Fruit	6	6	[0, 0, 0]	n/a	catFR1	0	R1501J
880.383	1.601	1043292	WORD	n/a	wordpools/wordpool_categorized_EN.txt	ROSE	Flowers	7	6	[0, 0, 0]	n/a	catFR1	0	R1501J
881.984	0.8	1044892	WORD_OFF	n/a	n/a	ROSE	Flowers	7	6	[0, 0, 0]	n/a	catFR1	0	R1501J
882.784	1.6	1045686	WORD	n/a	wordpools/wordpool_categorized_EN.txt	PETUNIA	Flowers	8	6	[0, 0, 0]	n/a	catFR1	0	R1501J
884.384	0.95	1047286	WORD_OFF	n/a	n/a	PETUNIA	Flowers	8	6	[0, 0, 0]	n/a	catFR1	0	R1501J
885.334	1.617	1048238	WORD	n/a	wordpools/wordpool_categorized_EN.txt	LEVEL	Tools	9	6	[0, 0, 0]	n/a	catFR1	0	R1501J
886.951	0.815	1049852	WORD_OFF	n/a	n/a	LEVEL	Tools	9	6	[0, 0, 0]	n/a	catFR1	0	R1501J
887.766	1.6	1050672	WORD	n/a	wordpools/wordpool_categorized_EN.txt	CROWBAR	Tools	10	6	[0, 0, 0]	n/a	catFR1	0	R1501J
889.366	0.934	1052273	WORD_OFF	n/a	n/a	CROWBAR	Tools	10	6	[0, 0, 0]	n/a	catFR1	0	R1501J
890.3	1.6	1053212	WORD	n/a	wordpools/wordpool_categorized_EN.txt	LEMON	Fruit	11	6	[0, 0, 0]	n/a	catFR1	0	R1501J
891.9	0.967	1054812	WORD_OFF	n/a	n/a	LEMON	Fruit	11	6	[0, 0, 0]	n/a	catFR1	0	R1501J
892.867	1.617	1055778	WORD	n/a	wordpools/wordpool_categorized_EN.txt	BLUEBERRY	Fruit	12	6	[0, 0, 0]	n/a	catFR1	0	R1501J
894.484	0.001	1057389	PROB	0.001	n/a	n/a	n/a	-999	6	[8, 8, 2]	18	catFR1	0	R1501J
894.485	0.0	1057390	START	n/a	n/a	n/a	n/a	-999	6	[-999, -999, -999]	n/a	catFR1	0	R1501J
894.484	0.001	1057391	WORD_OFF	n/a	n/a	BLUEBERRY	Fruit	12	6	[0, 0, 0]	n/a	catFR1	0	R1501J
894.485	0.0	1057391	ENCODING_END	n/a	n/a	n/a	n/a	-999	6	[0, 0, 0]	n/a	catFR1	0	R1501J
894.485	4.481	1057391	DISTRACT_START	n/a	n/a	n/a	n/a	-999	6	[0, 0, 0]	n/a	catFR1	0	R1501J
898.966	5.417	1061871	PROB	5.417	n/a	n/a	n/a	-999	6	[2, 2, 8]	14	catFR1	0	R1501J
904.383	7.916	1067288	PROB	7.916	n/a	n/a	n/a	-999	6	[5, 3, 8]	16	catFR1	0	R1501J
912.299	4.185	1075204	PROB	4.185	n/a	n/a	n/a	-999	6	[6, 6, 3]	15	catFR1	0	R1501J
916.484	0.0	1079387	DISTRACT_END	n/a	n/a	n/a	n/a	-999	6	[0, 0, 0]	n/a	catFR1	0	R1501J
916.484	1.216	1079388	STOP	n/a	n/a	n/a	n/a	-999	6	[-999, -999, -999]	n/a	catFR1	0	R1501J
917.7	1.927	1080604	REC_START	n/a	n/a	n/a	n/a	-999	6	[0, 0, 0]	n/a	catFR1	0	R1501J
919.627	1.096	1082531	REC_WORD	1.096	n/a	LADLE	KitchenTools	-999	6	[0, 0, 0]	n/a	catFR1	0	R1501J
920.723	2.006	1083627	REC_WORD	2.006	n/a	SPATULA	KitchenTools	-999	6	[0, 0, 0]	n/a	catFR1	0	R1501J
922.729	1.075	1085633	REC_WORD	1.075	n/a	ROSE	Flowers	7	6	[0, 0, 0]	n/a	catFR1	0	R1501J
923.804	1.323	1086708	REC_WORD	1.323	n/a	PETUNIA	Flowers	8	6	[0, 0, 0]	n/a	catFR1	0	R1501J
925.127	6.799	1088031	REC_WORD	6.799	n/a	CROWBAR	Tools	10	6	[0, 0, 0]	n/a	catFR1	0	R1501J
931.926	4.541	1094830	REC_WORD	4.541	n/a	DAFFODIL	Flowers	2	6	[0, 0, 0]	n/a	catFR1	0	R1501J
936.467	4.466	1099371	REC_WORD	4.466	n/a	TULIP	Flowers	1	6	[0, 0, 0]	n/a	catFR1	0	R1501J
940.933	6.303	1103836	REC_WORD	6.303	n/a	SPOON	KitchenTools	-999	6	[0, 0, 0]	n/a	catFR1	0	R1501J
947.236	1.689	1110139	REC_WORD	1.689	n/a	BLUEBERRY	Fruit	12	6	[0, 0, 0]	n/a	catFR1	0	R1501J
948.925	2.025	1111832	REC_END	n/a	n/a	n/a	n/a	-999	6	[0, 0, 0]	n/a	catFR1	0	R1501J
950.95	10.35	1113856	COUNTDOWN_START	n/a	n/a	n/a	n/a	-999	7	[0, 0, 0]	n/a	catFR1	0	R1501J
961.3	0.0	1124199	COUNTDOWN_END	n/a	n/a	n/a	n/a	-999	7	[0, 0, 0]	n/a	catFR1	0	R1501J
961.3	2.35	1124212	ENCODING_START	n/a	n/a	n/a	n/a	-999	7	[0, 0, 0]	n/a	catFR1	0	R1501J
963.65	1.601	1126553	WORD	n/a	wordpools/wordpool_categorized_EN.txt	SEAGULL	Birds	1	7	[0, 0, 0]	n/a	catFR1	0	R1501J
965.251	0.833	1128154	WORD_OFF	n/a	n/a	SEAGULL	Birds	1	7	[0, 0, 0]	n/a	catFR1	0	R1501J
966.084	1.616	1128987	WORD	n/a	wordpools/wordpool_categorized_EN.txt	GOOSE	Birds	2	7	[0, 0, 0]	n/a	catFR1	0	R1501J
967.7	0.966	1130601	WORD_OFF	n/a	n/a	GOOSE	Birds	2	7	[0, 0, 0]	n/a	catFR1	0	R1501J
968.666	1.618	1131566	WORD	n/a	wordpools/wordpool_categorized_EN.txt	ORCHID	Flowers	3	7	[0, 0, 0]	n/a	catFR1	0	R1501J
970.284	0.817	1133193	WORD_OFF	n/a	n/a	ORCHID	Flowers	3	7	[0, 0, 0]	n/a	catFR1	0	R1501J
971.101	1.616	1134000	WORD	n/a	wordpools/wordpool_categorized_EN.txt	LILAC	Flowers	4	7	[0, 0, 0]	n/a	catFR1	0	R1501J
972.717	0.984	1135614	WORD_OFF	n/a	n/a	LILAC	Flowers	4	7	[0, 0, 0]	n/a	catFR1	0	R1501J
973.701	1.615	1136606	WORD	n/a	wordpools/wordpool_categorized_EN.txt	BEETLE	Insects	5	7	[0, 0, 0]	n/a	catFR1	0	R1501J
975.316	1.001	1138219	WORD_OFF	n/a	n/a	BEETLE	Insects	5	7	[0, 0, 0]	n/a	catFR1	0	R1501J
976.317	1.616	1139225	WORD	n/a	wordpools/wordpool_categorized_EN.txt	BEE	Insects	6	7	[0, 0, 0]	n/a	catFR1	0	R1501J
977.933	0.818	1140838	WORD_OFF	n/a	n/a	BEE	Insects	6	7	[0, 0, 0]	n/a	catFR1	0	R1501J
978.751	1.599	1141658	WORD	n/a	wordpools/wordpool_categorized_EN.txt	LILY	Flowers	7	7	[0, 0, 0]	n/a	catFR1	0	R1501J
980.35	0.917	1143259	WORD_OFF	n/a	n/a	LILY	Flowers	7	7	[0, 0, 0]	n/a	catFR1	0	R1501J
981.267	1.6	1144171	WORD	n/a	wordpools/wordpool_categorized_EN.txt	CARNATION	Flowers	8	7	[0, 0, 0]	n/a	catFR1	0	R1501J
982.867	0.966	1145772	WORD_OFF	n/a	n/a	CARNATION	Flowers	8	7	[0, 0, 0]	n/a	catFR1	0	R1501J
983.833	1.601	1146737	WORD	n/a	wordpools/wordpool_categorized_EN.txt	ROBIN	Birds	9	7	[0, 0, 0]	n/a	catFR1	0	R1501J
985.434	0.899	1148338	WORD_OFF	n/a	n/a	ROBIN	Birds	9	7	[0, 0, 0]	n/a	catFR1	0	R1501J
986.333	1.601	1149237	WORD	n/a	wordpools/wordpool_categorized_EN.txt	CROW	Birds	10	7	[0, 0, 0]	n/a	catFR1	0	R1501J
987.934	0.799	1150838	WORD_OFF	n/a	n/a	CROW	Birds	10	7	[0, 0, 0]	n/a	catFR1	0	R1501J
988.733	1.616	1151631	WORD	n/a	wordpools/wordpool_categorized_EN.txt	BUTTERFLY	Insects	11	7	[0, 0, 0]	n/a	catFR1	0	R1501J
990.349	0.784	1153258	WORD_OFF	n/a	n/a	BUTTERFLY	Insects	11	7	[0, 0, 0]	n/a	catFR1	0	R1501J
991.133	1.601	1154038	WORD	n/a	wordpools/wordpool_categorized_EN.txt	ROACH	Insects	12	7	[0, 0, 0]	n/a	catFR1	0	R1501J
992.734	0.002	1155635	START	n/a	n/a	n/a	n/a	-999	7	[-999, -999, -999]	n/a	catFR1	0	R1501J
992.736	0.0	1155637	PROB	0.0	n/a	n/a	n/a	-999	7	[3, 8, 1]	12	catFR1	0	R1501J
992.733	0.001	1155639	WORD_OFF	n/a	n/a	ROACH	Insects	12	7	[0, 0, 0]	n/a	catFR1	0	R1501J
992.734	0.0	1155639	ENCODING_END	n/a	n/a	n/a	n/a	-999	7	[0, 0, 0]	n/a	catFR1	0	R1501J
992.734	5.083	1155639	DISTRACT_START	n/a	n/a	n/a	n/a	-999	7	[0, 0, 0]	n/a	catFR1	0	R1501J
997.817	2.933	1160718	PROB	2.933	n/a	n/a	n/a	-999	7	[1, 5, 1]	7	catFR1	0	R1501J
1000.75	5.933	1163651	PROB	5.933	n/a	n/a	n/a	-999	7	[6, 8, 2]	14	catFR1	0	R1501J
1006.683	3.7	1169584	PROB	3.7	n/a	n/a	n/a	-999	7	[1, 5, 4]	10	catFR1	0	R1501J
1010.383	4.566	1173284	PROB	4.566	n/a	n/a	n/a	-999	7	[4, 4, 3]	11	catFR1	0	R1501J
1014.949	0.0	1177846	DISTRACT_END	n/a	n/a	n/a	n/a	-999	7	[0, 0, 0]	n/a	catFR1	0	R1501J
1014.949	1.367	1177849	STOP	n/a	n/a	n/a	n/a	-999	7	[-999, -999, -999]	n/a	catFR1	0	R1501J
1016.316	1.628	1179222	REC_START	n/a	n/a	n/a	n/a	-999	7	[0, 0, 0]	n/a	catFR1	0	R1501J
1017.944	3.707	1180844	REC_WORD	3.707	n/a	SEAGULL	Birds	1	7	[0, 0, 0]	n/a	catFR1	0	R1501J
1021.651	2.956	1184551	REC_WORD	2.956	n/a	CARNATION	Flowers	8	7	[0, 0, 0]	n/a	catFR1	0	R1501J
1024.607	2.593	1187507	REC_WORD	2.593	n/a	TULIP	Flowers	-999	7	[0, 0, 0]	n/a	catFR1	0	R1501J
1027.2	0.858	1190100	REC_WORD	0.858	n/a	ORCHID	Flowers	3	7	[0, 0, 0]	n/a	catFR1	0	R1501J
1028.058	14.444	1190958	REC_WORD	14.444	n/a	ROBIN	Birds	9	7	[0, 0, 0]	n/a	catFR1	0	R1501J
1042.502	1.563	1205401	REC_WORD_VV	1.563	n/a	<>	n/a	-999	7	[0, 0, 0]	n/a	catFR1	0	R1501J
1044.065	3.478	1206964	REC_WORD	3.478	n/a	GOOSE	Birds	2	7	[0, 0, 0]	n/a	catFR1	0	R1501J
1047.543	2.474	1210437	REC_END	n/a	n/a	n/a	n/a	-999	7	[0, 0, 0]	n/a	catFR1	0	R1501J
1050.017	10.348	1212923	COUNTDOWN_START	n/a	n/a	n/a	n/a	-999	8	[0, 0, 0]	n/a	catFR1	0	R1501J
1060.365	0.0	1223267	COUNTDOWN_END	n/a	n/a	n/a	n/a	-999	8	[0, 0, 0]	n/a	catFR1	0	R1501J
1060.365	2.203	1223267	ENCODING_START	n/a	n/a	n/a	n/a	-999	8	[0, 0, 0]	n/a	catFR1	0	R1501J
1062.568	1.6	1225462	WORD	n/a	wordpools/wordpool_categorized_EN.txt	ELBOW	BodyParts	1	8	[0, 0, 0]	n/a	catFR1	0	R1501J
1064.168	0.783	1227063	WORD_OFF	n/a	n/a	ELBOW	BodyParts	1	8	[0, 0, 0]	n/a	catFR1	0	R1501J
1064.951	1.617	1227856	WORD	n/a	wordpools/wordpool_categorized_EN.txt	EYE	BodyParts	2	8	[0, 0, 0]	n/a	catFR1	0	R1501J
1066.568	0.949	1229470	WORD_OFF	n/a	n/a	EYE	BodyParts	2	8	[0, 0, 0]	n/a	catFR1	0	R1501J
1067.517	1.616	1230422	WORD	n/a	wordpools/wordpool_categorized_EN.txt	BOAT	Vehicles	3	8	[0, 0, 0]	n/a	catFR1	0	R1501J
1069.133	1.001	1232036	WORD_OFF	n/a	n/a	BOAT	Vehicles	3	8	[0, 0, 0]	n/a	catFR1	0	R1501J
1070.134	1.615	1233028	WORD	n/a	wordpools/wordpool_categorized_EN.txt	TRAIN	Vehicles	4	8	[0, 0, 0]	n/a	catFR1	0	R1501J
1071.749	0.852	1234649	WORD_OFF	n/a	n/a	TRAIN	Vehicles	4	8	[0, 0, 0]	n/a	catFR1	0	R1501J
1072.601	1.616	1235501	WORD	n/a	wordpools/wordpool_categorized_EN.txt	FLY	Insects	5	8	[0, 0, 0]	n/a	catFR1	0	R1501J
1074.217	0.85	1237115	WORD_OFF	n/a	n/a	FLY	Insects	5	8	[0, 0, 0]	n/a	catFR1	0	R1501J
1075.067	1.6	1237962	WORD	n/a	wordpools/wordpool_categorized_EN.txt	GNAT	Insects	6	8	[0, 0, 0]	n/a	catFR1	0	R1501J
1076.667	0.767	1239562	WORD_OFF	n/a	n/a	GNAT	Insects	6	8	[0, 0, 0]	n/a	catFR1	0	R1501J
1077.434	1.6	1240329	WORD	n/a	wordpools/wordpool_categorized_EN.txt	SCOOTER	Vehicles	7	8	[0, 0, 0]	n/a	catFR1	0	R1501J
1079.034	0.999	1241930	WORD_OFF	n/a	n/a	SCOOTER	Vehicles	7	8	[0, 0, 0]	n/a	catFR1	0	R1501J
1080.033	1.601	1242935	WORD	n/a	wordpools/wordpool_categorized_EN.txt	VAN	Vehicles	8	8	[0, 0, 0]	n/a	catFR1	0	R1501J
1081.634	0.966	1244535	WORD_OFF	n/a	n/a	VAN	Vehicles	8	8	[0, 0, 0]	n/a	catFR1	0	R1501J
1082.6	1.616	1245501	WORD	n/a	wordpools/wordpool_categorized_EN.txt	LEG	BodyParts	9	8	[0, 0, 0]	n/a	catFR1	0	R1501J
1084.216	0.867	1247114	WORD_OFF	n/a	n/a	LEG	BodyParts	9	8	[0, 0, 0]	n/a	catFR1	0	R1501J
1085.083	1.6	1247987	WORD	n/a	wordpools/wordpool_categorized_EN.txt	ARM	BodyParts	10	8	[0, 0, 0]	n/a	catFR1	0	R1501J
1086.683	0.85	1249582	WORD_OFF	n/a	n/a	ARM	BodyParts	10	8	[0, 0, 0]	n/a	catFR1	0	R1501J
1087.533	1.617	1250434	WORD	n/a	wordpools/wordpool_categorized_EN.txt	MOSQUITO	Insects	11	8	[0, 0, 0]	n/a	catFR1	0	R1501J
1089.15	0.816	1252048	WORD_OFF	n/a	n/a	MOSQUITO	Insects	11	8	[0, 0, 0]	n/a	catFR1	0	R1501J
1089.966	1.617	1252868	WORD	n/a	wordpools/wordpool_categorized_EN.txt	CRICKET	Insects	12	8	[0, 0, 0]	n/a	catFR1	0	R1501J
1091.583	0.0	1254480	START	n/a	n/a	n/a	n/a	-999	8	[-999, -999, -999]	n/a	catFR1	0	R1501J
1091.583	0.0	1254480	PROB	0.0	n/a	n/a	n/a	-999	8	[6, 4, 1]	11	catFR1	0	R1501J
1091.582	0.001	1254482	WORD_OFF	n/a	n/a	CRICKET	Insects	12	8	[0, 0, 0]	n/a	catFR1	0	R1501J
1091.583	0.0	1254482	ENCODING_END	n/a	n/a	n/a	n/a	-999	8	[0, 0, 0]	n/a	catFR1	0	R1501J
1091.583	8.268	1254482	DISTRACT_START	n/a	n/a	n/a	n/a	-999	8	[0, 0, 0]	n/a	catFR1	0	R1501J
1099.851	12.849	1262748	PROB	12.849	n/a	n/a	n/a	-999	8	[7, 4, 5]	16	catFR1	0	R1501J
1112.7	0.0	1275596	STOP	n/a	n/a	n/a	n/a	-999	8	[-999, -999, -999]	n/a	catFR1	0	R1501J
1112.7	1.182	1275605	DISTRACT_END	n/a	n/a	n/a	n/a	-999	8	[0, 0, 0]	n/a	catFR1	0	R1501J
1113.882	0.851	1276782	REC_START	n/a	n/a	n/a	n/a	-999	8	[0, 0, 0]	n/a	catFR1	0	R1501J
1114.733	1.072	1277629	REC_WORD	1.072	n/a	ELBOW	BodyParts	1	8	[0, 0, 0]	n/a	catFR1	0	R1501J
1115.805	0.933	1278701	REC_WORD	0.933	n/a	EYE	BodyParts	2	8	[0, 0, 0]	n/a	catFR1	0	R1501J
1116.738	0.887	1279634	REC_WORD	0.887	n/a	GNAT	Insects	6	8	[0, 0, 0]	n/a	catFR1	0	R1501J
1117.625	2.055	1280521	REC_WORD	2.055	n/a	SCOOTER	Vehicles	7	8	[0, 0, 0]	n/a	catFR1	0	R1501J
1119.68	1.255	1282576	REC_WORD_VV	1.255	n/a	<>	n/a	-999	8	[0, 0, 0]	n/a	catFR1	0	R1501J
1120.935	1.087	1283831	REC_WORD	1.087	n/a	ELBOW	BodyParts	1	8	[0, 0, 0]	n/a	catFR1	0	R1501J
1122.022	0.905	1284918	REC_WORD	0.905	n/a	EYE	BodyParts	2	8	[0, 0, 0]	n/a	catFR1	0	R1501J
1122.927	0.912	1285823	REC_WORD	0.912	n/a	ANT	Insects	-999	8	[0, 0, 0]	n/a	catFR1	0	R1501J
1123.839	12.33	1286735	REC_WORD	12.33	n/a	SCOOTER	Vehicles	7	8	[0, 0, 0]	n/a	catFR1	0	R1501J
1136.169	8.931	1299064	REC_WORD	8.931	n/a	FLY	Insects	5	8	[0, 0, 0]	n/a	catFR1	0	R1501J
1145.1	2.183	1307997	REC_END	n/a	n/a	n/a	n/a	-999	8	[0, 0, 0]	n/a	catFR1	0	R1501J
1147.283	10.351	1310179	COUNTDOWN_START	n/a	n/a	n/a	n/a	-999	9	[0, 0, 0]	n/a	catFR1	0	R1501J
1157.634	0.0	1320522	COUNTDOWN_END	n/a	n/a	n/a	n/a	-999	9	[0, 0, 0]	n/a	catFR1	0	R1501J
1157.634	1.982	1320536	ENCODING_START	n/a	n/a	n/a	n/a	-999	9	[0, 0, 0]	n/a	catFR1	0	R1501J
1159.616	1.601	1322506	WORD	n/a	wordpools/wordpool_categorized_EN.txt	CIDER	Beverages	1	9	[0, 0, 0]	n/a	catFR1	0	R1501J
1161.217	0.985	1324107	WORD_OFF	n/a	n/a	CIDER	Beverages	1	9	[0, 0, 0]	n/a	catFR1	0	R1501J
1162.202	1.616	1325099	WORD	n/a	wordpools/wordpool_categorized_EN.txt	TEA	Beverages	2	9	[0, 0, 0]	n/a	catFR1	0	R1501J
1163.818	0.915	1326712	WORD_OFF	n/a	n/a	TEA	Beverages	2	9	[0, 0, 0]	n/a	catFR1	0	R1501J
1164.733	1.601	1327625	WORD	n/a	wordpools/wordpool_categorized_EN.txt	SHOVEL	Tools	3	9	[0, 0, 0]	n/a	catFR1	0	R1501J
1166.334	0.8	1329225	WORD_OFF	n/a	n/a	SHOVEL	Tools	3	9	[0, 0, 0]	n/a	catFR1	0	R1501J
1167.134	1.6	1330032	WORD	n/a	wordpools/wordpool_categorized_EN.txt	AXE	Tools	4	9	[0, 0, 0]	n/a	catFR1	0	R1501J
1168.734	0.966	1331633	WORD_OFF	n/a	n/a	AXE	Tools	4	9	[0, 0, 0]	n/a	catFR1	0	R1501J
1169.7	1.6	1332598	WORD	n/a	wordpools/wordpool_categorized_EN.txt	SLINKY	Toys	5	9	[0, 0, 0]	n/a	catFR1	0	R1501J
1171.3	0.85	1334199	WORD_OFF	n/a	n/a	SLINKY	Toys	5	9	[0, 0, 0]	n/a	catFR1	0	R1501J
1172.15	1.6	1335045	WORD	n/a	wordpools/wordpool_categorized_EN.txt	PUZZLE	Toys	6	9	[0, 0, 0]	n/a	catFR1	0	R1501J
1173.75	1.0	1336646	WORD_OFF	n/a	n/a	PUZZLE	Toys	6	9	[0, 0, 0]	n/a	catFR1	0	R1501J
1174.75	1.6	1337651	WORD	n/a	wordpools/wordpool_categorized_EN.txt	COLA	Beverages	7	9	[0, 0, 0]	n/a	catFR1	0	R1501J
1176.35	0.834	1339251	WORD_OFF	n/a	n/a	COLA	Beverages	7	9	[0, 0, 0]	n/a	catFR1	0	R1501J
1177.184	1.616	1340085	WORD	n/a	wordpools/wordpool_categorized_EN.txt	JUICE	Beverages	8	9	[0, 0, 0]	n/a	catFR1	0	R1501J
1178.8	0.866	1341698	WORD_OFF	n/a	n/a	JUICE	Beverages	8	9	[0, 0, 0]	n/a	catFR1	0	R1501J
1179.666	1.6	1342558	WORD	n/a	wordpools/wordpool_categorized_EN.txt	PLIERS	Tools	9	9	[0, 0, 0]	n/a	catFR1	0	R1501J
1181.266	0.767	1344158	WORD_OFF	n/a	n/a	PLIERS	Tools	9	9	[0, 0, 0]	n/a	catFR1	0	R1501J
1182.033	1.616	1344925	WORD	n/a	wordpools/wordpool_categorized_EN.txt	RATCHET	Tools	10	9	[0, 0, 0]	n/a	catFR1	0	R1501J
1183.649	0.951	1346539	WORD_OFF	n/a	n/a	RATCHET	Tools	10	9	[0, 0, 0]	n/a	catFR1	0	R1501J
1184.6	1.616	1347491	WORD	n/a	wordpools/wordpool_categorized_EN.txt	FOOTBALL	Toys	11	9	[0, 0, 0]	n/a	catFR1	0	R1501J
1186.216	0.949	1349105	WORD_OFF	n/a	n/a	FOOTBALL	Toys	11	9	[0, 0, 0]	n/a	catFR1	0	R1501J
1187.165	1.602	1350057	WORD	n/a	wordpools/wordpool_categorized_EN.txt	BASKETBALL	Toys	12	9	[0, 0, 0]	n/a	catFR1	0	R1501J
1188.767	0.002	1351658	WORD_OFF	n/a	n/a	BASKETBALL	Toys	12	9	[0, 0, 0]	n/a	catFR1	0	R1501J
1188.769	0.0	1351658	ENCODING_END	n/a	n/a	n/a	n/a	-999	9	[0, 0, 0]	n/a	catFR1	0	R1501J
1188.768	0.001	1351661	PROB	0.001	n/a	n/a	n/a	-999	9	[1, 3, 2]	6	catFR1	0	R1501J
1188.769	0.0	1351662	START	n/a	n/a	n/a	n/a	-999	9	[-999, -999, -999]	n/a	catFR1	0	R1501J
1188.769	4.064	1351671	DISTRACT_START	n/a	n/a	n/a	n/a	-999	9	[0, 0, 0]	n/a	catFR1	0	R1501J
1192.833	4.817	1355726	PROB	4.817	n/a	n/a	n/a	-999	9	[1, 1, 2]	4	catFR1	0	R1501J
1197.65	5.484	1360543	PROB	5.484	n/a	n/a	n/a	-999	9	[4, 6, 4]	14	catFR1	0	R1501J
1203.134	6.365	1366027	PROB	6.365	n/a	n/a	n/a	-999	9	[6, 5, 3]	14	catFR1	0	R1501J
1209.499	0.0	1372391	STOP	n/a	n/a	n/a	n/a	-999	9	[-999, -999, -999]	n/a	catFR1	0	R1501J
1209.499	1.184	1372397	DISTRACT_END	n/a	n/a	n/a	n/a	-999	9	[0, 0, 0]	n/a	catFR1	0	R1501J
1210.683	1.67	1373574	REC_START	n/a	n/a	n/a	n/a	-999	9	[0, 0, 0]	n/a	catFR1	0	R1501J
1212.353	1.51	1375245	REC_WORD	1.51	n/a	CIDER	Beverages	1	9	[0, 0, 0]	n/a	catFR1	0	R1501J
1213.863	3.468	1376755	REC_WORD	3.468	n/a	TEA	Beverages	2	9	[0, 0, 0]	n/a	catFR1	0	R1501J
1217.331	1.563	1380223	REC_WORD	1.563	n/a	FOOTBALL	Toys	11	9	[0, 0, 0]	n/a	catFR1	0	R1501J
1218.894	2.284	1381786	REC_WORD	2.284	n/a	BASKETBALL	Toys	12	9	[0, 0, 0]	n/a	catFR1	0	R1501J
1221.178	11.299	1384070	REC_WORD	11.299	n/a	PLIERS	Tools	9	9	[0, 0, 0]	n/a	catFR1	0	R1501J
1232.477	9.426	1395368	REC_WORD_VV	9.426	n/a	<>	n/a	-999	9	[0, 0, 0]	n/a	catFR1	0	R1501J
1241.903	3.364	1404789	REC_END	n/a	n/a	n/a	n/a	-999	9	[0, 0, 0]	n/a	catFR1	0	R1501J
1245.267	10.35	1408162	COUNTDOWN_START	n/a	n/a	n/a	n/a	-999	10	[0, 0, 0]	n/a	catFR1	0	R1501J
1255.617	0.0	1418505	COUNTDOWN_END	n/a	n/a	n/a	n/a	-999	10	[0, 0, 0]	n/a	catFR1	0	R1501J
1255.617	2.134	1418505	ENCODING_START	n/a	n/a	n/a	n/a	-999	10	[0, 0, 0]	n/a	catFR1	0	R1501J
1257.751	1.617	1420648	WORD	n/a	wordpools/wordpool_categorized_EN.txt	BINDER	OfficeSupplies	1	10	[0, 0, 0]	n/a	catFR1	0	R1501J
1259.368	0.8	1422262	WORD_OFF	n/a	n/a	BINDER	OfficeSupplies	1	10	[0, 0, 0]	n/a	catFR1	0	R1501J
1260.168	1.616	1423055	WORD	n/a	wordpools/wordpool_categorized_EN.txt	MARKER	OfficeSupplies	2	10	[0, 0, 0]	n/a	catFR1	0	R1501J
1261.784	0.783	1424669	WORD_OFF	n/a	n/a	MARKER	OfficeSupplies	2	10	[0, 0, 0]	n/a	catFR1	0	R1501J
1262.567	1.617	1425463	WORD	n/a	wordpools/wordpool_categorized_EN.txt	MOTORCYCLE	Vehicles	3	10	[0, 0, 0]	n/a	catFR1	0	R1501J
1264.184	1.0	1427076	WORD_OFF	n/a	n/a	MOTORCYCLE	Vehicles	3	10	[0, 0, 0]	n/a	catFR1	0	R1501J
1265.184	1.6	1428068	WORD	n/a	wordpools/wordpool_categorized_EN.txt	BUS	Vehicles	4	10	[0, 0, 0]	n/a	catFR1	0	R1501J
1266.784	0.95	1429669	WORD_OFF	n/a	n/a	BUS	Vehicles	4	10	[0, 0, 0]	n/a	catFR1	0	R1501J
1267.734	1.6	1430621	WORD	n/a	wordpools/wordpool_categorized_EN.txt	CHEESECAKE	Desserts	5	10	[0, 0, 0]	n/a	catFR1	0	R1501J
1269.334	1.0	1432221	WORD_OFF	n/a	n/a	CHEESECAKE	Desserts	5	10	[0, 0, 0]	n/a	catFR1	0	R1501J
1270.334	1.6	1433227	WORD	n/a	wordpools/wordpool_categorized_EN.txt	PASTRY	Desserts	6	10	[0, 0, 0]	n/a	catFR1	0	R1501J
1271.934	1.0	1434827	WORD_OFF	n/a	n/a	PASTRY	Desserts	6	10	[0, 0, 0]	n/a	catFR1	0	R1501J
1272.934	1.615	1435819	WORD	n/a	wordpools/wordpool_categorized_EN.txt	JEEP	Vehicles	7	10	[0, 0, 0]	n/a	catFR1	0	R1501J
1274.549	0.935	1437446	WORD_OFF	n/a	n/a	JEEP	Vehicles	7	10	[0, 0, 0]	n/a	catFR1	0	R1501J
1275.484	1.616	1438372	WORD	n/a	wordpools/wordpool_categorized_EN.txt	CAR	Vehicles	8	10	[0, 0, 0]	n/a	catFR1	0	R1501J
1277.1	0.933	1439985	WORD_OFF	n/a	n/a	CAR	Vehicles	8	10	[0, 0, 0]	n/a	catFR1	0	R1501J
1278.033	1.617	1440925	WORD	n/a	wordpools/wordpool_categorized_EN.txt	STAPLER	OfficeSupplies	9	10	[0, 0, 0]	n/a	catFR1	0	R1501J
1279.65	0.816	1442538	WORD_OFF	n/a	n/a	STAPLER	OfficeSupplies	9	10	[0, 0, 0]	n/a	catFR1	0	R1501J
1280.466	1.601	1443358	WORD	n/a	wordpools/wordpool_categorized_EN.txt	TAPE	OfficeSupplies	10	10	[0, 0, 0]	n/a	catFR1	0	R1501J
1282.067	0.948	1444959	WORD_OFF	n/a	n/a	TAPE	OfficeSupplies	10	10	[0, 0, 0]	n/a	catFR1	0	R1501J
1283.015	1.601	1445911	WORD	n/a	wordpools/wordpool_categorized_EN.txt	PUDDING	Desserts	11	10	[0, 0, 0]	n/a	catFR1	0	R1501J
1284.616	0.9	1447511	WORD_OFF	n/a	n/a	PUDDING	Desserts	11	10	[0, 0, 0]	n/a	catFR1	0	R1501J
1285.516	1.616	1448411	WORD	n/a	wordpools/wordpool_categorized_EN.txt	JELLO	Desserts	12	10	[0, 0, 0]	n/a	catFR1	0	R1501J
1287.132	0.001	1450021	PROB	0.001	n/a	n/a	n/a	-999	10	[1, 8, 3]	12	catFR1	0	R1501J
1287.133	0.0	1450022	START	n/a	n/a	n/a	n/a	-999	10	[-999, -999, -999]	n/a	catFR1	0	R1501J
1287.132	0.001	1450024	WORD_OFF	n/a	n/a	JELLO	Desserts	12	10	[0, 0, 0]	n/a	catFR1	0	R1501J
1287.133	0.0	1450024	ENCODING_END	n/a	n/a	n/a	n/a	-999	10	[0, 0, 0]	n/a	catFR1	0	R1501J
1287.133	5.217	1450024	DISTRACT_START	n/a	n/a	n/a	n/a	-999	10	[0, 0, 0]	n/a	catFR1	0	R1501J
1292.35	6.336	1455239	PROB	6.336	n/a	n/a	n/a	-999	10	[6, 5, 3]	14	catFR1	0	R1501J
1298.686	6.731	1461575	PROB	6.731	n/a	n/a	n/a	-999	10	[5, 8, 4]	17	catFR1	0	R1501J
1305.417	4.416	1468305	PROB	4.416	n/a	n/a	n/a	-999	10	[1, 6, 7]	14	catFR1	0	R1501J
1309.833	0.0	1472721	DISTRACT_END	n/a	n/a	n/a	n/a	-999	10	[0, 0, 0]	n/a	catFR1	0	R1501J
1309.833	1.083	1472721	STOP	n/a	n/a	n/a	n/a	-999	10	[-999, -999, -999]	n/a	catFR1	0	R1501J
1310.916	1.462	1473806	REC_START	n/a	n/a	n/a	n/a	-999	10	[0, 0, 0]	n/a	catFR1	0	R1501J
1312.378	1.01	1475266	REC_WORD	1.01	n/a	LADLE	KitchenTools	-999	10	[0, 0, 0]	n/a	catFR1	0	R1501J
1313.388	5.263	1476276	REC_WORD_VV	5.263	n/a	<>	n/a	-999	10	[0, 0, 0]	n/a	catFR1	0	R1501J
1318.651	3.183	1481539	REC_WORD	3.183	n/a	MOTORCYCLE	Vehicles	3	10	[0, 0, 0]	n/a	catFR1	0	R1501J
1321.834	0.723	1484722	REC_WORD	0.723	n/a	BUS	Vehicles	4	10	[0, 0, 0]	n/a	catFR1	0	R1501J
1322.557	8.326	1485445	REC_WORD_VV	8.326	n/a	<>	n/a	-999	10	[0, 0, 0]	n/a	catFR1	0	R1501J
1330.883	6.23	1493770	REC_WORD_VV	6.23	n/a	<>	n/a	-999	10	[0, 0, 0]	n/a	catFR1	0	R1501J
1337.113	5.018	1500000	REC_WORD_VV	5.018	n/a	<>	n/a	-999	10	[0, 0, 0]	n/a	catFR1	0	R1501J
1342.131	2.07	1505021	REC_END	n/a	n/a	n/a	n/a	-999	10	[0, 0, 0]	n/a	catFR1	0	R1501J
1344.201	10.349	1507084	COUNTDOWN_START	n/a	n/a	n/a	n/a	-999	11	[0, 0, 0]	n/a	catFR1	0	R1501J
1354.55	0.0	1517441	COUNTDOWN_END	n/a	n/a	n/a	n/a	-999	11	[0, 0, 0]	n/a	catFR1	0	R1501J
1354.55	2.067	1517441	ENCODING_START	n/a	n/a	n/a	n/a	-999	11	[0, 0, 0]	n/a	catFR1	0	R1501J
1356.617	1.6	1519504	WORD	n/a	wordpools/wordpool_categorized_EN.txt	BEER	Beverages	1	11	[0, 0, 0]	n/a	catFR1	0	R1501J
1358.217	0.817	1521105	WORD_OFF	n/a	n/a	BEER	Beverages	1	11	[0, 0, 0]	n/a	catFR1	0	R1501J
1359.034	1.617	1521925	WORD	n/a	wordpools/wordpool_categorized_EN.txt	MILK	Beverages	2	11	[0, 0, 0]	n/a	catFR1	0	R1501J
1360.651	0.783	1523538	WORD_OFF	n/a	n/a	MILK	Beverages	2	11	[0, 0, 0]	n/a	catFR1	0	R1501J
1361.434	1.6	1524319	WORD	n/a	wordpools/wordpool_categorized_EN.txt	FREEZER	Appliances	3	11	[0, 0, 0]	n/a	catFR1	0	R1501J
1363.034	0.85	1525919	WORD_OFF	n/a	n/a	FREEZER	Appliances	3	11	[0, 0, 0]	n/a	catFR1	0	R1501J
1363.884	1.616	1526766	WORD	n/a	wordpools/wordpool_categorized_EN.txt	OVEN	Appliances	4	11	[0, 0, 0]	n/a	catFR1	0	R1501J
1365.5	0.8	1528392	WORD_OFF	n/a	n/a	OVEN	Appliances	4	11	[0, 0, 0]	n/a	catFR1	0	R1501J
1366.3	1.6	1529186	WORD	n/a	wordpools/wordpool_categorized_EN.txt	EAR	BodyParts	5	11	[0, 0, 0]	n/a	catFR1	0	R1501J
1367.9	0.932	1530786	WORD_OFF	n/a	n/a	EAR	BodyParts	5	11	[0, 0, 0]	n/a	catFR1	0	R1501J
1368.832	1.602	1531712	WORD	n/a	wordpools/wordpool_categorized_EN.txt	FOOT	BodyParts	6	11	[0, 0, 0]	n/a	catFR1	0	R1501J
1370.434	0.966	1533326	WORD_OFF	n/a	n/a	FOOT	BodyParts	6	11	[0, 0, 0]	n/a	catFR1	0	R1501J
1371.4	1.6	1534292	WORD	n/a	wordpools/wordpool_categorized_EN.txt	LEMONADE	Beverages	7	11	[0, 0, 0]	n/a	catFR1	0	R1501J
1373.0	0.932	1535892	WORD_OFF	n/a	n/a	LEMONADE	Beverages	7	11	[0, 0, 0]	n/a	catFR1	0	R1501J
1373.932	1.601	1536818	WORD	n/a	wordpools/wordpool_categorized_EN.txt	RUM	Beverages	8	11	[0, 0, 0]	n/a	catFR1	0	R1501J
1375.533	0.816	1538418	WORD_OFF	n/a	n/a	RUM	Beverages	8	11	[0, 0, 0]	n/a	catFR1	0	R1501J
1376.349	1.601	1539238	WORD	n/a	wordpools/wordpool_categorized_EN.txt	FINGERS	BodyParts	9	11	[0, 0, 0]	n/a	catFR1	0	R1501J
1377.95	0.833	1540839	WORD_OFF	n/a	n/a	FINGERS	BodyParts	9	11	[0, 0, 0]	n/a	catFR1	0	R1501J
1378.783	1.6	1541672	WORD	n/a	wordpools/wordpool_categorized_EN.txt	HAND	BodyParts	10	11	[0, 0, 0]	n/a	catFR1	0	R1501J
1380.383	0.901	1543272	WORD_OFF	n/a	n/a	HAND	BodyParts	10	11	[0, 0, 0]	n/a	catFR1	0	R1501J
1381.284	1.616	1544172	WORD	n/a	wordpools/wordpool_categorized_EN.txt	DRYER	Appliances	11	11	[0, 0, 0]	n/a	catFR1	0	R1501J
1382.9	0.967	1545785	WORD_OFF	n/a	n/a	DRYER	Appliances	11	11	[0, 0, 0]	n/a	catFR1	0	R1501J
1383.867	1.616	1546751	WORD	n/a	wordpools/wordpool_categorized_EN.txt	DISHWASHER	Appliances	12	11	[0, 0, 0]	n/a	catFR1	0	R1501J
1385.483	0.001	1548365	WORD_OFF	n/a	n/a	DISHWASHER	Appliances	12	11	[0, 0, 0]	n/a	catFR1	0	R1501J
1385.484	0.0	1548365	ENCODING_END	n/a	n/a	n/a	n/a	-999	11	[0, 0, 0]	n/a	catFR1	0	R1501J
1385.483	0.001	1548368	PROB	0.001	n/a	n/a	n/a	-999	11	[7, 5, 1]	13	catFR1	0	R1501J
1385.484	0.0	1548369	START	n/a	n/a	n/a	n/a	-999	11	[-999, -999, -999]	n/a	catFR1	0	R1501J
1385.484	8.7	1548378	DISTRACT_START	n/a	n/a	n/a	n/a	-999	11	[0, 0, 0]	n/a	catFR1	0	R1501J
1394.184	4.966	1557069	PROB	4.966	n/a	n/a	n/a	-999	11	[8, 8, 2]	18	catFR1	0	R1501J
1399.15	5.566	1562034	PROB	5.566	n/a	n/a	n/a	-999	11	[1, 3, 8]	12	catFR1	0	R1501J
1404.716	11.816	1567600	PROB	11.816	n/a	n/a	n/a	-999	11	[4, 2, 4]	10	catFR1	0	R1501J
1416.532	0.0	1579416	STOP	n/a	n/a	n/a	n/a	-999	11	[-999, -999, -999]	n/a	catFR1	0	R1501J
1416.532	1.117	1579421	DISTRACT_END	n/a	n/a	n/a	n/a	-999	11	[0, 0, 0]	n/a	catFR1	0	R1501J
1417.649	0.884	1580532	REC_START	n/a	n/a	n/a	n/a	-999	11	[0, 0, 0]	n/a	catFR1	0	R1501J
1418.533	3.097	1581417	REC_WORD	3.097	n/a	DISHWASHER	Appliances	12	11	[0, 0, 0]	n/a	catFR1	0	R1501J
1421.63	2.362	1584514	REC_WORD	2.362	n/a	BEER	Beverages	1	11	[0, 0, 0]	n/a	catFR1	0	R1501J
1423.992	3.289	1586875	REC_WORD	3.289	n/a	MOTORCYCLE	Vehicles	-999	11	[0, 0, 0]	n/a	catFR1	0	R1501J
1427.281	1.081	1590164	REC_WORD	1.081	n/a	ELBOW	BodyParts	-999	11	[0, 0, 0]	n/a	catFR1	0	R1501J
1428.362	2.656	1591245	REC_WORD	2.656	n/a	EYE	BodyParts	-999	11	[0, 0, 0]	n/a	catFR1	0	R1501J
1431.018	6.877	1593901	REC_WORD_VV	6.877	n/a	<>	n/a	-999	11	[0, 0, 0]	n/a	catFR1	0	R1501J
1437.895	7.767	1600778	REC_WORD	7.767	n/a	LEMONADE	Beverages	7	11	[0, 0, 0]	n/a	catFR1	0	R1501J
1445.662	0.651	1608545	REC_WORD	0.651	n/a	DISHWASHER	Appliances	12	11	[0, 0, 0]	n/a	catFR1	0	R1501J
1446.313	2.565	1609196	REC_WORD	2.565	n/a	REFRIGERATOR	Appliances	-999	11	[0, 0, 0]	n/a	catFR1	0	R1501J
1448.878	2.356	1611760	REC_END	n/a	n/a	n/a	n/a	-999	11	[0, 0, 0]	n/a	catFR1	0	R1501J
1451.234	10.348	1614114	COUNTDOWN_START	n/a	n/a	n/a	n/a	-999	12	[0, 0, 0]	n/a	catFR1	0	R1501J
1461.582	0.0	1624471	COUNTDOWN_END	n/a	n/a	n/a	n/a	-999	12	[0, 0, 0]	n/a	catFR1	0	R1501J
1461.582	2.234	1624471	ENCODING_START	n/a	n/a	n/a	n/a	-999	12	[0, 0, 0]	n/a	catFR1	0	R1501J
1463.816	1.601	1626693	WORD	n/a	wordpools/wordpool_categorized_EN.txt	KNEE	BodyParts	1	12	[0, 0, 0]	n/a	catFR1	0	R1501J
1465.417	0.933	1628293	WORD_OFF	n/a	n/a	KNEE	BodyParts	1	12	[0, 0, 0]	n/a	catFR1	0	R1501J
1466.35	1.617	1629232	WORD	n/a	wordpools/wordpool_categorized_EN.txt	TOE	BodyParts	2	12	[0, 0, 0]	n/a	catFR1	0	R1501J
1467.967	0.816	1630846	WORD_OFF	n/a	n/a	TOE	BodyParts	2	12	[0, 0, 0]	n/a	catFR1	0	R1501J
1468.783	1.6	1631666	WORD	n/a	wordpools/wordpool_categorized_EN.txt	MARIGOLD	Flowers	3	12	[0, 0, 0]	n/a	catFR1	0	R1501J
1470.383	0.817	1633267	WORD_OFF	n/a	n/a	MARIGOLD	Flowers	3	12	[0, 0, 0]	n/a	catFR1	0	R1501J
1471.2	1.6	1634087	WORD	n/a	wordpools/wordpool_categorized_EN.txt	VIOLET	Flowers	4	12	[0, 0, 0]	n/a	catFR1	0	R1501J
1472.8	0.917	1635687	WORD_OFF	n/a	n/a	VIOLET	Flowers	4	12	[0, 0, 0]	n/a	catFR1	0	R1501J
1473.717	1.616	1636600	WORD	n/a	wordpools/wordpool_categorized_EN.txt	BLENDER	Appliances	5	12	[0, 0, 0]	n/a	catFR1	0	R1501J
1475.333	0.9	1638213	WORD_OFF	n/a	n/a	BLENDER	Appliances	5	12	[0, 0, 0]	n/a	catFR1	0	R1501J
1476.233	1.6	1639113	WORD	n/a	wordpools/wordpool_categorized_EN.txt	TOASTER	Appliances	6	12	[0, 0, 0]	n/a	catFR1	0	R1501J
1477.833	0.866	1640713	WORD_OFF	n/a	n/a	TOASTER	Appliances	6	12	[0, 0, 0]	n/a	catFR1	0	R1501J
1478.699	1.601	1641586	WORD	n/a	wordpools/wordpool_categorized_EN.txt	DAISY	Flowers	7	12	[0, 0, 0]	n/a	catFR1	0	R1501J
1480.3	0.816	1643187	WORD_OFF	n/a	n/a	DAISY	Flowers	7	12	[0, 0, 0]	n/a	catFR1	0	R1501J
1481.116	1.617	1643993	WORD	n/a	wordpools/wordpool_categorized_EN.txt	SUNFLOWER	Flowers	8	12	[0, 0, 0]	n/a	catFR1	0	R1501J
1482.733	0.815	1645620	WORD_OFF	n/a	n/a	SUNFLOWER	Flowers	8	12	[0, 0, 0]	n/a	catFR1	0	R1501J
1483.548	1.602	1646427	WORD	n/a	wordpools/wordpool_categorized_EN.txt	IRON	Appliances	9	12	[0, 0, 0]	n/a	catFR1	0	R1501J
1485.15	0.932	1648028	WORD_OFF	n/a	n/a	IRON	Appliances	9	12	[0, 0, 0]	n/a	catFR1	0	R1501J
1486.082	1.6	1648967	WORD	n/a	wordpools/wordpool_categorized_EN.txt	WASHER	Appliances	10	12	[0, 0, 0]	n/a	catFR1	0	R1501J
1487.682	0.818	1650567	WORD_OFF	n/a	n/a	WASHER	Appliances	10	12	[0, 0, 0]	n/a	catFR1	0	R1501J
1488.5	1.6	1651387	WORD	n/a	wordpools/wordpool_categorized_EN.txt	NOSE	BodyParts	11	12	[0, 0, 0]	n/a	catFR1	0	R1501J
1490.1	0.949	1652988	WORD_OFF	n/a	n/a	NOSE	BodyParts	11	12	[0, 0, 0]	n/a	catFR1	0	R1501J
1491.049	1.6	1653927	WORD	n/a	wordpools/wordpool_categorized_EN.txt	HEAD	BodyParts	12	12	[0, 0, 0]	n/a	catFR1	0	R1501J
1492.649	0.001	1655527	WORD_OFF	n/a	n/a	HEAD	BodyParts	12	12	[0, 0, 0]	n/a	catFR1	0	R1501J
1492.65	0.0	1655527	ENCODING_END	n/a	n/a	n/a	n/a	-999	12	[0, 0, 0]	n/a	catFR1	0	R1501J
1492.65	0.0	1655531	START	n/a	n/a	n/a	n/a	-999	12	[-999, -999, -999]	n/a	catFR1	0	R1501J
1492.65	0.0	1655531	PROB	0.0	n/a	n/a	n/a	-999	12	[3, 1, 3]	7	catFR1	0	R1501J
1492.65	3.399	1655540	DISTRACT_START	n/a	n/a	n/a	n/a	-999	12	[0, 0, 0]	n/a	catFR1	0	R1501J
1496.049	6.568	1658929	PROB	6.568	n/a	n/a	n/a	-999	12	[8, 3, 7]	18	catFR1	0	R1501J
1502.617	4.067	1665497	PROB	4.067	n/a	n/a	n/a	-999	12	[1, 2, 4]	7	catFR1	0	R1501J
1506.684	5.066	1669564	PROB	5.066	n/a	n/a	n/a	-999	12	[7, 5, 3]	15	catFR1	0	R1501J
1511.75	6.334	1674630	PROB	6.334	n/a	n/a	n/a	-999	12	[6, 1, 3]	10	catFR1	0	R1501J
1518.084	0.0	1680962	DISTRACT_END	n/a	n/a	n/a	n/a	-999	12	[0, 0, 0]	n/a	catFR1	0	R1501J
1518.084	1.315	1680964	STOP	n/a	n/a	n/a	n/a	-999	12	[-999, -999, -999]	n/a	catFR1	0	R1501J
1519.399	0.458	1682285	REC_START	n/a	n/a	n/a	n/a	-999	12	[0, 0, 0]	n/a	catFR1	0	R1501J
1519.857	2.619	1682736	REC_WORD_VV	2.619	n/a	<>	n/a	-999	12	[0, 0, 0]	n/a	catFR1	0	R1501J
1522.476	3.682	1685355	REC_WORD_VV	3.682	n/a	<>	n/a	-999	12	[0, 0, 0]	n/a	catFR1	0	R1501J
1526.158	1.374	1689037	REC_WORD	1.374	n/a	SPARROW	Birds	-999	12	[0, 0, 0]	n/a	catFR1	0	R1501J
1527.532	2.234	1690411	REC_WORD_VV	2.234	n/a	<>	n/a	-999	12	[0, 0, 0]	n/a	catFR1	0	R1501J
1529.766	1.542	1692645	REC_WORD_VV	1.542	n/a	<>	n/a	-999	12	[0, 0, 0]	n/a	catFR1	0	R1501J
1531.308	3.135	1694187	REC_WORD	3.135	n/a	KNEE	BodyParts	1	12	[0, 0, 0]	n/a	catFR1	0	R1501J
1534.443	2.006	1697322	REC_WORD_VV	2.006	n/a	<>	n/a	-999	12	[0, 0, 0]	n/a	catFR1	0	R1501J
1536.449	0.954	1699328	REC_WORD_VV	0.954	n/a	<>	n/a	-999	12	[0, 0, 0]	n/a	catFR1	0	R1501J
1537.403	1.081	1700282	REC_WORD	1.081	n/a	DRYER	Appliances	-999	12	[0, 0, 0]	n/a	catFR1	0	R1501J
1538.484	3.061	1701363	REC_WORD	3.061	n/a	TOASTER	Appliances	6	12	[0, 0, 0]	n/a	catFR1	0	R1501J
1541.545	1.933	1704424	REC_WORD_VV	1.933	n/a	<>	n/a	-999	12	[0, 0, 0]	n/a	catFR1	0	R1501J
1543.478	7.141	1706356	REC_WORD	7.141	n/a	BLENDER	Appliances	5	12	[0, 0, 0]	n/a	catFR1	0	R1501J
1550.619	0.0	1713499	REC_END	n/a	n/a	n/a	n/a	-999	12	[0, 0, 0]	n/a	catFR1	0	R1501J
