onset	duration	sample	trial_type	response_time	stim_file	item_name	category	serialpos	list	test	answer	experiment	session	subject
0.0	2.116	8775	INSTRUCT_START	n/a	n/a	n/a	n/a	-999	-999	[0, 0, 0]	n/a	catFR1	8	R1495J
2.116	34.417	10886	INSTRUCT_END	n/a	n/a	n/a	n/a	-999	-999	[0, 0, 0]	n/a	catFR1	8	R1495J
36.533	10.349	45314	COUNTDOWN_START	n/a	n/a	n/a	n/a	-999	-999	[0, 0, 0]	n/a	catFR1	8	R1495J
46.882	0.0	55653	COUNTDOWN_END	n/a	n/a	n/a	n/a	-999	-999	[0, 0, 0]	n/a	catFR1	8	R1495J
46.882	2.084	55653	ENCODING_START	n/a	n/a	n/a	n/a	-999	-1	[0, 0, 0]	n/a	catFR1	8	R1495J
48.966	1.6	57739	WORD	n/a	n/a	PEAS	Vegetables	1	-1	[0, 0, 0]	n/a	catFR1	8	R1495J
50.566	0.8	59342	WORD_OFF	n/a	n/a	PEAS	Vegetables	1	-1	[0, 0, 0]	n/a	catFR1	8	R1495J
51.366	1.616	60143	WORD	n/a	n/a	CUCUMBER	Vegetables	2	-1	[0, 0, 0]	n/a	catFR1	8	R1495J
52.982	0.767	61758	WORD_OFF	n/a	n/a	CUCUMBER	Vegetables	2	-1	[0, 0, 0]	n/a	catFR1	8	R1495J
53.749	1.616	62521	WORD	n/a	n/a	CHIMPANZEE	Zoo	3	-1	[0, 0, 0]	n/a	catFR1	8	R1495J
55.365	0.768	64136	WORD_OFF	n/a	n/a	CHIMPANZEE	Zoo	3	-1	[0, 0, 0]	n/a	catFR1	8	R1495J
56.133	1.617	64906	WORD	n/a	n/a	LION	Zoo	4	-1	[0, 0, 0]	n/a	catFR1	8	R1495J
57.75	0.782	66527	WORD_OFF	n/a	n/a	LION	Zoo	4	-1	[0, 0, 0]	n/a	catFR1	8	R1495J
58.532	1.601	67303	WORD	n/a	n/a	PASTRY	Desserts	5	-1	[0, 0, 0]	n/a	catFR1	8	R1495J
60.133	0.965	68905	WORD_OFF	n/a	n/a	PASTRY	Desserts	5	-1	[0, 0, 0]	n/a	catFR1	8	R1495J
61.098	1.6	69872	WORD	n/a	n/a	JELLO	Desserts	6	-1	[0, 0, 0]	n/a	catFR1	8	R1495J
62.698	0.951	71474	WORD_OFF	n/a	n/a	JELLO	Desserts	6	-1	[0, 0, 0]	n/a	catFR1	8	R1495J
63.649	1.6	72428	WORD	n/a	n/a	SPINACH	Vegetables	7	-1	[0, 0, 0]	n/a	catFR1	8	R1495J
65.249	0.967	74018	WORD_OFF	n/a	n/a	SPINACH	Vegetables	7	-1	[0, 0, 0]	n/a	catFR1	8	R1495J
66.216	1.6	74985	WORD	n/a	n/a	CAULIFLOWER	Vegetables	8	-1	[0, 0, 0]	n/a	catFR1	8	R1495J
67.816	1.0	76587	WORD_OFF	n/a	n/a	CAULIFLOWER	Vegetables	8	-1	[0, 0, 0]	n/a	catFR1	8	R1495J
68.816	1.616	77592	WORD	n/a	n/a	GORILLA	Zoo	9	-1	[0, 0, 0]	n/a	catFR1	8	R1495J
70.432	1.0	79207	WORD_OFF	n/a	n/a	GORILLA	Zoo	9	-1	[0, 0, 0]	n/a	catFR1	8	R1495J
71.432	1.6	80199	WORD	n/a	n/a	MONKEY	Zoo	10	-1	[0, 0, 0]	n/a	catFR1	8	R1495J
73.032	0.999	81801	WORD_OFF	n/a	n/a	MONKEY	Zoo	10	-1	[0, 0, 0]	n/a	catFR1	8	R1495J
74.031	1.601	82806	WORD	n/a	n/a	CAKE	Desserts	11	-1	[0, 0, 0]	n/a	catFR1	8	R1495J
75.632	0.783	84409	WORD_OFF	n/a	n/a	CAKE	Desserts	11	-1	[0, 0, 0]	n/a	catFR1	8	R1495J
76.415	1.6	85184	WORD	n/a	n/a	PIE	Desserts	12	-1	[0, 0, 0]	n/a	catFR1	8	R1495J
78.015	0.001	86787	WORD_OFF	n/a	n/a	PIE	Desserts	12	-1	[0, 0, 0]	n/a	catFR1	8	R1495J
78.016	0.0	86787	ENCODING_END	n/a	n/a	n/a	n/a	-999	-1	[0, 0, 0]	n/a	catFR1	8	R1495J
78.016	0.0	86787	DISTRACT_START	n/a	n/a	n/a	n/a	-999	-1	[0, 0, 0]	n/a	catFR1	8	R1495J
78.016	0.0	86792	START	n/a	n/a	n/a	n/a	-999	-1	[-999, -999, -999]	n/a	catFR1	8	R1495J
78.016	8.298	86792	PROB	8.298	n/a	n/a	n/a	-999	-1	[2, 5, 6]	13	catFR1	8	R1495J
86.314	2.918	95089	PROB	2.918	n/a	n/a	n/a	-999	-1	[5, 6, 6]	7	catFR1	8	R1495J
89.232	2.849	98007	PROB	2.849	n/a	n/a	n/a	-999	-1	[7, 6, 2]	5	catFR1	8	R1495J
92.081	3.967	100856	PROB	3.967	n/a	n/a	n/a	-999	-1	[6, 7, 7]	20	catFR1	8	R1495J
96.048	3.25	104823	PROB	3.25	n/a	n/a	n/a	-999	-1	[4, 2, 5]	11	catFR1	8	R1495J
99.298	0.0	108064	DISTRACT_END	n/a	n/a	n/a	n/a	-999	-1	[0, 0, 0]	n/a	catFR1	8	R1495J
99.298	2.267	108073	STOP	n/a	n/a	n/a	n/a	-999	-1	[-999, -999, -999]	n/a	catFR1	8	R1495J
101.565	0.892	110336	REC_START	n/a	n/a	n/a	n/a	-999	-1	[0, 0, 0]	n/a	catFR1	8	R1495J
102.457	0.62	111232	REC_WORD	0.62	n/a	PASTRY	Desserts	5	-1	[0, 0, 0]	n/a	catFR1	8	R1495J
103.077	28.676	111852	REC_WORD	28.676	n/a	CAULIFLOWER	Vegetables	8	-1	[0, 0, 0]	n/a	catFR1	8	R1495J
131.753	5.03	140520	REC_END	n/a	n/a	n/a	n/a	-999	-1	[0, 0, 0]	n/a	catFR1	8	R1495J
136.783	10.349	145556	COUNTDOWN_START	n/a	n/a	n/a	n/a	-999	1	[0, 0, 0]	n/a	catFR1	8	R1495J
147.132	0.0	155896	COUNTDOWN_END	n/a	n/a	n/a	n/a	-999	1	[0, 0, 0]	n/a	catFR1	8	R1495J
147.132	2.201	155909	ENCODING_START	n/a	n/a	n/a	n/a	-999	1	[0, 0, 0]	n/a	catFR1	8	R1495J
149.333	1.616	158109	WORD	n/a	wordpools/wordpool_categorized_EN.txt	SPANDEX	Fabric	1	1	[0, 0, 0]	n/a	catFR1	8	R1495J
150.949	0.917	159724	WORD_OFF	n/a	n/a	SPANDEX	Fabric	1	1	[0, 0, 0]	n/a	catFR1	8	R1495J
151.866	1.6	160640	WORD	n/a	wordpools/wordpool_categorized_EN.txt	NYLON	Fabric	2	1	[0, 0, 0]	n/a	catFR1	8	R1495J
153.466	0.799	162230	WORD_OFF	n/a	n/a	NYLON	Fabric	2	1	[0, 0, 0]	n/a	catFR1	8	R1495J
154.265	1.601	163031	WORD	n/a	wordpools/wordpool_categorized_EN.txt	HAWK	Birds	3	1	[0, 0, 0]	n/a	catFR1	8	R1495J
155.866	0.95	164633	WORD_OFF	n/a	n/a	HAWK	Birds	3	1	[0, 0, 0]	n/a	catFR1	8	R1495J
156.816	1.617	165587	WORD	n/a	wordpools/wordpool_categorized_EN.txt	BLUEBIRD	Birds	4	1	[0, 0, 0]	n/a	catFR1	8	R1495J
158.433	0.8	167202	WORD_OFF	n/a	n/a	BLUEBIRD	Birds	4	1	[0, 0, 0]	n/a	catFR1	8	R1495J
159.233	1.6	168004	WORD	n/a	wordpools/wordpool_categorized_EN.txt	ROACH	Insects	5	1	[0, 0, 0]	n/a	catFR1	8	R1495J
160.833	0.866	169606	WORD_OFF	n/a	n/a	ROACH	Insects	5	1	[0, 0, 0]	n/a	catFR1	8	R1495J
161.699	1.6	170471	WORD	n/a	wordpools/wordpool_categorized_EN.txt	BEETLE	Insects	6	1	[0, 0, 0]	n/a	catFR1	8	R1495J
163.299	0.917	172073	WORD_OFF	n/a	n/a	BEETLE	Insects	6	1	[0, 0, 0]	n/a	catFR1	8	R1495J
164.216	1.615	172989	WORD	n/a	wordpools/wordpool_categorized_EN.txt	VELVET	Fabric	7	1	[0, 0, 0]	n/a	catFR1	8	R1495J
165.831	0.767	174604	WORD_OFF	n/a	n/a	VELVET	Fabric	7	1	[0, 0, 0]	n/a	catFR1	8	R1495J
166.598	1.618	175367	WORD	n/a	wordpools/wordpool_categorized_EN.txt	SILK	Fabric	8	1	[0, 0, 0]	n/a	catFR1	8	R1495J
168.216	0.966	176982	WORD_OFF	n/a	n/a	SILK	Fabric	8	1	[0, 0, 0]	n/a	catFR1	8	R1495J
169.182	1.616	177949	WORD	n/a	wordpools/wordpool_categorized_EN.txt	FLY	Insects	9	1	[0, 0, 0]	n/a	catFR1	8	R1495J
170.798	0.767	179564	WORD_OFF	n/a	n/a	FLY	Insects	9	1	[0, 0, 0]	n/a	catFR1	8	R1495J
171.565	1.615	180340	WORD	n/a	wordpools/wordpool_categorized_EN.txt	ANT	Insects	10	1	[0, 0, 0]	n/a	catFR1	8	R1495J
173.18	0.967	181955	WORD_OFF	n/a	n/a	ANT	Insects	10	1	[0, 0, 0]	n/a	catFR1	8	R1495J
174.147	1.601	182909	WORD	n/a	wordpools/wordpool_categorized_EN.txt	CROW	Birds	11	1	[0, 0, 0]	n/a	catFR1	8	R1495J
175.748	0.983	184511	WORD_OFF	n/a	n/a	CROW	Birds	11	1	[0, 0, 0]	n/a	catFR1	8	R1495J
176.731	1.617	185503	WORD	n/a	wordpools/wordpool_categorized_EN.txt	ROBIN	Birds	12	1	[0, 0, 0]	n/a	catFR1	8	R1495J
178.348	0.002	187119	WORD_OFF	n/a	n/a	ROBIN	Birds	12	1	[0, 0, 0]	n/a	catFR1	8	R1495J
178.35	0.0	187119	ENCODING_END	n/a	n/a	n/a	n/a	-999	1	[0, 0, 0]	n/a	catFR1	8	R1495J
178.35	0.0	187119	DISTRACT_START	n/a	n/a	n/a	n/a	-999	1	[0, 0, 0]	n/a	catFR1	8	R1495J
178.348	0.002	187120	PROB	0.002	n/a	n/a	n/a	-999	1	[6, 2, 4]	12	catFR1	8	R1495J
178.35	2.849	187122	START	n/a	n/a	n/a	n/a	-999	1	[-999, -999, -999]	n/a	catFR1	8	R1495J
181.199	5.367	189970	PROB	5.367	n/a	n/a	n/a	-999	1	[4, 2, 5]	11	catFR1	8	R1495J
186.566	7.366	195337	PROB	7.366	n/a	n/a	n/a	-999	1	[8, 7, 8]	23	catFR1	8	R1495J
193.932	3.151	202703	PROB	3.151	n/a	n/a	n/a	-999	1	[6, 3, 7]	16	catFR1	8	R1495J
197.083	2.698	205854	PROB	2.698	n/a	n/a	n/a	-999	1	[5, 6, 8]	19	catFR1	8	R1495J
199.781	0.0	208548	DISTRACT_END	n/a	n/a	n/a	n/a	-999	1	[0, 0, 0]	n/a	catFR1	8	R1495J
199.781	2.034	208552	STOP	n/a	n/a	n/a	n/a	-999	1	[-999, -999, -999]	n/a	catFR1	8	R1495J
201.815	2.522	210578	REC_START	n/a	n/a	n/a	n/a	-999	1	[0, 0, 0]	n/a	catFR1	8	R1495J
204.337	3.231	213108	REC_WORD	3.231	n/a	SPANDEX	Fabric	1	1	[0, 0, 0]	n/a	catFR1	8	R1495J
207.568	0.467	216338	REC_WORD	0.467	n/a	ANT	Insects	10	1	[0, 0, 0]	n/a	catFR1	8	R1495J
208.035	2.337	216805	REC_WORD	2.337	n/a	FLY	Insects	9	1	[0, 0, 0]	n/a	catFR1	8	R1495J
210.372	3.283	219142	REC_WORD	3.283	n/a	ROACH	Insects	5	1	[0, 0, 0]	n/a	catFR1	8	R1495J
213.655	18.342	222425	REC_WORD	18.342	n/a	BLUEBIRD	Birds	4	1	[0, 0, 0]	n/a	catFR1	8	R1495J
231.997	1.919	240763	REC_END	n/a	n/a	n/a	n/a	-999	1	[0, 0, 0]	n/a	catFR1	8	R1495J
233.916	10.349	242683	COUNTDOWN_START	n/a	n/a	n/a	n/a	-999	2	[0, 0, 0]	n/a	catFR1	8	R1495J
244.265	0.0	253036	COUNTDOWN_END	n/a	n/a	n/a	n/a	-999	2	[0, 0, 0]	n/a	catFR1	8	R1495J
244.265	2.201	253036	ENCODING_START	n/a	n/a	n/a	n/a	-999	2	[0, 0, 0]	n/a	catFR1	8	R1495J
246.466	1.6	255236	WORD	n/a	wordpools/wordpool_categorized_EN.txt	BANANA	Fruit	1	2	[0, 0, 0]	n/a	catFR1	8	R1495J
248.066	0.867	256838	WORD_OFF	n/a	n/a	BANANA	Fruit	1	2	[0, 0, 0]	n/a	catFR1	8	R1495J
248.933	1.6	257703	WORD	n/a	wordpools/wordpool_categorized_EN.txt	APPLE	Fruit	2	2	[0, 0, 0]	n/a	catFR1	8	R1495J
250.533	0.833	259293	WORD_OFF	n/a	n/a	APPLE	Fruit	2	2	[0, 0, 0]	n/a	catFR1	8	R1495J
251.366	1.6	260132	WORD	n/a	wordpools/wordpool_categorized_EN.txt	JELLYFISH	OceanAnimals	3	2	[0, 0, 0]	n/a	catFR1	8	R1495J
252.966	0.8	261735	WORD_OFF	n/a	n/a	JELLYFISH	OceanAnimals	3	2	[0, 0, 0]	n/a	catFR1	8	R1495J
253.766	1.6	262536	WORD	n/a	wordpools/wordpool_categorized_EN.txt	LOBSTER	OceanAnimals	4	2	[0, 0, 0]	n/a	catFR1	8	R1495J
255.366	0.816	264126	WORD_OFF	n/a	n/a	LOBSTER	OceanAnimals	4	2	[0, 0, 0]	n/a	catFR1	8	R1495J
256.182	1.617	264952	WORD	n/a	wordpools/wordpool_categorized_EN.txt	PAPER	OfficeSupplies	5	2	[0, 0, 0]	n/a	catFR1	8	R1495J
257.799	0.832	266568	WORD_OFF	n/a	n/a	PAPER	OfficeSupplies	5	2	[0, 0, 0]	n/a	catFR1	8	R1495J
258.631	1.601	267394	WORD	n/a	wordpools/wordpool_categorized_EN.txt	ERASER	OfficeSupplies	6	2	[0, 0, 0]	n/a	catFR1	8	R1495J
260.232	0.849	268997	WORD_OFF	n/a	n/a	ERASER	OfficeSupplies	6	2	[0, 0, 0]	n/a	catFR1	8	R1495J
261.081	1.6	269849	WORD	n/a	wordpools/wordpool_categorized_EN.txt	PLANKTON	OceanAnimals	7	2	[0, 0, 0]	n/a	catFR1	8	R1495J
262.681	0.985	271451	WORD_OFF	n/a	n/a	PLANKTON	OceanAnimals	7	2	[0, 0, 0]	n/a	catFR1	8	R1495J
263.666	1.615	272431	WORD	n/a	wordpools/wordpool_categorized_EN.txt	OCTOPUS	OceanAnimals	8	2	[0, 0, 0]	n/a	catFR1	8	R1495J
265.281	0.984	274046	WORD_OFF	n/a	n/a	OCTOPUS	OceanAnimals	8	2	[0, 0, 0]	n/a	catFR1	8	R1495J
266.265	1.6	275025	WORD	n/a	wordpools/wordpool_categorized_EN.txt	CHERRY	Fruit	9	2	[0, 0, 0]	n/a	catFR1	8	R1495J
267.865	0.916	276627	WORD_OFF	n/a	n/a	CHERRY	Fruit	9	2	[0, 0, 0]	n/a	catFR1	8	R1495J
268.781	1.601	277543	WORD	n/a	wordpools/wordpool_categorized_EN.txt	PLUM	Fruit	10	2	[0, 0, 0]	n/a	catFR1	8	R1495J
270.382	0.816	279146	WORD_OFF	n/a	n/a	PLUM	Fruit	10	2	[0, 0, 0]	n/a	catFR1	8	R1495J
271.198	1.617	279960	WORD	n/a	wordpools/wordpool_categorized_EN.txt	BINDER	OfficeSupplies	11	2	[0, 0, 0]	n/a	catFR1	8	R1495J
272.815	0.932	281575	WORD_OFF	n/a	n/a	BINDER	OfficeSupplies	11	2	[0, 0, 0]	n/a	catFR1	8	R1495J
273.747	1.602	282516	WORD	n/a	wordpools/wordpool_categorized_EN.txt	RULER	OfficeSupplies	12	2	[0, 0, 0]	n/a	catFR1	8	R1495J
275.349	0.0	284117	PROB	0.0	n/a	n/a	n/a	-999	2	[4, 6, 8]	18	catFR1	8	R1495J
275.349	0.0	284117	START	n/a	n/a	n/a	n/a	-999	2	[-999, -999, -999]	n/a	catFR1	8	R1495J
275.348	0.001	284118	WORD_OFF	n/a	n/a	RULER	OfficeSupplies	12	2	[0, 0, 0]	n/a	catFR1	8	R1495J
275.349	0.0	284118	ENCODING_END	n/a	n/a	n/a	n/a	-999	2	[0, 0, 0]	n/a	catFR1	8	R1495J
275.349	3.467	284118	DISTRACT_START	n/a	n/a	n/a	n/a	-999	2	[0, 0, 0]	n/a	catFR1	8	R1495J
278.816	1.733	287583	PROB	1.733	n/a	n/a	n/a	-999	2	[1, 7, 3]	11	catFR1	8	R1495J
280.549	3.198	289316	PROB	3.198	n/a	n/a	n/a	-999	2	[7, 1, 6]	14	catFR1	8	R1495J
283.747	2.552	292514	PROB	2.552	n/a	n/a	n/a	-999	2	[5, 2, 7]	14	catFR1	8	R1495J
286.299	1.901	295066	PROB	1.901	n/a	n/a	n/a	-999	2	[4, 4, 2]	10	catFR1	8	R1495J
288.2	1.549	296967	PROB	1.549	n/a	n/a	n/a	-999	2	[8, 1, 2]	11	catFR1	8	R1495J
289.749	3.351	298516	PROB	3.351	n/a	n/a	n/a	-999	2	[5, 8, 3]	16	catFR1	8	R1495J
293.1	2.281	301867	PROB	2.281	n/a	n/a	n/a	-999	2	[1, 1, 2]	4	catFR1	8	R1495J
295.381	0.0	304148	STOP	n/a	n/a	n/a	n/a	-999	2	[-999, -999, -999]	n/a	catFR1	8	R1495J
295.381	2.016	304149	DISTRACT_END	n/a	n/a	n/a	n/a	-999	2	[0, 0, 0]	n/a	catFR1	8	R1495J
297.397	0.449	306166	REC_START	n/a	n/a	n/a	n/a	-999	2	[0, 0, 0]	n/a	catFR1	8	R1495J
297.846	0.885	306613	REC_WORD	0.885	n/a	BEETLE	Insects	-999	2	[0, 0, 0]	n/a	catFR1	8	R1495J
298.731	4.079	307498	REC_WORD	4.079	n/a	BINDER	OfficeSupplies	11	2	[0, 0, 0]	n/a	catFR1	8	R1495J
302.81	10.036	311576	REC_WORD	10.036	n/a	FOLDER	n/a	-999	2	[0, 0, 0]	n/a	catFR1	8	R1495J
312.846	3.132	321612	REC_WORD	3.132	n/a	OCTOPUS	OceanAnimals	8	2	[0, 0, 0]	n/a	catFR1	8	R1495J
315.978	11.58	324744	REC_WORD	11.58	n/a	PLANKTON	OceanAnimals	7	2	[0, 0, 0]	n/a	catFR1	8	R1495J
327.558	1.542	336325	REC_END	n/a	n/a	n/a	n/a	-999	2	[0, 0, 0]	n/a	catFR1	8	R1495J
329.1	10.35	337864	COUNTDOWN_START	n/a	n/a	n/a	n/a	-999	3	[0, 0, 0]	n/a	catFR1	8	R1495J
339.45	0.0	348217	COUNTDOWN_END	n/a	n/a	n/a	n/a	-999	3	[0, 0, 0]	n/a	catFR1	8	R1495J
339.45	1.883	348217	ENCODING_START	n/a	n/a	n/a	n/a	-999	3	[0, 0, 0]	n/a	catFR1	8	R1495J
341.333	1.616	350099	WORD	n/a	wordpools/wordpool_categorized_EN.txt	RATCHET	Tools	1	3	[0, 0, 0]	n/a	catFR1	8	R1495J
342.949	0.934	351714	WORD_OFF	n/a	n/a	RATCHET	Tools	1	3	[0, 0, 0]	n/a	catFR1	8	R1495J
343.883	1.6	352643	WORD	n/a	wordpools/wordpool_categorized_EN.txt	SHOVEL	Tools	2	3	[0, 0, 0]	n/a	catFR1	8	R1495J
345.483	0.983	354245	WORD_OFF	n/a	n/a	SHOVEL	Tools	2	3	[0, 0, 0]	n/a	catFR1	8	R1495J
346.466	1.6	355224	WORD	n/a	wordpools/wordpool_categorized_EN.txt	CREEK	Landscapes	3	3	[0, 0, 0]	n/a	catFR1	8	R1495J
348.066	0.883	356827	WORD_OFF	n/a	n/a	CREEK	Landscapes	3	3	[0, 0, 0]	n/a	catFR1	8	R1495J
348.949	1.617	357704	WORD	n/a	wordpools/wordpool_categorized_EN.txt	OCEAN	Landscapes	4	3	[0, 0, 0]	n/a	catFR1	8	R1495J
350.566	0.865	359332	WORD_OFF	n/a	n/a	OCEAN	Landscapes	4	3	[0, 0, 0]	n/a	catFR1	8	R1495J
351.431	1.601	360197	WORD	n/a	wordpools/wordpool_categorized_EN.txt	LEMONADE	Beverages	5	3	[0, 0, 0]	n/a	catFR1	8	R1495J
353.032	0.817	361799	WORD_OFF	n/a	n/a	LEMONADE	Beverages	5	3	[0, 0, 0]	n/a	catFR1	8	R1495J
353.849	1.617	362613	WORD	n/a	wordpools/wordpool_categorized_EN.txt	COFFEE	Beverages	6	3	[0, 0, 0]	n/a	catFR1	8	R1495J
355.466	0.883	364229	WORD_OFF	n/a	n/a	COFFEE	Beverages	6	3	[0, 0, 0]	n/a	catFR1	8	R1495J
356.349	1.615	365106	WORD	n/a	wordpools/wordpool_categorized_EN.txt	WOODS	Landscapes	7	3	[0, 0, 0]	n/a	catFR1	8	R1495J
357.964	0.852	366721	WORD_OFF	n/a	n/a	WOODS	Landscapes	7	3	[0, 0, 0]	n/a	catFR1	8	R1495J
358.816	1.616	367573	WORD	n/a	wordpools/wordpool_categorized_EN.txt	FOREST	Landscapes	8	3	[0, 0, 0]	n/a	catFR1	8	R1495J
360.432	0.934	369189	WORD_OFF	n/a	n/a	FOREST	Landscapes	8	3	[0, 0, 0]	n/a	catFR1	8	R1495J
361.366	1.616	370130	WORD	n/a	wordpools/wordpool_categorized_EN.txt	DRILL	Tools	9	3	[0, 0, 0]	n/a	catFR1	8	R1495J
362.982	0.866	371745	WORD_OFF	n/a	n/a	DRILL	Tools	9	3	[0, 0, 0]	n/a	catFR1	8	R1495J
363.848	1.601	372610	WORD	n/a	wordpools/wordpool_categorized_EN.txt	SCREWDRIVER	Tools	10	3	[0, 0, 0]	n/a	catFR1	8	R1495J
365.449	0.816	374212	WORD_OFF	n/a	n/a	SCREWDRIVER	Tools	10	3	[0, 0, 0]	n/a	catFR1	8	R1495J
366.265	1.601	375026	WORD	n/a	wordpools/wordpool_categorized_EN.txt	SODA	Beverages	11	3	[0, 0, 0]	n/a	catFR1	8	R1495J
367.866	0.799	376629	WORD_OFF	n/a	n/a	SODA	Beverages	11	3	[0, 0, 0]	n/a	catFR1	8	R1495J
368.665	1.616	377430	WORD	n/a	wordpools/wordpool_categorized_EN.txt	WATER	Beverages	12	3	[0, 0, 0]	n/a	catFR1	8	R1495J
370.281	0.001	379045	WORD_OFF	n/a	n/a	WATER	Beverages	12	3	[0, 0, 0]	n/a	catFR1	8	R1495J
370.282	0.0	379045	ENCODING_END	n/a	n/a	n/a	n/a	-999	3	[0, 0, 0]	n/a	catFR1	8	R1495J
370.282	0.0	379045	DISTRACT_START	n/a	n/a	n/a	n/a	-999	3	[0, 0, 0]	n/a	catFR1	8	R1495J
370.282	0.0	379046	START	n/a	n/a	n/a	n/a	-999	3	[-999, -999, -999]	n/a	catFR1	8	R1495J
370.282	3.516	379046	PROB	3.516	n/a	n/a	n/a	-999	3	[7, 8, 5]	20	catFR1	8	R1495J
373.798	4.6	382561	PROB	4.6	n/a	n/a	n/a	-999	3	[2, 6, 7]	15	catFR1	8	R1495J
378.398	2.084	387161	PROB	2.084	n/a	n/a	n/a	-999	3	[1, 4, 5]	10	catFR1	8	R1495J
380.482	2.966	389245	PROB	2.966	n/a	n/a	n/a	-999	3	[3, 8, 2]	13	catFR1	8	R1495J
383.448	3.634	392211	PROB	3.634	n/a	n/a	n/a	-999	3	[3, 2, 2]	7	catFR1	8	R1495J
387.082	1.933	395845	PROB	1.933	n/a	n/a	n/a	-999	3	[2, 6, 6]	14	catFR1	8	R1495J
389.015	1.867	397778	PROB	1.867	n/a	n/a	n/a	-999	3	[7, 7, 3]	17	catFR1	8	R1495J
390.882	0.0	399645	STOP	n/a	n/a	n/a	n/a	-999	3	[-999, -999, -999]	n/a	catFR1	8	R1495J
390.882	2.25	399648	DISTRACT_END	n/a	n/a	n/a	n/a	-999	3	[0, 0, 0]	n/a	catFR1	8	R1495J
393.132	0.265	401894	REC_START	n/a	n/a	n/a	n/a	-999	3	[0, 0, 0]	n/a	catFR1	8	R1495J
393.397	0.686	402160	REC_WORD	0.686	n/a	RATCHET	Tools	1	3	[0, 0, 0]	n/a	catFR1	8	R1495J
394.083	10.571	402846	REC_WORD	10.571	n/a	SCREWDRIVER	Tools	10	3	[0, 0, 0]	n/a	catFR1	8	R1495J
404.654	1.759	413416	REC_WORD	1.759	n/a	APPLE	Fruit	-999	3	[0, 0, 0]	n/a	catFR1	8	R1495J
406.413	16.945	415175	REC_WORD	16.945	n/a	BANANA	Fruit	-999	3	[0, 0, 0]	n/a	catFR1	8	R1495J
423.358	2.191	432117	REC_END	n/a	n/a	n/a	n/a	-999	3	[0, 0, 0]	n/a	catFR1	8	R1495J
425.549	10.35	434304	COUNTDOWN_START	n/a	n/a	n/a	n/a	-999	4	[0, 0, 0]	n/a	catFR1	8	R1495J
435.899	0.0	444657	COUNTDOWN_END	n/a	n/a	n/a	n/a	-999	4	[0, 0, 0]	n/a	catFR1	8	R1495J
435.899	2.034	444657	ENCODING_START	n/a	n/a	n/a	n/a	-999	4	[0, 0, 0]	n/a	catFR1	8	R1495J
437.933	1.616	446692	WORD	n/a	wordpools/wordpool_categorized_EN.txt	JEEP	Vehicles	1	4	[0, 0, 0]	n/a	catFR1	8	R1495J
439.549	0.849	448307	WORD_OFF	n/a	n/a	JEEP	Vehicles	1	4	[0, 0, 0]	n/a	catFR1	8	R1495J
440.398	1.601	449159	WORD	n/a	wordpools/wordpool_categorized_EN.txt	CAR	Vehicles	2	4	[0, 0, 0]	n/a	catFR1	8	R1495J
441.999	0.934	450761	WORD_OFF	n/a	n/a	CAR	Vehicles	2	4	[0, 0, 0]	n/a	catFR1	8	R1495J
442.933	1.616	451690	WORD	n/a	wordpools/wordpool_categorized_EN.txt	TABLE	Furniture	3	4	[0, 0, 0]	n/a	catFR1	8	R1495J
444.549	0.817	453305	WORD_OFF	n/a	n/a	TABLE	Furniture	3	4	[0, 0, 0]	n/a	catFR1	8	R1495J
445.366	1.616	454119	WORD	n/a	wordpools/wordpool_categorized_EN.txt	SOFA	Furniture	4	4	[0, 0, 0]	n/a	catFR1	8	R1495J
446.982	0.951	455734	WORD_OFF	n/a	n/a	SOFA	Furniture	4	4	[0, 0, 0]	n/a	catFR1	8	R1495J
447.933	1.615	456688	WORD	n/a	wordpools/wordpool_categorized_EN.txt	SQUID	OceanAnimals	5	4	[0, 0, 0]	n/a	catFR1	8	R1495J
449.548	0.801	458303	WORD_OFF	n/a	n/a	SQUID	OceanAnimals	5	4	[0, 0, 0]	n/a	catFR1	8	R1495J
450.349	1.616	459104	WORD	n/a	wordpools/wordpool_categorized_EN.txt	OYSTER	OceanAnimals	6	4	[0, 0, 0]	n/a	catFR1	8	R1495J
451.965	0.784	460720	WORD_OFF	n/a	n/a	OYSTER	OceanAnimals	6	4	[0, 0, 0]	n/a	catFR1	8	R1495J
452.749	1.6	461508	WORD	n/a	wordpools/wordpool_categorized_EN.txt	CABINET	Furniture	7	4	[0, 0, 0]	n/a	catFR1	8	R1495J
454.349	0.933	463111	WORD_OFF	n/a	n/a	CABINET	Furniture	7	4	[0, 0, 0]	n/a	catFR1	8	R1495J
455.282	1.617	464039	WORD	n/a	wordpools/wordpool_categorized_EN.txt	COUCH	Furniture	8	4	[0, 0, 0]	n/a	catFR1	8	R1495J
456.899	0.883	465654	WORD_OFF	n/a	n/a	COUCH	Furniture	8	4	[0, 0, 0]	n/a	catFR1	8	R1495J
457.782	1.6	466544	WORD	n/a	wordpools/wordpool_categorized_EN.txt	CRAB	OceanAnimals	9	4	[0, 0, 0]	n/a	catFR1	8	R1495J
459.382	0.884	468134	WORD_OFF	n/a	n/a	CRAB	OceanAnimals	9	4	[0, 0, 0]	n/a	catFR1	8	R1495J
460.266	1.6	469024	WORD	n/a	wordpools/wordpool_categorized_EN.txt	FISH	OceanAnimals	10	4	[0, 0, 0]	n/a	catFR1	8	R1495J
461.866	0.999	470627	WORD_OFF	n/a	n/a	FISH	OceanAnimals	10	4	[0, 0, 0]	n/a	catFR1	8	R1495J
462.865	1.616	471619	WORD	n/a	wordpools/wordpool_categorized_EN.txt	BIKE	Vehicles	11	4	[0, 0, 0]	n/a	catFR1	8	R1495J
464.481	0.851	473234	WORD_OFF	n/a	n/a	BIKE	Vehicles	11	4	[0, 0, 0]	n/a	catFR1	8	R1495J
465.332	1.615	474086	WORD	n/a	wordpools/wordpool_categorized_EN.txt	VAN	Vehicles	12	4	[0, 0, 0]	n/a	catFR1	8	R1495J
466.947	0.0	475701	WORD_OFF	n/a	n/a	VAN	Vehicles	12	4	[0, 0, 0]	n/a	catFR1	8	R1495J
466.947	0.003	475707	PROB	0.003	n/a	n/a	n/a	-999	4	[8, 3, 2]	13	catFR1	8	R1495J
466.95	0.0	475710	START	n/a	n/a	n/a	n/a	-999	4	[-999, -999, -999]	n/a	catFR1	8	R1495J
466.95	0.0	475714	ENCODING_END	n/a	n/a	n/a	n/a	-999	4	[0, 0, 0]	n/a	catFR1	8	R1495J
466.95	2.748	475714	DISTRACT_START	n/a	n/a	n/a	n/a	-999	4	[0, 0, 0]	n/a	catFR1	8	R1495J
469.698	2.802	478457	PROB	2.802	n/a	n/a	n/a	-999	4	[1, 7, 6]	14	catFR1	8	R1495J
472.5	3.249	481259	PROB	3.249	n/a	n/a	n/a	-999	4	[8, 4, 1]	13	catFR1	8	R1495J
475.749	2.849	484508	PROB	2.849	n/a	n/a	n/a	-999	4	[2, 7, 4]	13	catFR1	8	R1495J
478.598	3.367	487357	PROB	3.367	n/a	n/a	n/a	-999	4	[3, 5, 7]	15	catFR1	8	R1495J
481.965	2.083	490724	PROB	2.083	n/a	n/a	n/a	-999	4	[4, 5, 1]	10	catFR1	8	R1495J
484.048	3.317	492807	PROB	3.317	n/a	n/a	n/a	-999	4	[6, 1, 8]	15	catFR1	8	R1495J
487.365	0.0	496124	STOP	n/a	n/a	n/a	n/a	-999	4	[-999, -999, -999]	n/a	catFR1	8	R1495J
487.365	2.3	496126	DISTRACT_END	n/a	n/a	n/a	n/a	-999	4	[0, 0, 0]	n/a	catFR1	8	R1495J
489.665	1.332	498424	REC_START	n/a	n/a	n/a	n/a	-999	4	[0, 0, 0]	n/a	catFR1	8	R1495J
490.997	0.705	499756	REC_WORD	0.705	n/a	VAN	Vehicles	12	4	[0, 0, 0]	n/a	catFR1	8	R1495J
491.702	2.221	500461	REC_WORD	2.221	n/a	JEEP	Vehicles	1	4	[0, 0, 0]	n/a	catFR1	8	R1495J
493.923	5.164	502681	REC_WORD	5.164	n/a	RATCHET	Tools	-999	4	[0, 0, 0]	n/a	catFR1	8	R1495J
499.087	0.816	507845	REC_WORD	0.816	n/a	CREEK	Landscapes	-999	4	[0, 0, 0]	n/a	catFR1	8	R1495J
499.903	8.856	508661	REC_WORD	8.856	n/a	OCEAN	Landscapes	-999	4	[0, 0, 0]	n/a	catFR1	8	R1495J
508.759	9.119	517517	REC_WORD	9.119	n/a	COUCH	Furniture	8	4	[0, 0, 0]	n/a	catFR1	8	R1495J
517.878	2.012	526635	REC_WORD	2.012	n/a	CAR	Vehicles	2	4	[0, 0, 0]	n/a	catFR1	8	R1495J
519.89	1.426	528646	REC_END	n/a	n/a	n/a	n/a	-999	4	[0, 0, 0]	n/a	catFR1	8	R1495J
521.316	10.349	530071	COUNTDOWN_START	n/a	n/a	n/a	n/a	-999	5	[0, 0, 0]	n/a	catFR1	8	R1495J
531.665	0.001	540423	COUNTDOWN_END	n/a	n/a	n/a	n/a	-999	5	[0, 0, 0]	n/a	catFR1	8	R1495J
531.666	2.2	540423	ENCODING_START	n/a	n/a	n/a	n/a	-999	5	[0, 0, 0]	n/a	catFR1	8	R1495J
533.866	1.6	542623	WORD	n/a	wordpools/wordpool_categorized_EN.txt	STOVE	Appliances	1	5	[0, 0, 0]	n/a	catFR1	8	R1495J
535.466	0.782	544226	WORD_OFF	n/a	n/a	STOVE	Appliances	1	5	[0, 0, 0]	n/a	catFR1	8	R1495J
536.248	1.602	545001	WORD	n/a	wordpools/wordpool_categorized_EN.txt	MIXER	Appliances	2	5	[0, 0, 0]	n/a	catFR1	8	R1495J
537.85	0.899	546604	WORD_OFF	n/a	n/a	MIXER	Appliances	2	5	[0, 0, 0]	n/a	catFR1	8	R1495J
538.749	1.617	547507	WORD	n/a	wordpools/wordpool_categorized_EN.txt	OAK	Trees	3	5	[0, 0, 0]	n/a	catFR1	8	R1495J
540.366	0.95	549122	WORD_OFF	n/a	n/a	OAK	Trees	3	5	[0, 0, 0]	n/a	catFR1	8	R1495J
541.316	1.615	550063	WORD	n/a	wordpools/wordpool_categorized_EN.txt	EVERGREEN	Trees	4	5	[0, 0, 0]	n/a	catFR1	8	R1495J
542.931	0.768	551691	WORD_OFF	n/a	n/a	EVERGREEN	Trees	4	5	[0, 0, 0]	n/a	catFR1	8	R1495J
543.699	1.616	552454	WORD	n/a	wordpools/wordpool_categorized_EN.txt	SHOES	Clothing	5	5	[0, 0, 0]	n/a	catFR1	8	R1495J
545.315	0.917	554069	WORD_OFF	n/a	n/a	SHOES	Clothing	5	5	[0, 0, 0]	n/a	catFR1	8	R1495J
546.232	1.6	554985	WORD	n/a	wordpools/wordpool_categorized_EN.txt	DRESS	Clothing	6	5	[0, 0, 0]	n/a	catFR1	8	R1495J
547.832	1.0	556587	WORD_OFF	n/a	n/a	DRESS	Clothing	6	5	[0, 0, 0]	n/a	catFR1	8	R1495J
548.832	1.617	557592	WORD	n/a	wordpools/wordpool_categorized_EN.txt	CYPRESS	Trees	7	5	[0, 0, 0]	n/a	catFR1	8	R1495J
550.449	0.949	559207	WORD_OFF	n/a	n/a	CYPRESS	Trees	7	5	[0, 0, 0]	n/a	catFR1	8	R1495J
551.398	1.601	560148	WORD	n/a	wordpools/wordpool_categorized_EN.txt	CEDAR	Trees	8	5	[0, 0, 0]	n/a	catFR1	8	R1495J
552.999	0.965	561751	WORD_OFF	n/a	n/a	CEDAR	Trees	8	5	[0, 0, 0]	n/a	catFR1	8	R1495J
553.964	1.602	562717	WORD	n/a	wordpools/wordpool_categorized_EN.txt	REFRIGERATOR	Appliances	9	5	[0, 0, 0]	n/a	catFR1	8	R1495J
555.566	0.932	564320	WORD_OFF	n/a	n/a	REFRIGERATOR	Appliances	9	5	[0, 0, 0]	n/a	catFR1	8	R1495J
556.498	1.6	565248	WORD	n/a	wordpools/wordpool_categorized_EN.txt	FREEZER	Appliances	10	5	[0, 0, 0]	n/a	catFR1	8	R1495J
558.098	0.984	566851	WORD_OFF	n/a	n/a	FREEZER	Appliances	10	5	[0, 0, 0]	n/a	catFR1	8	R1495J
559.082	1.6	567830	WORD	n/a	wordpools/wordpool_categorized_EN.txt	SHORTS	Clothing	11	5	[0, 0, 0]	n/a	catFR1	8	R1495J
560.682	0.999	569433	WORD_OFF	n/a	n/a	SHORTS	Clothing	11	5	[0, 0, 0]	n/a	catFR1	8	R1495J
561.681	1.601	570437	WORD	n/a	wordpools/wordpool_categorized_EN.txt	SHIRT	Clothing	12	5	[0, 0, 0]	n/a	catFR1	8	R1495J
563.282	0.001	572038	PROB	0.001	n/a	n/a	n/a	-999	5	[1, 1, 6]	8	catFR1	8	R1495J
563.283	0.0	572039	START	n/a	n/a	n/a	n/a	-999	5	[-999, -999, -999]	n/a	catFR1	8	R1495J
563.281	0.002	572040	WORD_OFF	n/a	n/a	SHIRT	Clothing	12	5	[0, 0, 0]	n/a	catFR1	8	R1495J
563.283	0.0	572040	ENCODING_END	n/a	n/a	n/a	n/a	-999	5	[0, 0, 0]	n/a	catFR1	8	R1495J
563.283	1.95	572040	DISTRACT_START	n/a	n/a	n/a	n/a	-999	5	[0, 0, 0]	n/a	catFR1	8	R1495J
565.233	2.515	573988	PROB	2.515	n/a	n/a	n/a	-999	5	[5, 7, 1]	13	catFR1	8	R1495J
567.748	1.718	576503	PROB	1.718	n/a	n/a	n/a	-999	5	[2, 6, 4]	12	catFR1	8	R1495J
569.466	4.116	578221	PROB	4.116	n/a	n/a	n/a	-999	5	[5, 6, 3]	14	catFR1	8	R1495J
573.582	2.267	582337	PROB	2.267	n/a	n/a	n/a	-999	5	[2, 1, 6]	9	catFR1	8	R1495J
575.849	1.983	584604	PROB	1.983	n/a	n/a	n/a	-999	5	[1, 7, 2]	10	catFR1	8	R1495J
577.832	3.365	586587	PROB	3.365	n/a	n/a	n/a	-999	5	[5, 7, 2]	14	catFR1	8	R1495J
581.197	2.052	589952	PROB	2.052	n/a	n/a	n/a	-999	5	[2, 4, 2]	8	catFR1	8	R1495J
583.249	2.833	592004	PROB	2.833	n/a	n/a	n/a	-999	5	[5, 1, 3]	8	catFR1	8	R1495J
586.082	0.0	594830	DISTRACT_END	n/a	n/a	n/a	n/a	-999	5	[0, 0, 0]	n/a	catFR1	8	R1495J
586.082	2.182	594837	STOP	n/a	n/a	n/a	n/a	-999	5	[-999, -999, -999]	n/a	catFR1	8	R1495J
588.264	1.466	597013	REC_START	n/a	n/a	n/a	n/a	-999	5	[0, 0, 0]	n/a	catFR1	8	R1495J
589.73	5.658	598484	REC_WORD	5.658	n/a	EVERGREEN	Trees	4	5	[0, 0, 0]	n/a	catFR1	8	R1495J
595.388	23.093	604142	REC_WORD	23.093	n/a	ORCHID	n/a	-999	5	[0, 0, 0]	n/a	catFR1	8	R1495J
618.481	1.585	627236	REC_END	n/a	n/a	n/a	n/a	-999	5	[0, 0, 0]	n/a	catFR1	8	R1495J
620.066	10.35	628813	COUNTDOWN_START	n/a	n/a	n/a	n/a	-999	6	[0, 0, 0]	n/a	catFR1	8	R1495J
630.416	0.0	639165	COUNTDOWN_END	n/a	n/a	n/a	n/a	-999	6	[0, 0, 0]	n/a	catFR1	8	R1495J
630.416	2.299	639165	ENCODING_START	n/a	n/a	n/a	n/a	-999	6	[0, 0, 0]	n/a	catFR1	8	R1495J
632.715	1.617	641467	WORD	n/a	wordpools/wordpool_categorized_EN.txt	SOCKS	Clothing	1	6	[0, 0, 0]	n/a	catFR1	8	R1495J
634.332	0.901	643082	WORD_OFF	n/a	n/a	SOCKS	Clothing	1	6	[0, 0, 0]	n/a	catFR1	8	R1495J
635.233	1.6	643985	WORD	n/a	wordpools/wordpool_categorized_EN.txt	SKIRT	Clothing	2	6	[0, 0, 0]	n/a	catFR1	8	R1495J
636.833	0.983	645588	WORD_OFF	n/a	n/a	SKIRT	Clothing	2	6	[0, 0, 0]	n/a	catFR1	8	R1495J
637.816	1.6	646567	WORD	n/a	wordpools/wordpool_categorized_EN.txt	CARDINAL	Birds	3	6	[0, 0, 0]	n/a	catFR1	8	R1495J
639.416	0.967	648169	WORD_OFF	n/a	n/a	CARDINAL	Birds	3	6	[0, 0, 0]	n/a	catFR1	8	R1495J
640.383	1.616	649136	WORD	n/a	wordpools/wordpool_categorized_EN.txt	SEAGULL	Birds	4	6	[0, 0, 0]	n/a	catFR1	8	R1495J
641.999	0.8	650751	WORD_OFF	n/a	n/a	SEAGULL	Birds	4	6	[0, 0, 0]	n/a	catFR1	8	R1495J
642.799	1.617	651552	WORD	n/a	wordpools/wordpool_categorized_EN.txt	MARKER	OfficeSupplies	5	6	[0, 0, 0]	n/a	catFR1	8	R1495J
644.416	1.0	653167	WORD_OFF	n/a	n/a	MARKER	OfficeSupplies	5	6	[0, 0, 0]	n/a	catFR1	8	R1495J
645.416	1.616	654159	WORD	n/a	wordpools/wordpool_categorized_EN.txt	STAPLER	OfficeSupplies	6	6	[0, 0, 0]	n/a	catFR1	8	R1495J
647.032	0.967	655775	WORD_OFF	n/a	n/a	STAPLER	OfficeSupplies	6	6	[0, 0, 0]	n/a	catFR1	8	R1495J
647.999	1.616	656754	WORD	n/a	wordpools/wordpool_categorized_EN.txt	BLOUSE	Clothing	7	6	[0, 0, 0]	n/a	catFR1	8	R1495J
649.615	0.967	658369	WORD_OFF	n/a	n/a	BLOUSE	Clothing	7	6	[0, 0, 0]	n/a	catFR1	8	R1495J
650.582	1.6	659336	WORD	n/a	wordpools/wordpool_categorized_EN.txt	JACKET	Clothing	8	6	[0, 0, 0]	n/a	catFR1	8	R1495J
652.182	1.0	660925	WORD_OFF	n/a	n/a	JACKET	Clothing	8	6	[0, 0, 0]	n/a	catFR1	8	R1495J
653.182	1.616	661930	WORD	n/a	wordpools/wordpool_categorized_EN.txt	NOTEBOOK	OfficeSupplies	9	6	[0, 0, 0]	n/a	catFR1	8	R1495J
654.798	0.835	663545	WORD_OFF	n/a	n/a	NOTEBOOK	OfficeSupplies	9	6	[0, 0, 0]	n/a	catFR1	8	R1495J
655.633	1.616	664385	WORD	n/a	wordpools/wordpool_categorized_EN.txt	FOLDER	OfficeSupplies	10	6	[0, 0, 0]	n/a	catFR1	8	R1495J
657.249	0.899	666000	WORD_OFF	n/a	n/a	FOLDER	OfficeSupplies	10	6	[0, 0, 0]	n/a	catFR1	8	R1495J
658.148	1.616	666903	WORD	n/a	wordpools/wordpool_categorized_EN.txt	FINCH	Birds	11	6	[0, 0, 0]	n/a	catFR1	8	R1495J
659.764	0.851	668518	WORD_OFF	n/a	n/a	FINCH	Birds	11	6	[0, 0, 0]	n/a	catFR1	8	R1495J
660.615	1.617	669357	WORD	n/a	wordpools/wordpool_categorized_EN.txt	DOVE	Birds	12	6	[0, 0, 0]	n/a	catFR1	8	R1495J
662.232	0.0	670983	START	n/a	n/a	n/a	n/a	-999	6	[-999, -999, -999]	n/a	catFR1	8	R1495J
662.232	0.0	670983	PROB	0.0	n/a	n/a	n/a	-999	6	[8, 3, 4]	15	catFR1	8	R1495J
662.231	0.001	670985	WORD_OFF	n/a	n/a	DOVE	Birds	12	6	[0, 0, 0]	n/a	catFR1	8	R1495J
662.232	0.0	670985	ENCODING_END	n/a	n/a	n/a	n/a	-999	6	[0, 0, 0]	n/a	catFR1	8	R1495J
662.232	3.801	670985	DISTRACT_START	n/a	n/a	n/a	n/a	-999	6	[0, 0, 0]	n/a	catFR1	8	R1495J
666.033	3.066	674784	PROB	3.066	n/a	n/a	n/a	-999	6	[5, 5, 6]	16	catFR1	8	R1495J
669.099	2.016	677850	PROB	2.016	n/a	n/a	n/a	-999	6	[3, 3, 1]	7	catFR1	8	R1495J
671.115	2.25	679866	PROB	2.25	n/a	n/a	n/a	-999	6	[2, 3, 8]	13	catFR1	8	R1495J
673.365	3.483	682116	PROB	3.483	n/a	n/a	n/a	-999	6	[2, 8, 5]	15	catFR1	8	R1495J
676.848	3.301	685599	PROB	3.301	n/a	n/a	n/a	-999	6	[2, 3, 2]	7	catFR1	8	R1495J
680.149	3.849	688900	PROB	3.849	n/a	n/a	n/a	-999	6	[8, 6, 3]	17	catFR1	8	R1495J
683.998	0.0	692746	DISTRACT_END	n/a	n/a	n/a	n/a	-999	6	[0, 0, 0]	n/a	catFR1	8	R1495J
683.998	2.034	692749	STOP	n/a	n/a	n/a	n/a	-999	6	[-999, -999, -999]	n/a	catFR1	8	R1495J
686.032	0.057	694776	REC_START	n/a	n/a	n/a	n/a	-999	6	[0, 0, 0]	n/a	catFR1	8	R1495J
686.089	5.807	694839	REC_WORD	5.807	n/a	SEAGULL	Birds	4	6	[0, 0, 0]	n/a	catFR1	8	R1495J
691.896	1.303	700646	REC_WORD	1.303	n/a	ORCHID	n/a	-999	6	[0, 0, 0]	n/a	catFR1	8	R1495J
693.199	0.725	701949	REC_WORD	0.725	n/a	EVERGREEN	Trees	-999	6	[0, 0, 0]	n/a	catFR1	8	R1495J
693.924	1.838	702674	REC_WORD	1.838	n/a	OAK	Trees	-999	6	[0, 0, 0]	n/a	catFR1	8	R1495J
695.762	3.262	704512	REC_WORD	3.262	n/a	FOLDER	OfficeSupplies	10	6	[0, 0, 0]	n/a	catFR1	8	R1495J
699.024	17.225	707774	REC_WORD	17.225	n/a	BINDER	OfficeSupplies	-999	6	[0, 0, 0]	n/a	catFR1	8	R1495J
716.249	1.734	724998	REC_END	n/a	n/a	n/a	n/a	-999	6	[0, 0, 0]	n/a	catFR1	8	R1495J
717.983	10.349	726728	COUNTDOWN_START	n/a	n/a	n/a	n/a	-999	7	[0, 0, 0]	n/a	catFR1	8	R1495J
728.332	0.0	737080	COUNTDOWN_END	n/a	n/a	n/a	n/a	-999	7	[0, 0, 0]	n/a	catFR1	8	R1495J
728.332	2.116	737080	ENCODING_START	n/a	n/a	n/a	n/a	-999	7	[0, 0, 0]	n/a	catFR1	8	R1495J
730.448	1.602	739192	WORD	n/a	wordpools/wordpool_categorized_EN.txt	JEANS	Clothing	1	7	[0, 0, 0]	n/a	catFR1	8	R1495J
732.05	0.949	740794	WORD_OFF	n/a	n/a	JEANS	Clothing	1	7	[0, 0, 0]	n/a	catFR1	8	R1495J
732.999	1.6	741748	WORD	n/a	wordpools/wordpool_categorized_EN.txt	UNDERWEAR	Clothing	2	7	[0, 0, 0]	n/a	catFR1	8	R1495J
734.599	0.866	743350	WORD_OFF	n/a	n/a	UNDERWEAR	Clothing	2	7	[0, 0, 0]	n/a	catFR1	8	R1495J
735.465	1.601	744215	WORD	n/a	wordpools/wordpool_categorized_EN.txt	ELBOW	BodyParts	3	7	[0, 0, 0]	n/a	catFR1	8	R1495J
737.066	0.816	745805	WORD_OFF	n/a	n/a	ELBOW	BodyParts	3	7	[0, 0, 0]	n/a	catFR1	8	R1495J
737.882	1.6	746632	WORD	n/a	wordpools/wordpool_categorized_EN.txt	LEG	BodyParts	4	7	[0, 0, 0]	n/a	catFR1	8	R1495J
739.482	0.967	748221	WORD_OFF	n/a	n/a	LEG	BodyParts	4	7	[0, 0, 0]	n/a	catFR1	8	R1495J
740.449	1.6	749188	WORD	n/a	wordpools/wordpool_categorized_EN.txt	PENCIL	OfficeSupplies	5	7	[0, 0, 0]	n/a	catFR1	8	R1495J
742.049	0.767	750790	WORD_OFF	n/a	n/a	PENCIL	OfficeSupplies	5	7	[0, 0, 0]	n/a	catFR1	8	R1495J
742.816	1.617	751566	WORD	n/a	wordpools/wordpool_categorized_EN.txt	GLUE	OfficeSupplies	6	7	[0, 0, 0]	n/a	catFR1	8	R1495J
744.433	0.816	753181	WORD_OFF	n/a	n/a	GLUE	OfficeSupplies	6	7	[0, 0, 0]	n/a	catFR1	8	R1495J
745.249	1.6	753995	WORD	n/a	wordpools/wordpool_categorized_EN.txt	PANTS	Clothing	7	7	[0, 0, 0]	n/a	catFR1	8	R1495J
746.849	0.883	755598	WORD_OFF	n/a	n/a	PANTS	Clothing	7	7	[0, 0, 0]	n/a	catFR1	8	R1495J
747.732	1.615	756475	WORD	n/a	wordpools/wordpool_categorized_EN.txt	COAT	Clothing	8	7	[0, 0, 0]	n/a	catFR1	8	R1495J
749.347	0.785	758090	WORD_OFF	n/a	n/a	COAT	Clothing	8	7	[0, 0, 0]	n/a	catFR1	8	R1495J
750.132	1.601	758879	WORD	n/a	wordpools/wordpool_categorized_EN.txt	TOE	BodyParts	9	7	[0, 0, 0]	n/a	catFR1	8	R1495J
751.733	0.916	760481	WORD_OFF	n/a	n/a	TOE	BodyParts	9	7	[0, 0, 0]	n/a	catFR1	8	R1495J
752.649	1.616	761397	WORD	n/a	wordpools/wordpool_categorized_EN.txt	NOSE	BodyParts	10	7	[0, 0, 0]	n/a	catFR1	8	R1495J
754.265	0.951	763012	WORD_OFF	n/a	n/a	NOSE	BodyParts	10	7	[0, 0, 0]	n/a	catFR1	8	R1495J
755.216	1.615	763966	WORD	n/a	wordpools/wordpool_categorized_EN.txt	PEN	OfficeSupplies	11	7	[0, 0, 0]	n/a	catFR1	8	R1495J
756.831	0.817	765581	WORD_OFF	n/a	n/a	PEN	OfficeSupplies	11	7	[0, 0, 0]	n/a	catFR1	8	R1495J
757.648	1.618	766395	WORD	n/a	wordpools/wordpool_categorized_EN.txt	TAPE	OfficeSupplies	12	7	[0, 0, 0]	n/a	catFR1	8	R1495J
759.266	0.001	768010	WORD_OFF	n/a	n/a	TAPE	OfficeSupplies	12	7	[0, 0, 0]	n/a	catFR1	8	R1495J
759.267	0.0	768010	ENCODING_END	n/a	n/a	n/a	n/a	-999	7	[0, 0, 0]	n/a	catFR1	8	R1495J
759.267	0.0	768010	DISTRACT_START	n/a	n/a	n/a	n/a	-999	7	[0, 0, 0]	n/a	catFR1	8	R1495J
759.266	0.001	768013	PROB	0.001	n/a	n/a	n/a	-999	7	[2, 5, 6]	13	catFR1	8	R1495J
759.267	3.115	768014	START	n/a	n/a	n/a	n/a	-999	7	[-999, -999, -999]	n/a	catFR1	8	R1495J
762.382	2.501	771129	PROB	2.501	n/a	n/a	n/a	-999	7	[4, 8, 1]	13	catFR1	8	R1495J
764.883	2.049	773630	PROB	2.049	n/a	n/a	n/a	-999	7	[3, 6, 7]	16	catFR1	8	R1495J
766.932	2.134	775679	PROB	2.134	n/a	n/a	n/a	-999	7	[2, 3, 6]	11	catFR1	8	R1495J
769.066	2.583	777813	PROB	2.583	n/a	n/a	n/a	-999	7	[3, 4, 3]	10	catFR1	8	R1495J
771.649	1.866	780396	PROB	1.866	n/a	n/a	n/a	-999	7	[1, 4, 4]	9	catFR1	8	R1495J
773.515	4.651	782262	PROB	4.651	n/a	n/a	n/a	-999	7	[6, 1, 5]	13	catFR1	8	R1495J
778.166	3.498	786913	PROB	3.498	n/a	n/a	n/a	-999	7	[1, 8, 7]	16	catFR1	8	R1495J
781.664	0.0	790407	DISTRACT_END	n/a	n/a	n/a	n/a	-999	7	[0, 0, 0]	n/a	catFR1	8	R1495J
781.664	2.351	790410	STOP	n/a	n/a	n/a	n/a	-999	7	[-999, -999, -999]	n/a	catFR1	8	R1495J
784.015	3.833	792755	REC_START	n/a	n/a	n/a	n/a	-999	7	[0, 0, 0]	n/a	catFR1	8	R1495J
787.848	2.814	796594	REC_WORD	2.814	n/a	PEN	OfficeSupplies	11	7	[0, 0, 0]	n/a	catFR1	8	R1495J
790.662	12.599	799408	REC_WORD	12.599	n/a	FOLDER	OfficeSupplies	-999	7	[0, 0, 0]	n/a	catFR1	8	R1495J
803.261	6.767	812007	REC_WORD	6.767	n/a	EVERGREEN	Trees	-999	7	[0, 0, 0]	n/a	catFR1	8	R1495J
810.028	4.2	818773	REC_WORD	4.2	n/a	OAK	Trees	-999	7	[0, 0, 0]	n/a	catFR1	8	R1495J
814.228	1.904	822965	REC_END	n/a	n/a	n/a	n/a	-999	7	[0, 0, 0]	n/a	catFR1	8	R1495J
816.132	10.351	824872	COUNTDOWN_START	n/a	n/a	n/a	n/a	-999	8	[0, 0, 0]	n/a	catFR1	8	R1495J
826.483	0.0	835225	COUNTDOWN_END	n/a	n/a	n/a	n/a	-999	8	[0, 0, 0]	n/a	catFR1	8	R1495J
826.483	2.114	835225	ENCODING_START	n/a	n/a	n/a	n/a	-999	8	[0, 0, 0]	n/a	catFR1	8	R1495J
828.597	1.602	837336	WORD	n/a	wordpools/wordpool_categorized_EN.txt	DUCK	Birds	1	8	[0, 0, 0]	n/a	catFR1	8	R1495J
830.199	0.834	838938	WORD_OFF	n/a	n/a	DUCK	Birds	1	8	[0, 0, 0]	n/a	catFR1	8	R1495J
831.033	1.6	839778	WORD	n/a	wordpools/wordpool_categorized_EN.txt	SPARROW	Birds	2	8	[0, 0, 0]	n/a	catFR1	8	R1495J
832.633	0.798	841380	WORD_OFF	n/a	n/a	SPARROW	Birds	2	8	[0, 0, 0]	n/a	catFR1	8	R1495J
833.431	1.601	842169	WORD	n/a	wordpools/wordpool_categorized_EN.txt	DAFFODIL	Flowers	3	8	[0, 0, 0]	n/a	catFR1	8	R1495J
835.032	0.8	843771	WORD_OFF	n/a	n/a	DAFFODIL	Flowers	3	8	[0, 0, 0]	n/a	catFR1	8	R1495J
835.832	1.601	844572	WORD	n/a	wordpools/wordpool_categorized_EN.txt	MARIGOLD	Flowers	4	8	[0, 0, 0]	n/a	catFR1	8	R1495J
837.433	0.9	846175	WORD_OFF	n/a	n/a	MARIGOLD	Flowers	4	8	[0, 0, 0]	n/a	catFR1	8	R1495J
838.333	1.599	847078	WORD	n/a	wordpools/wordpool_categorized_EN.txt	FLUTE	Instruments	5	8	[0, 0, 0]	n/a	catFR1	8	R1495J
839.932	0.95	848668	WORD_OFF	n/a	n/a	FLUTE	Instruments	5	8	[0, 0, 0]	n/a	catFR1	8	R1495J
840.882	1.617	849621	WORD	n/a	wordpools/wordpool_categorized_EN.txt	TUBA	Instruments	6	8	[0, 0, 0]	n/a	catFR1	8	R1495J
842.499	1.0	851237	WORD_OFF	n/a	n/a	TUBA	Instruments	6	8	[0, 0, 0]	n/a	catFR1	8	R1495J
843.499	1.617	852241	WORD	n/a	wordpools/wordpool_categorized_EN.txt	GOOSE	Birds	7	8	[0, 0, 0]	n/a	catFR1	8	R1495J
845.116	0.983	853856	WORD_OFF	n/a	n/a	GOOSE	Birds	7	8	[0, 0, 0]	n/a	catFR1	8	R1495J
846.099	1.617	854836	WORD	n/a	wordpools/wordpool_categorized_EN.txt	PIGEON	Birds	8	8	[0, 0, 0]	n/a	catFR1	8	R1495J
847.716	0.95	856451	WORD_OFF	n/a	n/a	PIGEON	Birds	8	8	[0, 0, 0]	n/a	catFR1	8	R1495J
848.666	1.616	857405	WORD	n/a	wordpools/wordpool_categorized_EN.txt	GUITAR	Instruments	9	8	[0, 0, 0]	n/a	catFR1	8	R1495J
850.282	0.783	859020	WORD_OFF	n/a	n/a	GUITAR	Instruments	9	8	[0, 0, 0]	n/a	catFR1	8	R1495J
851.065	1.6	859808	WORD	n/a	wordpools/wordpool_categorized_EN.txt	DRUM	Instruments	10	8	[0, 0, 0]	n/a	catFR1	8	R1495J
852.665	0.884	861411	WORD_OFF	n/a	n/a	DRUM	Instruments	10	8	[0, 0, 0]	n/a	catFR1	8	R1495J
853.549	1.599	862288	WORD	n/a	wordpools/wordpool_categorized_EN.txt	CARNATION	Flowers	11	8	[0, 0, 0]	n/a	catFR1	8	R1495J
855.148	0.95	863891	WORD_OFF	n/a	n/a	CARNATION	Flowers	11	8	[0, 0, 0]	n/a	catFR1	8	R1495J
856.098	1.601	864845	WORD	n/a	wordpools/wordpool_categorized_EN.txt	VIOLET	Flowers	12	8	[0, 0, 0]	n/a	catFR1	8	R1495J
857.699	0.001	866435	WORD_OFF	n/a	n/a	VIOLET	Flowers	12	8	[0, 0, 0]	n/a	catFR1	8	R1495J
857.7	0.001	866443	PROB	0.001	n/a	n/a	n/a	-999	8	[1, 1, 2]	4	catFR1	8	R1495J
857.701	0.0	866444	START	n/a	n/a	n/a	n/a	-999	8	[-999, -999, -999]	n/a	catFR1	8	R1495J
857.701	0.0	866447	ENCODING_END	n/a	n/a	n/a	n/a	-999	8	[0, 0, 0]	n/a	catFR1	8	R1495J
857.701	2.363	866447	DISTRACT_START	n/a	n/a	n/a	n/a	-999	8	[0, 0, 0]	n/a	catFR1	8	R1495J
860.064	2.352	868807	PROB	2.352	n/a	n/a	n/a	-999	8	[5, 2, 1]	8	catFR1	8	R1495J
862.416	2.95	871159	PROB	2.95	n/a	n/a	n/a	-999	8	[5, 8, 8]	21	catFR1	8	R1495J
865.366	3.3	874109	PROB	3.3	n/a	n/a	n/a	-999	8	[8, 5, 1]	14	catFR1	8	R1495J
868.666	2.567	877409	PROB	2.567	n/a	n/a	n/a	-999	8	[1, 1, 8]	10	catFR1	8	R1495J
871.233	2.566	879976	PROB	2.566	n/a	n/a	n/a	-999	8	[8, 3, 8]	19	catFR1	8	R1495J
873.799	3.467	882542	PROB	3.467	n/a	n/a	n/a	-999	8	[3, 4, 8]	16	catFR1	8	R1495J
877.266	2.434	886008	PROB	2.434	n/a	n/a	n/a	-999	8	[7, 1, 6]	14	catFR1	8	R1495J
879.7	0.0	888437	DISTRACT_END	n/a	n/a	n/a	n/a	-999	8	[0, 0, 0]	n/a	catFR1	8	R1495J
879.7	2.365	888442	STOP	n/a	n/a	n/a	n/a	-999	8	[-999, -999, -999]	n/a	catFR1	8	R1495J
882.065	2.034	890810	REC_START	n/a	n/a	n/a	n/a	-999	8	[0, 0, 0]	n/a	catFR1	8	R1495J
884.099	1.626	892841	REC_WORD	1.626	n/a	FOLDER	OfficeSupplies	-999	8	[0, 0, 0]	n/a	catFR1	8	R1495J
885.725	0.606	894467	REC_WORD	0.606	n/a	CROW	Birds	-999	8	[0, 0, 0]	n/a	catFR1	8	R1495J
886.331	2.263	895073	REC_WORD	2.263	n/a	ELBOW	BodyParts	-999	8	[0, 0, 0]	n/a	catFR1	8	R1495J
888.594	10.501	897336	REC_WORD	10.501	n/a	LEG	BodyParts	-999	8	[0, 0, 0]	n/a	catFR1	8	R1495J
899.095	13.173	907837	REC_WORD	13.173	n/a	SPARROW	Birds	2	8	[0, 0, 0]	n/a	catFR1	8	R1495J
912.268	1.915	921007	REC_END	n/a	n/a	n/a	n/a	-999	8	[0, 0, 0]	n/a	catFR1	8	R1495J
914.183	10.349	922928	COUNTDOWN_START	n/a	n/a	n/a	n/a	-999	9	[0, 0, 0]	n/a	catFR1	8	R1495J
924.532	0.0	933267	COUNTDOWN_END	n/a	n/a	n/a	n/a	-999	9	[0, 0, 0]	n/a	catFR1	8	R1495J
924.532	1.951	933267	ENCODING_START	n/a	n/a	n/a	n/a	-999	9	[0, 0, 0]	n/a	catFR1	8	R1495J
926.483	1.6	935226	WORD	n/a	wordpools/wordpool_categorized_EN.txt	SPRUCE	Trees	1	9	[0, 0, 0]	n/a	catFR1	8	R1495J
928.083	0.8	936816	WORD_OFF	n/a	n/a	SPRUCE	Trees	1	9	[0, 0, 0]	n/a	catFR1	8	R1495J
928.883	1.616	937617	WORD	n/a	wordpools/wordpool_categorized_EN.txt	BIRCH	Trees	2	9	[0, 0, 0]	n/a	catFR1	8	R1495J
930.499	0.834	939232	WORD_OFF	n/a	n/a	BIRCH	Trees	2	9	[0, 0, 0]	n/a	catFR1	8	R1495J
931.333	1.615	940071	WORD	n/a	wordpools/wordpool_categorized_EN.txt	DAISY	Flowers	3	9	[0, 0, 0]	n/a	catFR1	8	R1495J
932.948	0.951	941687	WORD_OFF	n/a	n/a	DAISY	Flowers	3	9	[0, 0, 0]	n/a	catFR1	8	R1495J
933.899	1.617	942640	WORD	n/a	wordpools/wordpool_categorized_EN.txt	LILAC	Flowers	4	9	[0, 0, 0]	n/a	catFR1	8	R1495J
935.516	0.966	944256	WORD_OFF	n/a	n/a	LILAC	Flowers	4	9	[0, 0, 0]	n/a	catFR1	8	R1495J
936.482	1.617	945222	WORD	n/a	wordpools/wordpool_categorized_EN.txt	STEREO	Electronics	5	9	[0, 0, 0]	n/a	catFR1	8	R1495J
938.099	0.982	946837	WORD_OFF	n/a	n/a	STEREO	Electronics	5	9	[0, 0, 0]	n/a	catFR1	8	R1495J
939.081	1.618	947817	WORD	n/a	wordpools/wordpool_categorized_EN.txt	SPEAKER	Electronics	6	9	[0, 0, 0]	n/a	catFR1	8	R1495J
940.699	0.817	949432	WORD_OFF	n/a	n/a	SPEAKER	Electronics	6	9	[0, 0, 0]	n/a	catFR1	8	R1495J
941.516	1.615	950258	WORD	n/a	wordpools/wordpool_categorized_EN.txt	TULIP	Flowers	7	9	[0, 0, 0]	n/a	catFR1	8	R1495J
943.131	0.784	951861	WORD_OFF	n/a	n/a	TULIP	Flowers	7	9	[0, 0, 0]	n/a	catFR1	8	R1495J
943.915	1.6	952649	WORD	n/a	wordpools/wordpool_categorized_EN.txt	ORCHID	Flowers	8	9	[0, 0, 0]	n/a	catFR1	8	R1495J
945.515	0.817	954252	WORD_OFF	n/a	n/a	ORCHID	Flowers	8	9	[0, 0, 0]	n/a	catFR1	8	R1495J
946.332	1.6	955066	WORD	n/a	wordpools/wordpool_categorized_EN.txt	CALCULATOR	Electronics	9	9	[0, 0, 0]	n/a	catFR1	8	R1495J
947.932	0.765	956668	WORD_OFF	n/a	n/a	CALCULATOR	Electronics	9	9	[0, 0, 0]	n/a	catFR1	8	R1495J
948.697	1.601	957431	WORD	n/a	wordpools/wordpool_categorized_EN.txt	MICROWAVE	Electronics	10	9	[0, 0, 0]	n/a	catFR1	8	R1495J
950.298	0.984	959034	WORD_OFF	n/a	n/a	MICROWAVE	Electronics	10	9	[0, 0, 0]	n/a	catFR1	8	R1495J
951.282	1.616	960013	WORD	n/a	wordpools/wordpool_categorized_EN.txt	MAPLE	Trees	11	9	[0, 0, 0]	n/a	catFR1	8	R1495J
952.898	0.95	961628	WORD_OFF	n/a	n/a	MAPLE	Trees	11	9	[0, 0, 0]	n/a	catFR1	8	R1495J
953.848	1.6	962582	WORD	n/a	wordpools/wordpool_categorized_EN.txt	ELM	Trees	12	9	[0, 0, 0]	n/a	catFR1	8	R1495J
955.448	0.001	964185	WORD_OFF	n/a	n/a	ELM	Trees	12	9	[0, 0, 0]	n/a	catFR1	8	R1495J
955.449	0.0	964185	ENCODING_END	n/a	n/a	n/a	n/a	-999	9	[0, 0, 0]	n/a	catFR1	8	R1495J
955.449	0.0	964185	DISTRACT_START	n/a	n/a	n/a	n/a	-999	9	[0, 0, 0]	n/a	catFR1	8	R1495J
955.448	0.001	964187	PROB	0.001	n/a	n/a	n/a	-999	9	[3, 5, 3]	11	catFR1	8	R1495J
955.449	2.466	964188	START	n/a	n/a	n/a	n/a	-999	9	[-999, -999, -999]	n/a	catFR1	8	R1495J
957.915	2.267	966654	PROB	2.267	n/a	n/a	n/a	-999	9	[1, 8, 8]	17	catFR1	8	R1495J
960.182	2.45	968921	PROB	2.45	n/a	n/a	n/a	-999	9	[3, 6, 3]	12	catFR1	8	R1495J
962.632	3.066	971371	PROB	3.066	n/a	n/a	n/a	-999	9	[3, 8, 5]	16	catFR1	8	R1495J
965.698	2.25	974437	PROB	2.25	n/a	n/a	n/a	-999	9	[8, 7, 2]	17	catFR1	8	R1495J
967.948	3.284	976687	PROB	3.284	n/a	n/a	n/a	-999	9	[8, 6, 3]	17	catFR1	8	R1495J
971.232	2.849	979971	PROB	2.849	n/a	n/a	n/a	-999	9	[4, 5, 2]	11	catFR1	8	R1495J
974.081	2.084	982819	PROB	2.084	n/a	n/a	n/a	-999	9	[8, 8, 5]	21	catFR1	8	R1495J
976.165	0.0	984902	DISTRACT_END	n/a	n/a	n/a	n/a	-999	9	[0, 0, 0]	n/a	catFR1	8	R1495J
976.165	2.067	984903	STOP	n/a	n/a	n/a	n/a	-999	9	[-999, -999, -999]	n/a	catFR1	8	R1495J
978.232	0.558	986970	REC_START	n/a	n/a	n/a	n/a	-999	9	[0, 0, 0]	n/a	catFR1	8	R1495J
978.79	0.958	987528	REC_WORD	0.958	n/a	MICROWAVE	Electronics	10	9	[0, 0, 0]	n/a	catFR1	8	R1495J
979.748	2.196	988486	REC_WORD	2.196	n/a	CALCULATOR	Electronics	9	9	[0, 0, 0]	n/a	catFR1	8	R1495J
981.944	0.917	990682	REC_WORD	0.917	n/a	ORCHID	Flowers	8	9	[0, 0, 0]	n/a	catFR1	8	R1495J
982.861	25.581	991599	REC_WORD	25.581	n/a	MAPLE	Trees	11	9	[0, 0, 0]	n/a	catFR1	8	R1495J
1008.442	1.908	1017180	REC_END	n/a	n/a	n/a	n/a	-999	9	[0, 0, 0]	n/a	catFR1	8	R1495J
1010.35	10.348	1019088	COUNTDOWN_START	n/a	n/a	n/a	n/a	-999	10	[0, 0, 0]	n/a	catFR1	8	R1495J
1020.698	0.0	1029428	COUNTDOWN_END	n/a	n/a	n/a	n/a	-999	10	[0, 0, 0]	n/a	catFR1	8	R1495J
1020.698	2.168	1029428	ENCODING_START	n/a	n/a	n/a	n/a	-999	10	[0, 0, 0]	n/a	catFR1	8	R1495J
1022.866	1.615	1031602	WORD	n/a	wordpools/wordpool_categorized_EN.txt	GRATER	KitchenTools	1	10	[0, 0, 0]	n/a	catFR1	8	R1495J
1024.481	0.967	1033218	WORD_OFF	n/a	n/a	GRATER	KitchenTools	1	10	[0, 0, 0]	n/a	catFR1	8	R1495J
1025.448	1.602	1034184	WORD	n/a	wordpools/wordpool_categorized_EN.txt	SPATULA	KitchenTools	2	10	[0, 0, 0]	n/a	catFR1	8	R1495J
1027.05	0.883	1035787	WORD_OFF	n/a	n/a	SPATULA	KitchenTools	2	10	[0, 0, 0]	n/a	catFR1	8	R1495J
1027.933	1.616	1036664	WORD	n/a	wordpools/wordpool_categorized_EN.txt	CIDER	Beverages	3	10	[0, 0, 0]	n/a	catFR1	8	R1495J
1029.549	0.967	1038279	WORD_OFF	n/a	n/a	CIDER	Beverages	3	10	[0, 0, 0]	n/a	catFR1	8	R1495J
1030.516	1.6	1039246	WORD	n/a	wordpools/wordpool_categorized_EN.txt	WINE	Beverages	4	10	[0, 0, 0]	n/a	catFR1	8	R1495J
1032.116	0.8	1040848	WORD_OFF	n/a	n/a	WINE	Beverages	4	10	[0, 0, 0]	n/a	catFR1	8	R1495J
1032.916	1.616	1041650	WORD	n/a	wordpools/wordpool_categorized_EN.txt	TELEVISION	Electronics	5	10	[0, 0, 0]	n/a	catFR1	8	R1495J
1034.532	0.967	1043265	WORD_OFF	n/a	n/a	TELEVISION	Electronics	5	10	[0, 0, 0]	n/a	catFR1	8	R1495J
1035.499	1.617	1044231	WORD	n/a	wordpools/wordpool_categorized_EN.txt	PHONE	Electronics	6	10	[0, 0, 0]	n/a	catFR1	8	R1495J
1037.116	0.933	1045846	WORD_OFF	n/a	n/a	PHONE	Electronics	6	10	[0, 0, 0]	n/a	catFR1	8	R1495J
1038.049	1.6	1046788	WORD	n/a	wordpools/wordpool_categorized_EN.txt	PEELER	KitchenTools	7	10	[0, 0, 0]	n/a	catFR1	8	R1495J
1039.649	0.783	1048377	WORD_OFF	n/a	n/a	PEELER	KitchenTools	7	10	[0, 0, 0]	n/a	catFR1	8	R1495J
1040.432	1.6	1049166	WORD	n/a	wordpools/wordpool_categorized_EN.txt	WHISK	KitchenTools	8	10	[0, 0, 0]	n/a	catFR1	8	R1495J
1042.032	0.983	1050768	WORD_OFF	n/a	n/a	WHISK	KitchenTools	8	10	[0, 0, 0]	n/a	catFR1	8	R1495J
1043.015	1.6	1051748	WORD	n/a	wordpools/wordpool_categorized_EN.txt	COMPUTER	Electronics	9	10	[0, 0, 0]	n/a	catFR1	8	R1495J
1044.615	0.767	1053350	WORD_OFF	n/a	n/a	COMPUTER	Electronics	9	10	[0, 0, 0]	n/a	catFR1	8	R1495J
1045.382	1.616	1054113	WORD	n/a	wordpools/wordpool_categorized_EN.txt	RADIO	Electronics	10	10	[0, 0, 0]	n/a	catFR1	8	R1495J
1046.998	0.867	1055728	WORD_OFF	n/a	n/a	RADIO	Electronics	10	10	[0, 0, 0]	n/a	catFR1	8	R1495J
1047.865	1.6	1056593	WORD	n/a	wordpools/wordpool_categorized_EN.txt	BEER	Beverages	11	10	[0, 0, 0]	n/a	catFR1	8	R1495J
1049.465	0.767	1058196	WORD_OFF	n/a	n/a	BEER	Beverages	11	10	[0, 0, 0]	n/a	catFR1	8	R1495J
1050.232	1.599	1058959	WORD	n/a	wordpools/wordpool_categorized_EN.txt	JUICE	Beverages	12	10	[0, 0, 0]	n/a	catFR1	8	R1495J
1051.831	0.001	1060561	WORD_OFF	n/a	n/a	JUICE	Beverages	12	10	[0, 0, 0]	n/a	catFR1	8	R1495J
1051.832	0.0	1060561	ENCODING_END	n/a	n/a	n/a	n/a	-999	10	[0, 0, 0]	n/a	catFR1	8	R1495J
1051.832	0.0	1060561	DISTRACT_START	n/a	n/a	n/a	n/a	-999	10	[0, 0, 0]	n/a	catFR1	8	R1495J
1051.832	0.0	1060567	START	n/a	n/a	n/a	n/a	-999	10	[-999, -999, -999]	n/a	catFR1	8	R1495J
1051.832	3.449	1060567	PROB	3.449	n/a	n/a	n/a	-999	10	[4, 5, 7]	16	catFR1	8	R1495J
1055.281	1.7	1064016	PROB	1.7	n/a	n/a	n/a	-999	10	[5, 2, 5]	12	catFR1	8	R1495J
1056.981	1.617	1065716	PROB	1.617	n/a	n/a	n/a	-999	10	[5, 2, 5]	12	catFR1	8	R1495J
1058.598	4.068	1067333	PROB	4.068	n/a	n/a	n/a	-999	10	[6, 8, 7]	21	catFR1	8	R1495J
1062.666	2.75	1071401	PROB	2.75	n/a	n/a	n/a	-999	10	[5, 8, 3]	16	catFR1	8	R1495J
1065.416	2.016	1074151	PROB	2.016	n/a	n/a	n/a	-999	10	[4, 6, 8]	18	catFR1	8	R1495J
1067.432	2.067	1076167	PROB	2.067	n/a	n/a	n/a	-999	10	[8, 1, 8]	17	catFR1	8	R1495J
1069.499	2.349	1078233	PROB	2.349	n/a	n/a	n/a	-999	10	[1, 4, 3]	8	catFR1	8	R1495J
1071.848	0.0	1080579	DISTRACT_END	n/a	n/a	n/a	n/a	-999	10	[0, 0, 0]	n/a	catFR1	8	R1495J
1071.848	2.299	1080582	STOP	n/a	n/a	n/a	n/a	-999	10	[-999, -999, -999]	n/a	catFR1	8	R1495J
1074.147	2.614	1082876	REC_START	n/a	n/a	n/a	n/a	-999	10	[0, 0, 0]	n/a	catFR1	8	R1495J
1076.761	2.602	1085495	REC_WORD	2.602	n/a	JEANS	Clothing	-999	10	[0, 0, 0]	n/a	catFR1	8	R1495J
1079.363	1.763	1088097	REC_WORD	1.763	n/a	ORCHID	Flowers	-999	10	[0, 0, 0]	n/a	catFR1	8	R1495J
1081.126	16.078	1089860	REC_WORD	16.078	n/a	OCTOPUS	OceanAnimals	-999	10	[0, 0, 0]	n/a	catFR1	8	R1495J
1097.204	1.041	1105937	REC_WORD	1.041	n/a	OAK	Trees	-999	10	[0, 0, 0]	n/a	catFR1	8	R1495J
1098.245	6.101	1106978	REC_WORD	6.101	n/a	MAPLE	Trees	-999	10	[0, 0, 0]	n/a	catFR1	8	R1495J
1104.346	1.903	1113074	REC_END	n/a	n/a	n/a	n/a	-999	10	[0, 0, 0]	n/a	catFR1	8	R1495J
1106.249	10.349	1114981	COUNTDOWN_START	n/a	n/a	n/a	n/a	-999	11	[0, 0, 0]	n/a	catFR1	8	R1495J
1116.598	0.001	1125334	COUNTDOWN_END	n/a	n/a	n/a	n/a	-999	11	[0, 0, 0]	n/a	catFR1	8	R1495J
1116.599	2.201	1125334	ENCODING_START	n/a	n/a	n/a	n/a	-999	11	[0, 0, 0]	n/a	catFR1	8	R1495J
1118.8	1.6	1127534	WORD	n/a	wordpools/wordpool_categorized_EN.txt	SUNFLOWER	Flowers	1	11	[0, 0, 0]	n/a	catFR1	8	R1495J
1120.4	0.781	1129124	WORD_OFF	n/a	n/a	SUNFLOWER	Flowers	1	11	[0, 0, 0]	n/a	catFR1	8	R1495J
1121.181	1.602	1129912	WORD	n/a	wordpools/wordpool_categorized_EN.txt	PETUNIA	Flowers	2	11	[0, 0, 0]	n/a	catFR1	8	R1495J
1122.783	0.815	1131515	WORD_OFF	n/a	n/a	PETUNIA	Flowers	2	11	[0, 0, 0]	n/a	catFR1	8	R1495J
1123.598	1.601	1132328	WORD	n/a	wordpools/wordpool_categorized_EN.txt	MILK	Beverages	3	11	[0, 0, 0]	n/a	catFR1	8	R1495J
1125.199	1.0	1133931	WORD_OFF	n/a	n/a	MILK	Beverages	3	11	[0, 0, 0]	n/a	catFR1	8	R1495J
1126.199	1.617	1134923	WORD	n/a	wordpools/wordpool_categorized_EN.txt	RUM	Beverages	4	11	[0, 0, 0]	n/a	catFR1	8	R1495J
1127.816	0.816	1136551	WORD_OFF	n/a	n/a	RUM	Beverages	4	11	[0, 0, 0]	n/a	catFR1	8	R1495J
1128.632	1.6	1137365	WORD	n/a	wordpools/wordpool_categorized_EN.txt	VIOLIN	Instruments	5	11	[0, 0, 0]	n/a	catFR1	8	R1495J
1130.232	0.934	1138967	WORD_OFF	n/a	n/a	VIOLIN	Instruments	5	11	[0, 0, 0]	n/a	catFR1	8	R1495J
1131.166	1.615	1139896	WORD	n/a	wordpools/wordpool_categorized_EN.txt	TRUMPET	Instruments	6	11	[0, 0, 0]	n/a	catFR1	8	R1495J
1132.781	0.918	1141511	WORD_OFF	n/a	n/a	TRUMPET	Instruments	6	11	[0, 0, 0]	n/a	catFR1	8	R1495J
1133.699	1.617	1142426	WORD	n/a	wordpools/wordpool_categorized_EN.txt	TEA	Beverages	7	11	[0, 0, 0]	n/a	catFR1	8	R1495J
1135.316	0.916	1144042	WORD_OFF	n/a	n/a	TEA	Beverages	7	11	[0, 0, 0]	n/a	catFR1	8	R1495J
1136.232	1.617	1144957	WORD	n/a	wordpools/wordpool_categorized_EN.txt	COLA	Beverages	8	11	[0, 0, 0]	n/a	catFR1	8	R1495J
1137.849	0.766	1146573	WORD_OFF	n/a	n/a	COLA	Beverages	8	11	[0, 0, 0]	n/a	catFR1	8	R1495J
1138.615	1.6	1147348	WORD	n/a	wordpools/wordpool_categorized_EN.txt	ROSE	Flowers	9	11	[0, 0, 0]	n/a	catFR1	8	R1495J
1140.215	0.883	1148938	WORD_OFF	n/a	n/a	ROSE	Flowers	9	11	[0, 0, 0]	n/a	catFR1	8	R1495J
1141.098	1.617	1149828	WORD	n/a	wordpools/wordpool_categorized_EN.txt	LILY	Flowers	10	11	[0, 0, 0]	n/a	catFR1	8	R1495J
1142.715	0.85	1151444	WORD_OFF	n/a	n/a	LILY	Flowers	10	11	[0, 0, 0]	n/a	catFR1	8	R1495J
1143.565	1.6	1152296	WORD	n/a	wordpools/wordpool_categorized_EN.txt	TROMBONE	Instruments	11	11	[0, 0, 0]	n/a	catFR1	8	R1495J
1145.165	0.867	1153898	WORD_OFF	n/a	n/a	TROMBONE	Instruments	11	11	[0, 0, 0]	n/a	catFR1	8	R1495J
1146.032	1.616	1154763	WORD	n/a	wordpools/wordpool_categorized_EN.txt	CELLO	Instruments	12	11	[0, 0, 0]	n/a	catFR1	8	R1495J
1147.648	0.001	1156378	WORD_OFF	n/a	n/a	CELLO	Instruments	12	11	[0, 0, 0]	n/a	catFR1	8	R1495J
1147.649	0.0	1156378	ENCODING_END	n/a	n/a	n/a	n/a	-999	11	[0, 0, 0]	n/a	catFR1	8	R1495J
1147.649	0.0	1156378	DISTRACT_START	n/a	n/a	n/a	n/a	-999	11	[0, 0, 0]	n/a	catFR1	8	R1495J
1147.649	0.0	1156380	START	n/a	n/a	n/a	n/a	-999	11	[-999, -999, -999]	n/a	catFR1	8	R1495J
1147.649	2.434	1156380	PROB	2.434	n/a	n/a	n/a	-999	11	[2, 8, 6]	16	catFR1	8	R1495J
1150.083	2.865	1158814	PROB	2.865	n/a	n/a	n/a	-999	11	[7, 4, 4]	15	catFR1	8	R1495J
1152.948	4.418	1161679	PROB	4.418	n/a	n/a	n/a	-999	11	[1, 3, 2]	6	catFR1	8	R1495J
1157.366	3.232	1166097	PROB	3.232	n/a	n/a	n/a	-999	11	[8, 3, 6]	17	catFR1	8	R1495J
1160.598	1.718	1169329	PROB	1.718	n/a	n/a	n/a	-999	11	[1, 6, 4]	11	catFR1	8	R1495J
1162.316	1.898	1171047	PROB	1.898	n/a	n/a	n/a	-999	11	[2, 2, 7]	11	catFR1	8	R1495J
1164.214	2.051	1172945	PROB	2.051	n/a	n/a	n/a	-999	11	[6, 4, 7]	17	catFR1	8	R1495J
1166.265	2.001	1174995	PROB	2.001	n/a	n/a	n/a	-999	11	[2, 7, 7]	16	catFR1	8	R1495J
1168.266	0.0	1176994	DISTRACT_END	n/a	n/a	n/a	n/a	-999	11	[0, 0, 0]	n/a	catFR1	8	R1495J
1168.266	2.383	1176996	STOP	n/a	n/a	n/a	n/a	-999	11	[-999, -999, -999]	n/a	catFR1	8	R1495J
1170.649	0.229	1179380	REC_START	n/a	n/a	n/a	n/a	-999	11	[0, 0, 0]	n/a	catFR1	8	R1495J
1170.878	0.952	1179608	REC_WORD	0.952	n/a	TROMBONE	Instruments	11	11	[0, 0, 0]	n/a	catFR1	8	R1495J
1171.83	2.72	1180560	REC_WORD	2.72	n/a	VIOLIN	Instruments	5	11	[0, 0, 0]	n/a	catFR1	8	R1495J
1174.55	9.109	1183280	REC_WORD	9.109	n/a	TRUMPET	Instruments	6	11	[0, 0, 0]	n/a	catFR1	8	R1495J
1183.659	17.205	1192389	REC_WORD	17.205	n/a	FLUTE	Instruments	-999	11	[0, 0, 0]	n/a	catFR1	8	R1495J
1200.864	1.7	1209590	REC_END	n/a	n/a	n/a	n/a	-999	11	[0, 0, 0]	n/a	catFR1	8	R1495J
1202.564	10.351	1211294	COUNTDOWN_START	n/a	n/a	n/a	n/a	-999	12	[0, 0, 0]	n/a	catFR1	8	R1495J
1212.915	0.001	1221647	COUNTDOWN_END	n/a	n/a	n/a	n/a	-999	12	[0, 0, 0]	n/a	catFR1	8	R1495J
1212.916	2.049	1221647	ENCODING_START	n/a	n/a	n/a	n/a	-999	12	[0, 0, 0]	n/a	catFR1	8	R1495J
1214.965	1.618	1223694	WORD	n/a	wordpools/wordpool_categorized_EN.txt	ORGAN	Instruments	1	12	[0, 0, 0]	n/a	catFR1	8	R1495J
1216.583	0.982	1225309	WORD_OFF	n/a	n/a	ORGAN	Instruments	1	12	[0, 0, 0]	n/a	catFR1	8	R1495J
1217.565	1.601	1226289	WORD	n/a	wordpools/wordpool_categorized_EN.txt	BANJO	Instruments	2	12	[0, 0, 0]	n/a	catFR1	8	R1495J
1219.166	0.816	1227891	WORD_OFF	n/a	n/a	BANJO	Instruments	2	12	[0, 0, 0]	n/a	catFR1	8	R1495J
1219.982	1.617	1228705	WORD	n/a	wordpools/wordpool_categorized_EN.txt	SHELF	Furniture	3	12	[0, 0, 0]	n/a	catFR1	8	R1495J
1221.599	0.783	1230320	WORD_OFF	n/a	n/a	SHELF	Furniture	3	12	[0, 0, 0]	n/a	catFR1	8	R1495J
1222.382	1.601	1231109	WORD	n/a	wordpools/wordpool_categorized_EN.txt	DRESSER	Furniture	4	12	[0, 0, 0]	n/a	catFR1	8	R1495J
1223.983	0.833	1232711	WORD_OFF	n/a	n/a	DRESSER	Furniture	4	12	[0, 0, 0]	n/a	catFR1	8	R1495J
1224.816	1.6	1233538	WORD	n/a	wordpools/wordpool_categorized_EN.txt	LADLE	KitchenTools	5	12	[0, 0, 0]	n/a	catFR1	8	R1495J
1226.416	0.9	1235140	WORD_OFF	n/a	n/a	LADLE	KitchenTools	5	12	[0, 0, 0]	n/a	catFR1	8	R1495J
1227.316	1.6	1236043	WORD	n/a	wordpools/wordpool_categorized_EN.txt	SPOON	KitchenTools	6	12	[0, 0, 0]	n/a	catFR1	8	R1495J
1228.916	0.833	1237646	WORD_OFF	n/a	n/a	SPOON	KitchenTools	6	12	[0, 0, 0]	n/a	catFR1	8	R1495J
1229.749	1.617	1238472	WORD	n/a	wordpools/wordpool_categorized_EN.txt	PIANO	Instruments	7	12	[0, 0, 0]	n/a	catFR1	8	R1495J
1231.366	0.866	1240088	WORD_OFF	n/a	n/a	PIANO	Instruments	7	12	[0, 0, 0]	n/a	catFR1	8	R1495J
1232.232	1.601	1240952	WORD	n/a	wordpools/wordpool_categorized_EN.txt	BASS	Instruments	8	12	[0, 0, 0]	n/a	catFR1	8	R1495J
1233.833	0.814	1242555	WORD_OFF	n/a	n/a	BASS	Instruments	8	12	[0, 0, 0]	n/a	catFR1	8	R1495J
1234.647	1.601	1243369	WORD	n/a	wordpools/wordpool_categorized_EN.txt	COLANDER	KitchenTools	9	12	[0, 0, 0]	n/a	catFR1	8	R1495J
1236.248	0.934	1244971	WORD_OFF	n/a	n/a	COLANDER	KitchenTools	9	12	[0, 0, 0]	n/a	catFR1	8	R1495J
1237.182	1.6	1245912	WORD	n/a	wordpools/wordpool_categorized_EN.txt	STRAINER	KitchenTools	10	12	[0, 0, 0]	n/a	catFR1	8	R1495J
1238.782	0.966	1247502	WORD_OFF	n/a	n/a	STRAINER	KitchenTools	10	12	[0, 0, 0]	n/a	catFR1	8	R1495J
1239.748	1.601	1248469	WORD	n/a	wordpools/wordpool_categorized_EN.txt	BOOKCASE	Furniture	11	12	[0, 0, 0]	n/a	catFR1	8	R1495J
1241.349	0.783	1250071	WORD_OFF	n/a	n/a	BOOKCASE	Furniture	11	12	[0, 0, 0]	n/a	catFR1	8	R1495J
1242.132	1.616	1250860	WORD	n/a	wordpools/wordpool_categorized_EN.txt	CHAIR	Furniture	12	12	[0, 0, 0]	n/a	catFR1	8	R1495J
1243.748	0.001	1252475	WORD_OFF	n/a	n/a	CHAIR	Furniture	12	12	[0, 0, 0]	n/a	catFR1	8	R1495J
1243.749	0.0	1252475	ENCODING_END	n/a	n/a	n/a	n/a	-999	12	[0, 0, 0]	n/a	catFR1	8	R1495J
1243.749	0.0	1252475	DISTRACT_START	n/a	n/a	n/a	n/a	-999	12	[0, 0, 0]	n/a	catFR1	8	R1495J
1243.749	0.0	1252476	START	n/a	n/a	n/a	n/a	-999	12	[-999, -999, -999]	n/a	catFR1	8	R1495J
1243.749	2.45	1252476	PROB	2.45	n/a	n/a	n/a	-999	12	[1, 5, 7]	13	catFR1	8	R1495J
1246.199	2.7	1254926	PROB	2.7	n/a	n/a	n/a	-999	12	[3, 2, 3]	8	catFR1	8	R1495J
1248.899	1.999	1257626	PROB	1.999	n/a	n/a	n/a	-999	12	[7, 7, 1]	15	catFR1	8	R1495J
1250.898	4.234	1259625	PROB	4.234	n/a	n/a	n/a	-999	12	[6, 5, 3]	14	catFR1	8	R1495J
1255.132	2.717	1263859	PROB	2.717	n/a	n/a	n/a	-999	12	[4, 1, 3]	8	catFR1	8	R1495J
1257.849	2.082	1266576	PROB	2.082	n/a	n/a	n/a	-999	12	[3, 7, 2]	12	catFR1	8	R1495J
1259.931	3.117	1268658	PROB	3.117	n/a	n/a	n/a	-999	12	[2, 7, 6]	15	catFR1	8	R1495J
1263.048	2.033	1271774	PROB	2.033	n/a	n/a	n/a	-999	12	[8, 4, 2]	14	catFR1	8	R1495J
1265.081	0.0	1273803	DISTRACT_END	n/a	n/a	n/a	n/a	-999	12	[0, 0, 0]	n/a	catFR1	8	R1495J
1265.081	2.267	1273807	STOP	n/a	n/a	n/a	n/a	-999	12	[-999, -999, -999]	n/a	catFR1	8	R1495J
1267.348	1.179	1276075	REC_START	n/a	n/a	n/a	n/a	-999	12	[0, 0, 0]	n/a	catFR1	8	R1495J
1268.527	1.265	1277253	REC_WORD	1.265	n/a	BOOKCASE	Furniture	11	12	[0, 0, 0]	n/a	catFR1	8	R1495J
1269.792	2.566	1278518	REC_WORD	2.566	n/a	CHAIR	Furniture	12	12	[0, 0, 0]	n/a	catFR1	8	R1495J
1272.358	2.183	1281084	REC_WORD	2.183	n/a	SHELF	Furniture	3	12	[0, 0, 0]	n/a	catFR1	8	R1495J
1274.541	23.021	1283267	REC_WORD	23.021	n/a	COUCH	Furniture	-999	12	[0, 0, 0]	n/a	catFR1	8	R1495J
1297.562	0.0	1306284	REC_END	n/a	n/a	n/a	n/a	-999	12	[0, 0, 0]	n/a	catFR1	8	R1495J
