onset	duration	sample	trial_type	response_time	stim_file	item_name	category	serialpos	list	test	answer	experiment	session	subject
0.0	21.997	108053	SESS_START	n/a	n/a	n/a	n/a	-999	-999	[0, 0, 0]	n/a	catFR1	0	R1060M
21.997	10.428	119051	COUNTDOWN_START	n/a	n/a	n/a	n/a	-999	-999	[0, 0, 0]	n/a	catFR1	0	R1060M
32.425	3.608	124265	COUNTDOWN_END	n/a	n/a	n/a	n/a	-999	-999	[0, 0, 0]	n/a	catFR1	0	R1060M
36.033	2.466	126068	PRACTICE_WORD	n/a	n/a	BEAM	n/a	-999	-999	[0, 0, 0]	n/a	catFR1	0	R1060M
38.499	2.469	127301	PRACTICE_WORD	n/a	n/a	RING	n/a	-999	-999	[0, 0, 0]	n/a	catFR1	0	R1060M
40.968	2.583	128536	PRACTICE_WORD	n/a	n/a	WAGON	n/a	-999	-999	[0, 0, 0]	n/a	catFR1	0	R1060M
43.551	2.534	129827	PRACTICE_WORD	n/a	n/a	ATTIC	n/a	-999	-999	[0, 0, 0]	n/a	catFR1	0	R1060M
46.085	2.583	131094	PRACTICE_WORD	n/a	n/a	TONGUE	n/a	-999	-999	[0, 0, 0]	n/a	catFR1	0	R1060M
48.668	2.468	132386	PRACTICE_WORD	n/a	n/a	CAMEL	n/a	-999	-999	[0, 0, 0]	n/a	catFR1	0	R1060M
51.136	2.566	133620	PRACTICE_WORD	n/a	n/a	IRON	n/a	-999	-999	[0, 0, 0]	n/a	catFR1	0	R1060M
53.702	2.452	134902	PRACTICE_WORD	n/a	n/a	WATCH	n/a	-999	-999	[0, 0, 0]	n/a	catFR1	0	R1060M
56.154	2.433	136128	PRACTICE_WORD	n/a	n/a	RHINO	n/a	-999	-999	[0, 0, 0]	n/a	catFR1	0	R1060M
58.587	2.568	137345	PRACTICE_WORD	n/a	n/a	FLOOD	n/a	-999	-999	[0, 0, 0]	n/a	catFR1	0	R1060M
61.155	2.383	138629	PRACTICE_WORD	n/a	n/a	COTTON	n/a	-999	-999	[0, 0, 0]	n/a	catFR1	0	R1060M
63.538	1.618	139820	PRACTICE_WORD	n/a	n/a	CHEST	n/a	-999	-999	[0, 0, 0]	n/a	catFR1	0	R1060M
65.156	0.0	140629	PRACTICE_DISTRACT_START	n/a	n/a	n/a	n/a	-999	-999	[0, 0, 0]	n/a	catFR1	0	R1060M
65.156	0.016	140629	START	n/a	n/a	n/a	n/a	-999	-1	[-999, -999, -999]	n/a	catFR1	0	R1060M
65.172	3.751	140637	PROB	3.751	n/a	n/a	n/a	-999	-1	[5, 1, 4]	10	catFR1	0	R1060M
68.923	4.567	142513	PROB	4.567	n/a	n/a	n/a	-999	-1	[7, 8, 3]	18	catFR1	0	R1060M
73.49	3.034	144796	PROB	3.034	n/a	n/a	n/a	-999	-1	[6, 3, 2]	11	catFR1	0	R1060M
76.524	3.15	146313	PROB	3.15	n/a	n/a	n/a	-999	-1	[3, 3, 2]	8	catFR1	0	R1060M
79.674	4.419	147888	PROB	4.419	n/a	n/a	n/a	-999	-1	[2, 5, 8]	17	catFR1	0	R1060M
84.093	3.766	150097	PROB	3.766	n/a	n/a	n/a	-999	-1	[2, 2, 5]	9	catFR1	0	R1060M
87.859	0.018	151980	STOP	n/a	n/a	n/a	n/a	-999	-1	[-999, -999, -999]	n/a	catFR1	0	R1060M
87.877	0.684	151989	PRACTICE_DISTRACT_END	n/a	n/a	n/a	n/a	-999	-999	[0, 0, 0]	n/a	catFR1	0	R1060M
88.561	30.516	152331	PRACTICE_REC_START	n/a	n/a	n/a	n/a	-999	-999	[0, 0, 0]	n/a	catFR1	0	R1060M
119.077	20.376	167588	PRACTICE_REC_END	n/a	n/a	n/a	n/a	-999	-999	[0, 0, 0]	n/a	catFR1	0	R1060M
139.453	0.0	177776	TRIAL	n/a	n/a	n/a	n/a	-999	1	[0, 0, 0]	n/a	catFR1	0	R1060M
139.453	10.428	177776	COUNTDOWN_START	n/a	n/a	n/a	n/a	-999	1	[0, 0, 0]	n/a	catFR1	0	R1060M
149.881	0.008	182989	COUNTDOWN_END	n/a	n/a	n/a	n/a	-999	1	[0, 0, 0]	n/a	catFR1	0	R1060M
149.889	3.583	182993	ORIENT	n/a	n/a	n/a	n/a	-999	1	[0, 0, 0]	n/a	catFR1	0	R1060M
153.472	2.435	184785	WORD	n/a	wordpools/wordpool_categorized_EN.txt	TABLET	Electronics	1	1	[0, 0, 0]	n/a	catFR1	0	R1060M
155.907	2.616	186002	WORD	n/a	wordpools/wordpool_categorized_EN.txt	HEADPHONES	Electronics	2	1	[0, 0, 0]	n/a	catFR1	0	R1060M
158.523	2.568	187310	WORD	n/a	wordpools/wordpool_categorized_EN.txt	MOUSSE	Desserts	3	1	[0, 0, 0]	n/a	catFR1	0	R1060M
161.091	2.4	188594	WORD	n/a	wordpools/wordpool_categorized_EN.txt	BROWNIES	Desserts	4	1	[0, 0, 0]	n/a	catFR1	0	R1060M
163.491	2.451	189794	WORD	n/a	wordpools/wordpool_categorized_EN.txt	FOLDER	OfficeSupplies	5	1	[0, 0, 0]	n/a	catFR1	0	R1060M
165.942	2.55	191019	WORD	n/a	wordpools/wordpool_categorized_EN.txt	NOTEBOOK	OfficeSupplies	6	1	[0, 0, 0]	n/a	catFR1	0	R1060M
168.492	2.501	192294	WORD	n/a	wordpools/wordpool_categorized_EN.txt	PUDDING	Desserts	7	1	[0, 0, 0]	n/a	catFR1	0	R1060M
170.993	2.4	193545	WORD	n/a	wordpools/wordpool_categorized_EN.txt	COBBLER	Desserts	8	1	[0, 0, 0]	n/a	catFR1	0	R1060M
173.393	2.418	194745	WORD	n/a	wordpools/wordpool_categorized_EN.txt	SCANNER	Electronics	9	1	[0, 0, 0]	n/a	catFR1	0	R1060M
175.811	2.417	195954	WORD	n/a	wordpools/wordpool_categorized_EN.txt	STEREO	Electronics	10	1	[0, 0, 0]	n/a	catFR1	0	R1060M
178.228	2.533	197162	WORD	n/a	wordpools/wordpool_categorized_EN.txt	RULER	OfficeSupplies	11	1	[0, 0, 0]	n/a	catFR1	0	R1060M
180.761	1.617	198428	WORD	n/a	wordpools/wordpool_categorized_EN.txt	PAPER	OfficeSupplies	12	1	[0, 0, 0]	n/a	catFR1	0	R1060M
182.378	0.001	199237	DISTRACT_START	n/a	n/a	n/a	n/a	-999	1	[0, 0, 0]	n/a	catFR1	0	R1060M
182.379	0.015	199237	START	n/a	n/a	n/a	n/a	-999	1	[-999, -999, -999]	n/a	catFR1	0	R1060M
182.394	7.819	199245	PROB	7.819	n/a	n/a	n/a	-999	1	[8, 6, 9]	23	catFR1	0	R1060M
190.213	3.167	203154	PROB	3.167	n/a	n/a	n/a	-999	1	[2, 6, 6]	14	catFR1	0	R1060M
193.38	3.768	204738	PROB	3.768	n/a	n/a	n/a	-999	1	[5, 3, 7]	15	catFR1	0	R1060M
197.148	4.068	206621	PROB	4.068	n/a	n/a	n/a	-999	1	[7, 3, 4]	14	catFR1	0	R1060M
201.216	3.346	208655	PROB	3.346	n/a	n/a	n/a	-999	1	[4, 6, 8]	18	catFR1	0	R1060M
204.562	0.02	210328	STOP	n/a	n/a	n/a	n/a	-999	1	[-999, -999, -999]	n/a	catFR1	0	R1060M
204.582	1.051	210338	DISTRACT_END	n/a	n/a	n/a	n/a	-999	1	[0, 0, 0]	n/a	catFR1	0	R1060M
205.633	1.24	210864	REC_START	n/a	n/a	n/a	n/a	-999	1	[0, 0, 0]	n/a	catFR1	0	R1060M
206.873	0.846	211484	REC_WORD	0.846	n/a	TABLET	Electronics	1	1	[0, 0, 0]	n/a	catFR1	0	R1060M
207.719	0.862	211907	REC_WORD	0.862	n/a	HEADPHONES	Electronics	2	1	[0, 0, 0]	n/a	catFR1	0	R1060M
208.581	0.993	212338	REC_WORD	0.993	n/a	MOUSSE	Desserts	3	1	[0, 0, 0]	n/a	catFR1	0	R1060M
209.574	1.014	212834	REC_WORD	1.014	n/a	NOTEBOOK	OfficeSupplies	6	1	[0, 0, 0]	n/a	catFR1	0	R1060M
210.588	25.055	213341	REC_WORD	25.055	n/a	PAPER	OfficeSupplies	12	1	[0, 0, 0]	n/a	catFR1	0	R1060M
235.643	2.446	225868	REC_END	n/a	n/a	n/a	n/a	-999	1	[0, 0, 0]	n/a	catFR1	0	R1060M
238.089	0.001	227091	COUNTDOWN_START	n/a	n/a	n/a	n/a	-999	2	[0, 0, 0]	n/a	catFR1	0	R1060M
238.09	10.427	227091	TRIAL	n/a	n/a	n/a	n/a	-999	2	[0, 0, 0]	n/a	catFR1	0	R1060M
248.517	0.007	232305	COUNTDOWN_END	n/a	n/a	n/a	n/a	-999	2	[0, 0, 0]	n/a	catFR1	0	R1060M
248.524	3.851	232308	ORIENT	n/a	n/a	n/a	n/a	-999	2	[0, 0, 0]	n/a	catFR1	0	R1060M
252.375	2.534	234233	WORD	n/a	wordpools/wordpool_categorized_EN.txt	MOSQUITO	Insects	1	2	[0, 0, 0]	n/a	catFR1	0	R1060M
254.909	2.6	235500	WORD	n/a	wordpools/wordpool_categorized_EN.txt	MOTH	Insects	2	2	[0, 0, 0]	n/a	catFR1	0	R1060M
257.509	2.518	236800	WORD	n/a	wordpools/wordpool_categorized_EN.txt	TONGS	KitchenTools	3	2	[0, 0, 0]	n/a	catFR1	0	R1060M
260.027	2.5	238059	WORD	n/a	wordpools/wordpool_categorized_EN.txt	FORK	KitchenTools	4	2	[0, 0, 0]	n/a	catFR1	0	R1060M
262.527	2.534	239309	WORD	n/a	wordpools/wordpool_categorized_EN.txt	SOFA	Furniture	5	2	[0, 0, 0]	n/a	catFR1	0	R1060M
265.061	2.433	240576	WORD	n/a	wordpools/wordpool_categorized_EN.txt	RECLINER	Furniture	6	2	[0, 0, 0]	n/a	catFR1	0	R1060M
267.494	2.601	241792	WORD	n/a	wordpools/wordpool_categorized_EN.txt	BEETLE	Insects	7	2	[0, 0, 0]	n/a	catFR1	0	R1060M
270.095	2.5	243093	WORD	n/a	wordpools/wordpool_categorized_EN.txt	ANT	Insects	8	2	[0, 0, 0]	n/a	catFR1	0	R1060M
272.595	2.468	244343	WORD	n/a	wordpools/wordpool_categorized_EN.txt	BED	Furniture	9	2	[0, 0, 0]	n/a	catFR1	0	R1060M
275.063	2.583	245577	WORD	n/a	wordpools/wordpool_categorized_EN.txt	DESK	Furniture	10	2	[0, 0, 0]	n/a	catFR1	0	R1060M
277.646	2.552	246868	WORD	n/a	wordpools/wordpool_categorized_EN.txt	COLANDER	KitchenTools	11	2	[0, 0, 0]	n/a	catFR1	0	R1060M
280.198	1.617	248144	WORD	n/a	wordpools/wordpool_categorized_EN.txt	GRATER	KitchenTools	12	2	[0, 0, 0]	n/a	catFR1	0	R1060M
281.815	0.001	248953	DISTRACT_START	n/a	n/a	n/a	n/a	-999	2	[0, 0, 0]	n/a	catFR1	0	R1060M
281.816	0.015	248953	START	n/a	n/a	n/a	n/a	-999	2	[-999, -999, -999]	n/a	catFR1	0	R1060M
281.831	4.034	248961	PROB	4.034	n/a	n/a	n/a	-999	2	[2, 3, 5]	10	catFR1	0	R1060M
285.865	6.068	250977	PROB	6.068	n/a	n/a	n/a	-999	2	[6, 9, 7]	19	catFR1	0	R1060M
291.933	5.385	254011	PROB	5.385	n/a	n/a	n/a	-999	2	[5, 8, 3]	16	catFR1	0	R1060M
297.318	3.299	256704	PROB	3.299	n/a	n/a	n/a	-999	2	[4, 5, 3]	12	catFR1	0	R1060M
300.617	3.001	258353	PROB	3.001	n/a	n/a	n/a	-999	2	[9, 2, 9]	20	catFR1	0	R1060M
303.618	0.017	259853	STOP	n/a	n/a	n/a	n/a	-999	2	[-999, -999, -999]	n/a	catFR1	0	R1060M
303.635	1.05	259862	DISTRACT_END	n/a	n/a	n/a	n/a	-999	2	[0, 0, 0]	n/a	catFR1	0	R1060M
304.685	0.85	260387	REC_START	n/a	n/a	n/a	n/a	-999	2	[0, 0, 0]	n/a	catFR1	0	R1060M
305.535	0.658	260812	REC_WORD	0.658	n/a	MOSQUITO	Insects	1	2	[0, 0, 0]	n/a	catFR1	0	R1060M
306.193	0.98	261141	REC_WORD	0.98	n/a	MOTH	Insects	2	2	[0, 0, 0]	n/a	catFR1	0	R1060M
307.173	1.118	261631	REC_WORD	1.118	n/a	TONGS	KitchenTools	3	2	[0, 0, 0]	n/a	catFR1	0	R1060M
308.291	0.761	262190	REC_WORD	0.761	n/a	FORK	KitchenTools	4	2	[0, 0, 0]	n/a	catFR1	0	R1060M
309.052	25.646	262570	REC_WORD	25.646	n/a	COLANDER	KitchenTools	11	2	[0, 0, 0]	n/a	catFR1	0	R1060M
334.698	2.194	275393	REC_END	n/a	n/a	n/a	n/a	-999	2	[0, 0, 0]	n/a	catFR1	0	R1060M
336.892	0.0	276490	TRIAL	n/a	n/a	n/a	n/a	-999	3	[0, 0, 0]	n/a	catFR1	0	R1060M
336.892	10.428	276490	COUNTDOWN_START	n/a	n/a	n/a	n/a	-999	3	[0, 0, 0]	n/a	catFR1	0	R1060M
347.32	0.007	281703	COUNTDOWN_END	n/a	n/a	n/a	n/a	-999	3	[0, 0, 0]	n/a	catFR1	0	R1060M
347.327	3.584	281707	ORIENT	n/a	n/a	n/a	n/a	-999	3	[0, 0, 0]	n/a	catFR1	0	R1060M
350.911	2.533	283499	WORD	n/a	wordpools/wordpool_categorized_EN.txt	SCREWDRIVER	Tools	1	3	[0, 0, 0]	n/a	catFR1	0	R1060M
353.444	2.435	284765	WORD	n/a	wordpools/wordpool_categorized_EN.txt	SANDER	Tools	2	3	[0, 0, 0]	n/a	catFR1	0	R1060M
355.879	2.483	285982	WORD	n/a	wordpools/wordpool_categorized_EN.txt	SUNFLOWER	Flowers	3	3	[0, 0, 0]	n/a	catFR1	0	R1060M
358.362	2.535	287224	WORD	n/a	wordpools/wordpool_categorized_EN.txt	ORCHID	Flowers	4	3	[0, 0, 0]	n/a	catFR1	0	R1060M
360.897	2.433	288491	WORD	n/a	wordpools/wordpool_categorized_EN.txt	CORKSCREW	KitchenTools	5	3	[0, 0, 0]	n/a	catFR1	0	R1060M
363.33	2.468	289708	WORD	n/a	wordpools/wordpool_categorized_EN.txt	WHISK	KitchenTools	6	3	[0, 0, 0]	n/a	catFR1	0	R1060M
365.798	2.483	290942	WORD	n/a	wordpools/wordpool_categorized_EN.txt	AXE	Tools	7	3	[0, 0, 0]	n/a	catFR1	0	R1060M
368.281	2.551	292183	WORD	n/a	wordpools/wordpool_categorized_EN.txt	SHOVEL	Tools	8	3	[0, 0, 0]	n/a	catFR1	0	R1060M
370.832	2.583	293459	WORD	n/a	wordpools/wordpool_categorized_EN.txt	STRAINER	KitchenTools	9	3	[0, 0, 0]	n/a	catFR1	0	R1060M
373.415	2.451	294750	WORD	n/a	wordpools/wordpool_categorized_EN.txt	PEELER	KitchenTools	10	3	[0, 0, 0]	n/a	catFR1	0	R1060M
375.866	2.583	295975	WORD	n/a	wordpools/wordpool_categorized_EN.txt	DAISY	Flowers	11	3	[0, 0, 0]	n/a	catFR1	0	R1060M
378.449	1.601	297267	WORD	n/a	wordpools/wordpool_categorized_EN.txt	MARIGOLD	Flowers	12	3	[0, 0, 0]	n/a	catFR1	0	R1060M
380.05	0.001	298067	DISTRACT_START	n/a	n/a	n/a	n/a	-999	3	[0, 0, 0]	n/a	catFR1	0	R1060M
380.051	0.016	298068	START	n/a	n/a	n/a	n/a	-999	3	[-999, -999, -999]	n/a	catFR1	0	R1060M
380.067	3.251	298076	PROB	3.251	n/a	n/a	n/a	-999	3	[4, 6, 4]	14	catFR1	0	R1060M
383.318	2.75	299701	PROB	2.75	n/a	n/a	n/a	-999	3	[2, 8, 2]	12	catFR1	0	R1060M
386.068	3.433	301076	PROB	3.433	n/a	n/a	n/a	-999	3	[5, 2, 4]	11	catFR1	0	R1060M
389.501	2.402	302793	PROB	2.402	n/a	n/a	n/a	-999	3	[1, 3, 1]	5	catFR1	0	R1060M
391.903	3.483	303993	PROB	3.483	n/a	n/a	n/a	-999	3	[3, 2, 5]	12	catFR1	0	R1060M
395.386	4.017	305735	PROB	4.017	n/a	n/a	n/a	-999	3	[7, 5, 5]	17	catFR1	0	R1060M
399.403	2.832	307743	PROB	2.832	n/a	n/a	n/a	-999	3	[1, 6, 3]	10	catFR1	0	R1060M
402.235	0.02	309159	STOP	n/a	n/a	n/a	n/a	-999	3	[-999, -999, -999]	n/a	catFR1	0	R1060M
402.255	1.183	309169	DISTRACT_END	n/a	n/a	n/a	n/a	-999	3	[0, 0, 0]	n/a	catFR1	0	R1060M
403.438	0.886	309761	REC_START	n/a	n/a	n/a	n/a	-999	3	[0, 0, 0]	n/a	catFR1	0	R1060M
404.324	1.224	310204	REC_WORD	1.224	n/a	SCREWDRIVER	Tools	1	3	[0, 0, 0]	n/a	catFR1	0	R1060M
405.548	1.129	310816	REC_WORD	1.129	n/a	CORKSCREW	KitchenTools	5	3	[0, 0, 0]	n/a	catFR1	0	R1060M
406.677	0.859	311380	REC_WORD	0.859	n/a	WHISK	KitchenTools	6	3	[0, 0, 0]	n/a	catFR1	0	R1060M
407.536	4.667	311810	REC_WORD	4.667	n/a	SANDER	Tools	2	3	[0, 0, 0]	n/a	catFR1	0	R1060M
412.203	3.149	314143	REC_WORD	3.149	n/a	MARIGOLD	Flowers	12	3	[0, 0, 0]	n/a	catFR1	0	R1060M
415.352	4.942	315717	REC_WORD_VV	4.942	n/a	<>	n/a	-999	3	[0, 0, 0]	n/a	catFR1	0	R1060M
420.294	8.687	318188	REC_WORD	8.687	n/a	STRAINER	KitchenTools	9	3	[0, 0, 0]	n/a	catFR1	0	R1060M
428.981	4.468	322531	REC_WORD	4.468	n/a	SIFTER	n/a	-999	3	[0, 0, 0]	n/a	catFR1	0	R1060M
433.449	2.078	324765	REC_END	n/a	n/a	n/a	n/a	-999	3	[0, 0, 0]	n/a	catFR1	0	R1060M
435.527	0.0	325804	TRIAL	n/a	n/a	n/a	n/a	-999	4	[0, 0, 0]	n/a	catFR1	0	R1060M
435.527	10.428	325804	COUNTDOWN_START	n/a	n/a	n/a	n/a	-999	4	[0, 0, 0]	n/a	catFR1	0	R1060M
445.955	0.008	331018	COUNTDOWN_END	n/a	n/a	n/a	n/a	-999	4	[0, 0, 0]	n/a	catFR1	0	R1060M
445.963	3.6	331022	ORIENT	n/a	n/a	n/a	n/a	-999	4	[0, 0, 0]	n/a	catFR1	0	R1060M
449.563	2.385	332822	WORD	n/a	wordpools/wordpool_categorized_EN.txt	BLUEBIRD	Birds	1	4	[0, 0, 0]	n/a	catFR1	0	R1060M
451.948	2.416	334014	WORD	n/a	wordpools/wordpool_categorized_EN.txt	HAWK	Birds	2	4	[0, 0, 0]	n/a	catFR1	0	R1060M
454.364	2.4	335222	WORD	n/a	wordpools/wordpool_categorized_EN.txt	ONION	Vegetables	3	4	[0, 0, 0]	n/a	catFR1	0	R1060M
456.764	2.519	336422	WORD	n/a	wordpools/wordpool_categorized_EN.txt	SPINACH	Vegetables	4	4	[0, 0, 0]	n/a	catFR1	0	R1060M
459.283	2.483	337682	WORD	n/a	wordpools/wordpool_categorized_EN.txt	DRESS	Clothing	5	4	[0, 0, 0]	n/a	catFR1	0	R1060M
461.766	2.451	338923	WORD	n/a	wordpools/wordpool_categorized_EN.txt	COAT	Clothing	6	4	[0, 0, 0]	n/a	catFR1	0	R1060M
464.217	2.399	340148	WORD	n/a	wordpools/wordpool_categorized_EN.txt	PIGEON	Birds	7	4	[0, 0, 0]	n/a	catFR1	0	R1060M
466.616	2.368	341348	WORD	n/a	wordpools/wordpool_categorized_EN.txt	SEAGULL	Birds	8	4	[0, 0, 0]	n/a	catFR1	0	R1060M
468.984	2.5	342532	WORD	n/a	wordpools/wordpool_categorized_EN.txt	PANTS	Clothing	9	4	[0, 0, 0]	n/a	catFR1	0	R1060M
471.484	2.501	343782	WORD	n/a	wordpools/wordpool_categorized_EN.txt	SHOES	Clothing	10	4	[0, 0, 0]	n/a	catFR1	0	R1060M
473.985	2.616	345032	WORD	n/a	wordpools/wordpool_categorized_EN.txt	CARROT	Vegetables	11	4	[0, 0, 0]	n/a	catFR1	0	R1060M
476.601	1.602	346340	WORD	n/a	wordpools/wordpool_categorized_EN.txt	CELERY	Vegetables	12	4	[0, 0, 0]	n/a	catFR1	0	R1060M
478.203	0.001	347141	DISTRACT_START	n/a	n/a	n/a	n/a	-999	4	[0, 0, 0]	n/a	catFR1	0	R1060M
478.204	0.015	347142	START	n/a	n/a	n/a	n/a	-999	4	[-999, -999, -999]	n/a	catFR1	0	R1060M
478.219	4.985	347149	PROB	4.985	n/a	n/a	n/a	-999	4	[9, 8, 9]	26	catFR1	0	R1060M
483.204	5.433	349641	PROB	5.433	n/a	n/a	n/a	-999	4	[9, 9, 5]	23	catFR1	0	R1060M
488.637	4.619	352358	PROB	4.619	n/a	n/a	n/a	-999	4	[7, 3, 7]	17	catFR1	0	R1060M
493.256	3.817	354667	PROB	3.817	n/a	n/a	n/a	-999	4	[9, 3, 3]	16	catFR1	0	R1060M
497.073	3.922	356576	PROB	3.922	n/a	n/a	n/a	-999	4	[2, 3, 5]	10	catFR1	0	R1060M
500.995	0.012	358536	STOP	n/a	n/a	n/a	n/a	-999	4	[-999, -999, -999]	n/a	catFR1	0	R1060M
501.007	1.151	358542	DISTRACT_END	n/a	n/a	n/a	n/a	-999	4	[0, 0, 0]	n/a	catFR1	0	R1060M
502.158	1.643	359118	REC_START	n/a	n/a	n/a	n/a	-999	4	[0, 0, 0]	n/a	catFR1	0	R1060M
503.801	0.788	359939	REC_WORD	0.788	n/a	BLUEBIRD	Birds	1	4	[0, 0, 0]	n/a	catFR1	0	R1060M
504.589	1.019	360333	REC_WORD	1.019	n/a	HAWK	Birds	2	4	[0, 0, 0]	n/a	catFR1	0	R1060M
505.608	1.066	360843	REC_WORD	1.066	n/a	ONION	Vegetables	3	4	[0, 0, 0]	n/a	catFR1	0	R1060M
506.674	0.82	361376	REC_WORD	0.82	n/a	COAT	Clothing	6	4	[0, 0, 0]	n/a	catFR1	0	R1060M
507.494	24.675	361786	REC_WORD	24.675	n/a	SPINACH	Vegetables	4	4	[0, 0, 0]	n/a	catFR1	0	R1060M
532.169	2.128	374123	REC_END	n/a	n/a	n/a	n/a	-999	4	[0, 0, 0]	n/a	catFR1	0	R1060M
534.297	0.0	375186	TRIAL	n/a	n/a	n/a	n/a	-999	5	[0, 0, 0]	n/a	catFR1	0	R1060M
534.297	10.428	375186	COUNTDOWN_START	n/a	n/a	n/a	n/a	-999	5	[0, 0, 0]	n/a	catFR1	0	R1060M
544.725	0.006	380400	COUNTDOWN_END	n/a	n/a	n/a	n/a	-999	5	[0, 0, 0]	n/a	catFR1	0	R1060M
544.731	3.901	380403	ORIENT	n/a	n/a	n/a	n/a	-999	5	[0, 0, 0]	n/a	catFR1	0	R1060M
548.632	2.485	382354	WORD	n/a	wordpools/wordpool_categorized_EN.txt	FOOT	BodyParts	1	5	[0, 0, 0]	n/a	catFR1	0	R1060M
551.117	2.516	383596	WORD	n/a	wordpools/wordpool_categorized_EN.txt	ARM	BodyParts	2	5	[0, 0, 0]	n/a	catFR1	0	R1060M
553.633	2.452	384854	WORD	n/a	wordpools/wordpool_categorized_EN.txt	REFRIGERATOR	Appliances	3	5	[0, 0, 0]	n/a	catFR1	0	R1060M
556.085	2.582	386080	WORD	n/a	wordpools/wordpool_categorized_EN.txt	VACUUM	Appliances	4	5	[0, 0, 0]	n/a	catFR1	0	R1060M
558.667	2.502	387371	WORD	n/a	wordpools/wordpool_categorized_EN.txt	MICROWAVE	Electronics	5	5	[0, 0, 0]	n/a	catFR1	0	R1060M
561.169	2.466	388622	WORD	n/a	wordpools/wordpool_categorized_EN.txt	SPEAKER	Electronics	6	5	[0, 0, 0]	n/a	catFR1	0	R1060M
563.635	2.418	389855	WORD	n/a	wordpools/wordpool_categorized_EN.txt	DRYER	Appliances	7	5	[0, 0, 0]	n/a	catFR1	0	R1060M
566.053	2.583	391064	WORD	n/a	wordpools/wordpool_categorized_EN.txt	TOASTER	Appliances	8	5	[0, 0, 0]	n/a	catFR1	0	R1060M
568.636	2.468	392355	WORD	n/a	wordpools/wordpool_categorized_EN.txt	LEG	BodyParts	9	5	[0, 0, 0]	n/a	catFR1	0	R1060M
571.104	2.416	393589	WORD	n/a	wordpools/wordpool_categorized_EN.txt	EYE	BodyParts	10	5	[0, 0, 0]	n/a	catFR1	0	R1060M
573.52	2.568	394797	WORD	n/a	wordpools/wordpool_categorized_EN.txt	COMPUTER	Electronics	11	5	[0, 0, 0]	n/a	catFR1	0	R1060M
576.088	1.617	396081	WORD	n/a	wordpools/wordpool_categorized_EN.txt	PHONE	Electronics	12	5	[0, 0, 0]	n/a	catFR1	0	R1060M
577.705	0.0	396889	DISTRACT_START	n/a	n/a	n/a	n/a	-999	5	[0, 0, 0]	n/a	catFR1	0	R1060M
577.705	0.016	396889	START	n/a	n/a	n/a	n/a	-999	5	[-999, -999, -999]	n/a	catFR1	0	R1060M
577.721	3.385	396897	PROB	3.385	n/a	n/a	n/a	-999	5	[5, 3, 2]	10	catFR1	0	R1060M
581.106	2.583	398590	PROB	2.583	n/a	n/a	n/a	-999	5	[3, 7, 1]	11	catFR1	0	R1060M
583.689	2.618	399881	PROB	2.618	n/a	n/a	n/a	-999	5	[1, 1, 6]	8	catFR1	0	R1060M
586.307	2.901	401190	PROB	2.901	n/a	n/a	n/a	-999	5	[2, 9, 8]	19	catFR1	0	R1060M
589.208	2.767	402640	PROB	2.767	n/a	n/a	n/a	-999	5	[6, 5, 5]	16	catFR1	0	R1060M
591.975	3.45	404024	PROB	3.45	n/a	n/a	n/a	-999	5	[6, 6, 3]	15	catFR1	0	R1060M
595.425	3.953	405749	PROB	3.953	n/a	n/a	n/a	-999	5	[9, 4, 3]	14	catFR1	0	R1060M
599.378	0.014	407725	STOP	n/a	n/a	n/a	n/a	-999	5	[-999, -999, -999]	n/a	catFR1	0	R1060M
599.392	1.151	407732	DISTRACT_END	n/a	n/a	n/a	n/a	-999	5	[0, 0, 0]	n/a	catFR1	0	R1060M
600.543	1.157	408308	REC_START	n/a	n/a	n/a	n/a	-999	5	[0, 0, 0]	n/a	catFR1	0	R1060M
601.7	1.239	408886	REC_WORD	1.239	n/a	FOOT	BodyParts	1	5	[0, 0, 0]	n/a	catFR1	0	R1060M
602.939	1.07	409506	REC_WORD	1.07	n/a	ARM	BodyParts	2	5	[0, 0, 0]	n/a	catFR1	0	R1060M
604.009	1.516	410041	REC_WORD	1.516	n/a	REFRIGERATOR	Appliances	3	5	[0, 0, 0]	n/a	catFR1	0	R1060M
605.525	1.062	410798	REC_WORD	1.062	n/a	VACUUM	Appliances	4	5	[0, 0, 0]	n/a	catFR1	0	R1060M
606.587	1.719	411329	REC_WORD	1.719	n/a	SPEAKER	Electronics	6	5	[0, 0, 0]	n/a	catFR1	0	R1060M
608.306	3.351	412189	REC_WORD	3.351	n/a	LEG	BodyParts	9	5	[0, 0, 0]	n/a	catFR1	0	R1060M
611.657	7.168	413864	REC_WORD	7.168	n/a	COAT	n/a	-999	5	[0, 0, 0]	n/a	catFR1	0	R1060M
618.825	0.218	417448	REC_WORD_VV	0.218	n/a	<>	n/a	-999	5	[0, 0, 0]	n/a	catFR1	0	R1060M
619.043	11.51	417557	REC_WORD	11.51	n/a	SPEAKER	Electronics	6	5	[0, 0, 0]	n/a	catFR1	0	R1060M
630.553	2.396	423312	REC_END	n/a	n/a	n/a	n/a	-999	5	[0, 0, 0]	n/a	catFR1	0	R1060M
632.949	0.001	424510	COUNTDOWN_START	n/a	n/a	n/a	n/a	-999	6	[0, 0, 0]	n/a	catFR1	0	R1060M
632.95	10.427	424510	TRIAL	n/a	n/a	n/a	n/a	-999	6	[0, 0, 0]	n/a	catFR1	0	R1060M
643.377	0.007	429723	COUNTDOWN_END	n/a	n/a	n/a	n/a	-999	6	[0, 0, 0]	n/a	catFR1	0	R1060M
643.384	3.918	429727	ORIENT	n/a	n/a	n/a	n/a	-999	6	[0, 0, 0]	n/a	catFR1	0	R1060M
647.302	2.584	431686	WORD	n/a	wordpools/wordpool_categorized_EN.txt	OCTOPUS	OceanAnimals	1	6	[0, 0, 0]	n/a	catFR1	0	R1060M
649.886	2.55	432978	WORD	n/a	wordpools/wordpool_categorized_EN.txt	PLANKTON	OceanAnimals	2	6	[0, 0, 0]	n/a	catFR1	0	R1060M
652.436	2.401	434253	WORD	n/a	wordpools/wordpool_categorized_EN.txt	FOREST	Landscapes	3	6	[0, 0, 0]	n/a	catFR1	0	R1060M
654.837	2.45	435453	WORD	n/a	wordpools/wordpool_categorized_EN.txt	CREEK	Landscapes	4	6	[0, 0, 0]	n/a	catFR1	0	R1060M
657.287	2.417	436678	WORD	n/a	wordpools/wordpool_categorized_EN.txt	FLY	Insects	5	6	[0, 0, 0]	n/a	catFR1	0	R1060M
659.704	2.451	437886	WORD	n/a	wordpools/wordpool_categorized_EN.txt	GNAT	Insects	6	6	[0, 0, 0]	n/a	catFR1	0	R1060M
662.155	2.5	439112	WORD	n/a	wordpools/wordpool_categorized_EN.txt	FISH	OceanAnimals	7	6	[0, 0, 0]	n/a	catFR1	0	R1060M
664.655	2.535	440362	WORD	n/a	wordpools/wordpool_categorized_EN.txt	CRAB	OceanAnimals	8	6	[0, 0, 0]	n/a	catFR1	0	R1060M
667.19	2.482	441629	WORD	n/a	wordpools/wordpool_categorized_EN.txt	ROACH	Insects	9	6	[0, 0, 0]	n/a	catFR1	0	R1060M
669.672	2.602	442870	WORD	n/a	wordpools/wordpool_categorized_EN.txt	SPIDER	Insects	10	6	[0, 0, 0]	n/a	catFR1	0	R1060M
672.274	2.416	444171	WORD	n/a	wordpools/wordpool_categorized_EN.txt	WOODS	Landscapes	11	6	[0, 0, 0]	n/a	catFR1	0	R1060M
674.69	1.618	445379	WORD	n/a	wordpools/wordpool_categorized_EN.txt	RIVER	Landscapes	12	6	[0, 0, 0]	n/a	catFR1	0	R1060M
676.308	0.001	446188	DISTRACT_START	n/a	n/a	n/a	n/a	-999	6	[0, 0, 0]	n/a	catFR1	0	R1060M
676.309	0.016	446189	START	n/a	n/a	n/a	n/a	-999	6	[-999, -999, -999]	n/a	catFR1	0	R1060M
676.325	2.933	446197	PROB	2.933	n/a	n/a	n/a	-999	6	[1, 2, 2]	5	catFR1	0	R1060M
679.258	3.367	447663	PROB	3.367	n/a	n/a	n/a	-999	6	[3, 3, 7]	13	catFR1	0	R1060M
682.625	2.535	449346	PROB	2.535	n/a	n/a	n/a	-999	6	[2, 6, 1]	9	catFR1	0	R1060M
685.16	2.75	450614	PROB	2.75	n/a	n/a	n/a	-999	6	[8, 5, 5]	18	catFR1	0	R1060M
687.91	5.218	451989	PROB	5.218	n/a	n/a	n/a	-999	6	[8, 1, 6]	15	catFR1	0	R1060M
693.128	2.549	454598	PROB	2.549	n/a	n/a	n/a	-999	6	[1, 2, 8]	11	catFR1	0	R1060M
695.677	3.614	455872	PROB	3.614	n/a	n/a	n/a	-999	6	[1, 4, 7]	12	catFR1	0	R1060M
699.291	0.005	457679	STOP	n/a	n/a	n/a	n/a	-999	6	[-999, -999, -999]	n/a	catFR1	0	R1060M
699.296	1.034	457681	DISTRACT_END	n/a	n/a	n/a	n/a	-999	6	[0, 0, 0]	n/a	catFR1	0	R1060M
700.33	1.461	458198	REC_START	n/a	n/a	n/a	n/a	-999	6	[0, 0, 0]	n/a	catFR1	0	R1060M
701.791	0.995	458929	REC_WORD	0.995	n/a	OCTOPUS	OceanAnimals	1	6	[0, 0, 0]	n/a	catFR1	0	R1060M
702.786	3.597	459426	REC_WORD	3.597	n/a	PLANKTON	OceanAnimals	2	6	[0, 0, 0]	n/a	catFR1	0	R1060M
706.383	2.282	461225	REC_WORD	2.282	n/a	WOODS	Landscapes	11	6	[0, 0, 0]	n/a	catFR1	0	R1060M
708.665	0.93	462366	REC_WORD	0.93	n/a	NET	n/a	-999	6	[0, 0, 0]	n/a	catFR1	0	R1060M
709.595	2.864	462831	REC_WORD	2.864	n/a	FLY	Insects	5	6	[0, 0, 0]	n/a	catFR1	0	R1060M
712.459	6.187	464262	REC_WORD	6.187	n/a	CRAB	OceanAnimals	8	6	[0, 0, 0]	n/a	catFR1	0	R1060M
718.646	3.219	467356	REC_WORD	3.219	n/a	FISH	OceanAnimals	7	6	[0, 0, 0]	n/a	catFR1	0	R1060M
721.865	8.474	468965	REC_WORD	8.474	n/a	FOREST	Landscapes	3	6	[0, 0, 0]	n/a	catFR1	0	R1060M
730.339	1.713	473202	REC_END	n/a	n/a	n/a	n/a	-999	6	[0, 0, 0]	n/a	catFR1	0	R1060M
732.052	0.0	474058	TRIAL	n/a	n/a	n/a	n/a	-999	7	[0, 0, 0]	n/a	catFR1	0	R1060M
732.052	10.428	474058	COUNTDOWN_START	n/a	n/a	n/a	n/a	-999	7	[0, 0, 0]	n/a	catFR1	0	R1060M
742.48	0.006	479272	COUNTDOWN_END	n/a	n/a	n/a	n/a	-999	7	[0, 0, 0]	n/a	catFR1	0	R1060M
742.486	3.851	479275	ORIENT	n/a	n/a	n/a	n/a	-999	7	[0, 0, 0]	n/a	catFR1	0	R1060M
746.337	2.401	481201	WORD	n/a	wordpools/wordpool_categorized_EN.txt	ELBOW	BodyParts	1	7	[0, 0, 0]	n/a	catFR1	0	R1060M
748.738	2.451	482401	WORD	n/a	wordpools/wordpool_categorized_EN.txt	TOE	BodyParts	2	7	[0, 0, 0]	n/a	catFR1	0	R1060M
751.189	2.533	483626	WORD	n/a	wordpools/wordpool_categorized_EN.txt	EVERGREEN	Trees	3	7	[0, 0, 0]	n/a	catFR1	0	R1060M
753.722	2.385	484893	WORD	n/a	wordpools/wordpool_categorized_EN.txt	OAK	Trees	4	7	[0, 0, 0]	n/a	catFR1	0	R1060M
756.107	2.383	486085	WORD	n/a	wordpools/wordpool_categorized_EN.txt	LEMON	Fruit	5	7	[0, 0, 0]	n/a	catFR1	0	R1060M
758.49	2.484	487277	WORD	n/a	wordpools/wordpool_categorized_EN.txt	STRAWBERRY	Fruit	6	7	[0, 0, 0]	n/a	catFR1	0	R1060M
760.974	2.533	488519	WORD	n/a	wordpools/wordpool_categorized_EN.txt	HEAD	BodyParts	7	7	[0, 0, 0]	n/a	catFR1	0	R1060M
763.507	2.535	489785	WORD	n/a	wordpools/wordpool_categorized_EN.txt	FINGERS	BodyParts	8	7	[0, 0, 0]	n/a	catFR1	0	R1060M
766.042	2.416	491052	WORD	n/a	wordpools/wordpool_categorized_EN.txt	CHERRY	Fruit	9	7	[0, 0, 0]	n/a	catFR1	0	R1060M
768.458	2.435	492260	WORD	n/a	wordpools/wordpool_categorized_EN.txt	BANANA	Fruit	10	7	[0, 0, 0]	n/a	catFR1	0	R1060M
770.893	2.516	493478	WORD	n/a	wordpools/wordpool_categorized_EN.txt	CEDAR	Trees	11	7	[0, 0, 0]	n/a	catFR1	0	R1060M
773.409	1.601	494736	WORD	n/a	wordpools/wordpool_categorized_EN.txt	PINE	Trees	12	7	[0, 0, 0]	n/a	catFR1	0	R1060M
775.01	0.001	495536	DISTRACT_START	n/a	n/a	n/a	n/a	-999	7	[0, 0, 0]	n/a	catFR1	0	R1060M
775.011	0.016	495537	START	n/a	n/a	n/a	n/a	-999	7	[-999, -999, -999]	n/a	catFR1	0	R1060M
775.027	3.583	495545	PROB	3.583	n/a	n/a	n/a	-999	7	[2, 8, 5]	15	catFR1	0	R1060M
778.61	2.934	497336	PROB	2.934	n/a	n/a	n/a	-999	7	[1, 3, 6]	10	catFR1	0	R1060M
781.544	3.302	498803	PROB	3.302	n/a	n/a	n/a	-999	7	[7, 6, 2]	15	catFR1	0	R1060M
784.846	2.35	500454	PROB	2.35	n/a	n/a	n/a	-999	7	[3, 3, 2]	8	catFR1	0	R1060M
787.196	3.017	501629	PROB	3.017	n/a	n/a	n/a	-999	7	[7, 1, 3]	11	catFR1	0	R1060M
790.213	2.533	503137	PROB	2.533	n/a	n/a	n/a	-999	7	[2, 8, 8]	18	catFR1	0	R1060M
792.746	3.744	504404	PROB	3.744	n/a	n/a	n/a	-999	7	[9, 8, 3]	20	catFR1	0	R1060M
796.49	0.007	506276	STOP	n/a	n/a	n/a	n/a	-999	7	[-999, -999, -999]	n/a	catFR1	0	R1060M
796.497	1.084	506279	DISTRACT_END	n/a	n/a	n/a	n/a	-999	7	[0, 0, 0]	n/a	catFR1	0	R1060M
797.581	1.403	506821	REC_START	n/a	n/a	n/a	n/a	-999	7	[0, 0, 0]	n/a	catFR1	0	R1060M
798.984	1.029	507523	REC_WORD	1.029	n/a	ELBOW	BodyParts	1	7	[0, 0, 0]	n/a	catFR1	0	R1060M
800.013	1.587	508037	REC_WORD	1.587	n/a	TOE	BodyParts	2	7	[0, 0, 0]	n/a	catFR1	0	R1060M
801.6	0.614	508830	REC_WORD	0.614	n/a	LEMON	Fruit	5	7	[0, 0, 0]	n/a	catFR1	0	R1060M
802.214	4.021	509137	REC_WORD	4.021	n/a	STRAWBERRY	Fruit	6	7	[0, 0, 0]	n/a	catFR1	0	R1060M
806.235	1.929	511148	REC_WORD	1.929	n/a	HEAD	BodyParts	7	7	[0, 0, 0]	n/a	catFR1	0	R1060M
808.164	4.047	512112	REC_WORD	4.047	n/a	LEG	n/a	-999	7	[0, 0, 0]	n/a	catFR1	0	R1060M
812.211	15.385	514136	REC_WORD	15.385	n/a	EVERGREEN	Trees	3	7	[0, 0, 0]	n/a	catFR1	0	R1060M
827.596	1.791	521828	REC_END	n/a	n/a	n/a	n/a	-999	7	[0, 0, 0]	n/a	catFR1	0	R1060M
829.387	0.0	522723	TRIAL	n/a	n/a	n/a	n/a	-999	8	[0, 0, 0]	n/a	catFR1	0	R1060M
829.387	10.428	522723	COUNTDOWN_START	n/a	n/a	n/a	n/a	-999	8	[0, 0, 0]	n/a	catFR1	0	R1060M
839.815	0.008	527937	COUNTDOWN_END	n/a	n/a	n/a	n/a	-999	8	[0, 0, 0]	n/a	catFR1	0	R1060M
839.823	3.766	527941	ORIENT	n/a	n/a	n/a	n/a	-999	8	[0, 0, 0]	n/a	catFR1	0	R1060M
843.589	2.402	529824	WORD	n/a	wordpools/wordpool_categorized_EN.txt	TEA	Beverages	1	8	[0, 0, 0]	n/a	catFR1	0	R1060M
845.991	2.433	531025	WORD	n/a	wordpools/wordpool_categorized_EN.txt	MILK	Beverages	2	8	[0, 0, 0]	n/a	catFR1	0	R1060M
848.424	2.501	532241	WORD	n/a	wordpools/wordpool_categorized_EN.txt	CRICKET	Insects	3	8	[0, 0, 0]	n/a	catFR1	0	R1060M
850.925	2.483	533492	WORD	n/a	wordpools/wordpool_categorized_EN.txt	LADYBUG	Insects	4	8	[0, 0, 0]	n/a	catFR1	0	R1060M
853.408	2.435	534733	WORD	n/a	wordpools/wordpool_categorized_EN.txt	JEANS	Clothing	5	8	[0, 0, 0]	n/a	catFR1	0	R1060M
855.843	2.616	535950	WORD	n/a	wordpools/wordpool_categorized_EN.txt	SHIRT	Clothing	6	8	[0, 0, 0]	n/a	catFR1	0	R1060M
858.459	2.401	537258	WORD	n/a	wordpools/wordpool_categorized_EN.txt	BEE	Insects	7	8	[0, 0, 0]	n/a	catFR1	0	R1060M
860.86	2.516	538459	WORD	n/a	wordpools/wordpool_categorized_EN.txt	BUTTERFLY	Insects	8	8	[0, 0, 0]	n/a	catFR1	0	R1060M
863.376	2.435	539717	WORD	n/a	wordpools/wordpool_categorized_EN.txt	WINE	Beverages	9	8	[0, 0, 0]	n/a	catFR1	0	R1060M
865.811	2.484	540934	WORD	n/a	wordpools/wordpool_categorized_EN.txt	LEMONADE	Beverages	10	8	[0, 0, 0]	n/a	catFR1	0	R1060M
868.295	2.517	542176	WORD	n/a	wordpools/wordpool_categorized_EN.txt	BLOUSE	Clothing	11	8	[0, 0, 0]	n/a	catFR1	0	R1060M
870.812	1.616	543435	WORD	n/a	wordpools/wordpool_categorized_EN.txt	SOCKS	Clothing	12	8	[0, 0, 0]	n/a	catFR1	0	R1060M
872.428	0.001	544243	DISTRACT_START	n/a	n/a	n/a	n/a	-999	8	[0, 0, 0]	n/a	catFR1	0	R1060M
872.429	0.016	544243	START	n/a	n/a	n/a	n/a	-999	8	[-999, -999, -999]	n/a	catFR1	0	R1060M
872.445	5.134	544251	PROB	5.134	n/a	n/a	n/a	-999	8	[5, 7, 2]	14	catFR1	0	R1060M
877.579	3.719	546818	PROB	3.719	n/a	n/a	n/a	-999	8	[3, 1, 8]	12	catFR1	0	R1060M
881.298	3.967	548677	PROB	3.967	n/a	n/a	n/a	-999	8	[6, 7, 1]	14	catFR1	0	R1060M
885.265	5.367	550661	PROB	5.367	n/a	n/a	n/a	-999	8	[8, 7, 6]	21	catFR1	0	R1060M
890.632	3.05	553344	PROB	3.05	n/a	n/a	n/a	-999	8	[7, 7, 2]	16	catFR1	0	R1060M
893.682	0.017	554869	STOP	n/a	n/a	n/a	n/a	-999	8	[-999, -999, -999]	n/a	catFR1	0	R1060M
893.699	1.219	554877	DISTRACT_END	n/a	n/a	n/a	n/a	-999	8	[0, 0, 0]	n/a	catFR1	0	R1060M
894.918	9.666	555487	REC_START	n/a	n/a	n/a	n/a	-999	8	[0, 0, 0]	n/a	catFR1	0	R1060M
904.584	11.862	560320	REC_WORD	11.862	n/a	LADYBUG	Insects	4	8	[0, 0, 0]	n/a	catFR1	0	R1060M
916.446	2.962	566250	REC_WORD	2.962	n/a	TEA	Beverages	1	8	[0, 0, 0]	n/a	catFR1	0	R1060M
919.408	5.519	567731	REC_WORD	5.519	n/a	MILK	Beverages	2	8	[0, 0, 0]	n/a	catFR1	0	R1060M
924.927	1.846	570491	REC_END	n/a	n/a	n/a	n/a	-999	8	[0, 0, 0]	n/a	catFR1	0	R1060M
926.773	0.001	571413	COUNTDOWN_START	n/a	n/a	n/a	n/a	-999	9	[0, 0, 0]	n/a	catFR1	0	R1060M
926.774	10.427	571414	TRIAL	n/a	n/a	n/a	n/a	-999	9	[0, 0, 0]	n/a	catFR1	0	R1060M
937.201	0.008	576627	COUNTDOWN_END	n/a	n/a	n/a	n/a	-999	9	[0, 0, 0]	n/a	catFR1	0	R1060M
937.209	3.634	576631	ORIENT	n/a	n/a	n/a	n/a	-999	9	[0, 0, 0]	n/a	catFR1	0	R1060M
940.843	2.45	578448	WORD	n/a	wordpools/wordpool_categorized_EN.txt	OVEN	Appliances	1	9	[0, 0, 0]	n/a	catFR1	0	R1060M
943.293	2.584	579673	WORD	n/a	wordpools/wordpool_categorized_EN.txt	BLENDER	Appliances	2	9	[0, 0, 0]	n/a	catFR1	0	R1060M
945.877	2.6	580965	WORD	n/a	wordpools/wordpool_categorized_EN.txt	RUM	Beverages	3	9	[0, 0, 0]	n/a	catFR1	0	R1060M
948.477	2.468	582265	WORD	n/a	wordpools/wordpool_categorized_EN.txt	COFFEE	Beverages	4	9	[0, 0, 0]	n/a	catFR1	0	R1060M
950.945	2.566	583499	WORD	n/a	wordpools/wordpool_categorized_EN.txt	ELEPHANT	Zoo	5	9	[0, 0, 0]	n/a	catFR1	0	R1060M
953.511	2.618	584782	WORD	n/a	wordpools/wordpool_categorized_EN.txt	LION	Zoo	6	9	[0, 0, 0]	n/a	catFR1	0	R1060M
956.129	2.533	586091	WORD	n/a	wordpools/wordpool_categorized_EN.txt	FREEZER	Appliances	7	9	[0, 0, 0]	n/a	catFR1	0	R1060M
958.662	2.401	587357	WORD	n/a	wordpools/wordpool_categorized_EN.txt	MIXER	Appliances	8	9	[0, 0, 0]	n/a	catFR1	0	R1060M
961.063	2.45	588558	WORD	n/a	wordpools/wordpool_categorized_EN.txt	CHEETAH	Zoo	9	9	[0, 0, 0]	n/a	catFR1	0	R1060M
963.513	2.401	589782	WORD	n/a	wordpools/wordpool_categorized_EN.txt	TIGER	Zoo	10	9	[0, 0, 0]	n/a	catFR1	0	R1060M
965.914	2.384	590983	WORD	n/a	wordpools/wordpool_categorized_EN.txt	WATER	Beverages	11	9	[0, 0, 0]	n/a	catFR1	0	R1060M
968.298	1.617	592175	WORD	n/a	wordpools/wordpool_categorized_EN.txt	BEER	Beverages	12	9	[0, 0, 0]	n/a	catFR1	0	R1060M
969.915	0.001	592983	DISTRACT_START	n/a	n/a	n/a	n/a	-999	9	[0, 0, 0]	n/a	catFR1	0	R1060M
969.916	0.016	592984	START	n/a	n/a	n/a	n/a	-999	9	[-999, -999, -999]	n/a	catFR1	0	R1060M
969.932	6.55	592992	PROB	6.55	n/a	n/a	n/a	-999	9	[1, 6, 9]	13	catFR1	0	R1060M
976.482	4.217	596267	PROB	4.217	n/a	n/a	n/a	-999	9	[3, 2, 5]	10	catFR1	0	R1060M
980.699	11.12	598375	PROB	11.12	n/a	n/a	n/a	-999	9	[9, 7, 4]	20	catFR1	0	R1060M
991.819	0.017	603935	STOP	n/a	n/a	n/a	n/a	-999	9	[-999, -999, -999]	n/a	catFR1	0	R1060M
991.836	1.101	603943	DISTRACT_END	n/a	n/a	n/a	n/a	-999	9	[0, 0, 0]	n/a	catFR1	0	R1060M
992.937	2.058	604494	REC_START	n/a	n/a	n/a	n/a	-999	9	[0, 0, 0]	n/a	catFR1	0	R1060M
994.995	1.205	605523	REC_WORD	1.205	n/a	CHEETAH	Zoo	9	9	[0, 0, 0]	n/a	catFR1	0	R1060M
996.2	3.392	606125	REC_WORD	3.392	n/a	RUM	Beverages	3	9	[0, 0, 0]	n/a	catFR1	0	R1060M
999.592	4.537	607821	REC_WORD	4.537	n/a	ELEPHANT	Zoo	5	9	[0, 0, 0]	n/a	catFR1	0	R1060M
1004.129	5.749	610089	REC_WORD	5.749	n/a	BLENDER	Appliances	2	9	[0, 0, 0]	n/a	catFR1	0	R1060M
1009.878	4.957	612964	REC_WORD	4.957	n/a	TIGER	Zoo	10	9	[0, 0, 0]	n/a	catFR1	0	R1060M
1014.835	8.112	615442	REC_WORD_VV	8.112	n/a	<>	n/a	-999	9	[0, 0, 0]	n/a	catFR1	0	R1060M
1022.947	2.062	619498	REC_END	n/a	n/a	n/a	n/a	-999	9	[0, 0, 0]	n/a	catFR1	0	R1060M
1025.009	0.0	620529	TRIAL	n/a	n/a	n/a	n/a	-999	10	[0, 0, 0]	n/a	catFR1	0	R1060M
1025.009	10.428	620529	COUNTDOWN_START	n/a	n/a	n/a	n/a	-999	10	[0, 0, 0]	n/a	catFR1	0	R1060M
1035.437	0.006	625742	COUNTDOWN_END	n/a	n/a	n/a	n/a	-999	10	[0, 0, 0]	n/a	catFR1	0	R1060M
1035.443	3.485	625745	ORIENT	n/a	n/a	n/a	n/a	-999	10	[0, 0, 0]	n/a	catFR1	0	R1060M
1038.928	2.5	627488	WORD	n/a	wordpools/wordpool_categorized_EN.txt	HEN	FarmAnimals	1	10	[0, 0, 0]	n/a	catFR1	0	R1060M
1041.428	2.568	628738	WORD	n/a	wordpools/wordpool_categorized_EN.txt	PIG	FarmAnimals	2	10	[0, 0, 0]	n/a	catFR1	0	R1060M
1043.996	2.416	630022	WORD	n/a	wordpools/wordpool_categorized_EN.txt	TROMBONE	Instruments	3	10	[0, 0, 0]	n/a	catFR1	0	R1060M
1046.412	2.502	631230	WORD	n/a	wordpools/wordpool_categorized_EN.txt	PIANO	Instruments	4	10	[0, 0, 0]	n/a	catFR1	0	R1060M
1048.914	2.416	632481	WORD	n/a	wordpools/wordpool_categorized_EN.txt	CIDER	Beverages	5	10	[0, 0, 0]	n/a	catFR1	0	R1060M
1051.33	2.585	633688	WORD	n/a	wordpools/wordpool_categorized_EN.txt	JUICE	Beverages	6	10	[0, 0, 0]	n/a	catFR1	0	R1060M
1053.915	2.599	634981	WORD	n/a	wordpools/wordpool_categorized_EN.txt	TRUMPET	Instruments	7	10	[0, 0, 0]	n/a	catFR1	0	R1060M
1056.514	2.535	636280	WORD	n/a	wordpools/wordpool_categorized_EN.txt	FLUTE	Instruments	8	10	[0, 0, 0]	n/a	catFR1	0	R1060M
1059.049	2.533	637548	WORD	n/a	wordpools/wordpool_categorized_EN.txt	SHEEP	FarmAnimals	9	10	[0, 0, 0]	n/a	catFR1	0	R1060M
1061.582	2.568	638814	WORD	n/a	wordpools/wordpool_categorized_EN.txt	TURKEY	FarmAnimals	10	10	[0, 0, 0]	n/a	catFR1	0	R1060M
1064.15	2.399	640098	WORD	n/a	wordpools/wordpool_categorized_EN.txt	SODA	Beverages	11	10	[0, 0, 0]	n/a	catFR1	0	R1060M
1066.549	1.602	641298	WORD	n/a	wordpools/wordpool_categorized_EN.txt	COLA	Beverages	12	10	[0, 0, 0]	n/a	catFR1	0	R1060M
1068.151	0.001	642099	DISTRACT_START	n/a	n/a	n/a	n/a	-999	10	[0, 0, 0]	n/a	catFR1	0	R1060M
1068.152	0.015	642099	START	n/a	n/a	n/a	n/a	-999	10	[-999, -999, -999]	n/a	catFR1	0	R1060M
1068.167	6.002	642107	PROB	6.002	n/a	n/a	n/a	-999	10	[3, 3, 8]	14	catFR1	0	R1060M
1074.169	2.9	645107	PROB	2.9	n/a	n/a	n/a	-999	10	[7, 2, 8]	17	catFR1	0	R1060M
1077.069	3.683	646557	PROB	3.683	n/a	n/a	n/a	-999	10	[9, 6, 3]	18	catFR1	0	R1060M
1080.752	3.052	648399	PROB	3.052	n/a	n/a	n/a	-999	10	[3, 7, 2]	12	catFR1	0	R1060M
1083.804	4.117	649925	PROB	4.117	n/a	n/a	n/a	-999	10	[9, 8, 3]	20	catFR1	0	R1060M
1087.921	4.417	651983	PROB	4.417	n/a	n/a	n/a	-999	10	[4, 3, 9]	16	catFR1	0	R1060M
1092.338	0.016	654191	STOP	n/a	n/a	n/a	n/a	-999	10	[-999, -999, -999]	n/a	catFR1	0	R1060M
1092.354	1.168	654199	DISTRACT_END	n/a	n/a	n/a	n/a	-999	10	[0, 0, 0]	n/a	catFR1	0	R1060M
1093.522	1.826	654783	REC_START	n/a	n/a	n/a	n/a	-999	10	[0, 0, 0]	n/a	catFR1	0	R1060M
1095.348	0.821	655696	REC_WORD	0.821	n/a	TROMBONE	Instruments	3	10	[0, 0, 0]	n/a	catFR1	0	R1060M
1096.169	2.005	656107	REC_WORD	2.005	n/a	FLUTE	Instruments	8	10	[0, 0, 0]	n/a	catFR1	0	R1060M
1098.174	0.58	657109	REC_WORD	0.58	n/a	CIDER	Beverages	5	10	[0, 0, 0]	n/a	catFR1	0	R1060M
1098.754	5.369	657399	REC_WORD	5.369	n/a	JUICE	Beverages	6	10	[0, 0, 0]	n/a	catFR1	0	R1060M
1104.123	8.589	660084	REC_WORD	8.589	n/a	HEN	FarmAnimals	1	10	[0, 0, 0]	n/a	catFR1	0	R1060M
1112.712	10.82	664378	REC_WORD	10.82	n/a	PIG	FarmAnimals	2	10	[0, 0, 0]	n/a	catFR1	0	R1060M
1123.532	2.63	669787	REC_END	n/a	n/a	n/a	n/a	-999	10	[0, 0, 0]	n/a	catFR1	0	R1060M
1126.162	0.0	671102	TRIAL	n/a	n/a	n/a	n/a	-999	11	[0, 0, 0]	n/a	catFR1	0	R1060M
1126.162	10.428	671102	COUNTDOWN_START	n/a	n/a	n/a	n/a	-999	11	[0, 0, 0]	n/a	catFR1	0	R1060M
1136.59	0.006	676316	COUNTDOWN_END	n/a	n/a	n/a	n/a	-999	11	[0, 0, 0]	n/a	catFR1	0	R1060M
1136.596	3.901	676319	ORIENT	n/a	n/a	n/a	n/a	-999	11	[0, 0, 0]	n/a	catFR1	0	R1060M
1140.497	2.535	678269	WORD	n/a	wordpools/wordpool_categorized_EN.txt	BASS	Instruments	1	11	[0, 0, 0]	n/a	catFR1	0	R1060M
1143.032	2.549	679537	WORD	n/a	wordpools/wordpool_categorized_EN.txt	GUITAR	Instruments	2	11	[0, 0, 0]	n/a	catFR1	0	R1060M
1145.581	2.469	680811	WORD	n/a	wordpools/wordpool_categorized_EN.txt	CROWBAR	Tools	3	11	[0, 0, 0]	n/a	catFR1	0	R1060M
1148.05	2.416	682046	WORD	n/a	wordpools/wordpool_categorized_EN.txt	HAMMER	Tools	4	11	[0, 0, 0]	n/a	catFR1	0	R1060M
1150.466	2.468	683254	WORD	n/a	wordpools/wordpool_categorized_EN.txt	HALLWAY	Building	5	11	[0, 0, 0]	n/a	catFR1	0	R1060M
1152.934	2.483	684488	WORD	n/a	wordpools/wordpool_categorized_EN.txt	BATHROOM	Building	6	11	[0, 0, 0]	n/a	catFR1	0	R1060M
1155.417	2.618	685729	WORD	n/a	wordpools/wordpool_categorized_EN.txt	DRILL	Tools	7	11	[0, 0, 0]	n/a	catFR1	0	R1060M
1158.035	2.599	687038	WORD	n/a	wordpools/wordpool_categorized_EN.txt	LEVEL	Tools	8	11	[0, 0, 0]	n/a	catFR1	0	R1060M
1160.634	2.402	688337	WORD	n/a	wordpools/wordpool_categorized_EN.txt	ORGAN	Instruments	9	11	[0, 0, 0]	n/a	catFR1	0	R1060M
1163.036	2.566	689538	WORD	n/a	wordpools/wordpool_categorized_EN.txt	DRUM	Instruments	10	11	[0, 0, 0]	n/a	catFR1	0	R1060M
1165.602	2.485	690821	WORD	n/a	wordpools/wordpool_categorized_EN.txt	CEILING	Building	11	11	[0, 0, 0]	n/a	catFR1	0	R1060M
1168.087	1.616	692064	WORD	n/a	wordpools/wordpool_categorized_EN.txt	ROOF	Building	12	11	[0, 0, 0]	n/a	catFR1	0	R1060M
1169.703	0.001	692872	DISTRACT_START	n/a	n/a	n/a	n/a	-999	11	[0, 0, 0]	n/a	catFR1	0	R1060M
1169.704	0.015	692872	START	n/a	n/a	n/a	n/a	-999	11	[-999, -999, -999]	n/a	catFR1	0	R1060M
1169.719	4.269	692880	PROB	4.269	n/a	n/a	n/a	-999	11	[3, 4, 7]	14	catFR1	0	R1060M
1173.988	6.268	695014	PROB	6.268	n/a	n/a	n/a	-999	11	[2, 4, 8]	14	catFR1	0	R1060M
1180.256	2.617	698148	PROB	2.617	n/a	n/a	n/a	-999	11	[2, 2, 2]	6	catFR1	0	R1060M
1182.873	3.184	699456	PROB	3.184	n/a	n/a	n/a	-999	11	[2, 7, 7]	16	catFR1	0	R1060M
1186.057	3.794	701048	PROB	3.794	n/a	n/a	n/a	-999	11	[7, 7, 4]	18	catFR1	0	R1060M
1189.851	0.007	702945	STOP	n/a	n/a	n/a	n/a	-999	11	[-999, -999, -999]	n/a	catFR1	0	R1060M
1189.858	1.117	702949	DISTRACT_END	n/a	n/a	n/a	n/a	-999	11	[0, 0, 0]	n/a	catFR1	0	R1060M
1190.975	2.04	703507	REC_START	n/a	n/a	n/a	n/a	-999	11	[0, 0, 0]	n/a	catFR1	0	R1060M
1193.015	0.561	704527	REC_WORD	0.561	n/a	BASS	Instruments	1	11	[0, 0, 0]	n/a	catFR1	0	R1060M
1193.576	2.655	704808	REC_WORD	2.655	n/a	GUITAR	Instruments	2	11	[0, 0, 0]	n/a	catFR1	0	R1060M
1196.231	5.434	706135	REC_WORD	5.434	n/a	CEILING	Building	11	11	[0, 0, 0]	n/a	catFR1	0	R1060M
1201.665	2.482	708852	REC_WORD	2.482	n/a	CROWBAR	Tools	3	11	[0, 0, 0]	n/a	catFR1	0	R1060M
1204.147	9.281	710093	REC_WORD	9.281	n/a	HAMMER	Tools	4	11	[0, 0, 0]	n/a	catFR1	0	R1060M
1213.428	7.555	714733	REC_WORD_VV	7.555	n/a	<>	n/a	-999	11	[0, 0, 0]	n/a	catFR1	0	R1060M
1220.983	18.483	718510	REC_END	n/a	n/a	n/a	n/a	-999	11	[0, 0, 0]	n/a	catFR1	0	R1060M
1239.466	0.001	727751	COUNTDOWN_START	n/a	n/a	n/a	n/a	-999	12	[0, 0, 0]	n/a	catFR1	0	R1060M
1239.467	10.427	727752	TRIAL	n/a	n/a	n/a	n/a	-999	12	[0, 0, 0]	n/a	catFR1	0	R1060M
1249.894	0.009	732965	COUNTDOWN_END	n/a	n/a	n/a	n/a	-999	12	[0, 0, 0]	n/a	catFR1	0	R1060M
1249.903	3.884	732969	ORIENT	n/a	n/a	n/a	n/a	-999	12	[0, 0, 0]	n/a	catFR1	0	R1060M
1253.787	2.616	734911	WORD	n/a	wordpools/wordpool_categorized_EN.txt	DOVE	Birds	1	12	[0, 0, 0]	n/a	catFR1	0	R1060M
1256.403	2.585	736219	WORD	n/a	wordpools/wordpool_categorized_EN.txt	FINCH	Birds	2	12	[0, 0, 0]	n/a	catFR1	0	R1060M
1258.988	2.482	737512	WORD	n/a	wordpools/wordpool_categorized_EN.txt	LAMB	FarmAnimals	3	12	[0, 0, 0]	n/a	catFR1	0	R1060M
1261.47	2.502	738753	WORD	n/a	wordpools/wordpool_categorized_EN.txt	ROOSTER	FarmAnimals	4	12	[0, 0, 0]	n/a	catFR1	0	R1060M
1263.972	2.433	740004	WORD	n/a	wordpools/wordpool_categorized_EN.txt	HICKORY	Trees	5	12	[0, 0, 0]	n/a	catFR1	0	R1060M
1266.405	2.568	741220	WORD	n/a	wordpools/wordpool_categorized_EN.txt	BIRCH	Trees	6	12	[0, 0, 0]	n/a	catFR1	0	R1060M
1268.973	2.55	742504	WORD	n/a	wordpools/wordpool_categorized_EN.txt	COW	FarmAnimals	7	12	[0, 0, 0]	n/a	catFR1	0	R1060M
1271.523	2.401	743779	WORD	n/a	wordpools/wordpool_categorized_EN.txt	GOAT	FarmAnimals	8	12	[0, 0, 0]	n/a	catFR1	0	R1060M
1273.924	2.566	744979	WORD	n/a	wordpools/wordpool_categorized_EN.txt	CROW	Birds	9	12	[0, 0, 0]	n/a	catFR1	0	R1060M
1276.49	2.502	746262	WORD	n/a	wordpools/wordpool_categorized_EN.txt	SPARROW	Birds	10	12	[0, 0, 0]	n/a	catFR1	0	R1060M
1278.992	2.382	747513	WORD	n/a	wordpools/wordpool_categorized_EN.txt	ELM	Trees	11	12	[0, 0, 0]	n/a	catFR1	0	R1060M
1281.374	1.602	748704	WORD	n/a	wordpools/wordpool_categorized_EN.txt	WALNUT	Trees	12	12	[0, 0, 0]	n/a	catFR1	0	R1060M
1282.976	0.001	749505	DISTRACT_START	n/a	n/a	n/a	n/a	-999	12	[0, 0, 0]	n/a	catFR1	0	R1060M
1282.977	0.015	749505	START	n/a	n/a	n/a	n/a	-999	12	[-999, -999, -999]	n/a	catFR1	0	R1060M
1282.992	9.236	749513	PROB	9.236	n/a	n/a	n/a	-999	12	[6, 5, 9]	20	catFR1	0	R1060M
1292.228	4.767	754131	PROB	4.767	n/a	n/a	n/a	-999	12	[8, 3, 8]	19	catFR1	0	R1060M
1296.995	4.717	756514	PROB	4.717	n/a	n/a	n/a	-999	12	[5, 2, 7]	14	catFR1	0	R1060M
1301.712	2.962	758872	PROB	2.962	n/a	n/a	n/a	-999	12	[7, 3, 6]	16	catFR1	0	R1060M
1304.674	0.005	760353	STOP	n/a	n/a	n/a	n/a	-999	12	[-999, -999, -999]	n/a	catFR1	0	R1060M
1304.679	1.169	760356	DISTRACT_END	n/a	n/a	n/a	n/a	-999	12	[0, 0, 0]	n/a	catFR1	0	R1060M
1305.848	1.635	760940	REC_START	n/a	n/a	n/a	n/a	-999	12	[0, 0, 0]	n/a	catFR1	0	R1060M
1307.483	1.814	761758	REC_WORD	1.814	n/a	DOVE	Birds	1	12	[0, 0, 0]	n/a	catFR1	0	R1060M
1309.297	1.744	762665	REC_WORD	1.744	n/a	CROW	Birds	9	12	[0, 0, 0]	n/a	catFR1	0	R1060M
1311.041	3.607	763537	REC_WORD	3.607	n/a	FINCH	Birds	2	12	[0, 0, 0]	n/a	catFR1	0	R1060M
1314.648	3.774	765340	REC_WORD	3.774	n/a	SPARROW	Birds	10	12	[0, 0, 0]	n/a	catFR1	0	R1060M
1318.422	1.902	767227	REC_WORD_VV	1.902	n/a	<>	n/a	-999	12	[0, 0, 0]	n/a	catFR1	0	R1060M
1320.324	9.055	768178	REC_WORD	9.055	n/a	ROOSTER	FarmAnimals	4	12	[0, 0, 0]	n/a	catFR1	0	R1060M
1329.379	6.479	772705	REC_WORD_VV	6.479	n/a	<>	n/a	-999	12	[0, 0, 0]	n/a	catFR1	0	R1060M
1335.858	3.162	775945	REC_END	n/a	n/a	n/a	n/a	-999	12	[0, 0, 0]	n/a	catFR1	0	R1060M
1339.02	0.0	777525	TRIAL	n/a	n/a	n/a	n/a	-999	13	[0, 0, 0]	n/a	catFR1	0	R1060M
1339.02	10.428	777525	COUNTDOWN_START	n/a	n/a	n/a	n/a	-999	13	[0, 0, 0]	n/a	catFR1	0	R1060M
1349.448	0.006	782739	COUNTDOWN_END	n/a	n/a	n/a	n/a	-999	13	[0, 0, 0]	n/a	catFR1	0	R1060M
1349.454	3.669	782742	ORIENT	n/a	n/a	n/a	n/a	-999	13	[0, 0, 0]	n/a	catFR1	0	R1060M
1353.123	2.499	784577	WORD	n/a	wordpools/wordpool_categorized_EN.txt	WASHER	Appliances	1	13	[0, 0, 0]	n/a	catFR1	0	R1060M
1355.622	2.402	785826	WORD	n/a	wordpools/wordpool_categorized_EN.txt	DISHWASHER	Appliances	2	13	[0, 0, 0]	n/a	catFR1	0	R1060M
1358.024	2.499	787027	WORD	n/a	wordpools/wordpool_categorized_EN.txt	BOOKCASE	Furniture	3	13	[0, 0, 0]	n/a	catFR1	0	R1060M
1360.523	2.602	788276	WORD	n/a	wordpools/wordpool_categorized_EN.txt	CHAIR	Furniture	4	13	[0, 0, 0]	n/a	catFR1	0	R1060M
1363.125	2.449	789577	WORD	n/a	wordpools/wordpool_categorized_EN.txt	TUBA	Instruments	5	13	[0, 0, 0]	n/a	catFR1	0	R1060M
1365.574	2.452	790802	WORD	n/a	wordpools/wordpool_categorized_EN.txt	CELLO	Instruments	6	13	[0, 0, 0]	n/a	catFR1	0	R1060M
1368.026	2.482	792028	WORD	n/a	wordpools/wordpool_categorized_EN.txt	CABINET	Furniture	7	13	[0, 0, 0]	n/a	catFR1	0	R1060M
1370.508	2.535	793269	WORD	n/a	wordpools/wordpool_categorized_EN.txt	TABLE	Furniture	8	13	[0, 0, 0]	n/a	catFR1	0	R1060M
1373.043	2.383	794536	WORD	n/a	wordpools/wordpool_categorized_EN.txt	STOVE	Appliances	9	13	[0, 0, 0]	n/a	catFR1	0	R1060M
1375.426	2.602	795727	WORD	n/a	wordpools/wordpool_categorized_EN.txt	IRON	Appliances	10	13	[0, 0, 0]	n/a	catFR1	0	R1060M
1378.028	2.432	797028	WORD	n/a	wordpools/wordpool_categorized_EN.txt	VIOLIN	Instruments	11	13	[0, 0, 0]	n/a	catFR1	0	R1060M
1380.46	1.601	798244	WORD	n/a	wordpools/wordpool_categorized_EN.txt	BANJO	Instruments	12	13	[0, 0, 0]	n/a	catFR1	0	R1060M
1382.061	0.001	799045	DISTRACT_START	n/a	n/a	n/a	n/a	-999	13	[0, 0, 0]	n/a	catFR1	0	R1060M
1382.062	0.016	799045	START	n/a	n/a	n/a	n/a	-999	13	[-999, -999, -999]	n/a	catFR1	0	R1060M
1382.078	3.483	799053	PROB	3.483	n/a	n/a	n/a	-999	13	[3, 4, 5]	12	catFR1	0	R1060M
1385.561	4.118	800795	PROB	4.118	n/a	n/a	n/a	-999	13	[6, 3, 7]	16	catFR1	0	R1060M
1389.679	3.801	802854	PROB	3.801	n/a	n/a	n/a	-999	13	[4, 6, 9]	19	catFR1	0	R1060M
1393.48	3.468	804754	PROB	3.468	n/a	n/a	n/a	-999	13	[2, 5, 3]	10	catFR1	0	R1060M
1396.948	3.834	806488	PROB	3.834	n/a	n/a	n/a	-999	13	[8, 8, 3]	19	catFR1	0	R1060M
1400.782	6.509	808405	PROB	6.509	n/a	n/a	n/a	-999	13	[9, 6, 8]	23	catFR1	0	R1060M
1407.291	0.009	811659	STOP	n/a	n/a	n/a	n/a	-999	13	[-999, -999, -999]	n/a	catFR1	0	R1060M
1407.3	1.166	811664	DISTRACT_END	n/a	n/a	n/a	n/a	-999	13	[0, 0, 0]	n/a	catFR1	0	R1060M
1408.466	1.275	812246	REC_START	n/a	n/a	n/a	n/a	-999	13	[0, 0, 0]	n/a	catFR1	0	R1060M
1409.741	0.886	812884	REC_WORD	0.886	n/a	WASHER	Appliances	1	13	[0, 0, 0]	n/a	catFR1	0	R1060M
1410.627	4.177	813327	REC_WORD	4.177	n/a	DISHWASHER	Appliances	2	13	[0, 0, 0]	n/a	catFR1	0	R1060M
1414.804	4.186	815415	REC_WORD	4.186	n/a	BOOKCASE	Furniture	3	13	[0, 0, 0]	n/a	catFR1	0	R1060M
1418.99	2.41	817508	REC_WORD	2.41	n/a	STOVE	Appliances	9	13	[0, 0, 0]	n/a	catFR1	0	R1060M
1421.4	4.413	818713	REC_WORD	4.413	n/a	CABINET	Furniture	7	13	[0, 0, 0]	n/a	catFR1	0	R1060M
1425.813	12.136	820919	REC_WORD_VV	12.136	n/a	<>	n/a	-999	13	[0, 0, 0]	n/a	catFR1	0	R1060M
1437.949	0.532	826987	REC_WORD_VV	0.532	n/a	<>	n/a	-999	13	[0, 0, 0]	n/a	catFR1	0	R1060M
1438.481	2.958	827253	REC_END	n/a	n/a	n/a	n/a	-999	13	[0, 0, 0]	n/a	catFR1	0	R1060M
1441.439	0.0	828732	TRIAL	n/a	n/a	n/a	n/a	-999	14	[0, 0, 0]	n/a	catFR1	0	R1060M
1441.439	10.428	828732	COUNTDOWN_START	n/a	n/a	n/a	n/a	-999	14	[0, 0, 0]	n/a	catFR1	0	R1060M
1451.867	0.008	833946	COUNTDOWN_END	n/a	n/a	n/a	n/a	-999	14	[0, 0, 0]	n/a	catFR1	0	R1060M
1451.875	3.833	833950	ORIENT	n/a	n/a	n/a	n/a	-999	14	[0, 0, 0]	n/a	catFR1	0	R1060M
1455.708	2.418	835866	WORD	n/a	wordpools/wordpool_categorized_EN.txt	MOUNTAIN	Landscapes	1	14	[0, 0, 0]	n/a	catFR1	0	R1060M
1458.126	2.6	837075	WORD	n/a	wordpools/wordpool_categorized_EN.txt	BEACH	Landscapes	2	14	[0, 0, 0]	n/a	catFR1	0	R1060M
1460.726	2.468	838375	WORD	n/a	wordpools/wordpool_categorized_EN.txt	THUNDERSTORM	Weather	3	14	[0, 0, 0]	n/a	catFR1	0	R1060M
1463.194	2.45	839609	WORD	n/a	wordpools/wordpool_categorized_EN.txt	HURRICANE	Weather	4	14	[0, 0, 0]	n/a	catFR1	0	R1060M
1465.644	2.384	840834	WORD	n/a	wordpools/wordpool_categorized_EN.txt	VIOLET	Flowers	5	14	[0, 0, 0]	n/a	catFR1	0	R1060M
1468.028	2.5	842026	WORD	n/a	wordpools/wordpool_categorized_EN.txt	LILAC	Flowers	6	14	[0, 0, 0]	n/a	catFR1	0	R1060M
1470.528	2.401	843276	WORD	n/a	wordpools/wordpool_categorized_EN.txt	CLOUD	Weather	7	14	[0, 0, 0]	n/a	catFR1	0	R1060M
1472.929	2.6	844476	WORD	n/a	wordpools/wordpool_categorized_EN.txt	RAIN	Weather	8	14	[0, 0, 0]	n/a	catFR1	0	R1060M
1475.529	2.434	845776	WORD	n/a	wordpools/wordpool_categorized_EN.txt	ISLAND	Landscapes	9	14	[0, 0, 0]	n/a	catFR1	0	R1060M
1477.963	2.567	846993	WORD	n/a	wordpools/wordpool_categorized_EN.txt	STREAM	Landscapes	10	14	[0, 0, 0]	n/a	catFR1	0	R1060M
1480.53	2.468	848276	WORD	n/a	wordpools/wordpool_categorized_EN.txt	LILY	Flowers	11	14	[0, 0, 0]	n/a	catFR1	0	R1060M
1482.998	1.616	849510	WORD	n/a	wordpools/wordpool_categorized_EN.txt	DAFFODIL	Flowers	12	14	[0, 0, 0]	n/a	catFR1	0	R1060M
1484.614	0.001	850318	DISTRACT_START	n/a	n/a	n/a	n/a	-999	14	[0, 0, 0]	n/a	catFR1	0	R1060M
1484.615	0.016	850319	START	n/a	n/a	n/a	n/a	-999	14	[-999, -999, -999]	n/a	catFR1	0	R1060M
1484.631	3.601	850327	PROB	3.601	n/a	n/a	n/a	-999	14	[7, 7, 1]	15	catFR1	0	R1060M
1488.232	3.651	852127	PROB	3.651	n/a	n/a	n/a	-999	14	[2, 8, 5]	15	catFR1	0	R1060M
1491.883	3.767	853953	PROB	3.767	n/a	n/a	n/a	-999	14	[6, 2, 9]	17	catFR1	0	R1060M
1495.65	3.268	855836	PROB	3.268	n/a	n/a	n/a	-999	14	[8, 1, 1]	10	catFR1	0	R1060M
1498.918	2.217	857470	PROB	2.217	n/a	n/a	n/a	-999	14	[5, 3, 1]	9	catFR1	0	R1060M
1501.135	4.403	858578	PROB	4.403	n/a	n/a	n/a	-999	14	[6, 8, 7]	21	catFR1	0	R1060M
1505.538	0.013	860780	STOP	n/a	n/a	n/a	n/a	-999	14	[-999, -999, -999]	n/a	catFR1	0	R1060M
1505.551	1.084	860786	DISTRACT_END	n/a	n/a	n/a	n/a	-999	14	[0, 0, 0]	n/a	catFR1	0	R1060M
1506.635	1.34	861328	REC_START	n/a	n/a	n/a	n/a	-999	14	[0, 0, 0]	n/a	catFR1	0	R1060M
1507.975	1.509	861998	REC_WORD	1.509	n/a	MOUNTAIN	Landscapes	1	14	[0, 0, 0]	n/a	catFR1	0	R1060M
1509.484	1.48	862753	REC_WORD	1.48	n/a	BEACH	Landscapes	2	14	[0, 0, 0]	n/a	catFR1	0	R1060M
1510.964	1.67	863493	REC_WORD	1.67	n/a	THUNDERSTORM	Weather	3	14	[0, 0, 0]	n/a	catFR1	0	R1060M
1512.634	1.077	864328	REC_WORD	1.077	n/a	LILY	Flowers	11	14	[0, 0, 0]	n/a	catFR1	0	R1060M
1513.711	2.237	864866	REC_WORD	2.237	n/a	VIOLET	Flowers	5	14	[0, 0, 0]	n/a	catFR1	0	R1060M
1515.948	4.679	865984	REC_WORD	4.679	n/a	LILAC	Flowers	6	14	[0, 0, 0]	n/a	catFR1	0	R1060M
1520.627	1.786	868324	REC_WORD	1.786	n/a	THUNDERSTORM	Weather	3	14	[0, 0, 0]	n/a	catFR1	0	R1060M
1522.413	14.236	869217	REC_WORD	14.236	n/a	RAIN	Weather	8	14	[0, 0, 0]	n/a	catFR1	0	R1060M
1536.649	2.742	876334	REC_END	n/a	n/a	n/a	n/a	-999	14	[0, 0, 0]	n/a	catFR1	0	R1060M
1539.391	0.0	877705	TRIAL	n/a	n/a	n/a	n/a	-999	15	[0, 0, 0]	n/a	catFR1	0	R1060M
1539.391	10.428	877705	COUNTDOWN_START	n/a	n/a	n/a	n/a	-999	15	[0, 0, 0]	n/a	catFR1	0	R1060M
1549.819	0.009	882919	COUNTDOWN_END	n/a	n/a	n/a	n/a	-999	15	[0, 0, 0]	n/a	catFR1	0	R1060M
1549.828	3.683	882924	ORIENT	n/a	n/a	n/a	n/a	-999	15	[0, 0, 0]	n/a	catFR1	0	R1060M
1553.511	2.485	884765	WORD	n/a	wordpools/wordpool_categorized_EN.txt	WILLOW	Trees	1	15	[0, 0, 0]	n/a	catFR1	0	R1060M
1555.996	2.616	886007	WORD	n/a	wordpools/wordpool_categorized_EN.txt	MAPLE	Trees	2	15	[0, 0, 0]	n/a	catFR1	0	R1060M
1558.612	2.534	887315	WORD	n/a	wordpools/wordpool_categorized_EN.txt	PRINTER	Electronics	3	15	[0, 0, 0]	n/a	catFR1	0	R1060M
1561.146	2.55	888582	WORD	n/a	wordpools/wordpool_categorized_EN.txt	TELEVISION	Electronics	4	15	[0, 0, 0]	n/a	catFR1	0	R1060M
1563.696	2.501	889857	WORD	n/a	wordpools/wordpool_categorized_EN.txt	OCEAN	Landscapes	5	15	[0, 0, 0]	n/a	catFR1	0	R1060M
1566.197	2.5	891108	WORD	n/a	wordpools/wordpool_categorized_EN.txt	LAKE	Landscapes	6	15	[0, 0, 0]	n/a	catFR1	0	R1060M
1568.697	2.435	892357	WORD	n/a	wordpools/wordpool_categorized_EN.txt	CALCULATOR	Electronics	7	15	[0, 0, 0]	n/a	catFR1	0	R1060M
1571.132	2.583	893575	WORD	n/a	wordpools/wordpool_categorized_EN.txt	RADIO	Electronics	8	15	[0, 0, 0]	n/a	catFR1	0	R1060M
1573.715	2.568	894866	WORD	n/a	wordpools/wordpool_categorized_EN.txt	SPRUCE	Trees	9	15	[0, 0, 0]	n/a	catFR1	0	R1060M
1576.283	2.567	896150	WORD	n/a	wordpools/wordpool_categorized_EN.txt	CYPRESS	Trees	10	15	[0, 0, 0]	n/a	catFR1	0	R1060M
1578.85	2.433	897434	WORD	n/a	wordpools/wordpool_categorized_EN.txt	VALLEY	Landscapes	11	15	[0, 0, 0]	n/a	catFR1	0	R1060M
1581.283	1.618	898650	WORD	n/a	wordpools/wordpool_categorized_EN.txt	HILLS	Landscapes	12	15	[0, 0, 0]	n/a	catFR1	0	R1060M
1582.901	0.001	899459	DISTRACT_START	n/a	n/a	n/a	n/a	-999	15	[0, 0, 0]	n/a	catFR1	0	R1060M
1582.902	0.015	899460	START	n/a	n/a	n/a	n/a	-999	15	[-999, -999, -999]	n/a	catFR1	0	R1060M
1582.917	4.434	899467	PROB	4.434	n/a	n/a	n/a	-999	15	[4, 8, 1]	13	catFR1	0	R1060M
1587.351	2.718	901684	PROB	2.718	n/a	n/a	n/a	-999	15	[5, 4, 2]	11	catFR1	0	R1060M
1590.069	5.017	903043	PROB	5.017	n/a	n/a	n/a	-999	15	[4, 5, 4]	13	catFR1	0	R1060M
1595.086	4.751	905551	PROB	4.751	n/a	n/a	n/a	-999	15	[7, 9, 1]	14	catFR1	0	R1060M
1599.837	5.438	907927	PROB	5.438	n/a	n/a	n/a	-999	15	[8, 8, 2]	18	catFR1	0	R1060M
1605.275	0.013	910645	STOP	n/a	n/a	n/a	n/a	-999	15	[-999, -999, -999]	n/a	catFR1	0	R1060M
1605.288	1.067	910652	DISTRACT_END	n/a	n/a	n/a	n/a	-999	15	[0, 0, 0]	n/a	catFR1	0	R1060M
1606.355	4.535	911185	REC_START	n/a	n/a	n/a	n/a	-999	15	[0, 0, 0]	n/a	catFR1	0	R1060M
1610.89	11.803	913453	REC_WORD	11.803	n/a	VALLEY	Landscapes	11	15	[0, 0, 0]	n/a	catFR1	0	R1060M
1622.693	13.672	919354	REC_WORD_VV	13.672	n/a	<>	n/a	-999	15	[0, 0, 0]	n/a	catFR1	0	R1060M
1636.365	2.53	926190	REC_END	n/a	n/a	n/a	n/a	-999	15	[0, 0, 0]	n/a	catFR1	0	R1060M
1638.895	0.0	927455	TRIAL	n/a	n/a	n/a	n/a	-999	16	[0, 0, 0]	n/a	catFR1	0	R1060M
1638.895	10.428	927455	COUNTDOWN_START	n/a	n/a	n/a	n/a	-999	16	[0, 0, 0]	n/a	catFR1	0	R1060M
1649.323	0.007	932668	COUNTDOWN_END	n/a	n/a	n/a	n/a	-999	16	[0, 0, 0]	n/a	catFR1	0	R1060M
1649.33	3.584	932672	ORIENT	n/a	n/a	n/a	n/a	-999	16	[0, 0, 0]	n/a	catFR1	0	R1060M
1652.914	2.55	934464	WORD	n/a	wordpools/wordpool_categorized_EN.txt	ERASER	OfficeSupplies	1	16	[0, 0, 0]	n/a	catFR1	0	R1060M
1655.464	2.385	935739	WORD	n/a	wordpools/wordpool_categorized_EN.txt	GLUE	OfficeSupplies	2	16	[0, 0, 0]	n/a	catFR1	0	R1060M
1657.849	2.4	936931	WORD	n/a	wordpools/wordpool_categorized_EN.txt	MARBLES	Toys	3	16	[0, 0, 0]	n/a	catFR1	0	R1060M
1660.249	2.466	938131	WORD	n/a	wordpools/wordpool_categorized_EN.txt	BALL	Toys	4	16	[0, 0, 0]	n/a	catFR1	0	R1060M
1662.715	2.402	939364	WORD	n/a	wordpools/wordpool_categorized_EN.txt	LADLE	KitchenTools	5	16	[0, 0, 0]	n/a	catFR1	0	R1060M
1665.117	2.516	940565	WORD	n/a	wordpools/wordpool_categorized_EN.txt	SPATULA	KitchenTools	6	16	[0, 0, 0]	n/a	catFR1	0	R1060M
1667.633	2.518	941823	WORD	n/a	wordpools/wordpool_categorized_EN.txt	BARBIE	Toys	7	16	[0, 0, 0]	n/a	catFR1	0	R1060M
1670.151	2.483	943082	WORD	n/a	wordpools/wordpool_categorized_EN.txt	BASKETBALL	Toys	8	16	[0, 0, 0]	n/a	catFR1	0	R1060M
1672.634	2.435	944323	WORD	n/a	wordpools/wordpool_categorized_EN.txt	MARKER	OfficeSupplies	9	16	[0, 0, 0]	n/a	catFR1	0	R1060M
1675.069	2.616	945541	WORD	n/a	wordpools/wordpool_categorized_EN.txt	TAPE	OfficeSupplies	10	16	[0, 0, 0]	n/a	catFR1	0	R1060M
1677.685	2.518	946848	WORD	n/a	wordpools/wordpool_categorized_EN.txt	KNIFE	KitchenTools	11	16	[0, 0, 0]	n/a	catFR1	0	R1060M
1680.203	1.617	948107	WORD	n/a	wordpools/wordpool_categorized_EN.txt	SPOON	KitchenTools	12	16	[0, 0, 0]	n/a	catFR1	0	R1060M
1681.82	0.001	948916	DISTRACT_START	n/a	n/a	n/a	n/a	-999	16	[0, 0, 0]	n/a	catFR1	0	R1060M
1681.821	0.016	948916	START	n/a	n/a	n/a	n/a	-999	16	[-999, -999, -999]	n/a	catFR1	0	R1060M
1681.837	3.417	948924	PROB	3.417	n/a	n/a	n/a	-999	16	[4, 3, 4]	11	catFR1	0	R1060M
1685.254	4.083	950633	PROB	4.083	n/a	n/a	n/a	-999	16	[3, 6, 8]	17	catFR1	0	R1060M
1689.337	3.652	952674	PROB	3.652	n/a	n/a	n/a	-999	16	[5, 3, 6]	14	catFR1	0	R1060M
1692.989	3.449	954500	PROB	3.449	n/a	n/a	n/a	-999	16	[3, 5, 9]	17	catFR1	0	R1060M
1696.438	3.301	956224	PROB	3.301	n/a	n/a	n/a	-999	16	[5, 3, 6]	14	catFR1	0	R1060M
1699.739	4.015	957875	PROB	4.015	n/a	n/a	n/a	-999	16	[6, 3, 8]	17	catFR1	0	R1060M
1703.754	0.02	959882	STOP	n/a	n/a	n/a	n/a	-999	16	[-999, -999, -999]	n/a	catFR1	0	R1060M
1703.774	1.118	959892	DISTRACT_END	n/a	n/a	n/a	n/a	-999	16	[0, 0, 0]	n/a	catFR1	0	R1060M
1704.892	1.463	960451	REC_START	n/a	n/a	n/a	n/a	-999	16	[0, 0, 0]	n/a	catFR1	0	R1060M
1706.355	1.347	961183	REC_WORD	1.347	n/a	ERASER	OfficeSupplies	1	16	[0, 0, 0]	n/a	catFR1	0	R1060M
1707.702	1.454	961856	REC_WORD	1.454	n/a	GLUE	OfficeSupplies	2	16	[0, 0, 0]	n/a	catFR1	0	R1060M
1709.156	1.385	962583	REC_WORD	1.385	n/a	MARBLES	Toys	3	16	[0, 0, 0]	n/a	catFR1	0	R1060M
1710.541	6.729	963276	REC_WORD	6.729	n/a	BARBIE	Toys	7	16	[0, 0, 0]	n/a	catFR1	0	R1060M
1717.27	15.496	966640	REC_WORD	15.496	n/a	SPATULA	KitchenTools	6	16	[0, 0, 0]	n/a	catFR1	0	R1060M
1732.766	2.136	974387	REC_WORD_VV	2.136	n/a	<>	n/a	-999	16	[0, 0, 0]	n/a	catFR1	0	R1060M
1734.902	2.279	975455	REC_END	n/a	n/a	n/a	n/a	-999	16	[0, 0, 0]	n/a	catFR1	0	R1060M
1737.181	0.0	976595	TRIAL	n/a	n/a	n/a	n/a	-999	17	[0, 0, 0]	n/a	catFR1	0	R1060M
1737.181	10.428	976595	COUNTDOWN_START	n/a	n/a	n/a	n/a	-999	17	[0, 0, 0]	n/a	catFR1	0	R1060M
1747.609	0.006	981808	COUNTDOWN_END	n/a	n/a	n/a	n/a	-999	17	[0, 0, 0]	n/a	catFR1	0	R1060M
1747.615	3.552	981811	ORIENT	n/a	n/a	n/a	n/a	-999	17	[0, 0, 0]	n/a	catFR1	0	R1060M
1751.167	2.499	983587	WORD	n/a	wordpools/wordpool_categorized_EN.txt	TURTLE	OceanAnimals	1	17	[0, 0, 0]	n/a	catFR1	0	R1060M
1753.666	2.402	984837	WORD	n/a	wordpools/wordpool_categorized_EN.txt	OYSTER	OceanAnimals	2	17	[0, 0, 0]	n/a	catFR1	0	R1060M
1756.068	2.482	986038	WORD	n/a	wordpools/wordpool_categorized_EN.txt	MOPED	Vehicles	3	17	[0, 0, 0]	n/a	catFR1	0	R1060M
1758.55	2.435	987279	WORD	n/a	wordpools/wordpool_categorized_EN.txt	SCOOTER	Vehicles	4	17	[0, 0, 0]	n/a	catFR1	0	R1060M
1760.985	2.416	988496	WORD	n/a	wordpools/wordpool_categorized_EN.txt	FUDGE	Desserts	5	17	[0, 0, 0]	n/a	catFR1	0	R1060M
1763.401	2.368	989704	WORD	n/a	wordpools/wordpool_categorized_EN.txt	PASTRY	Desserts	6	17	[0, 0, 0]	n/a	catFR1	0	R1060M
1765.769	2.583	990888	WORD	n/a	wordpools/wordpool_categorized_EN.txt	JEEP	Vehicles	7	17	[0, 0, 0]	n/a	catFR1	0	R1060M
1768.352	2.468	992179	WORD	n/a	wordpools/wordpool_categorized_EN.txt	BOAT	Vehicles	8	17	[0, 0, 0]	n/a	catFR1	0	R1060M
1770.82	2.617	993413	WORD	n/a	wordpools/wordpool_categorized_EN.txt	LOBSTER	OceanAnimals	9	17	[0, 0, 0]	n/a	catFR1	0	R1060M
1773.437	2.551	994722	WORD	n/a	wordpools/wordpool_categorized_EN.txt	SQUID	OceanAnimals	10	17	[0, 0, 0]	n/a	catFR1	0	R1060M
1775.988	2.416	995997	WORD	n/a	wordpools/wordpool_categorized_EN.txt	PIE	Desserts	11	17	[0, 0, 0]	n/a	catFR1	0	R1060M
1778.404	1.602	997205	WORD	n/a	wordpools/wordpool_categorized_EN.txt	CAKE	Desserts	12	17	[0, 0, 0]	n/a	catFR1	0	R1060M
1780.006	0.001	998006	DISTRACT_START	n/a	n/a	n/a	n/a	-999	17	[0, 0, 0]	n/a	catFR1	0	R1060M
1780.007	0.015	998007	START	n/a	n/a	n/a	n/a	-999	17	[-999, -999, -999]	n/a	catFR1	0	R1060M
1780.022	3.667	998014	PROB	3.667	n/a	n/a	n/a	-999	17	[4, 7, 2]	13	catFR1	0	R1060M
1783.689	3.218	999847	PROB	3.218	n/a	n/a	n/a	-999	17	[5, 2, 4]	11	catFR1	0	R1060M
1786.907	11.035	1001456	PROB	11.035	n/a	n/a	n/a	-999	17	[6, 7, 5]	18	catFR1	0	R1060M
1797.942	3.804	1006974	PROB	3.804	n/a	n/a	n/a	-999	17	[8, 6, 4]	18	catFR1	0	R1060M
1801.746	0.013	1008875	STOP	n/a	n/a	n/a	n/a	-999	17	[-999, -999, -999]	n/a	catFR1	0	R1060M
1801.759	1.185	1008882	DISTRACT_END	n/a	n/a	n/a	n/a	-999	17	[0, 0, 0]	n/a	catFR1	0	R1060M
1802.944	3.192	1009474	REC_START	n/a	n/a	n/a	n/a	-999	17	[0, 0, 0]	n/a	catFR1	0	R1060M
1806.136	3.04	1011070	REC_WORD	3.04	n/a	TURTLE	OceanAnimals	1	17	[0, 0, 0]	n/a	catFR1	0	R1060M
1809.176	0.836	1012590	REC_WORD	0.836	n/a	OYSTER	OceanAnimals	2	17	[0, 0, 0]	n/a	catFR1	0	R1060M
1810.012	0.922	1013008	REC_WORD	0.922	n/a	MOPED	Vehicles	3	17	[0, 0, 0]	n/a	catFR1	0	R1060M
1810.934	3.775	1013469	REC_WORD	3.775	n/a	SCOOTER	Vehicles	4	17	[0, 0, 0]	n/a	catFR1	0	R1060M
1814.709	1.33	1015357	REC_WORD	1.33	n/a	FUDGE	Desserts	5	17	[0, 0, 0]	n/a	catFR1	0	R1060M
1816.039	5.55	1016022	REC_WORD	5.55	n/a	PIE	Desserts	11	17	[0, 0, 0]	n/a	catFR1	0	R1060M
1821.589	11.366	1018796	REC_WORD_VV	11.366	n/a	<>	n/a	-999	17	[0, 0, 0]	n/a	catFR1	0	R1060M
1832.955	2.494	1024479	REC_END	n/a	n/a	n/a	n/a	-999	17	[0, 0, 0]	n/a	catFR1	0	R1060M
1835.449	0.0	1025726	TRIAL	n/a	n/a	n/a	n/a	-999	18	[0, 0, 0]	n/a	catFR1	0	R1060M
1835.449	10.428	1025726	COUNTDOWN_START	n/a	n/a	n/a	n/a	-999	18	[0, 0, 0]	n/a	catFR1	0	R1060M
1845.877	0.008	1030940	COUNTDOWN_END	n/a	n/a	n/a	n/a	-999	18	[0, 0, 0]	n/a	catFR1	0	R1060M
1845.885	3.766	1030944	ORIENT	n/a	n/a	n/a	n/a	-999	18	[0, 0, 0]	n/a	catFR1	0	R1060M
1849.651	2.402	1032827	WORD	n/a	wordpools/wordpool_categorized_EN.txt	VAN	Vehicles	1	18	[0, 0, 0]	n/a	catFR1	0	R1060M
1852.053	2.433	1034028	WORD	n/a	wordpools/wordpool_categorized_EN.txt	PLANE	Vehicles	2	18	[0, 0, 0]	n/a	catFR1	0	R1060M
1854.486	2.568	1035244	WORD	n/a	wordpools/wordpool_categorized_EN.txt	ZEBRA	Zoo	3	18	[0, 0, 0]	n/a	catFR1	0	R1060M
1857.054	2.599	1036528	WORD	n/a	wordpools/wordpool_categorized_EN.txt	GIRAFFE	Zoo	4	18	[0, 0, 0]	n/a	catFR1	0	R1060M
1859.653	2.419	1037827	WORD	n/a	wordpools/wordpool_categorized_EN.txt	ROSE	Flowers	5	18	[0, 0, 0]	n/a	catFR1	0	R1060M
1862.072	2.549	1039037	WORD	n/a	wordpools/wordpool_categorized_EN.txt	TULIP	Flowers	6	18	[0, 0, 0]	n/a	catFR1	0	R1060M
1864.621	2.535	1040311	WORD	n/a	wordpools/wordpool_categorized_EN.txt	TRUCK	Vehicles	7	18	[0, 0, 0]	n/a	catFR1	0	R1060M
1867.156	2.483	1041579	WORD	n/a	wordpools/wordpool_categorized_EN.txt	BIKE	Vehicles	8	18	[0, 0, 0]	n/a	catFR1	0	R1060M
1869.639	2.401	1042820	WORD	n/a	wordpools/wordpool_categorized_EN.txt	CARNATION	Flowers	9	18	[0, 0, 0]	n/a	catFR1	0	R1060M
1872.04	2.55	1044020	WORD	n/a	wordpools/wordpool_categorized_EN.txt	PETUNIA	Flowers	10	18	[0, 0, 0]	n/a	catFR1	0	R1060M
1874.59	2.451	1045295	WORD	n/a	wordpools/wordpool_categorized_EN.txt	BEAR	Zoo	11	18	[0, 0, 0]	n/a	catFR1	0	R1060M
1877.041	1.616	1046521	WORD	n/a	wordpools/wordpool_categorized_EN.txt	GORILLA	Zoo	12	18	[0, 0, 0]	n/a	catFR1	0	R1060M
1878.657	0.001	1047329	DISTRACT_START	n/a	n/a	n/a	n/a	-999	18	[0, 0, 0]	n/a	catFR1	0	R1060M
1878.658	0.016	1047329	START	n/a	n/a	n/a	n/a	-999	18	[-999, -999, -999]	n/a	catFR1	0	R1060M
1878.674	5.235	1047337	PROB	5.235	n/a	n/a	n/a	-999	18	[3, 6, 9]	18	catFR1	0	R1060M
1883.909	5.368	1049955	PROB	5.368	n/a	n/a	n/a	-999	18	[8, 4, 3]	15	catFR1	0	R1060M
1889.277	3.834	1052638	PROB	3.834	n/a	n/a	n/a	-999	18	[7, 9, 4]	17	catFR1	0	R1060M
1893.111	3.934	1054555	PROB	3.934	n/a	n/a	n/a	-999	18	[2, 4, 7]	13	catFR1	0	R1060M
1897.045	6.421	1056522	PROB	6.421	n/a	n/a	n/a	-999	18	[1, 7, 4]	12	catFR1	0	R1060M
1903.466	0.013	1059733	STOP	n/a	n/a	n/a	n/a	-999	18	[-999, -999, -999]	n/a	catFR1	0	R1060M
1903.479	1.067	1059739	DISTRACT_END	n/a	n/a	n/a	n/a	-999	18	[0, 0, 0]	n/a	catFR1	0	R1060M
1904.546	1.633	1060273	REC_START	n/a	n/a	n/a	n/a	-999	18	[0, 0, 0]	n/a	catFR1	0	R1060M
1906.179	1.233	1061089	REC_WORD	1.233	n/a	VAN	Vehicles	1	18	[0, 0, 0]	n/a	catFR1	0	R1060M
1907.412	2.239	1061705	REC_WORD	2.239	n/a	PLANE	Vehicles	2	18	[0, 0, 0]	n/a	catFR1	0	R1060M
1909.651	23.391	1062825	REC_WORD	23.391	n/a	PETUNIA	Flowers	10	18	[0, 0, 0]	n/a	catFR1	0	R1060M
1933.042	1.515	1074520	REC_WORD	1.515	n/a	DON'T KNOW	n/a	-999	18	[0, 0, 0]	n/a	catFR1	0	R1060M
1934.557	1.729	1075277	REC_END	n/a	n/a	n/a	n/a	-999	18	[0, 0, 0]	n/a	catFR1	0	R1060M
1936.286	0.0	1076142	TRIAL	n/a	n/a	n/a	n/a	-999	19	[0, 0, 0]	n/a	catFR1	0	R1060M
1936.286	10.428	1076142	COUNTDOWN_START	n/a	n/a	n/a	n/a	-999	19	[0, 0, 0]	n/a	catFR1	0	R1060M
1946.714	0.006	1081355	COUNTDOWN_END	n/a	n/a	n/a	n/a	-999	19	[0, 0, 0]	n/a	catFR1	0	R1060M
1946.72	3.602	1081358	ORIENT	n/a	n/a	n/a	n/a	-999	19	[0, 0, 0]	n/a	catFR1	0	R1060M
1950.322	2.399	1083159	WORD	n/a	wordpools/wordpool_categorized_EN.txt	HUMIDITY	Weather	1	19	[0, 0, 0]	n/a	catFR1	0	R1060M
1952.721	2.385	1084359	WORD	n/a	wordpools/wordpool_categorized_EN.txt	THUNDER	Weather	2	19	[0, 0, 0]	n/a	catFR1	0	R1060M
1955.106	2.516	1085551	WORD	n/a	wordpools/wordpool_categorized_EN.txt	ROBIN	Birds	3	19	[0, 0, 0]	n/a	catFR1	0	R1060M
1957.622	2.552	1086809	WORD	n/a	wordpools/wordpool_categorized_EN.txt	CARDINAL	Birds	4	19	[0, 0, 0]	n/a	catFR1	0	R1060M
1960.174	2.516	1088085	WORD	n/a	wordpools/wordpool_categorized_EN.txt	BASEBALL	Toys	5	19	[0, 0, 0]	n/a	catFR1	0	R1060M
1962.69	2.368	1089343	WORD	n/a	wordpools/wordpool_categorized_EN.txt	SLINKY	Toys	6	19	[0, 0, 0]	n/a	catFR1	0	R1060M
1965.058	2.483	1090527	WORD	n/a	wordpools/wordpool_categorized_EN.txt	GOOSE	Birds	7	19	[0, 0, 0]	n/a	catFR1	0	R1060M
1967.541	2.451	1091768	WORD	n/a	wordpools/wordpool_categorized_EN.txt	DUCK	Birds	8	19	[0, 0, 0]	n/a	catFR1	0	R1060M
1969.992	2.383	1092994	WORD	n/a	wordpools/wordpool_categorized_EN.txt	TORNADO	Weather	9	19	[0, 0, 0]	n/a	catFR1	0	R1060M
1972.375	2.602	1094185	WORD	n/a	wordpools/wordpool_categorized_EN.txt	DRIZZLE	Weather	10	19	[0, 0, 0]	n/a	catFR1	0	R1060M
1974.977	2.416	1095486	WORD	n/a	wordpools/wordpool_categorized_EN.txt	FRISBEE	Toys	11	19	[0, 0, 0]	n/a	catFR1	0	R1060M
1977.393	1.618	1096694	WORD	n/a	wordpools/wordpool_categorized_EN.txt	PUZZLE	Toys	12	19	[0, 0, 0]	n/a	catFR1	0	R1060M
1979.011	0.001	1097503	DISTRACT_START	n/a	n/a	n/a	n/a	-999	19	[0, 0, 0]	n/a	catFR1	0	R1060M
1979.012	0.016	1097503	START	n/a	n/a	n/a	n/a	-999	19	[-999, -999, -999]	n/a	catFR1	0	R1060M
1979.028	3.566	1097511	PROB	3.566	n/a	n/a	n/a	-999	19	[9, 5, 5]	19	catFR1	0	R1060M
1982.594	3.602	1099294	PROB	3.602	n/a	n/a	n/a	-999	19	[5, 4, 2]	11	catFR1	0	R1060M
1986.196	7.45	1101095	PROB	7.45	n/a	n/a	n/a	-999	19	[7, 9, 2]	18	catFR1	0	R1060M
1993.646	3.084	1104820	PROB	3.084	n/a	n/a	n/a	-999	19	[1, 2, 4]	7	catFR1	0	R1060M
1996.73	6.457	1106362	PROB	6.457	n/a	n/a	n/a	-999	19	[6, 9, 8]	23	catFR1	0	R1060M
2003.187	0.012	1109590	STOP	n/a	n/a	n/a	n/a	-999	19	[-999, -999, -999]	n/a	catFR1	0	R1060M
2003.199	1.15	1109596	DISTRACT_END	n/a	n/a	n/a	n/a	-999	19	[0, 0, 0]	n/a	catFR1	0	R1060M
2004.349	1.411	1110171	REC_START	n/a	n/a	n/a	n/a	-999	19	[0, 0, 0]	n/a	catFR1	0	R1060M
2005.76	1.811	1110877	REC_WORD	1.811	n/a	HUMIDITY	Weather	1	19	[0, 0, 0]	n/a	catFR1	0	R1060M
2007.571	6.157	1111782	REC_WORD	6.157	n/a	THUNDER	Weather	2	19	[0, 0, 0]	n/a	catFR1	0	R1060M
2013.728	3.337	1114861	REC_WORD	3.337	n/a	GOOSE	Birds	7	19	[0, 0, 0]	n/a	catFR1	0	R1060M
2017.065	3.674	1116529	REC_WORD	3.674	n/a	LIGHTNING	n/a	-999	19	[0, 0, 0]	n/a	catFR1	0	R1060M
2020.739	2.48	1118366	REC_WORD	2.48	n/a	CARDINAL	Birds	4	19	[0, 0, 0]	n/a	catFR1	0	R1060M
2023.219	11.14	1119606	REC_WORD	11.14	n/a	DUCK	Birds	8	19	[0, 0, 0]	n/a	catFR1	0	R1060M
2034.359	2.563	1125175	REC_END	n/a	n/a	n/a	n/a	-999	19	[0, 0, 0]	n/a	catFR1	0	R1060M
2036.922	0.0	1126457	TRIAL	n/a	n/a	n/a	n/a	-999	20	[0, 0, 0]	n/a	catFR1	0	R1060M
2036.922	10.428	1126457	COUNTDOWN_START	n/a	n/a	n/a	n/a	-999	20	[0, 0, 0]	n/a	catFR1	0	R1060M
2047.35	0.006	1131671	COUNTDOWN_END	n/a	n/a	n/a	n/a	-999	20	[0, 0, 0]	n/a	catFR1	0	R1060M
2047.356	3.368	1131674	ORIENT	n/a	n/a	n/a	n/a	-999	20	[0, 0, 0]	n/a	catFR1	0	R1060M
2050.724	2.501	1133357	WORD	n/a	wordpools/wordpool_categorized_EN.txt	SHELF	Furniture	1	20	[0, 0, 0]	n/a	catFR1	0	R1060M
2053.225	2.416	1134608	WORD	n/a	wordpools/wordpool_categorized_EN.txt	DRESSER	Furniture	2	20	[0, 0, 0]	n/a	catFR1	0	R1060M
2055.641	2.535	1135816	WORD	n/a	wordpools/wordpool_categorized_EN.txt	HAND	BodyParts	3	20	[0, 0, 0]	n/a	catFR1	0	R1060M
2058.176	2.4	1137083	WORD	n/a	wordpools/wordpool_categorized_EN.txt	KNEE	BodyParts	4	20	[0, 0, 0]	n/a	catFR1	0	R1060M
2060.576	2.385	1138283	WORD	n/a	wordpools/wordpool_categorized_EN.txt	STAIRS	Building	5	20	[0, 0, 0]	n/a	catFR1	0	R1060M
2062.961	2.616	1139476	WORD	n/a	wordpools/wordpool_categorized_EN.txt	WALL	Building	6	20	[0, 0, 0]	n/a	catFR1	0	R1060M
2065.577	2.451	1140784	WORD	n/a	wordpools/wordpool_categorized_EN.txt	COUCH	Furniture	7	20	[0, 0, 0]	n/a	catFR1	0	R1060M
2068.028	2.483	1142009	WORD	n/a	wordpools/wordpool_categorized_EN.txt	NIGHTSTAND	Furniture	8	20	[0, 0, 0]	n/a	catFR1	0	R1060M
2070.511	2.618	1143250	WORD	n/a	wordpools/wordpool_categorized_EN.txt	WINDOW	Building	9	20	[0, 0, 0]	n/a	catFR1	0	R1060M
2073.129	2.5	1144559	WORD	n/a	wordpools/wordpool_categorized_EN.txt	FOUNDATION	Building	10	20	[0, 0, 0]	n/a	catFR1	0	R1060M
2075.629	2.468	1145809	WORD	n/a	wordpools/wordpool_categorized_EN.txt	NOSE	BodyParts	11	20	[0, 0, 0]	n/a	catFR1	0	R1060M
2078.097	1.616	1147043	WORD	n/a	wordpools/wordpool_categorized_EN.txt	EAR	BodyParts	12	20	[0, 0, 0]	n/a	catFR1	0	R1060M
2079.713	0.001	1147851	DISTRACT_START	n/a	n/a	n/a	n/a	-999	20	[0, 0, 0]	n/a	catFR1	0	R1060M
2079.714	0.015	1147852	START	n/a	n/a	n/a	n/a	-999	20	[-999, -999, -999]	n/a	catFR1	0	R1060M
2079.729	3.751	1147859	PROB	3.751	n/a	n/a	n/a	-999	20	[8, 3, 2]	13	catFR1	0	R1060M
2083.48	4.535	1149735	PROB	4.535	n/a	n/a	n/a	-999	20	[4, 9, 6]	19	catFR1	0	R1060M
2088.015	8.935	1152002	PROB	8.935	n/a	n/a	n/a	-999	20	[4, 3, 6]	13	catFR1	0	R1060M
2096.95	2.633	1156469	PROB	2.633	n/a	n/a	n/a	-999	20	[8, 7, 2]	17	catFR1	0	R1060M
2099.583	3.364	1157786	PROB	3.364	n/a	n/a	n/a	-999	20	[7, 2, 3]	12	catFR1	0	R1060M
2102.947	0.004	1159468	STOP	n/a	n/a	n/a	n/a	-999	20	[-999, -999, -999]	n/a	catFR1	0	R1060M
2102.951	1.185	1159470	DISTRACT_END	n/a	n/a	n/a	n/a	-999	20	[0, 0, 0]	n/a	catFR1	0	R1060M
2104.136	1.311	1160062	REC_START	n/a	n/a	n/a	n/a	-999	20	[0, 0, 0]	n/a	catFR1	0	R1060M
2105.447	1.432	1160717	REC_WORD	1.432	n/a	SHELF	Furniture	1	20	[0, 0, 0]	n/a	catFR1	0	R1060M
2106.879	3.416	1161433	REC_WORD	3.416	n/a	STAND	n/a	-999	20	[0, 0, 0]	n/a	catFR1	0	R1060M
2110.295	2.156	1163141	REC_WORD	2.156	n/a	FOUNDATION	Building	10	20	[0, 0, 0]	n/a	catFR1	0	R1060M
2112.451	4.109	1164219	REC_WORD	4.109	n/a	KNEE	BodyParts	4	20	[0, 0, 0]	n/a	catFR1	0	R1060M
2116.56	17.586	1166274	REC_WORD	17.586	n/a	STAIRS	Building	5	20	[0, 0, 0]	n/a	catFR1	0	R1060M
2134.146	32.068	1175066	REC_END	n/a	n/a	n/a	n/a	-999	20	[0, 0, 0]	n/a	catFR1	0	R1060M
2166.214	0.0	-1	TRIAL	n/a	n/a	n/a	n/a	-999	21	[0, 0, 0]	n/a	catFR1	0	R1060M
2166.214	0.0	-1	COUNTDOWN_START	n/a	n/a	n/a	n/a	-999	21	[0, 0, 0]	n/a	catFR1	0	R1060M
