onset	duration	sample	trial_type	response_time	stim_file	item_name	category	serialpos	list	test	answer	experiment	session	subject
0.0	164.96	405255	INSTRUCT_START	n/a	n/a	n/a	n/a	-999	-999	[0, 0, 0]	n/a	catFR1	0	R1414E
164.96	84.03	570210	INSTRUCT_END	n/a	n/a	n/a	n/a	-999	-999	[0, 0, 0]	n/a	catFR1	0	R1414E
248.99	10.0	654246	COUNTDOWN_START	n/a	n/a	n/a	n/a	-999	-999	[0, 0, 0]	n/a	catFR1	0	R1414E
259.407	0.001	664655	COUNTDOWN_END	n/a	n/a	n/a	n/a	-999	-999	[0, 0, 0]	n/a	catFR1	0	R1414E
259.408	2.182	664670	ENCODING_START	n/a	n/a	n/a	n/a	-999	-1	[0, 0, 0]	n/a	catFR1	0	R1414E
261.59	1.6	666843	WORD	n/a	n/a	OCEAN	Landscapes	1	-1	[0, 0, 0]	n/a	catFR1	0	R1414E
263.205	0.968	668465	WORD_OFF	n/a	n/a	OCEAN	Landscapes	1	-1	[0, 0, 0]	n/a	catFR1	0	R1414E
264.173	1.6	669426	WORD	n/a	n/a	FOREST	Landscapes	2	-1	[0, 0, 0]	n/a	catFR1	0	R1414E
265.789	0.767	671047	WORD_OFF	n/a	n/a	FOREST	Landscapes	2	-1	[0, 0, 0]	n/a	catFR1	0	R1414E
266.556	1.6	671803	WORD	n/a	n/a	SNOW	Weather	3	-1	[0, 0, 0]	n/a	catFR1	0	R1414E
268.173	0.983	673425	WORD_OFF	n/a	n/a	SNOW	Weather	3	-1	[0, 0, 0]	n/a	catFR1	0	R1414E
269.156	1.6	674417	WORD	n/a	n/a	DRIZZLE	Weather	4	-1	[0, 0, 0]	n/a	catFR1	0	R1414E
270.756	0.9	676007	WORD_OFF	n/a	n/a	DRIZZLE	Weather	4	-1	[0, 0, 0]	n/a	catFR1	0	R1414E
271.656	1.6	676905	WORD	n/a	n/a	CAULIFLOWER	Vegetables	5	-1	[0, 0, 0]	n/a	catFR1	0	R1414E
273.272	0.784	678527	WORD_OFF	n/a	n/a	CAULIFLOWER	Vegetables	5	-1	[0, 0, 0]	n/a	catFR1	0	R1414E
274.056	1.6	679314	WORD	n/a	n/a	CORN	Vegetables	6	-1	[0, 0, 0]	n/a	catFR1	0	R1414E
275.656	0.833	680904	WORD_OFF	n/a	n/a	CORN	Vegetables	6	-1	[0, 0, 0]	n/a	catFR1	0	R1414E
276.489	1.6	681739	WORD	n/a	n/a	RIVER	Landscapes	7	-1	[0, 0, 0]	n/a	catFR1	0	R1414E
278.089	0.767	683345	WORD_OFF	n/a	n/a	RIVER	Landscapes	7	-1	[0, 0, 0]	n/a	catFR1	0	R1414E
278.856	1.6	684117	WORD	n/a	n/a	STREAM	Landscapes	8	-1	[0, 0, 0]	n/a	catFR1	0	R1414E
280.472	0.967	685738	WORD_OFF	n/a	n/a	STREAM	Landscapes	8	-1	[0, 0, 0]	n/a	catFR1	0	R1414E
281.439	1.6	686699	WORD	n/a	n/a	CUCUMBER	Vegetables	9	-1	[0, 0, 0]	n/a	catFR1	0	R1414E
283.055	0.85	688305	WORD_OFF	n/a	n/a	CUCUMBER	Vegetables	9	-1	[0, 0, 0]	n/a	catFR1	0	R1414E
283.905	1.6	689155	WORD	n/a	n/a	BROCCOLI	Vegetables	10	-1	[0, 0, 0]	n/a	catFR1	0	R1414E
285.521	0.934	690777	WORD_OFF	n/a	n/a	BROCCOLI	Vegetables	10	-1	[0, 0, 0]	n/a	catFR1	0	R1414E
286.455	1.6	691706	WORD	n/a	n/a	HUMIDITY	Weather	11	-1	[0, 0, 0]	n/a	catFR1	0	R1414E
288.072	0.95	693328	WORD_OFF	n/a	n/a	HUMIDITY	Weather	11	-1	[0, 0, 0]	n/a	catFR1	0	R1414E
289.022	1.6	694273	WORD	n/a	n/a	WIND	Weather	12	-1	[0, 0, 0]	n/a	catFR1	0	R1414E
290.623	0.0	695876	START	n/a	n/a	n/a	n/a	-999	-1	[-999, -999, -999]	n/a	catFR1	0	R1414E
290.623	0.0	695876	PROB	4.882	n/a	n/a	n/a	-999	-1	[5, 7, 8]	20.0	catFR1	0	R1414E
290.622	0.001	695879	WORD_OFF	n/a	n/a	WIND	Weather	12	-1	[0, 0, 0]	n/a	catFR1	0	R1414E
290.623	0.0	695879	ENCODING_END	n/a	n/a	n/a	n/a	-999	-1	[0, 0, 0]	n/a	catFR1	0	R1414E
290.623	4.898	695879	DISTRACT_START	n/a	n/a	n/a	n/a	-999	-1	[0, 0, 0]	n/a	catFR1	0	R1414E
295.521	5.6	700774	PROB	5.583	n/a	n/a	n/a	-999	-1	[5, 4, 5]	14.0	catFR1	0	R1414E
301.121	3.483	706374	PROB	3.466	n/a	n/a	n/a	-999	-1	[3, 5, 5]	13.0	catFR1	0	R1414E
304.604	4.85	709857	PROB	4.833	n/a	n/a	n/a	-999	-1	[8, 3, 4]	15.0	catFR1	0	R1414E
309.454	3.117	714707	PROB	3.1	n/a	n/a	n/a	-999	-1	[1, 7, 7]	15.0	catFR1	0	R1414E
312.571	0.0	717824	STOP	n/a	n/a	n/a	n/a	-999	-1	[-999, -999, -999]	n/a	catFR1	0	R1414E
312.571	2.4	717829	DISTRACT_END	n/a	n/a	n/a	n/a	-999	-1	[0, 0, 0]	n/a	catFR1	0	R1414E
314.971	2.31	720230	REC_START	n/a	n/a	n/a	n/a	-999	-1	[0, 0, 0]	n/a	catFR1	0	R1414E
317.281	0.753	722534	REC_WORD	2.31	n/a	OCEAN	Landscapes	1	-1	[0, 0, 0]	n/a	catFR1	0	R1414E
318.034	1.262	723287	REC_WORD	3.063	n/a	SNOW	Weather	3	-1	[0, 0, 0]	n/a	catFR1	0	R1414E
319.296	1.018	724549	REC_WORD	4.325	n/a	CAULIFLOWER	Vegetables	5	-1	[0, 0, 0]	n/a	catFR1	0	R1414E
320.314	0.654	725567	REC_WORD	5.343	n/a	CORN	Vegetables	6	-1	[0, 0, 0]	n/a	catFR1	0	R1414E
320.968	1.466	726221	REC_WORD	5.997	n/a	BROCCOLI	Vegetables	10	-1	[0, 0, 0]	n/a	catFR1	0	R1414E
322.434	0.608	727687	REC_WORD	7.463	n/a	DRIZZLE	Weather	4	-1	[0, 0, 0]	n/a	catFR1	0	R1414E
323.042	1.0	728295	REC_WORD	8.071	n/a	FOREST	Landscapes	2	-1	[0, 0, 0]	n/a	catFR1	0	R1414E
324.042	1.684	729295	REC_WORD_VV	9.071	n/a	<>	n/a	-999	-1	[0, 0, 0]	n/a	catFR1	0	R1414E
325.726	4.762	730979	REC_WORD_VV	10.755	n/a	<>	n/a	-999	-1	[0, 0, 0]	n/a	catFR1	0	R1414E
330.488	0.409	735741	REC_WORD	15.517	n/a	OCEAN	Landscapes	1	-1	[0, 0, 0]	n/a	catFR1	0	R1414E
330.897	0.535	736150	REC_WORD	15.926	n/a	FOREST	Landscapes	2	-1	[0, 0, 0]	n/a	catFR1	0	R1414E
331.432	1.174	736685	REC_WORD	16.461	n/a	SNOW	Weather	3	-1	[0, 0, 0]	n/a	catFR1	0	R1414E
332.606	0.907	737859	REC_WORD	17.635	n/a	DRIZZLE	Weather	4	-1	[0, 0, 0]	n/a	catFR1	0	R1414E
333.513	0.909	738766	REC_WORD	18.542	n/a	CAULIFLOWER	Vegetables	5	-1	[0, 0, 0]	n/a	catFR1	0	R1414E
334.422	1.354	739675	REC_WORD	19.451	n/a	FOREST	Landscapes	2	-1	[0, 0, 0]	n/a	catFR1	0	R1414E
335.776	1.0	741029	REC_WORD	20.805	n/a	BROCCOLI	Vegetables	10	-1	[0, 0, 0]	n/a	catFR1	0	R1414E
336.776	2.44	742029	REC_WORD_VV	21.805	n/a	<>	n/a	-999	-1	[0, 0, 0]	n/a	catFR1	0	R1414E
339.216	6.033	744469	REC_WORD	24.245	n/a	CORN	Vegetables	6	-1	[0, 0, 0]	n/a	catFR1	0	R1414E
345.249	46.919	750502	REC_END	n/a	n/a	n/a	n/a	-999	-1	[0, 0, 0]	n/a	catFR1	0	R1414E
392.168	10.0	797425	COUNTDOWN_START	n/a	n/a	n/a	n/a	-999	1	[0, 0, 0]	n/a	catFR1	0	R1414E
402.518	0.0	807770	COUNTDOWN_END	n/a	n/a	n/a	n/a	-999	1	[0, 0, 0]	n/a	catFR1	0	R1414E
402.518	2.033	807770	ENCODING_START	n/a	n/a	n/a	n/a	-999	1	[0, 0, 0]	n/a	catFR1	0	R1414E
404.551	1.6	809801	WORD	n/a	wordpools/wordpool_categorized_EN.txt	CRAB	OceanAnimals	1	1	[0, 0, 0]	n/a	catFR1	0	R1414E
406.167	1.0	811423	WORD_OFF	n/a	n/a	CRAB	OceanAnimals	1	1	[0, 0, 0]	n/a	catFR1	0	R1414E
407.167	1.6	812415	WORD	n/a	wordpools/wordpool_categorized_EN.txt	WHALE	OceanAnimals	2	1	[0, 0, 0]	n/a	catFR1	0	R1414E
408.784	0.849	814037	WORD_OFF	n/a	n/a	WHALE	OceanAnimals	2	1	[0, 0, 0]	n/a	catFR1	0	R1414E
409.633	1.6	814887	WORD	n/a	wordpools/wordpool_categorized_EN.txt	NYLON	Fabric	3	1	[0, 0, 0]	n/a	catFR1	0	R1414E
411.234	0.984	816493	WORD_OFF	n/a	n/a	NYLON	Fabric	3	1	[0, 0, 0]	n/a	catFR1	0	R1414E
412.218	1.6	817470	WORD	n/a	wordpools/wordpool_categorized_EN.txt	SILK	Fabric	4	1	[0, 0, 0]	n/a	catFR1	0	R1414E
413.833	0.835	819092	WORD_OFF	n/a	n/a	SILK	Fabric	4	1	[0, 0, 0]	n/a	catFR1	0	R1414E
414.668	1.6	819926	WORD	n/a	wordpools/wordpool_categorized_EN.txt	SODA	Beverages	5	1	[0, 0, 0]	n/a	catFR1	0	R1414E
416.284	0.999	821532	WORD_OFF	n/a	n/a	SODA	Beverages	5	1	[0, 0, 0]	n/a	catFR1	0	R1414E
417.283	1.6	822540	WORD	n/a	wordpools/wordpool_categorized_EN.txt	WINE	Beverages	6	1	[0, 0, 0]	n/a	catFR1	0	R1414E
418.901	0.983	824162	WORD_OFF	n/a	n/a	WINE	Beverages	6	1	[0, 0, 0]	n/a	catFR1	0	R1414E
419.884	1.6	825138	WORD	n/a	wordpools/wordpool_categorized_EN.txt	SUEDE	Fabric	7	1	[0, 0, 0]	n/a	catFR1	0	R1414E
421.501	0.816	826760	WORD_OFF	n/a	n/a	SUEDE	Fabric	7	1	[0, 0, 0]	n/a	catFR1	0	R1414E
422.317	1.6	827579	WORD	n/a	wordpools/wordpool_categorized_EN.txt	SATIN	Fabric	8	1	[0, 0, 0]	n/a	catFR1	0	R1414E
423.917	0.899	829169	WORD_OFF	n/a	n/a	SATIN	Fabric	8	1	[0, 0, 0]	n/a	catFR1	0	R1414E
424.816	1.6	830066	WORD	n/a	wordpools/wordpool_categorized_EN.txt	WATER	Beverages	9	1	[0, 0, 0]	n/a	catFR1	0	R1414E
426.417	0.9	831673	WORD_OFF	n/a	n/a	WATER	Beverages	9	1	[0, 0, 0]	n/a	catFR1	0	R1414E
427.317	1.6	832570	WORD	n/a	wordpools/wordpool_categorized_EN.txt	COLA	Beverages	10	1	[0, 0, 0]	n/a	catFR1	0	R1414E
428.917	1.0	834176	WORD_OFF	n/a	n/a	COLA	Beverages	10	1	[0, 0, 0]	n/a	catFR1	0	R1414E
429.917	1.6	835168	WORD	n/a	wordpools/wordpool_categorized_EN.txt	FISH	OceanAnimals	11	1	[0, 0, 0]	n/a	catFR1	0	R1414E
431.533	0.784	836790	WORD_OFF	n/a	n/a	FISH	OceanAnimals	11	1	[0, 0, 0]	n/a	catFR1	0	R1414E
432.317	1.6	837577	WORD	n/a	wordpools/wordpool_categorized_EN.txt	OCTOPUS	OceanAnimals	12	1	[0, 0, 0]	n/a	catFR1	0	R1414E
433.933	0.002	839183	WORD_OFF	n/a	n/a	OCTOPUS	OceanAnimals	12	1	[0, 0, 0]	n/a	catFR1	0	R1414E
433.935	0.0	839183	ENCODING_END	n/a	n/a	n/a	n/a	-999	1	[0, 0, 0]	n/a	catFR1	0	R1414E
433.935	0.0	839183	DISTRACT_START	n/a	n/a	n/a	n/a	-999	1	[0, 0, 0]	n/a	catFR1	0	R1414E
433.934	0.001	839187	PROB	3.35	n/a	n/a	n/a	-999	1	[5, 4, 8]	17.0	catFR1	0	R1414E
433.935	3.365	839188	START	n/a	n/a	n/a	n/a	-999	1	[-999, -999, -999]	n/a	catFR1	0	R1414E
437.3	3.52	842553	PROB	3.499	n/a	n/a	n/a	-999	1	[5, 6, 1]	12.0	catFR1	0	R1414E
440.82	2.647	846073	PROB	2.633	n/a	n/a	n/a	-999	1	[6, 3, 1]	10.0	catFR1	0	R1414E
443.467	3.55	848720	PROB	3.533	n/a	n/a	n/a	-999	1	[4, 7, 4]	15.0	catFR1	0	R1414E
447.017	3.35	852270	PROB	3.333	n/a	n/a	n/a	-999	1	[7, 8, 2]	17.0	catFR1	0	R1414E
450.367	2.882	855620	PROB	2.866	n/a	n/a	n/a	-999	1	[6, 8, 4]	18.0	catFR1	0	R1414E
453.249	4.549	858502	PROB	4.534	n/a	n/a	n/a	-999	1	[3, 3, 6]	12.0	catFR1	0	R1414E
457.798	0.0	863051	STOP	n/a	n/a	n/a	n/a	-999	1	[-999, -999, -999]	n/a	catFR1	0	R1414E
457.798	2.168	863054	DISTRACT_END	n/a	n/a	n/a	n/a	-999	1	[0, 0, 0]	n/a	catFR1	0	R1414E
459.966	0.734	865220	REC_START	n/a	n/a	n/a	n/a	-999	1	[0, 0, 0]	n/a	catFR1	0	R1414E
460.7	0.796	865954	REC_WORD	0.734	n/a	OCTOPUS	OceanAnimals	12	1	[0, 0, 0]	n/a	catFR1	0	R1414E
461.496	0.578	866750	REC_WORD	1.53	n/a	WHALE	OceanAnimals	2	1	[0, 0, 0]	n/a	catFR1	0	R1414E
462.074	2.371	867328	REC_WORD	2.108	n/a	CRAB	OceanAnimals	1	1	[0, 0, 0]	n/a	catFR1	0	R1414E
464.445	0.649	869699	REC_WORD	4.479	n/a	NYLON	Fabric	3	1	[0, 0, 0]	n/a	catFR1	0	R1414E
465.094	1.0	870348	REC_WORD	5.128	n/a	SUEDE	Fabric	7	1	[0, 0, 0]	n/a	catFR1	0	R1414E
466.094	0.352	871348	REC_WORD_VV	6.128	n/a	<>	n/a	-999	1	[0, 0, 0]	n/a	catFR1	0	R1414E
466.446	0.582	871700	REC_WORD	6.48	n/a	SILK	Fabric	4	1	[0, 0, 0]	n/a	catFR1	0	R1414E
467.028	3.483	872282	REC_WORD	7.062	n/a	SATIN	Fabric	8	1	[0, 0, 0]	n/a	catFR1	0	R1414E
470.511	1.008	875765	REC_WORD	10.545	n/a	SODA	Beverages	5	1	[0, 0, 0]	n/a	catFR1	0	R1414E
471.519	5.189	876773	REC_WORD	11.553	n/a	COLA	Beverages	10	1	[0, 0, 0]	n/a	catFR1	0	R1414E
476.708	2.051	881962	REC_WORD_VV	16.742	n/a	<>	n/a	-999	1	[0, 0, 0]	n/a	catFR1	0	R1414E
478.759	2.031	884013	REC_WORD_VV	18.793	n/a	<>	n/a	-999	1	[0, 0, 0]	n/a	catFR1	0	R1414E
480.79	1.0	886044	REC_WORD_VV	20.824	n/a	<>	n/a	-999	1	[0, 0, 0]	n/a	catFR1	0	R1414E
481.79	2.647	887044	REC_WORD_VV	21.824	n/a	<>	n/a	-999	1	[0, 0, 0]	n/a	catFR1	0	R1414E
484.437	5.303	889691	REC_WORD	24.471	n/a	WINE	Beverages	6	1	[0, 0, 0]	n/a	catFR1	0	R1414E
489.74	0.479	894994	REC_WORD	29.774	n/a	OCTOPUS	OceanAnimals	12	1	[0, 0, 0]	n/a	catFR1	0	R1414E
490.219	4.079	895475	REC_END	n/a	n/a	n/a	n/a	-999	1	[0, 0, 0]	n/a	catFR1	0	R1414E
494.298	10.0	899554	COUNTDOWN_START	n/a	n/a	n/a	n/a	-999	2	[0, 0, 0]	n/a	catFR1	0	R1414E
504.648	0.0	909899	COUNTDOWN_END	n/a	n/a	n/a	n/a	-999	2	[0, 0, 0]	n/a	catFR1	0	R1414E
504.648	2.399	909899	ENCODING_START	n/a	n/a	n/a	n/a	-999	2	[0, 0, 0]	n/a	catFR1	0	R1414E
507.047	1.6	912308	WORD	n/a	wordpools/wordpool_categorized_EN.txt	PUZZLE	Toys	1	2	[0, 0, 0]	n/a	catFR1	0	R1414E
508.647	1.0	913898	WORD_OFF	n/a	n/a	PUZZLE	Toys	1	2	[0, 0, 0]	n/a	catFR1	0	R1414E
509.647	1.6	914906	WORD	n/a	wordpools/wordpool_categorized_EN.txt	FOOTBALL	Toys	2	2	[0, 0, 0]	n/a	catFR1	0	R1414E
511.247	0.916	916496	WORD_OFF	n/a	n/a	FOOTBALL	Toys	2	2	[0, 0, 0]	n/a	catFR1	0	R1414E
512.163	1.6	917425	WORD	n/a	wordpools/wordpool_categorized_EN.txt	SQUID	OceanAnimals	3	2	[0, 0, 0]	n/a	catFR1	0	R1414E
513.763	0.917	919016	WORD_OFF	n/a	n/a	SQUID	OceanAnimals	3	2	[0, 0, 0]	n/a	catFR1	0	R1414E
514.68	1.6	919929	WORD	n/a	wordpools/wordpool_categorized_EN.txt	TURTLE	OceanAnimals	4	2	[0, 0, 0]	n/a	catFR1	0	R1414E
516.28	0.766	921535	WORD_OFF	n/a	n/a	TURTLE	OceanAnimals	4	2	[0, 0, 0]	n/a	catFR1	0	R1414E
517.046	1.6	922307	WORD	n/a	wordpools/wordpool_categorized_EN.txt	ATTIC	Building	5	2	[0, 0, 0]	n/a	catFR1	0	R1414E
518.647	0.966	923897	WORD_OFF	n/a	n/a	ATTIC	Building	5	2	[0, 0, 0]	n/a	catFR1	0	R1414E
519.613	1.6	924873	WORD	n/a	wordpools/wordpool_categorized_EN.txt	CEILING	Building	6	2	[0, 0, 0]	n/a	catFR1	0	R1414E
521.214	0.766	926464	WORD_OFF	n/a	n/a	CEILING	Building	6	2	[0, 0, 0]	n/a	catFR1	0	R1414E
521.98	1.6	927235	WORD	n/a	wordpools/wordpool_categorized_EN.txt	BARBIE	Toys	7	2	[0, 0, 0]	n/a	catFR1	0	R1414E
523.581	0.949	928841	WORD_OFF	n/a	n/a	BARBIE	Toys	7	2	[0, 0, 0]	n/a	catFR1	0	R1414E
524.53	1.6	929786	WORD	n/a	wordpools/wordpool_categorized_EN.txt	BASEBALL	Toys	8	2	[0, 0, 0]	n/a	catFR1	0	R1414E
526.131	0.784	931392	WORD_OFF	n/a	n/a	BASEBALL	Toys	8	2	[0, 0, 0]	n/a	catFR1	0	R1414E
526.915	1.6	932164	WORD	n/a	wordpools/wordpool_categorized_EN.txt	JELLYFISH	OceanAnimals	9	2	[0, 0, 0]	n/a	catFR1	0	R1414E
528.531	0.934	933785	WORD_OFF	n/a	n/a	JELLYFISH	OceanAnimals	9	2	[0, 0, 0]	n/a	catFR1	0	R1414E
529.465	1.6	934714	WORD	n/a	wordpools/wordpool_categorized_EN.txt	SHRIMP	OceanAnimals	10	2	[0, 0, 0]	n/a	catFR1	0	R1414E
531.08	0.933	936336	WORD_OFF	n/a	n/a	SHRIMP	OceanAnimals	10	2	[0, 0, 0]	n/a	catFR1	0	R1414E
532.013	1.6	937265	WORD	n/a	wordpools/wordpool_categorized_EN.txt	ROOF	Building	11	2	[0, 0, 0]	n/a	catFR1	0	R1414E
533.614	0.949	938871	WORD_OFF	n/a	n/a	ROOF	Building	11	2	[0, 0, 0]	n/a	catFR1	0	R1414E
534.563	1.6	939816	WORD	n/a	wordpools/wordpool_categorized_EN.txt	DOOR	Building	12	2	[0, 0, 0]	n/a	catFR1	0	R1414E
536.164	0.001	941418	PROB	4.349	n/a	n/a	n/a	-999	2	[6, 8, 5]	19.0	catFR1	0	R1414E
536.165	0.0	941419	START	n/a	n/a	n/a	n/a	-999	2	[-999, -999, -999]	n/a	catFR1	0	R1414E
536.163	0.002	941422	WORD_OFF	n/a	n/a	DOOR	Building	12	2	[0, 0, 0]	n/a	catFR1	0	R1414E
536.165	0.0	941422	ENCODING_END	n/a	n/a	n/a	n/a	-999	2	[0, 0, 0]	n/a	catFR1	0	R1414E
536.165	4.365	941422	DISTRACT_START	n/a	n/a	n/a	n/a	-999	2	[0, 0, 0]	n/a	catFR1	0	R1414E
540.53	4.65	945784	PROB	4.632	n/a	n/a	n/a	-999	2	[6, 3, 8]	17.0	catFR1	0	R1414E
545.18	2.901	950434	PROB	2.883	n/a	n/a	n/a	-999	2	[7, 8, 1]	16.0	catFR1	0	R1414E
548.081	3.615	953335	PROB	3.599	n/a	n/a	n/a	-999	2	[2, 8, 7]	17.0	catFR1	0	R1414E
551.696	2.484	956950	PROB	2.466	n/a	n/a	n/a	-999	2	[3, 1, 4]	8.0	catFR1	0	R1414E
554.18	2.899	959434	PROB	2.883	n/a	n/a	n/a	-999	2	[7, 5, 8]	20.0	catFR1	0	R1414E
557.079	0.0	962333	DISTRACT_END	n/a	n/a	n/a	n/a	-999	2	[0, 0, 0]	n/a	catFR1	0	R1414E
557.079	2.084	962333	STOP	n/a	n/a	n/a	n/a	-999	2	[-999, -999, -999]	n/a	catFR1	0	R1414E
559.163	1.108	964419	REC_START	n/a	n/a	n/a	n/a	-999	2	[0, 0, 0]	n/a	catFR1	0	R1414E
560.271	0.504	965525	REC_WORD	1.108	n/a	ROOF	Building	11	2	[0, 0, 0]	n/a	catFR1	0	R1414E
560.775	2.513	966029	REC_WORD	1.612	n/a	CEILING	Building	6	2	[0, 0, 0]	n/a	catFR1	0	R1414E
563.288	0.706	968542	REC_WORD_VV	4.125	n/a	<>	n/a	-999	2	[0, 0, 0]	n/a	catFR1	0	R1414E
563.994	1.0	969248	REC_WORD	4.831	n/a	BASEBALL	Toys	8	2	[0, 0, 0]	n/a	catFR1	0	R1414E
564.994	1.914	970248	REC_WORD_VV	5.831	n/a	<>	n/a	-999	2	[0, 0, 0]	n/a	catFR1	0	R1414E
566.908	4.671	972162	REC_WORD	7.745	n/a	FOOTBALL	Toys	2	2	[0, 0, 0]	n/a	catFR1	0	R1414E
571.579	0.301	976833	REC_WORD_VV	12.416	n/a	<>	n/a	-999	2	[0, 0, 0]	n/a	catFR1	0	R1414E
571.88	7.044	977134	REC_WORD	12.717	n/a	ATTIC	Building	5	2	[0, 0, 0]	n/a	catFR1	0	R1414E
578.924	10.124	984178	REC_WORD	19.761	n/a	DOOR	Building	12	2	[0, 0, 0]	n/a	catFR1	0	R1414E
589.048	0.363	994302	REC_WORD_VV	29.885	n/a	<>	n/a	-999	2	[0, 0, 0]	n/a	catFR1	0	R1414E
589.411	11.567	994660	REC_END	n/a	n/a	n/a	n/a	-999	2	[0, 0, 0]	n/a	catFR1	0	R1414E
600.978	10.0	1006233	COUNTDOWN_START	n/a	n/a	n/a	n/a	-999	3	[0, 0, 0]	n/a	catFR1	0	R1414E
611.328	0.0	1016578	COUNTDOWN_END	n/a	n/a	n/a	n/a	-999	3	[0, 0, 0]	n/a	catFR1	0	R1414E
611.328	2.05	1016578	ENCODING_START	n/a	n/a	n/a	n/a	-999	3	[0, 0, 0]	n/a	catFR1	0	R1414E
613.378	1.6	1018625	WORD	n/a	wordpools/wordpool_categorized_EN.txt	PEAS	Vegetables	1	3	[0, 0, 0]	n/a	catFR1	0	R1414E
614.978	0.933	1020231	WORD_OFF	n/a	n/a	PEAS	Vegetables	1	3	[0, 0, 0]	n/a	catFR1	0	R1414E
615.911	1.6	1021160	WORD	n/a	wordpools/wordpool_categorized_EN.txt	ONION	Vegetables	2	3	[0, 0, 0]	n/a	catFR1	0	R1414E
617.527	1.0	1022782	WORD_OFF	n/a	n/a	ONION	Vegetables	2	3	[0, 0, 0]	n/a	catFR1	0	R1414E
618.527	1.6	1023774	WORD	n/a	wordpools/wordpool_categorized_EN.txt	BUTTERFLY	Insects	3	3	[0, 0, 0]	n/a	catFR1	0	R1414E
620.144	0.933	1025396	WORD_OFF	n/a	n/a	BUTTERFLY	Insects	3	3	[0, 0, 0]	n/a	catFR1	0	R1414E
621.077	1.6	1026325	WORD	n/a	wordpools/wordpool_categorized_EN.txt	ANT	Insects	4	3	[0, 0, 0]	n/a	catFR1	0	R1414E
622.677	0.799	1027931	WORD_OFF	n/a	n/a	ANT	Insects	4	3	[0, 0, 0]	n/a	catFR1	0	R1414E
623.476	1.6	1028734	WORD	n/a	wordpools/wordpool_categorized_EN.txt	WRENCH	Tools	5	3	[0, 0, 0]	n/a	catFR1	0	R1414E
625.077	0.883	1030324	WORD_OFF	n/a	n/a	WRENCH	Tools	5	3	[0, 0, 0]	n/a	catFR1	0	R1414E
625.96	1.6	1031222	WORD	n/a	wordpools/wordpool_categorized_EN.txt	DRILL	Tools	6	3	[0, 0, 0]	n/a	catFR1	0	R1414E
627.576	0.934	1032828	WORD_OFF	n/a	n/a	DRILL	Tools	6	3	[0, 0, 0]	n/a	catFR1	0	R1414E
628.51	1.6	1033757	WORD	n/a	wordpools/wordpool_categorized_EN.txt	CABBAGE	Vegetables	7	3	[0, 0, 0]	n/a	catFR1	0	R1414E
630.127	0.783	1035379	WORD_OFF	n/a	n/a	CABBAGE	Vegetables	7	3	[0, 0, 0]	n/a	catFR1	0	R1414E
630.91	1.6	1036166	WORD	n/a	wordpools/wordpool_categorized_EN.txt	LETTUCE	Vegetables	8	3	[0, 0, 0]	n/a	catFR1	0	R1414E
632.527	0.983	1037788	WORD_OFF	n/a	n/a	LETTUCE	Vegetables	8	3	[0, 0, 0]	n/a	catFR1	0	R1414E
633.51	1.6	1038764	WORD	n/a	wordpools/wordpool_categorized_EN.txt	SHOVEL	Tools	9	3	[0, 0, 0]	n/a	catFR1	0	R1414E
635.11	0.8	1040370	WORD_OFF	n/a	n/a	SHOVEL	Tools	9	3	[0, 0, 0]	n/a	catFR1	0	R1414E
635.91	1.6	1041158	WORD	n/a	wordpools/wordpool_categorized_EN.txt	HAMMER	Tools	10	3	[0, 0, 0]	n/a	catFR1	0	R1414E
637.51	0.984	1042764	WORD_OFF	n/a	n/a	HAMMER	Tools	10	3	[0, 0, 0]	n/a	catFR1	0	R1414E
638.494	1.6	1043740	WORD	n/a	wordpools/wordpool_categorized_EN.txt	BEE	Insects	11	3	[0, 0, 0]	n/a	catFR1	0	R1414E
640.093	0.95	1045346	WORD_OFF	n/a	n/a	BEE	Insects	11	3	[0, 0, 0]	n/a	catFR1	0	R1414E
641.043	1.6	1046291	WORD	n/a	wordpools/wordpool_categorized_EN.txt	FLY	Insects	12	3	[0, 0, 0]	n/a	catFR1	0	R1414E
642.643	0.002	1047897	WORD_OFF	n/a	n/a	FLY	Insects	12	3	[0, 0, 0]	n/a	catFR1	0	R1414E
642.645	0.0	1047897	ENCODING_END	n/a	n/a	n/a	n/a	-999	3	[0, 0, 0]	n/a	catFR1	0	R1414E
642.645	0.0	1047897	DISTRACT_START	n/a	n/a	n/a	n/a	-999	3	[0, 0, 0]	n/a	catFR1	0	R1414E
642.644	0.001	1047898	PROB	5.448	n/a	n/a	n/a	-999	3	[8, 5, 6]	19.0	catFR1	0	R1414E
642.645	5.465	1047899	START	n/a	n/a	n/a	n/a	-999	3	[-999, -999, -999]	n/a	catFR1	0	R1414E
648.11	4.451	1053364	PROB	4.433	n/a	n/a	n/a	-999	3	[3, 6, 6]	15.0	catFR1	0	R1414E
652.561	2.516	1057815	PROB	2.499	n/a	n/a	n/a	-999	3	[6, 1, 5]	12.0	catFR1	0	R1414E
655.077	2.499	1060331	PROB	2.482	n/a	n/a	n/a	-999	3	[8, 2, 3]	13.0	catFR1	0	R1414E
657.576	2.317	1062830	PROB	2.299	n/a	n/a	n/a	-999	3	[4, 1, 6]	11.0	catFR1	0	R1414E
659.893	3.636	1065147	PROB	3.616	n/a	n/a	n/a	-999	3	[4, 8, 7]	19.0	catFR1	0	R1414E
663.529	0.0	1068776	DISTRACT_END	n/a	n/a	n/a	n/a	-999	3	[0, 0, 0]	n/a	catFR1	0	R1414E
663.529	2.33	1068783	STOP	n/a	n/a	n/a	n/a	-999	3	[-999, -999, -999]	n/a	catFR1	0	R1414E
665.859	0.313	1071114	REC_START	n/a	n/a	n/a	n/a	-999	3	[0, 0, 0]	n/a	catFR1	0	R1414E
666.172	0.67	1071426	REC_WORD	0.313	n/a	BUTTERFLY	Insects	3	3	[0, 0, 0]	n/a	catFR1	0	R1414E
666.842	0.813	1072096	REC_WORD	0.983	n/a	FLY	Insects	12	3	[0, 0, 0]	n/a	catFR1	0	R1414E
667.655	1.277	1072909	REC_WORD	1.796	n/a	DRILL	Tools	6	3	[0, 0, 0]	n/a	catFR1	0	R1414E
668.932	1.215	1074186	REC_WORD	3.073	n/a	BEE	Insects	11	3	[0, 0, 0]	n/a	catFR1	0	R1414E
670.147	3.219	1075401	REC_WORD_VV	4.288	n/a	<>	n/a	-999	3	[0, 0, 0]	n/a	catFR1	0	R1414E
673.366	0.86	1078620	REC_WORD	7.507	n/a	CABBAGE	Vegetables	7	3	[0, 0, 0]	n/a	catFR1	0	R1414E
674.226	2.466	1079480	REC_WORD	8.367	n/a	LETTUCE	Vegetables	8	3	[0, 0, 0]	n/a	catFR1	0	R1414E
676.692	0.81	1081946	REC_WORD	10.833	n/a	PEAS	Vegetables	1	3	[0, 0, 0]	n/a	catFR1	0	R1414E
677.502	4.622	1082756	REC_WORD	11.643	n/a	ONION	Vegetables	2	3	[0, 0, 0]	n/a	catFR1	0	R1414E
682.124	0.629	1087378	REC_WORD_VV	16.265	n/a	<>	n/a	-999	3	[0, 0, 0]	n/a	catFR1	0	R1414E
682.753	0.358	1088007	REC_WORD	16.894	n/a	DRILL	Tools	6	3	[0, 0, 0]	n/a	catFR1	0	R1414E
683.111	2.863	1088365	REC_WORD	17.252	n/a	SHOVEL	Tools	9	3	[0, 0, 0]	n/a	catFR1	0	R1414E
685.974	1.063	1091228	REC_WORD_VV	20.115	n/a	<>	n/a	-999	3	[0, 0, 0]	n/a	catFR1	0	R1414E
687.037	4.625	1092291	REC_WORD	21.178	n/a	WRENCH	Tools	5	3	[0, 0, 0]	n/a	catFR1	0	R1414E
691.662	0.421	1096916	REC_WORD	25.803	n/a	PEAS	Vegetables	1	3	[0, 0, 0]	n/a	catFR1	0	R1414E
692.083	4.024	1097337	REC_WORD	26.224	n/a	ONION	Vegetables	2	3	[0, 0, 0]	n/a	catFR1	0	R1414E
696.107	5.084	1101355	REC_END	n/a	n/a	n/a	n/a	-999	3	[0, 0, 0]	n/a	catFR1	0	R1414E
701.191	10.0	1106441	COUNTDOWN_START	n/a	n/a	n/a	n/a	-999	4	[0, 0, 0]	n/a	catFR1	0	R1414E
711.541	0.0	1116801	COUNTDOWN_END	n/a	n/a	n/a	n/a	-999	4	[0, 0, 0]	n/a	catFR1	0	R1414E
711.541	2.317	1116801	ENCODING_START	n/a	n/a	n/a	n/a	-999	4	[0, 0, 0]	n/a	catFR1	0	R1414E
713.858	1.6	1119116	WORD	n/a	wordpools/wordpool_categorized_EN.txt	TRUCK	Vehicles	1	4	[0, 0, 0]	n/a	catFR1	0	R1414E
715.474	0.883	1120722	WORD_OFF	n/a	n/a	TRUCK	Vehicles	1	4	[0, 0, 0]	n/a	catFR1	0	R1414E
716.357	1.6	1121604	WORD	n/a	wordpools/wordpool_categorized_EN.txt	BIKE	Vehicles	2	4	[0, 0, 0]	n/a	catFR1	0	R1414E
717.957	0.867	1123210	WORD_OFF	n/a	n/a	BIKE	Vehicles	2	4	[0, 0, 0]	n/a	catFR1	0	R1414E
718.824	1.6	1124076	WORD	n/a	wordpools/wordpool_categorized_EN.txt	BLOCKS	Toys	3	4	[0, 0, 0]	n/a	catFR1	0	R1414E
720.424	0.983	1125682	WORD_OFF	n/a	n/a	BLOCKS	Toys	3	4	[0, 0, 0]	n/a	catFR1	0	R1414E
721.407	1.6	1126658	WORD	n/a	wordpools/wordpool_categorized_EN.txt	BALL	Toys	4	4	[0, 0, 0]	n/a	catFR1	0	R1414E
723.023	0.884	1128280	WORD_OFF	n/a	n/a	BALL	Toys	4	4	[0, 0, 0]	n/a	catFR1	0	R1414E
723.907	1.6	1129162	WORD	n/a	wordpools/wordpool_categorized_EN.txt	TABLE	Furniture	5	4	[0, 0, 0]	n/a	catFR1	0	R1414E
725.523	0.884	1130784	WORD_OFF	n/a	n/a	TABLE	Furniture	5	4	[0, 0, 0]	n/a	catFR1	0	R1414E
726.407	1.6	1131666	WORD	n/a	wordpools/wordpool_categorized_EN.txt	DESK	Furniture	6	4	[0, 0, 0]	n/a	catFR1	0	R1414E
728.023	0.834	1133272	WORD_OFF	n/a	n/a	DESK	Furniture	6	4	[0, 0, 0]	n/a	catFR1	0	R1414E
728.857	1.6	1134106	WORD	n/a	wordpools/wordpool_categorized_EN.txt	PLANE	Vehicles	7	4	[0, 0, 0]	n/a	catFR1	0	R1414E
730.457	0.999	1135712	WORD_OFF	n/a	n/a	PLANE	Vehicles	7	4	[0, 0, 0]	n/a	catFR1	0	R1414E
731.456	1.6	1136704	WORD	n/a	wordpools/wordpool_categorized_EN.txt	SCOOTER	Vehicles	8	4	[0, 0, 0]	n/a	catFR1	0	R1414E
733.057	0.766	1138310	WORD_OFF	n/a	n/a	SCOOTER	Vehicles	8	4	[0, 0, 0]	n/a	catFR1	0	R1414E
733.823	1.6	1139082	WORD	n/a	wordpools/wordpool_categorized_EN.txt	CABINET	Furniture	9	4	[0, 0, 0]	n/a	catFR1	0	R1414E
735.424	0.883	1140672	WORD_OFF	n/a	n/a	CABINET	Furniture	9	4	[0, 0, 0]	n/a	catFR1	0	R1414E
736.307	1.6	1141554	WORD	n/a	wordpools/wordpool_categorized_EN.txt	BOOKCASE	Furniture	10	4	[0, 0, 0]	n/a	catFR1	0	R1414E
737.907	0.783	1143160	WORD_OFF	n/a	n/a	BOOKCASE	Furniture	10	4	[0, 0, 0]	n/a	catFR1	0	R1414E
738.69	1.6	1143948	WORD	n/a	wordpools/wordpool_categorized_EN.txt	FRISBEE	Toys	11	4	[0, 0, 0]	n/a	catFR1	0	R1414E
740.29	0.983	1145538	WORD_OFF	n/a	n/a	FRISBEE	Toys	11	4	[0, 0, 0]	n/a	catFR1	0	R1414E
741.273	1.6	1146530	WORD	n/a	wordpools/wordpool_categorized_EN.txt	DOLLHOUSE	Toys	12	4	[0, 0, 0]	n/a	catFR1	0	R1414E
742.873	0.001	1148120	WORD_OFF	n/a	n/a	DOLLHOUSE	Toys	12	4	[0, 0, 0]	n/a	catFR1	0	R1414E
742.874	0.001	1148128	PROB	3.733	n/a	n/a	n/a	-999	4	[1, 8, 4]	13.0	catFR1	0	R1414E
742.875	0.0	1148129	START	n/a	n/a	n/a	n/a	-999	4	[-999, -999, -999]	n/a	catFR1	0	R1414E
742.875	0.0	1148136	ENCODING_END	n/a	n/a	n/a	n/a	-999	4	[0, 0, 0]	n/a	catFR1	0	R1414E
742.875	3.748	1148136	DISTRACT_START	n/a	n/a	n/a	n/a	-999	4	[0, 0, 0]	n/a	catFR1	0	R1414E
746.623	2.268	1151877	PROB	2.25	n/a	n/a	n/a	-999	4	[4, 1, 4]	9.0	catFR1	0	R1414E
748.891	2.783	1154145	PROB	2.765	n/a	n/a	n/a	-999	4	[2, 6, 5]	13.0	catFR1	0	R1414E
751.674	3.283	1156928	PROB	3.266	n/a	n/a	n/a	-999	4	[3, 6, 7]	16.0	catFR1	0	R1414E
754.957	2.233	1160211	PROB	2.216	n/a	n/a	n/a	-999	4	[6, 6, 2]	14.0	catFR1	0	R1414E
757.19	3.133	1162444	PROB	3.116	n/a	n/a	n/a	-999	4	[3, 3, 6]	12.0	catFR1	0	R1414E
760.323	4.833	1165577	PROB	4.816	n/a	n/a	n/a	-999	4	[5, 7, 6]	18.0	catFR1	0	R1414E
765.156	0.0	1170410	STOP	n/a	n/a	n/a	n/a	-999	4	[-999, -999, -999]	n/a	catFR1	0	R1414E
765.156	2.1	1170417	DISTRACT_END	n/a	n/a	n/a	n/a	-999	4	[0, 0, 0]	n/a	catFR1	0	R1414E
767.256	3.509	1172503	REC_START	n/a	n/a	n/a	n/a	-999	4	[0, 0, 0]	n/a	catFR1	0	R1414E
770.765	1.435	1176019	REC_WORD	3.509	n/a	BOOKCASE	Furniture	10	4	[0, 0, 0]	n/a	catFR1	0	R1414E
772.2	2.972	1177454	REC_WORD	4.944	n/a	CABINET	Furniture	9	4	[0, 0, 0]	n/a	catFR1	0	R1414E
775.172	2.243	1180426	REC_WORD_VV	7.916	n/a	<>	n/a	-999	4	[0, 0, 0]	n/a	catFR1	0	R1414E
777.415	0.758	1182669	REC_WORD	10.159	n/a	BIKE	Vehicles	2	4	[0, 0, 0]	n/a	catFR1	0	R1414E
778.173	11.95	1183427	REC_WORD	10.917	n/a	TRUCK	Vehicles	1	4	[0, 0, 0]	n/a	catFR1	0	R1414E
790.123	0.738	1195377	REC_WORD	22.867	n/a	FRISBEE	Toys	11	4	[0, 0, 0]	n/a	catFR1	0	R1414E
790.861	6.648	1196115	REC_WORD	23.605	n/a	BALL	Toys	4	4	[0, 0, 0]	n/a	catFR1	0	R1414E
797.509	1.778	1202759	REC_END	n/a	n/a	n/a	n/a	-999	4	[0, 0, 0]	n/a	catFR1	0	R1414E
799.287	10.0	1204538	COUNTDOWN_START	n/a	n/a	n/a	n/a	-999	5	[0, 0, 0]	n/a	catFR1	0	R1414E
809.637	0.0	1214899	COUNTDOWN_END	n/a	n/a	n/a	n/a	-999	5	[0, 0, 0]	n/a	catFR1	0	R1414E
809.637	1.9	1214899	ENCODING_START	n/a	n/a	n/a	n/a	-999	5	[0, 0, 0]	n/a	catFR1	0	R1414E
811.537	1.6	1216789	WORD	n/a	wordpools/wordpool_categorized_EN.txt	WILLOW	Trees	1	5	[0, 0, 0]	n/a	catFR1	0	R1414E
813.137	0.917	1218395	WORD_OFF	n/a	n/a	WILLOW	Trees	1	5	[0, 0, 0]	n/a	catFR1	0	R1414E
814.054	1.6	1219308	WORD	n/a	wordpools/wordpool_categorized_EN.txt	MAPLE	Trees	2	5	[0, 0, 0]	n/a	catFR1	0	R1414E
815.654	0.967	1220914	WORD_OFF	n/a	n/a	MAPLE	Trees	2	5	[0, 0, 0]	n/a	catFR1	0	R1414E
816.621	1.6	1221875	WORD	n/a	wordpools/wordpool_categorized_EN.txt	PENCIL	OfficeSupplies	3	5	[0, 0, 0]	n/a	catFR1	0	R1414E
818.221	0.766	1223481	WORD_OFF	n/a	n/a	PENCIL	OfficeSupplies	3	5	[0, 0, 0]	n/a	catFR1	0	R1414E
818.987	1.6	1224236	WORD	n/a	wordpools/wordpool_categorized_EN.txt	GLUE	OfficeSupplies	4	5	[0, 0, 0]	n/a	catFR1	0	R1414E
820.587	0.867	1225843	WORD_OFF	n/a	n/a	GLUE	OfficeSupplies	4	5	[0, 0, 0]	n/a	catFR1	0	R1414E
821.454	1.6	1226709	WORD	n/a	wordpools/wordpool_categorized_EN.txt	SPARROW	Birds	5	5	[0, 0, 0]	n/a	catFR1	0	R1414E
823.054	0.983	1228315	WORD_OFF	n/a	n/a	SPARROW	Birds	5	5	[0, 0, 0]	n/a	catFR1	0	R1414E
824.037	1.6	1229291	WORD	n/a	wordpools/wordpool_categorized_EN.txt	DUCK	Birds	6	5	[0, 0, 0]	n/a	catFR1	0	R1414E
825.654	0.866	1230913	WORD_OFF	n/a	n/a	DUCK	Birds	6	5	[0, 0, 0]	n/a	catFR1	0	R1414E
826.52	1.6	1231779	WORD	n/a	wordpools/wordpool_categorized_EN.txt	TAPE	OfficeSupplies	7	5	[0, 0, 0]	n/a	catFR1	0	R1414E
828.136	0.834	1233385	WORD_OFF	n/a	n/a	TAPE	OfficeSupplies	7	5	[0, 0, 0]	n/a	catFR1	0	R1414E
828.97	1.6	1234219	WORD	n/a	wordpools/wordpool_categorized_EN.txt	BINDER	OfficeSupplies	8	5	[0, 0, 0]	n/a	catFR1	0	R1414E
830.587	0.833	1235841	WORD_OFF	n/a	n/a	BINDER	OfficeSupplies	8	5	[0, 0, 0]	n/a	catFR1	0	R1414E
831.42	1.6	1236676	WORD	n/a	wordpools/wordpool_categorized_EN.txt	FINCH	Birds	9	5	[0, 0, 0]	n/a	catFR1	0	R1414E
833.019	0.901	1238266	WORD_OFF	n/a	n/a	FINCH	Birds	9	5	[0, 0, 0]	n/a	catFR1	0	R1414E
833.92	1.6	1239179	WORD	n/a	wordpools/wordpool_categorized_EN.txt	BLUEBIRD	Birds	10	5	[0, 0, 0]	n/a	catFR1	0	R1414E
835.536	0.967	1240786	WORD_OFF	n/a	n/a	BLUEBIRD	Birds	10	5	[0, 0, 0]	n/a	catFR1	0	R1414E
836.503	1.6	1241762	WORD	n/a	wordpools/wordpool_categorized_EN.txt	CEDAR	Trees	11	5	[0, 0, 0]	n/a	catFR1	0	R1414E
838.103	1.0	1243352	WORD_OFF	n/a	n/a	CEDAR	Trees	11	5	[0, 0, 0]	n/a	catFR1	0	R1414E
839.103	1.6	1244360	WORD	n/a	wordpools/wordpool_categorized_EN.txt	PINE	Trees	12	5	[0, 0, 0]	n/a	catFR1	0	R1414E
840.703	0.0	1245950	WORD_OFF	n/a	n/a	PINE	Trees	12	5	[0, 0, 0]	n/a	catFR1	0	R1414E
840.703	0.002	1245957	PROB	3.283	n/a	n/a	n/a	-999	5	[8, 5, 5]	18.0	catFR1	0	R1414E
840.705	0.0	1245959	START	n/a	n/a	n/a	n/a	-999	5	[-999, -999, -999]	n/a	catFR1	0	R1414E
840.705	0.0	1245966	ENCODING_END	n/a	n/a	n/a	n/a	-999	5	[0, 0, 0]	n/a	catFR1	0	R1414E
840.705	3.298	1245966	DISTRACT_START	n/a	n/a	n/a	n/a	-999	5	[0, 0, 0]	n/a	catFR1	0	R1414E
844.003	2.6	1249257	PROB	2.583	n/a	n/a	n/a	-999	5	[2, 3, 7]	12.0	catFR1	0	R1414E
846.603	2.783	1251857	PROB	2.767	n/a	n/a	n/a	-999	5	[5, 8, 6]	19.0	catFR1	0	R1414E
849.386	2.517	1254640	PROB	2.499	n/a	n/a	n/a	-999	5	[7, 5, 2]	14.0	catFR1	0	R1414E
851.903	2.9	1257157	PROB	2.883	n/a	n/a	n/a	-999	5	[2, 7, 6]	15.0	catFR1	0	R1414E
854.803	2.95	1260057	PROB	2.933	n/a	n/a	n/a	-999	5	[4, 3, 1]	8.0	catFR1	0	R1414E
857.753	3.083	1263007	PROB	3.066	n/a	n/a	n/a	-999	5	[7, 2, 1]	10.0	catFR1	0	R1414E
860.836	0.0	1266089	DISTRACT_END	n/a	n/a	n/a	n/a	-999	5	[0, 0, 0]	n/a	catFR1	0	R1414E
860.836	2.016	1266090	STOP	n/a	n/a	n/a	n/a	-999	5	[-999, -999, -999]	n/a	catFR1	0	R1414E
862.852	0.373	1268113	REC_START	n/a	n/a	n/a	n/a	-999	5	[0, 0, 0]	n/a	catFR1	0	R1414E
863.225	0.592	1268479	REC_WORD	0.373	n/a	WILLOW	Trees	1	5	[0, 0, 0]	n/a	catFR1	0	R1414E
863.817	0.859	1269071	REC_WORD	0.965	n/a	MAPLE	Trees	2	5	[0, 0, 0]	n/a	catFR1	0	R1414E
864.676	0.731	1269930	REC_WORD	1.824	n/a	CEDAR	Trees	11	5	[0, 0, 0]	n/a	catFR1	0	R1414E
865.407	1.252	1270661	REC_WORD	2.555	n/a	PINE	Trees	12	5	[0, 0, 0]	n/a	catFR1	0	R1414E
866.659	1.027	1271913	REC_WORD	3.807	n/a	BINDER	OfficeSupplies	8	5	[0, 0, 0]	n/a	catFR1	0	R1414E
867.686	0.592	1272940	REC_WORD	4.834	n/a	PENCIL	OfficeSupplies	3	5	[0, 0, 0]	n/a	catFR1	0	R1414E
868.278	5.32	1273532	REC_WORD	5.426	n/a	GLUE	OfficeSupplies	4	5	[0, 0, 0]	n/a	catFR1	0	R1414E
873.598	9.116	1278852	REC_WORD	10.746	n/a	SPARROW	Birds	5	5	[0, 0, 0]	n/a	catFR1	0	R1414E
882.714	1.311	1287968	REC_WORD_VV	19.862	n/a	<>	n/a	-999	5	[0, 0, 0]	n/a	catFR1	0	R1414E
884.025	9.082	1289279	REC_WORD	21.173	n/a	FINCH	Birds	9	5	[0, 0, 0]	n/a	catFR1	0	R1414E
893.107	1.361	1298369	REC_END	n/a	n/a	n/a	n/a	-999	5	[0, 0, 0]	n/a	catFR1	0	R1414E
894.468	10.0	1299723	COUNTDOWN_START	n/a	n/a	n/a	n/a	-999	6	[0, 0, 0]	n/a	catFR1	0	R1414E
904.818	0.001	1310068	COUNTDOWN_END	n/a	n/a	n/a	n/a	-999	6	[0, 0, 0]	n/a	catFR1	0	R1414E
904.819	2.249	1310068	ENCODING_START	n/a	n/a	n/a	n/a	-999	6	[0, 0, 0]	n/a	catFR1	0	R1414E
907.068	1.6	1312320	WORD	n/a	wordpools/wordpool_categorized_EN.txt	GUITAR	Instruments	1	6	[0, 0, 0]	n/a	catFR1	0	R1414E
908.684	0.934	1313942	WORD_OFF	n/a	n/a	GUITAR	Instruments	1	6	[0, 0, 0]	n/a	catFR1	0	R1414E
909.618	1.6	1314871	WORD	n/a	wordpools/wordpool_categorized_EN.txt	DRUM	Instruments	2	6	[0, 0, 0]	n/a	catFR1	0	R1414E
911.218	0.816	1316477	WORD_OFF	n/a	n/a	DRUM	Instruments	2	6	[0, 0, 0]	n/a	catFR1	0	R1414E
912.034	1.6	1317295	WORD	n/a	wordpools/wordpool_categorized_EN.txt	SKIRT	Clothing	3	6	[0, 0, 0]	n/a	catFR1	0	R1414E
913.651	0.9	1318902	WORD_OFF	n/a	n/a	SKIRT	Clothing	3	6	[0, 0, 0]	n/a	catFR1	0	R1414E
914.551	1.6	1319799	WORD	n/a	wordpools/wordpool_categorized_EN.txt	DRESS	Clothing	4	6	[0, 0, 0]	n/a	catFR1	0	R1414E
916.151	0.849	1321409	WORD_OFF	n/a	n/a	DRESS	Clothing	4	6	[0, 0, 0]	n/a	catFR1	0	R1414E
917.0	1.6	1322255	WORD	n/a	wordpools/wordpool_categorized_EN.txt	HAWK	Birds	5	6	[0, 0, 0]	n/a	catFR1	0	R1414E
918.601	0.949	1323861	WORD_OFF	n/a	n/a	HAWK	Birds	5	6	[0, 0, 0]	n/a	catFR1	0	R1414E
919.55	1.6	1324806	WORD	n/a	wordpools/wordpool_categorized_EN.txt	PIGEON	Birds	6	6	[0, 0, 0]	n/a	catFR1	0	R1414E
921.15	0.967	1326412	WORD_OFF	n/a	n/a	PIGEON	Birds	6	6	[0, 0, 0]	n/a	catFR1	0	R1414E
922.117	1.6	1327373	WORD	n/a	wordpools/wordpool_categorized_EN.txt	SHORTS	Clothing	7	6	[0, 0, 0]	n/a	catFR1	0	R1414E
923.733	0.884	1328979	WORD_OFF	n/a	n/a	SHORTS	Clothing	7	6	[0, 0, 0]	n/a	catFR1	0	R1414E
924.617	1.6	1329876	WORD	n/a	wordpools/wordpool_categorized_EN.txt	SOCKS	Clothing	8	6	[0, 0, 0]	n/a	catFR1	0	R1414E
926.217	0.933	1331467	WORD_OFF	n/a	n/a	SOCKS	Clothing	8	6	[0, 0, 0]	n/a	catFR1	0	R1414E
927.15	1.6	1332396	WORD	n/a	wordpools/wordpool_categorized_EN.txt	ORGAN	Instruments	9	6	[0, 0, 0]	n/a	catFR1	0	R1414E
928.75	0.766	1334002	WORD_OFF	n/a	n/a	ORGAN	Instruments	9	6	[0, 0, 0]	n/a	catFR1	0	R1414E
929.516	1.6	1334773	WORD	n/a	wordpools/wordpool_categorized_EN.txt	BANJO	Instruments	10	6	[0, 0, 0]	n/a	catFR1	0	R1414E
931.117	0.832	1336364	WORD_OFF	n/a	n/a	BANJO	Instruments	10	6	[0, 0, 0]	n/a	catFR1	0	R1414E
931.949	1.6	1337198	WORD	n/a	wordpools/wordpool_categorized_EN.txt	CROW	Birds	11	6	[0, 0, 0]	n/a	catFR1	0	R1414E
933.55	0.832	1338804	WORD_OFF	n/a	n/a	CROW	Birds	11	6	[0, 0, 0]	n/a	catFR1	0	R1414E
934.382	1.6	1339639	WORD	n/a	wordpools/wordpool_categorized_EN.txt	SEAGULL	Birds	12	6	[0, 0, 0]	n/a	catFR1	0	R1414E
935.984	0.0	1341238	START	n/a	n/a	n/a	n/a	-999	6	[-999, -999, -999]	n/a	catFR1	0	R1414E
935.984	0.0	1341238	PROB	4.932	n/a	n/a	n/a	-999	6	[6, 5, 6]	17.0	catFR1	0	R1414E
935.983	0.001	1341245	WORD_OFF	n/a	n/a	SEAGULL	Birds	12	6	[0, 0, 0]	n/a	catFR1	0	R1414E
935.984	0.0	1341245	ENCODING_END	n/a	n/a	n/a	n/a	-999	6	[0, 0, 0]	n/a	catFR1	0	R1414E
935.984	4.951	1341245	DISTRACT_START	n/a	n/a	n/a	n/a	-999	6	[0, 0, 0]	n/a	catFR1	0	R1414E
940.935	2.665	1346189	PROB	2.65	n/a	n/a	n/a	-999	6	[2, 2, 1]	5.0	catFR1	0	R1414E
943.6	4.2	1348854	PROB	4.183	n/a	n/a	n/a	-999	6	[1, 8, 8]	17.0	catFR1	0	R1414E
947.8	4.267	1353054	PROB	4.25	n/a	n/a	n/a	-999	6	[5, 7, 5]	17.0	catFR1	0	R1414E
952.067	4.282	1357321	PROB	4.266	n/a	n/a	n/a	-999	6	[5, 8, 7]	20.0	catFR1	0	R1414E
956.349	0.0	1361603	STOP	n/a	n/a	n/a	n/a	-999	6	[-999, -999, -999]	n/a	catFR1	0	R1414E
956.349	2.167	1361605	DISTRACT_END	n/a	n/a	n/a	n/a	-999	6	[0, 0, 0]	n/a	catFR1	0	R1414E
958.516	1.178	1363770	REC_START	n/a	n/a	n/a	n/a	-999	6	[0, 0, 0]	n/a	catFR1	0	R1414E
959.694	1.056	1364948	REC_WORD	1.178	n/a	DRUM	Instruments	2	6	[0, 0, 0]	n/a	catFR1	0	R1414E
960.75	1.294	1366004	REC_WORD	2.234	n/a	GUITAR	Instruments	1	6	[0, 0, 0]	n/a	catFR1	0	R1414E
962.044	1.182	1367298	REC_WORD	3.528	n/a	SKIRT	Clothing	3	6	[0, 0, 0]	n/a	catFR1	0	R1414E
963.226	1.672	1368480	REC_WORD	4.71	n/a	SHIRT	n/a	-999	6	[0, 0, 0]	n/a	catFR1	0	R1414E
964.898	2.793	1370152	REC_WORD	6.382	n/a	DRESS	Clothing	4	6	[0, 0, 0]	n/a	catFR1	0	R1414E
967.691	4.106	1372945	REC_WORD	9.175	n/a	ORGAN	Instruments	9	6	[0, 0, 0]	n/a	catFR1	0	R1414E
971.797	14.207	1377051	REC_WORD_VV	13.281	n/a	<>	n/a	-999	6	[0, 0, 0]	n/a	catFR1	0	R1414E
986.004	1.0	1391258	REC_WORD	27.488	n/a	SPARROW	Birds	-999	6	[0, 0, 0]	n/a	catFR1	0	R1414E
987.004	1.777	1392258	REC_WORD_VV	28.488	n/a	<>	n/a	-999	6	[0, 0, 0]	n/a	catFR1	0	R1414E
988.781	1.266	1394041	REC_END	n/a	n/a	n/a	n/a	-999	6	[0, 0, 0]	n/a	catFR1	0	R1414E
990.047	10.0	1395301	COUNTDOWN_START	n/a	n/a	n/a	n/a	-999	7	[0, 0, 0]	n/a	catFR1	0	R1414E
1000.399	0.0	1405646	COUNTDOWN_END	n/a	n/a	n/a	n/a	-999	7	[0, 0, 0]	n/a	catFR1	0	R1414E
1000.399	2.215	1405662	ENCODING_START	n/a	n/a	n/a	n/a	-999	7	[0, 0, 0]	n/a	catFR1	0	R1414E
1002.614	1.6	1407866	WORD	n/a	wordpools/wordpool_categorized_EN.txt	SPATULA	KitchenTools	1	7	[0, 0, 0]	n/a	catFR1	0	R1414E
1004.231	0.867	1409488	WORD_OFF	n/a	n/a	SPATULA	KitchenTools	1	7	[0, 0, 0]	n/a	catFR1	0	R1414E
1005.098	1.6	1410354	WORD	n/a	wordpools/wordpool_categorized_EN.txt	TONGS	KitchenTools	2	7	[0, 0, 0]	n/a	catFR1	0	R1414E
1006.697	0.817	1411945	WORD_OFF	n/a	n/a	TONGS	KitchenTools	2	7	[0, 0, 0]	n/a	catFR1	0	R1414E
1007.514	1.6	1412764	WORD	n/a	wordpools/wordpool_categorized_EN.txt	MILK	Beverages	3	7	[0, 0, 0]	n/a	catFR1	0	R1414E
1009.131	0.983	1414385	WORD_OFF	n/a	n/a	MILK	Beverages	3	7	[0, 0, 0]	n/a	catFR1	0	R1414E
1010.114	1.6	1415362	WORD	n/a	wordpools/wordpool_categorized_EN.txt	CIDER	Beverages	4	7	[0, 0, 0]	n/a	catFR1	0	R1414E
1011.731	0.933	1416983	WORD_OFF	n/a	n/a	CIDER	Beverages	4	7	[0, 0, 0]	n/a	catFR1	0	R1414E
1012.664	1.6	1417912	WORD	n/a	wordpools/wordpool_categorized_EN.txt	HAND	BodyParts	5	7	[0, 0, 0]	n/a	catFR1	0	R1414E
1014.28	0.934	1419534	WORD_OFF	n/a	n/a	HAND	BodyParts	5	7	[0, 0, 0]	n/a	catFR1	0	R1414E
1015.214	1.6	1420463	WORD	n/a	wordpools/wordpool_categorized_EN.txt	NOSE	BodyParts	6	7	[0, 0, 0]	n/a	catFR1	0	R1414E
1016.814	0.816	1422069	WORD_OFF	n/a	n/a	NOSE	BodyParts	6	7	[0, 0, 0]	n/a	catFR1	0	R1414E
1017.63	1.6	1422888	WORD	n/a	wordpools/wordpool_categorized_EN.txt	GRATER	KitchenTools	7	7	[0, 0, 0]	n/a	catFR1	0	R1414E
1019.231	0.999	1424479	WORD_OFF	n/a	n/a	GRATER	KitchenTools	7	7	[0, 0, 0]	n/a	catFR1	0	R1414E
1020.23	1.6	1425486	WORD	n/a	wordpools/wordpool_categorized_EN.txt	WHISK	KitchenTools	8	7	[0, 0, 0]	n/a	catFR1	0	R1414E
1021.83	0.9	1427092	WORD_OFF	n/a	n/a	WHISK	KitchenTools	8	7	[0, 0, 0]	n/a	catFR1	0	R1414E
1022.73	1.6	1427990	WORD	n/a	wordpools/wordpool_categorized_EN.txt	ARM	BodyParts	9	7	[0, 0, 0]	n/a	catFR1	0	R1414E
1024.33	1.0	1429580	WORD_OFF	n/a	n/a	ARM	BodyParts	9	7	[0, 0, 0]	n/a	catFR1	0	R1414E
1025.33	1.6	1430588	WORD	n/a	wordpools/wordpool_categorized_EN.txt	HEAD	BodyParts	10	7	[0, 0, 0]	n/a	catFR1	0	R1414E
1026.947	0.85	1432194	WORD_OFF	n/a	n/a	HEAD	BodyParts	10	7	[0, 0, 0]	n/a	catFR1	0	R1414E
1027.797	1.6	1433044	WORD	n/a	wordpools/wordpool_categorized_EN.txt	BEER	Beverages	11	7	[0, 0, 0]	n/a	catFR1	0	R1414E
1029.397	0.883	1434650	WORD_OFF	n/a	n/a	BEER	Beverages	11	7	[0, 0, 0]	n/a	catFR1	0	R1414E
1030.28	1.6	1435532	WORD	n/a	wordpools/wordpool_categorized_EN.txt	JUICE	Beverages	12	7	[0, 0, 0]	n/a	catFR1	0	R1414E
1031.896	0.002	1437150	PROB	2.867	n/a	n/a	n/a	-999	7	[8, 2, 4]	14.0	catFR1	0	R1414E
1031.898	0.0	1437152	START	n/a	n/a	n/a	n/a	-999	7	[-999, -999, -999]	n/a	catFR1	0	R1414E
1031.896	0.002	1437154	WORD_OFF	n/a	n/a	JUICE	Beverages	12	7	[0, 0, 0]	n/a	catFR1	0	R1414E
1031.898	0.0	1437154	ENCODING_END	n/a	n/a	n/a	n/a	-999	7	[0, 0, 0]	n/a	catFR1	0	R1414E
1031.898	2.881	1437154	DISTRACT_START	n/a	n/a	n/a	n/a	-999	7	[0, 0, 0]	n/a	catFR1	0	R1414E
1034.779	4.72	1440033	PROB	4.7	n/a	n/a	n/a	-999	7	[3, 8, 4]	15.0	catFR1	0	R1414E
1039.499	5.431	1444753	PROB	5.416	n/a	n/a	n/a	-999	7	[7, 8, 8]	23.0	catFR1	0	R1414E
1044.93	2.933	1450184	PROB	2.916	n/a	n/a	n/a	-999	7	[5, 4, 8]	17.0	catFR1	0	R1414E
1047.863	2.8	1453117	PROB	2.783	n/a	n/a	n/a	-999	7	[1, 7, 6]	14.0	catFR1	0	R1414E
1050.663	5.033	1455917	PROB	5.016	n/a	n/a	n/a	-999	7	[1, 8, 5]	14.0	catFR1	0	R1414E
1055.696	0.0	1460946	DISTRACT_END	n/a	n/a	n/a	n/a	-999	7	[0, 0, 0]	n/a	catFR1	0	R1414E
1055.696	2.217	1460950	STOP	n/a	n/a	n/a	n/a	-999	7	[-999, -999, -999]	n/a	catFR1	0	R1414E
1057.913	1.114	1463174	REC_START	n/a	n/a	n/a	n/a	-999	7	[0, 0, 0]	n/a	catFR1	0	R1414E
1059.027	0.4	1464281	REC_WORD	1.114	n/a	BEER	Beverages	11	7	[0, 0, 0]	n/a	catFR1	0	R1414E
1059.427	0.573	1464681	REC_WORD	1.514	n/a	WINE	Beverages	-999	7	[0, 0, 0]	n/a	catFR1	0	R1414E
1060.0	1.0	1465254	REC_WORD	2.087	n/a	SPATULA	KitchenTools	1	7	[0, 0, 0]	n/a	catFR1	0	R1414E
1061.0	1.145	1466254	REC_WORD_VV	3.087	n/a	<>	n/a	-999	7	[0, 0, 0]	n/a	catFR1	0	R1414E
1062.145	1.336	1467399	REC_WORD	4.232	n/a	GRINDER	n/a	-999	7	[0, 0, 0]	n/a	catFR1	0	R1414E
1063.481	1.61	1468735	REC_WORD	5.568	n/a	TONGS	KitchenTools	2	7	[0, 0, 0]	n/a	catFR1	0	R1414E
1065.091	0.445	1470345	REC_WORD	7.178	n/a	HEAD	BodyParts	10	7	[0, 0, 0]	n/a	catFR1	0	R1414E
1065.536	3.716	1470790	REC_WORD	7.623	n/a	NOSE	BodyParts	6	7	[0, 0, 0]	n/a	catFR1	0	R1414E
1069.252	6.002	1474506	REC_WORD	11.339	n/a	JUICE	Beverages	12	7	[0, 0, 0]	n/a	catFR1	0	R1414E
1075.254	12.907	1480508	REC_WORD_VV	17.341	n/a	<>	n/a	-999	7	[0, 0, 0]	n/a	catFR1	0	R1414E
1088.161	1.351	1493415	REC_END	n/a	n/a	n/a	n/a	-999	7	[0, 0, 0]	n/a	catFR1	0	R1414E
1089.512	10.0	1494769	COUNTDOWN_START	n/a	n/a	n/a	n/a	-999	8	[0, 0, 0]	n/a	catFR1	0	R1414E
1099.861	0.0	1505114	COUNTDOWN_END	n/a	n/a	n/a	n/a	-999	8	[0, 0, 0]	n/a	catFR1	0	R1414E
1099.861	2.183	1505114	ENCODING_START	n/a	n/a	n/a	n/a	-999	8	[0, 0, 0]	n/a	catFR1	0	R1414E
1102.044	1.6	1507303	WORD	n/a	wordpools/wordpool_categorized_EN.txt	RULER	OfficeSupplies	1	8	[0, 0, 0]	n/a	catFR1	0	R1414E
1103.661	0.816	1508909	WORD_OFF	n/a	n/a	RULER	OfficeSupplies	1	8	[0, 0, 0]	n/a	catFR1	0	R1414E
1104.477	1.6	1509727	WORD	n/a	wordpools/wordpool_categorized_EN.txt	STAPLER	OfficeSupplies	2	8	[0, 0, 0]	n/a	catFR1	0	R1414E
1106.094	0.85	1511349	WORD_OFF	n/a	n/a	STAPLER	OfficeSupplies	2	8	[0, 0, 0]	n/a	catFR1	0	R1414E
1106.944	1.6	1512200	WORD	n/a	wordpools/wordpool_categorized_EN.txt	PLANKTON	OceanAnimals	3	8	[0, 0, 0]	n/a	catFR1	0	R1414E
1108.544	0.95	1513790	WORD_OFF	n/a	n/a	PLANKTON	OceanAnimals	3	8	[0, 0, 0]	n/a	catFR1	0	R1414E
1109.494	1.6	1514750	WORD	n/a	wordpools/wordpool_categorized_EN.txt	DOLPHIN	OceanAnimals	4	8	[0, 0, 0]	n/a	catFR1	0	R1414E
1111.11	0.784	1516372	WORD_OFF	n/a	n/a	DOLPHIN	OceanAnimals	4	8	[0, 0, 0]	n/a	catFR1	0	R1414E
1111.894	1.6	1517144	WORD	n/a	wordpools/wordpool_categorized_EN.txt	COMPUTER	Electronics	5	8	[0, 0, 0]	n/a	catFR1	0	R1414E
1113.51	0.833	1518766	WORD_OFF	n/a	n/a	COMPUTER	Electronics	5	8	[0, 0, 0]	n/a	catFR1	0	R1414E
1114.343	1.6	1519600	WORD	n/a	wordpools/wordpool_categorized_EN.txt	TABLET	Electronics	6	8	[0, 0, 0]	n/a	catFR1	0	R1414E
1115.943	1.0	1521191	WORD_OFF	n/a	n/a	TABLET	Electronics	6	8	[0, 0, 0]	n/a	catFR1	0	R1414E
1116.943	1.6	1522198	WORD	n/a	wordpools/wordpool_categorized_EN.txt	LOBSTER	OceanAnimals	7	8	[0, 0, 0]	n/a	catFR1	0	R1414E
1118.56	0.816	1523820	WORD_OFF	n/a	n/a	LOBSTER	OceanAnimals	7	8	[0, 0, 0]	n/a	catFR1	0	R1414E
1119.376	1.6	1524623	WORD	n/a	wordpools/wordpool_categorized_EN.txt	OYSTER	OceanAnimals	8	8	[0, 0, 0]	n/a	catFR1	0	R1414E
1120.976	0.934	1526229	WORD_OFF	n/a	n/a	OYSTER	OceanAnimals	8	8	[0, 0, 0]	n/a	catFR1	0	R1414E
1121.91	1.6	1527158	WORD	n/a	wordpools/wordpool_categorized_EN.txt	SCANNER	Electronics	9	8	[0, 0, 0]	n/a	catFR1	0	R1414E
1123.526	0.817	1528780	WORD_OFF	n/a	n/a	SCANNER	Electronics	9	8	[0, 0, 0]	n/a	catFR1	0	R1414E
1124.343	1.6	1529599	WORD	n/a	wordpools/wordpool_categorized_EN.txt	PHONE	Electronics	10	8	[0, 0, 0]	n/a	catFR1	0	R1414E
1125.959	0.934	1531221	WORD_OFF	n/a	n/a	PHONE	Electronics	10	8	[0, 0, 0]	n/a	catFR1	0	R1414E
1126.893	1.6	1532150	WORD	n/a	wordpools/wordpool_categorized_EN.txt	ERASER	OfficeSupplies	11	8	[0, 0, 0]	n/a	catFR1	0	R1414E
1128.509	0.933	1533756	WORD_OFF	n/a	n/a	ERASER	OfficeSupplies	11	8	[0, 0, 0]	n/a	catFR1	0	R1414E
1129.442	1.6	1534701	WORD	n/a	wordpools/wordpool_categorized_EN.txt	MARKER	OfficeSupplies	12	8	[0, 0, 0]	n/a	catFR1	0	R1414E
1131.042	0.002	1536291	WORD_OFF	n/a	n/a	MARKER	OfficeSupplies	12	8	[0, 0, 0]	n/a	catFR1	0	R1414E
1131.044	0.0	1536291	ENCODING_END	n/a	n/a	n/a	n/a	-999	8	[0, 0, 0]	n/a	catFR1	0	R1414E
1131.043	0.001	1536297	PROB	3.283	n/a	n/a	n/a	-999	8	[8, 4, 6]	18.0	catFR1	0	R1414E
1131.044	0.0	1536298	START	n/a	n/a	n/a	n/a	-999	8	[-999, -999, -999]	n/a	catFR1	0	R1414E
1131.044	3.298	1536307	DISTRACT_START	n/a	n/a	n/a	n/a	-999	8	[0, 0, 0]	n/a	catFR1	0	R1414E
1134.342	3.134	1539596	PROB	3.117	n/a	n/a	n/a	-999	8	[1, 8, 6]	15.0	catFR1	0	R1414E
1137.476	2.9	1542730	PROB	2.883	n/a	n/a	n/a	-999	8	[8, 1, 5]	14.0	catFR1	0	R1414E
1140.376	2.75	1545630	PROB	2.733	n/a	n/a	n/a	-999	8	[7, 8, 4]	19.0	catFR1	0	R1414E
1143.126	2.467	1548380	PROB	2.45	n/a	n/a	n/a	-999	8	[5, 2, 2]	9.0	catFR1	0	R1414E
1145.593	1.967	1550847	PROB	1.949	n/a	n/a	n/a	-999	8	[1, 4, 6]	11.0	catFR1	0	R1414E
1147.56	2.283	1552814	PROB	2.266	n/a	n/a	n/a	-999	8	[5, 2, 1]	8.0	catFR1	0	R1414E
1149.843	3.466	1555097	PROB	3.45	n/a	n/a	n/a	-999	8	[6, 3, 4]	13.0	catFR1	0	R1414E
1153.309	0.0	1558563	STOP	n/a	n/a	n/a	n/a	-999	8	[-999, -999, -999]	n/a	catFR1	0	R1414E
1153.309	2.283	1558572	DISTRACT_END	n/a	n/a	n/a	n/a	-999	8	[0, 0, 0]	n/a	catFR1	0	R1414E
1155.592	0.854	1560847	REC_START	n/a	n/a	n/a	n/a	-999	8	[0, 0, 0]	n/a	catFR1	0	R1414E
1156.446	2.509	1561700	REC_WORD	0.854	n/a	RULER	OfficeSupplies	1	8	[0, 0, 0]	n/a	catFR1	0	R1414E
1158.955	3.178	1564209	REC_WORD_VV	3.363	n/a	<>	n/a	-999	8	[0, 0, 0]	n/a	catFR1	0	R1414E
1162.133	0.947	1567387	REC_WORD	6.541	n/a	PLANKTON	OceanAnimals	3	8	[0, 0, 0]	n/a	catFR1	0	R1414E
1163.08	3.216	1568334	REC_WORD	7.488	n/a	DOLPHIN	OceanAnimals	4	8	[0, 0, 0]	n/a	catFR1	0	R1414E
1166.296	0.977	1571550	REC_WORD	10.704	n/a	COMPUTER	Electronics	5	8	[0, 0, 0]	n/a	catFR1	0	R1414E
1167.273	11.572	1572527	REC_WORD	11.681	n/a	TABLET	Electronics	6	8	[0, 0, 0]	n/a	catFR1	0	R1414E
1178.845	2.159	1584099	REC_WORD_VV	23.253	n/a	<>	n/a	-999	8	[0, 0, 0]	n/a	catFR1	0	R1414E
1181.004	1.0	1586258	REC_WORD	25.412	n/a	SCISSORS	n/a	-999	8	[0, 0, 0]	n/a	catFR1	0	R1414E
1182.004	3.853	1587258	REC_WORD_VV	26.412	n/a	<>	n/a	-999	8	[0, 0, 0]	n/a	catFR1	0	R1414E
1185.857	1.584	1591119	REC_END	n/a	n/a	n/a	n/a	-999	8	[0, 0, 0]	n/a	catFR1	0	R1414E
1187.441	10.0	1592693	COUNTDOWN_START	n/a	n/a	n/a	n/a	-999	9	[0, 0, 0]	n/a	catFR1	0	R1414E
1187.458	0.0	1592709	COUNTDOWN_END	n/a	n/a	n/a	n/a	-999	9	[0, 0, 0]	n/a	catFR1	0	R1414E
1187.458	2.149	1592709	ENCODING_START	n/a	n/a	n/a	n/a	-999	9	[0, 0, 0]	n/a	catFR1	0	R1414E
1189.607	1.6	1594866	WORD	n/a	wordpools/wordpool_categorized_EN.txt	LEMONADE	Beverages	1	9	[0, 0, 0]	n/a	catFR1	0	R1414E
1191.208	0.95	1596457	WORD_OFF	n/a	n/a	LEMONADE	Beverages	1	9	[0, 0, 0]	n/a	catFR1	0	R1414E
1192.158	1.6	1597417	WORD	n/a	wordpools/wordpool_categorized_EN.txt	RUM	Beverages	2	9	[0, 0, 0]	n/a	catFR1	0	R1414E
1193.775	0.799	1599023	WORD_OFF	n/a	n/a	RUM	Beverages	2	9	[0, 0, 0]	n/a	catFR1	0	R1414E
1194.574	1.6	1599826	WORD	n/a	wordpools/wordpool_categorized_EN.txt	STAIRS	Building	3	9	[0, 0, 0]	n/a	catFR1	0	R1414E
1196.174	0.8	1601432	WORD_OFF	n/a	n/a	STAIRS	Building	3	9	[0, 0, 0]	n/a	catFR1	0	R1414E
1196.974	1.6	1602235	WORD	n/a	wordpools/wordpool_categorized_EN.txt	FLOOR	Building	4	9	[0, 0, 0]	n/a	catFR1	0	R1414E
1198.574	0.967	1603826	WORD_OFF	n/a	n/a	FLOOR	Building	4	9	[0, 0, 0]	n/a	catFR1	0	R1414E
1199.541	1.6	1604802	WORD	n/a	wordpools/wordpool_categorized_EN.txt	CHICKEN	FarmAnimals	5	9	[0, 0, 0]	n/a	catFR1	0	R1414E
1201.141	0.9	1606392	WORD_OFF	n/a	n/a	CHICKEN	FarmAnimals	5	9	[0, 0, 0]	n/a	catFR1	0	R1414E
1202.041	1.6	1607290	WORD	n/a	wordpools/wordpool_categorized_EN.txt	LAMB	FarmAnimals	6	9	[0, 0, 0]	n/a	catFR1	0	R1414E
1203.657	0.9	1608912	WORD_OFF	n/a	n/a	LAMB	FarmAnimals	6	9	[0, 0, 0]	n/a	catFR1	0	R1414E
1204.557	1.6	1609809	WORD	n/a	wordpools/wordpool_categorized_EN.txt	BATHROOM	Building	7	9	[0, 0, 0]	n/a	catFR1	0	R1414E
1206.174	0.783	1611431	WORD_OFF	n/a	n/a	BATHROOM	Building	7	9	[0, 0, 0]	n/a	catFR1	0	R1414E
1206.957	1.6	1612218	WORD	n/a	wordpools/wordpool_categorized_EN.txt	WINDOW	Building	8	9	[0, 0, 0]	n/a	catFR1	0	R1414E
1208.573	1.001	1613824	WORD_OFF	n/a	n/a	WINDOW	Building	8	9	[0, 0, 0]	n/a	catFR1	0	R1414E
1209.574	1.6	1614832	WORD	n/a	wordpools/wordpool_categorized_EN.txt	COFFEE	Beverages	9	9	[0, 0, 0]	n/a	catFR1	0	R1414E
1211.19	0.984	1616438	WORD_OFF	n/a	n/a	COFFEE	Beverages	9	9	[0, 0, 0]	n/a	catFR1	0	R1414E
1212.174	1.6	1617430	WORD	n/a	wordpools/wordpool_categorized_EN.txt	TEA	Beverages	10	9	[0, 0, 0]	n/a	catFR1	0	R1414E
1213.774	0.849	1619021	WORD_OFF	n/a	n/a	TEA	Beverages	10	9	[0, 0, 0]	n/a	catFR1	0	R1414E
1214.623	1.6	1619871	WORD	n/a	wordpools/wordpool_categorized_EN.txt	PIG	FarmAnimals	11	9	[0, 0, 0]	n/a	catFR1	0	R1414E
1216.223	0.867	1621477	WORD_OFF	n/a	n/a	PIG	FarmAnimals	11	9	[0, 0, 0]	n/a	catFR1	0	R1414E
1217.09	1.6	1622343	WORD	n/a	wordpools/wordpool_categorized_EN.txt	ROOSTER	FarmAnimals	12	9	[0, 0, 0]	n/a	catFR1	0	R1414E
1218.707	0.001	1623961	PROB	2.932	n/a	n/a	n/a	-999	9	[6, 5, 5]	16.0	catFR1	0	R1414E
1218.708	0.0	1623962	START	n/a	n/a	n/a	n/a	-999	9	[-999, -999, -999]	n/a	catFR1	0	R1414E
1218.707	0.001	1623965	WORD_OFF	n/a	n/a	ROOSTER	FarmAnimals	12	9	[0, 0, 0]	n/a	catFR1	0	R1414E
1218.708	0.0	1623965	ENCODING_END	n/a	n/a	n/a	n/a	-999	9	[0, 0, 0]	n/a	catFR1	0	R1414E
1218.708	2.949	1623965	DISTRACT_START	n/a	n/a	n/a	n/a	-999	9	[0, 0, 0]	n/a	catFR1	0	R1414E
1221.657	2.632	1626911	PROB	2.616	n/a	n/a	n/a	-999	9	[8, 6, 1]	15.0	catFR1	0	R1414E
1224.289	2.851	1629543	PROB	2.833	n/a	n/a	n/a	-999	9	[5, 8, 8]	21.0	catFR1	0	R1414E
1227.14	3.117	1632394	PROB	3.099	n/a	n/a	n/a	-999	9	[6, 6, 3]	15.0	catFR1	0	R1414E
1230.257	2.148	1635511	PROB	2.132	n/a	n/a	n/a	-999	9	[2, 4, 3]	9.0	catFR1	0	R1414E
1232.405	2.018	1637659	PROB	2.0	n/a	n/a	n/a	-999	9	[8, 1, 2]	11.0	catFR1	0	R1414E
1234.423	3.066	1639677	PROB	3.05	n/a	n/a	n/a	-999	9	[5, 4, 5]	14.0	catFR1	0	R1414E
1237.489	2.134	1642743	PROB	2.116	n/a	n/a	n/a	-999	9	[1, 1, 7]	9.0	catFR1	0	R1414E
1239.623	0.0	1644876	DISTRACT_END	n/a	n/a	n/a	n/a	-999	9	[0, 0, 0]	n/a	catFR1	0	R1414E
1239.623	2.333	1644877	STOP	n/a	n/a	n/a	n/a	-999	9	[-999, -999, -999]	n/a	catFR1	0	R1414E
1241.956	0.51	1647214	REC_START	n/a	n/a	n/a	n/a	-999	9	[0, 0, 0]	n/a	catFR1	0	R1414E
1242.466	0.949	1647720	REC_WORD	0.51	n/a	ROOSTER	FarmAnimals	12	9	[0, 0, 0]	n/a	catFR1	0	R1414E
1243.415	1.246	1648669	REC_WORD	1.459	n/a	COFFEE	Beverages	9	9	[0, 0, 0]	n/a	catFR1	0	R1414E
1244.661	0.392	1649915	REC_WORD	2.705	n/a	TEA	Beverages	10	9	[0, 0, 0]	n/a	catFR1	0	R1414E
1245.053	1.035	1650307	REC_WORD	3.097	n/a	LEMONADE	Beverages	1	9	[0, 0, 0]	n/a	catFR1	0	R1414E
1246.088	2.526	1651342	REC_WORD	4.132	n/a	RUM	Beverages	2	9	[0, 0, 0]	n/a	catFR1	0	R1414E
1248.614	23.615	1653868	REC_WORD	6.658	n/a	PIG	FarmAnimals	11	9	[0, 0, 0]	n/a	catFR1	0	R1414E
1272.229	1.575	1677486	REC_END	n/a	n/a	n/a	n/a	-999	9	[0, 0, 0]	n/a	catFR1	0	R1414E
1273.804	10.0	1679060	COUNTDOWN_START	n/a	n/a	n/a	n/a	-999	10	[0, 0, 0]	n/a	catFR1	0	R1414E
1284.155	0.001	1689405	COUNTDOWN_END	n/a	n/a	n/a	n/a	-999	10	[0, 0, 0]	n/a	catFR1	0	R1414E
1284.156	2.249	1689405	ENCODING_START	n/a	n/a	n/a	n/a	-999	10	[0, 0, 0]	n/a	catFR1	0	R1414E
1286.405	1.6	1691657	WORD	n/a	wordpools/wordpool_categorized_EN.txt	NOTEBOOK	OfficeSupplies	1	10	[0, 0, 0]	n/a	catFR1	0	R1414E
1288.021	0.817	1693279	WORD_OFF	n/a	n/a	NOTEBOOK	OfficeSupplies	1	10	[0, 0, 0]	n/a	catFR1	0	R1414E
1288.838	1.6	1694098	WORD	n/a	wordpools/wordpool_categorized_EN.txt	PAPER	OfficeSupplies	2	10	[0, 0, 0]	n/a	catFR1	0	R1414E
1290.455	0.916	1695704	WORD_OFF	n/a	n/a	PAPER	OfficeSupplies	2	10	[0, 0, 0]	n/a	catFR1	0	R1414E
1291.371	1.6	1696633	WORD	n/a	wordpools/wordpool_categorized_EN.txt	DAFFODIL	Flowers	3	10	[0, 0, 0]	n/a	catFR1	0	R1414E
1292.987	0.901	1698239	WORD_OFF	n/a	n/a	DAFFODIL	Flowers	3	10	[0, 0, 0]	n/a	catFR1	0	R1414E
1293.888	1.6	1699136	WORD	n/a	wordpools/wordpool_categorized_EN.txt	MARIGOLD	Flowers	4	10	[0, 0, 0]	n/a	catFR1	0	R1414E
1295.488	0.883	1700742	WORD_OFF	n/a	n/a	MARIGOLD	Flowers	4	10	[0, 0, 0]	n/a	catFR1	0	R1414E
1296.371	1.6	1701624	WORD	n/a	wordpools/wordpool_categorized_EN.txt	HEADPHONES	Electronics	5	10	[0, 0, 0]	n/a	catFR1	0	R1414E
1297.987	0.95	1703246	WORD_OFF	n/a	n/a	HEADPHONES	Electronics	5	10	[0, 0, 0]	n/a	catFR1	0	R1414E
1298.937	1.6	1704191	WORD	n/a	wordpools/wordpool_categorized_EN.txt	TELEVISION	Electronics	6	10	[0, 0, 0]	n/a	catFR1	0	R1414E
1300.554	0.916	1705813	WORD_OFF	n/a	n/a	TELEVISION	Electronics	6	10	[0, 0, 0]	n/a	catFR1	0	R1414E
1301.47	1.6	1706726	WORD	n/a	wordpools/wordpool_categorized_EN.txt	FOLDER	OfficeSupplies	7	10	[0, 0, 0]	n/a	catFR1	0	R1414E
1303.071	0.866	1708332	WORD_OFF	n/a	n/a	FOLDER	OfficeSupplies	7	10	[0, 0, 0]	n/a	catFR1	0	R1414E
1303.937	1.6	1709198	WORD	n/a	wordpools/wordpool_categorized_EN.txt	PEN	OfficeSupplies	8	10	[0, 0, 0]	n/a	catFR1	0	R1414E
1305.537	0.816	1710788	WORD_OFF	n/a	n/a	PEN	OfficeSupplies	8	10	[0, 0, 0]	n/a	catFR1	0	R1414E
1306.353	1.6	1711607	WORD	n/a	wordpools/wordpool_categorized_EN.txt	SPEAKER	Electronics	9	10	[0, 0, 0]	n/a	catFR1	0	R1414E
1307.954	0.9	1713213	WORD_OFF	n/a	n/a	SPEAKER	Electronics	9	10	[0, 0, 0]	n/a	catFR1	0	R1414E
1308.854	1.6	1714111	WORD	n/a	wordpools/wordpool_categorized_EN.txt	STEREO	Electronics	10	10	[0, 0, 0]	n/a	catFR1	0	R1414E
1310.47	0.85	1715717	WORD_OFF	n/a	n/a	STEREO	Electronics	10	10	[0, 0, 0]	n/a	catFR1	0	R1414E
1311.32	1.6	1716567	WORD	n/a	wordpools/wordpool_categorized_EN.txt	ORCHID	Flowers	11	10	[0, 0, 0]	n/a	catFR1	0	R1414E
1312.936	0.817	1718189	WORD_OFF	n/a	n/a	ORCHID	Flowers	11	10	[0, 0, 0]	n/a	catFR1	0	R1414E
1313.753	1.6	1719008	WORD	n/a	wordpools/wordpool_categorized_EN.txt	LILY	Flowers	12	10	[0, 0, 0]	n/a	catFR1	0	R1414E
1315.353	0.002	1720607	PROB	3.583	n/a	n/a	n/a	-999	10	[6, 3, 7]	16.0	catFR1	0	R1414E
1315.355	0.0	1720609	START	n/a	n/a	n/a	n/a	-999	10	[-999, -999, -999]	n/a	catFR1	0	R1414E
1315.353	0.002	1720614	WORD_OFF	n/a	n/a	LILY	Flowers	12	10	[0, 0, 0]	n/a	catFR1	0	R1414E
1315.355	0.0	1720614	ENCODING_END	n/a	n/a	n/a	n/a	-999	10	[0, 0, 0]	n/a	catFR1	0	R1414E
1315.355	3.598	1720614	DISTRACT_START	n/a	n/a	n/a	n/a	-999	10	[0, 0, 0]	n/a	catFR1	0	R1414E
1318.953	4.584	1724207	PROB	4.566	n/a	n/a	n/a	-999	10	[4, 8, 5]	17.0	catFR1	0	R1414E
1323.537	4.016	1728791	PROB	3.999	n/a	n/a	n/a	-999	10	[4, 2, 5]	11.0	catFR1	0	R1414E
1327.553	2.834	1732807	PROB	2.816	n/a	n/a	n/a	-999	10	[8, 3, 1]	12.0	catFR1	0	R1414E
1330.387	4.249	1735641	PROB	4.232	n/a	n/a	n/a	-999	10	[8, 3, 4]	15.0	catFR1	0	R1414E
1334.636	2.284	1739890	PROB	2.267	n/a	n/a	n/a	-999	10	[2, 4, 2]	8.0	catFR1	0	R1414E
1336.92	0.0	1742170	DISTRACT_END	n/a	n/a	n/a	n/a	-999	10	[0, 0, 0]	n/a	catFR1	0	R1414E
1336.92	2.298	1742174	STOP	n/a	n/a	n/a	n/a	-999	10	[-999, -999, -999]	n/a	catFR1	0	R1414E
1339.218	0.067	1744477	REC_START	n/a	n/a	n/a	n/a	-999	10	[0, 0, 0]	n/a	catFR1	0	R1414E
1339.285	0.734	1744539	REC_WORD	0.067	n/a	DAFFODIL	Flowers	3	10	[0, 0, 0]	n/a	catFR1	0	R1414E
1340.019	1.149	1745273	REC_WORD	0.801	n/a	MARIGOLD	Flowers	4	10	[0, 0, 0]	n/a	catFR1	0	R1414E
1341.168	3.49	1746422	REC_WORD	1.95	n/a	ORCHID	Flowers	11	10	[0, 0, 0]	n/a	catFR1	0	R1414E
1344.658	3.348	1749912	REC_WORD	5.44	n/a	BINDER	OfficeSupplies	-999	10	[0, 0, 0]	n/a	catFR1	0	R1414E
1348.006	0.621	1753260	REC_WORD	8.788	n/a	SPEAKER	Electronics	9	10	[0, 0, 0]	n/a	catFR1	0	R1414E
1348.627	0.778	1753881	REC_WORD	9.409	n/a	SPEAKER	Electronics	9	10	[0, 0, 0]	n/a	catFR1	0	R1414E
1349.405	1.01	1754659	REC_WORD	10.187	n/a	STEREO	Electronics	10	10	[0, 0, 0]	n/a	catFR1	0	R1414E
1350.415	4.571	1755670	REC_WORD	11.197	n/a	TELEVISION	Electronics	6	10	[0, 0, 0]	n/a	catFR1	0	R1414E
1354.986	3.939	1760241	REC_WORD	15.768	n/a	PEN	OfficeSupplies	8	10	[0, 0, 0]	n/a	catFR1	0	R1414E
1358.925	1.527	1764180	REC_WORD_VV	19.707	n/a	<>	n/a	-999	10	[0, 0, 0]	n/a	catFR1	0	R1414E
1360.452	5.151	1765707	REC_WORD	21.234	n/a	PAPER	OfficeSupplies	2	10	[0, 0, 0]	n/a	catFR1	0	R1414E
1365.603	3.866	1770858	REC_WORD	26.385	n/a	GLUE	OfficeSupplies	-999	10	[0, 0, 0]	n/a	catFR1	0	R1414E
1369.469	1.533	1774717	REC_END	n/a	n/a	n/a	n/a	-999	10	[0, 0, 0]	n/a	catFR1	0	R1414E
1371.002	10.0	1776260	COUNTDOWN_START	n/a	n/a	n/a	n/a	-999	11	[0, 0, 0]	n/a	catFR1	0	R1414E
1381.352	0.0	1786605	COUNTDOWN_END	n/a	n/a	n/a	n/a	-999	11	[0, 0, 0]	n/a	catFR1	0	R1414E
1381.352	2.016	1786605	ENCODING_START	n/a	n/a	n/a	n/a	-999	11	[0, 0, 0]	n/a	catFR1	0	R1414E
1383.368	1.6	1788621	WORD	n/a	wordpools/wordpool_categorized_EN.txt	MOTORCYCLE	Vehicles	1	11	[0, 0, 0]	n/a	catFR1	0	R1414E
1384.968	0.849	1790227	WORD_OFF	n/a	n/a	MOTORCYCLE	Vehicles	1	11	[0, 0, 0]	n/a	catFR1	0	R1414E
1385.817	1.6	1791077	WORD	n/a	wordpools/wordpool_categorized_EN.txt	CAR	Vehicles	2	11	[0, 0, 0]	n/a	catFR1	0	R1414E
1387.418	0.95	1792668	WORD_OFF	n/a	n/a	CAR	Vehicles	2	11	[0, 0, 0]	n/a	catFR1	0	R1414E
1388.368	1.6	1793628	WORD	n/a	wordpools/wordpool_categorized_EN.txt	CARNATION	Flowers	3	11	[0, 0, 0]	n/a	catFR1	0	R1414E
1389.968	1.0	1795218	WORD_OFF	n/a	n/a	CARNATION	Flowers	3	11	[0, 0, 0]	n/a	catFR1	0	R1414E
1390.968	1.6	1796226	WORD	n/a	wordpools/wordpool_categorized_EN.txt	ROSE	Flowers	4	11	[0, 0, 0]	n/a	catFR1	0	R1414E
1392.568	0.832	1797817	WORD_OFF	n/a	n/a	ROSE	Flowers	4	11	[0, 0, 0]	n/a	catFR1	0	R1414E
1393.4	1.6	1798651	WORD	n/a	wordpools/wordpool_categorized_EN.txt	CALCULATOR	Electronics	5	11	[0, 0, 0]	n/a	catFR1	0	R1414E
1395.001	0.8	1800257	WORD_OFF	n/a	n/a	CALCULATOR	Electronics	5	11	[0, 0, 0]	n/a	catFR1	0	R1414E
1395.801	1.6	1801060	WORD	n/a	wordpools/wordpool_categorized_EN.txt	RADIO	Electronics	6	11	[0, 0, 0]	n/a	catFR1	0	R1414E
1397.417	0.917	1802666	WORD_OFF	n/a	n/a	RADIO	Electronics	6	11	[0, 0, 0]	n/a	catFR1	0	R1414E
1398.334	1.6	1803595	WORD	n/a	wordpools/wordpool_categorized_EN.txt	PETUNIA	Flowers	7	11	[0, 0, 0]	n/a	catFR1	0	R1414E
1399.934	0.967	1805186	WORD_OFF	n/a	n/a	PETUNIA	Flowers	7	11	[0, 0, 0]	n/a	catFR1	0	R1414E
1400.901	1.6	1806162	WORD	n/a	wordpools/wordpool_categorized_EN.txt	SUNFLOWER	Flowers	8	11	[0, 0, 0]	n/a	catFR1	0	R1414E
1402.501	0.916	1807752	WORD_OFF	n/a	n/a	SUNFLOWER	Flowers	8	11	[0, 0, 0]	n/a	catFR1	0	R1414E
1403.417	1.6	1808666	WORD	n/a	wordpools/wordpool_categorized_EN.txt	TRAIN	Vehicles	9	11	[0, 0, 0]	n/a	catFR1	0	R1414E
1405.034	0.849	1810287	WORD_OFF	n/a	n/a	TRAIN	Vehicles	9	11	[0, 0, 0]	n/a	catFR1	0	R1414E
1405.883	1.6	1811138	WORD	n/a	wordpools/wordpool_categorized_EN.txt	JEEP	Vehicles	10	11	[0, 0, 0]	n/a	catFR1	0	R1414E
1407.484	0.766	1812744	WORD_OFF	n/a	n/a	JEEP	Vehicles	10	11	[0, 0, 0]	n/a	catFR1	0	R1414E
1408.25	1.6	1813500	WORD	n/a	wordpools/wordpool_categorized_EN.txt	MICROWAVE	Electronics	11	11	[0, 0, 0]	n/a	catFR1	0	R1414E
1409.85	0.784	1815106	WORD_OFF	n/a	n/a	MICROWAVE	Electronics	11	11	[0, 0, 0]	n/a	catFR1	0	R1414E
1410.634	1.6	1815893	WORD	n/a	wordpools/wordpool_categorized_EN.txt	PRINTER	Electronics	12	11	[0, 0, 0]	n/a	catFR1	0	R1414E
1412.25	0.001	1817499	WORD_OFF	n/a	n/a	PRINTER	Electronics	12	11	[0, 0, 0]	n/a	catFR1	0	R1414E
1412.251	0.0	1817499	ENCODING_END	n/a	n/a	n/a	n/a	-999	11	[0, 0, 0]	n/a	catFR1	0	R1414E
1412.251	0.0	1817506	START	n/a	n/a	n/a	n/a	-999	11	[-999, -999, -999]	n/a	catFR1	0	R1414E
1412.251	0.0	1817506	PROB	2.966	n/a	n/a	n/a	-999	11	[5, 1, 6]	12.0	catFR1	0	R1414E
1412.251	2.983	1817515	DISTRACT_START	n/a	n/a	n/a	n/a	-999	11	[0, 0, 0]	n/a	catFR1	0	R1414E
1415.234	3.083	1820489	PROB	3.066	n/a	n/a	n/a	-999	11	[8, 5, 6]	19.0	catFR1	0	R1414E
1418.317	1.916	1823572	PROB	1.899	n/a	n/a	n/a	-999	11	[5, 1, 2]	8.0	catFR1	0	R1414E
1420.233	3.037	1825488	PROB	3.016	n/a	n/a	n/a	-999	11	[5, 8, 5]	18.0	catFR1	0	R1414E
1423.27	2.413	1828525	PROB	2.399	n/a	n/a	n/a	-999	11	[1, 3, 5]	9.0	catFR1	0	R1414E
1425.683	2.733	1830938	PROB	2.716	n/a	n/a	n/a	-999	11	[7, 7, 5]	19.0	catFR1	0	R1414E
1428.416	2.434	1833671	PROB	2.416	n/a	n/a	n/a	-999	11	[4, 6, 8]	18.0	catFR1	0	R1414E
1430.85	3.949	1836105	PROB	3.933	n/a	n/a	n/a	-999	11	[6, 7, 6]	19.0	catFR1	0	R1414E
1434.799	0.0	1840047	DISTRACT_END	n/a	n/a	n/a	n/a	-999	11	[0, 0, 0]	n/a	catFR1	0	R1414E
1434.799	2.217	1840054	STOP	n/a	n/a	n/a	n/a	-999	11	[-999, -999, -999]	n/a	catFR1	0	R1414E
1437.016	0.523	1842276	REC_START	n/a	n/a	n/a	n/a	-999	11	[0, 0, 0]	n/a	catFR1	0	R1414E
1437.539	0.971	1842794	REC_WORD	0.523	n/a	MOTORCYCLE	Vehicles	1	11	[0, 0, 0]	n/a	catFR1	0	R1414E
1438.51	3.277	1843765	REC_WORD	1.494	n/a	CAR	Vehicles	2	11	[0, 0, 0]	n/a	catFR1	0	R1414E
1441.787	7.832	1847042	REC_WORD	4.771	n/a	JEEP	Vehicles	10	11	[0, 0, 0]	n/a	catFR1	0	R1414E
1449.619	3.633	1854874	REC_WORD_VV	12.603	n/a	<>	n/a	-999	11	[0, 0, 0]	n/a	catFR1	0	R1414E
1453.252	0.625	1858507	REC_WORD	16.236	n/a	PEN	OfficeSupplies	-999	11	[0, 0, 0]	n/a	catFR1	0	R1414E
1453.877	12.465	1859132	REC_WORD	16.861	n/a	DAFFODIL	Flowers	-999	11	[0, 0, 0]	n/a	catFR1	0	R1414E
1466.342	0.928	1871597	REC_WORD_VV	29.326	n/a	<>	n/a	-999	11	[0, 0, 0]	n/a	catFR1	0	R1414E
1467.27	39.227	1872531	REC_END	n/a	n/a	n/a	n/a	-999	11	[0, 0, 0]	n/a	catFR1	0	R1414E
1506.497	10.0	1911755	COUNTDOWN_START	n/a	n/a	n/a	n/a	-999	12	[0, 0, 0]	n/a	catFR1	0	R1414E
1516.846	0.0	1922100	COUNTDOWN_END	n/a	n/a	n/a	n/a	-999	12	[0, 0, 0]	n/a	catFR1	0	R1414E
1516.846	1.95	1922100	ENCODING_START	n/a	n/a	n/a	n/a	-999	12	[0, 0, 0]	n/a	catFR1	0	R1414E
1518.796	1.6	1924052	WORD	n/a	wordpools/wordpool_categorized_EN.txt	MOPED	Vehicles	1	12	[0, 0, 0]	n/a	catFR1	0	R1414E
1520.413	0.933	1925674	WORD_OFF	n/a	n/a	MOPED	Vehicles	1	12	[0, 0, 0]	n/a	catFR1	0	R1414E
1521.346	1.6	1926603	WORD	n/a	wordpools/wordpool_categorized_EN.txt	BUS	Vehicles	2	12	[0, 0, 0]	n/a	catFR1	0	R1414E
1522.963	0.883	1928209	WORD_OFF	n/a	n/a	BUS	Vehicles	2	12	[0, 0, 0]	n/a	catFR1	0	R1414E
1523.846	1.6	1929107	WORD	n/a	wordpools/wordpool_categorized_EN.txt	DAISY	Flowers	3	12	[0, 0, 0]	n/a	catFR1	0	R1414E
1525.463	0.8	1930713	WORD_OFF	n/a	n/a	DAISY	Flowers	3	12	[0, 0, 0]	n/a	catFR1	0	R1414E
1526.263	1.6	1931516	WORD	n/a	wordpools/wordpool_categorized_EN.txt	LILAC	Flowers	4	12	[0, 0, 0]	n/a	catFR1	0	R1414E
1527.879	0.817	1933138	WORD_OFF	n/a	n/a	LILAC	Flowers	4	12	[0, 0, 0]	n/a	catFR1	0	R1414E
1528.696	1.6	1933957	WORD	n/a	wordpools/wordpool_categorized_EN.txt	UNDERWEAR	Clothing	5	12	[0, 0, 0]	n/a	catFR1	0	R1414E
1530.312	0.783	1935563	WORD_OFF	n/a	n/a	UNDERWEAR	Clothing	5	12	[0, 0, 0]	n/a	catFR1	0	R1414E
1531.095	1.6	1936350	WORD	n/a	wordpools/wordpool_categorized_EN.txt	SHIRT	Clothing	6	12	[0, 0, 0]	n/a	catFR1	0	R1414E
1532.712	0.783	1937972	WORD_OFF	n/a	n/a	SHIRT	Clothing	6	12	[0, 0, 0]	n/a	catFR1	0	R1414E
1533.495	1.6	1938743	WORD	n/a	wordpools/wordpool_categorized_EN.txt	BOAT	Vehicles	7	12	[0, 0, 0]	n/a	catFR1	0	R1414E
1535.112	0.817	1940365	WORD_OFF	n/a	n/a	BOAT	Vehicles	7	12	[0, 0, 0]	n/a	catFR1	0	R1414E
1535.929	1.6	1941184	WORD	n/a	wordpools/wordpool_categorized_EN.txt	VAN	Vehicles	8	12	[0, 0, 0]	n/a	catFR1	0	R1414E
1537.546	0.966	1942806	WORD_OFF	n/a	n/a	VAN	Vehicles	8	12	[0, 0, 0]	n/a	catFR1	0	R1414E
1538.512	1.6	1943766	WORD	n/a	wordpools/wordpool_categorized_EN.txt	JEANS	Clothing	9	12	[0, 0, 0]	n/a	catFR1	0	R1414E
1540.128	0.933	1945388	WORD_OFF	n/a	n/a	JEANS	Clothing	9	12	[0, 0, 0]	n/a	catFR1	0	R1414E
1541.061	1.6	1946317	WORD	n/a	wordpools/wordpool_categorized_EN.txt	COAT	Clothing	10	12	[0, 0, 0]	n/a	catFR1	0	R1414E
1542.662	0.899	1947923	WORD_OFF	n/a	n/a	COAT	Clothing	10	12	[0, 0, 0]	n/a	catFR1	0	R1414E
1543.561	1.6	1948821	WORD	n/a	wordpools/wordpool_categorized_EN.txt	VIOLET	Flowers	11	12	[0, 0, 0]	n/a	catFR1	0	R1414E
1545.161	0.801	1950411	WORD_OFF	n/a	n/a	VIOLET	Flowers	11	12	[0, 0, 0]	n/a	catFR1	0	R1414E
1545.962	1.6	1951214	WORD	n/a	wordpools/wordpool_categorized_EN.txt	TULIP	Flowers	12	12	[0, 0, 0]	n/a	catFR1	0	R1414E
1547.562	0.001	1952817	PROB	4.149	n/a	n/a	n/a	-999	12	[8, 8, 1]	17.0	catFR1	0	R1414E
1547.563	0.0	1952818	START	n/a	n/a	n/a	n/a	-999	12	[-999, -999, -999]	n/a	catFR1	0	R1414E
1547.562	0.001	1952820	WORD_OFF	n/a	n/a	TULIP	Flowers	12	12	[0, 0, 0]	n/a	catFR1	0	R1414E
1547.563	0.0	1952820	ENCODING_END	n/a	n/a	n/a	n/a	-999	12	[0, 0, 0]	n/a	catFR1	0	R1414E
1547.563	4.167	1952820	DISTRACT_START	n/a	n/a	n/a	n/a	-999	12	[0, 0, 0]	n/a	catFR1	0	R1414E
1551.73	2.248	1956985	PROB	2.233	n/a	n/a	n/a	-999	12	[2, 3, 2]	7.0	catFR1	0	R1414E
1553.978	2.885	1959233	PROB	2.868	n/a	n/a	n/a	-999	12	[3, 8, 4]	15.0	catFR1	0	R1414E
1556.863	3.999	1962118	PROB	3.982	n/a	n/a	n/a	-999	12	[4, 7, 5]	16.0	catFR1	0	R1414E
1560.862	3.633	1966117	PROB	3.616	n/a	n/a	n/a	-999	12	[5, 2, 1]	8.0	catFR1	0	R1414E
1564.495	2.9	1969750	PROB	2.883	n/a	n/a	n/a	-999	12	[1, 8, 3]	12.0	catFR1	0	R1414E
1567.395	2.45	1972650	PROB	2.433	n/a	n/a	n/a	-999	12	[6, 3, 1]	10.0	catFR1	0	R1414E
1569.845	0.0	1975100	STOP	n/a	n/a	n/a	n/a	-999	12	[-999, -999, -999]	n/a	catFR1	0	R1414E
1569.845	2.25	1975101	DISTRACT_END	n/a	n/a	n/a	n/a	-999	12	[0, 0, 0]	n/a	catFR1	0	R1414E
1572.095	0.15	1977345	REC_START	n/a	n/a	n/a	n/a	-999	12	[0, 0, 0]	n/a	catFR1	0	R1414E
1572.245	0.723	1977500	REC_WORD	0.15	n/a	MOPED	Vehicles	1	12	[0, 0, 0]	n/a	catFR1	0	R1414E
1572.968	1.429	1978223	REC_WORD	0.873	n/a	VAN	Vehicles	8	12	[0, 0, 0]	n/a	catFR1	0	R1414E
1574.397	1.295	1979652	REC_WORD	2.302	n/a	UNDERWEAR	Clothing	5	12	[0, 0, 0]	n/a	catFR1	0	R1414E
1575.692	0.998	1980947	REC_WORD	3.597	n/a	PANTS	n/a	-999	12	[0, 0, 0]	n/a	catFR1	0	R1414E
1576.69	0.677	1981945	REC_WORD	4.595	n/a	JACKET	n/a	-999	12	[0, 0, 0]	n/a	catFR1	0	R1414E
1577.367	4.777	1982622	REC_WORD	5.272	n/a	COAT	Clothing	10	12	[0, 0, 0]	n/a	catFR1	0	R1414E
1582.144	2.983	1987399	REC_WORD_VV	10.049	n/a	<>	n/a	-999	12	[0, 0, 0]	n/a	catFR1	0	R1414E
1585.127	0.812	1990382	REC_WORD	13.032	n/a	VIOLET	Flowers	11	12	[0, 0, 0]	n/a	catFR1	0	R1414E
1585.939	11.089	1991194	REC_WORD	13.844	n/a	TULIP	Flowers	12	12	[0, 0, 0]	n/a	catFR1	0	R1414E
1597.028	5.305	2002283	REC_WORD	24.933	n/a	SHIRT	Clothing	6	12	[0, 0, 0]	n/a	catFR1	0	R1414E
1602.333	0.0	2007585	REC_END	n/a	n/a	n/a	n/a	-999	12	[0, 0, 0]	n/a	catFR1	0	R1414E
