onset	duration	sample	trial_type	response_time	stim_file	item_name	category	serialpos	list	test	answer	experiment	session	subject
0.0	164.933	4638	INSTRUCT_START	n/a	n/a	n/a	n/a	-999	-999	[0, 0, 0]	n/a	catFR1	0	R1616S
164.933	60.817	169562	INSTRUCT_END	n/a	n/a	n/a	n/a	-999	-999	[0, 0, 0]	n/a	catFR1	0	R1616S
225.75	10.349	230367	COUNTDOWN_START	n/a	n/a	n/a	n/a	-999	-999	[0, 0, 0]	n/a	catFR1	0	R1616S
236.099	0.001	240720	COUNTDOWN_END	n/a	n/a	n/a	n/a	-999	-999	[0, 0, 0]	n/a	catFR1	0	R1616S
236.1	2.032	240720	ENCODING_START	n/a	n/a	n/a	n/a	-999	-1	[0, 0, 0]	n/a	catFR1	0	R1616S
238.132	1.6	242760	WORD	n/a	n/a	DRIZZLE	Weather	1	-1	[0, 0, 0]	n/a	catFR1	0	R1616S
239.732	0.767	244353	WORD_OFF	n/a	n/a	DRIZZLE	Weather	1	-1	[0, 0, 0]	n/a	catFR1	0	R1616S
240.499	1.6	245121	WORD	n/a	n/a	SNOW	Weather	2	-1	[0, 0, 0]	n/a	catFR1	0	R1616S
242.099	0.833	246714	WORD_OFF	n/a	n/a	SNOW	Weather	2	-1	[0, 0, 0]	n/a	catFR1	0	R1616S
242.932	1.6	247552	WORD	n/a	n/a	GIRAFFE	Zoo	3	-1	[0, 0, 0]	n/a	catFR1	0	R1616S
244.532	0.95	249159	WORD_OFF	n/a	n/a	GIRAFFE	Zoo	3	-1	[0, 0, 0]	n/a	catFR1	0	R1616S
245.482	1.6	250109	WORD	n/a	n/a	CHEETAH	Zoo	4	-1	[0, 0, 0]	n/a	catFR1	0	R1616S
247.082	0.9	251702	WORD_OFF	n/a	n/a	CHEETAH	Zoo	4	-1	[0, 0, 0]	n/a	catFR1	0	R1616S
247.982	1.617	252610	WORD	n/a	n/a	LEG	BodyParts	5	-1	[0, 0, 0]	n/a	catFR1	0	R1616S
249.599	0.817	254217	WORD_OFF	n/a	n/a	LEG	BodyParts	5	-1	[0, 0, 0]	n/a	catFR1	0	R1616S
250.416	1.6	255041	WORD	n/a	n/a	ARM	BodyParts	6	-1	[0, 0, 0]	n/a	catFR1	0	R1616S
252.016	0.815	256634	WORD_OFF	n/a	n/a	ARM	BodyParts	6	-1	[0, 0, 0]	n/a	catFR1	0	R1616S
252.831	1.601	257458	WORD	n/a	n/a	BEAR	Zoo	7	-1	[0, 0, 0]	n/a	catFR1	0	R1616S
254.432	0.983	259051	WORD_OFF	n/a	n/a	BEAR	Zoo	7	-1	[0, 0, 0]	n/a	catFR1	0	R1616S
255.415	1.6	260029	WORD	n/a	n/a	CHIMPANZEE	Zoo	8	-1	[0, 0, 0]	n/a	catFR1	0	R1616S
257.015	0.883	261636	WORD_OFF	n/a	n/a	CHIMPANZEE	Zoo	8	-1	[0, 0, 0]	n/a	catFR1	0	R1616S
257.898	1.617	262516	WORD	n/a	n/a	NOSE	BodyParts	9	-1	[0, 0, 0]	n/a	catFR1	0	R1616S
259.515	0.966	264137	WORD_OFF	n/a	n/a	NOSE	BodyParts	9	-1	[0, 0, 0]	n/a	catFR1	0	R1616S
260.481	1.601	265101	WORD	n/a	n/a	HEAD	BodyParts	10	-1	[0, 0, 0]	n/a	catFR1	0	R1616S
262.082	0.918	266708	WORD_OFF	n/a	n/a	HEAD	BodyParts	10	-1	[0, 0, 0]	n/a	catFR1	0	R1616S
263.0	1.616	267616	WORD	n/a	n/a	LIGHTNING	Weather	11	-1	[0, 0, 0]	n/a	catFR1	0	R1616S
264.616	0.85	269236	WORD_OFF	n/a	n/a	LIGHTNING	Weather	11	-1	[0, 0, 0]	n/a	catFR1	0	R1616S
265.466	1.618	270089	WORD	n/a	n/a	HUMIDITY	Weather	12	-1	[0, 0, 0]	n/a	catFR1	0	R1616S
267.084	0.0	271704	START	n/a	n/a	n/a	n/a	-999	-1	[-999, -999, -999]	n/a	catFR1	0	R1616S
267.084	0.0	271704	PROB	15.1	n/a	n/a	n/a	-999	-1	[1, 2, 2]	5.0	catFR1	0	R1616S
267.082	0.002	271709	WORD_OFF	n/a	n/a	HUMIDITY	Weather	12	-1	[0, 0, 0]	n/a	catFR1	0	R1616S
267.084	0.0	271709	ENCODING_END	n/a	n/a	n/a	n/a	-999	-1	[0, 0, 0]	n/a	catFR1	0	R1616S
267.084	15.114	271709	DISTRACT_START	n/a	n/a	n/a	n/a	-999	-1	[0, 0, 0]	n/a	catFR1	0	R1616S
282.198	6.618	286817	PROB	6.601	n/a	n/a	n/a	-999	-1	[3, 6, 2]	10.0	catFR1	0	R1616S
288.816	0.0	293435	STOP	n/a	n/a	n/a	n/a	-999	-1	[-999, -999, -999]	n/a	catFR1	0	R1616S
288.816	2.133	293436	DISTRACT_END	n/a	n/a	n/a	n/a	-999	-1	[0, 0, 0]	n/a	catFR1	0	R1616S
290.949	2.326	295567	REC_START	n/a	n/a	n/a	n/a	-999	-1	[0, 0, 0]	n/a	catFR1	0	R1616S
293.275	0.861	297893	REC_WORD	2.326	n/a	DRIZZLE	Weather	1	-1	[0, 0, 0]	n/a	catFR1	0	R1616S
294.136	0.871	298754	REC_WORD	3.187	n/a	GIRAFFE	Zoo	3	-1	[0, 0, 0]	n/a	catFR1	0	R1616S
295.007	0.756	299625	REC_WORD	4.058	n/a	LEG	BodyParts	5	-1	[0, 0, 0]	n/a	catFR1	0	R1616S
295.763	1.663	300381	REC_WORD	4.814	n/a	NOSE	BodyParts	9	-1	[0, 0, 0]	n/a	catFR1	0	R1616S
297.426	0.33	302044	REC_WORD_VV	6.477	n/a	<>	n/a	-999	-1	[0, 0, 0]	n/a	catFR1	0	R1616S
297.756	3.729	302374	REC_WORD	6.807	n/a	BEAR	Zoo	7	-1	[0, 0, 0]	n/a	catFR1	0	R1616S
301.485	10.027	306103	REC_WORD_VV	10.536	n/a	<>	n/a	-999	-1	[0, 0, 0]	n/a	catFR1	0	R1616S
311.512	5.04	316130	REC_WORD_VV	20.563	n/a	<>	n/a	-999	-1	[0, 0, 0]	n/a	catFR1	0	R1616S
316.552	4.584	321169	REC_WORD_VV	25.603	n/a	<>	n/a	-999	-1	[0, 0, 0]	n/a	catFR1	0	R1616S
321.136	14.879	325752	REC_END	n/a	n/a	n/a	n/a	-999	-1	[0, 0, 0]	n/a	catFR1	0	R1616S
336.015	10.35	340632	COUNTDOWN_START	n/a	n/a	n/a	n/a	-999	1	[0, 0, 0]	n/a	catFR1	0	R1616S
346.365	0.0	350986	COUNTDOWN_END	n/a	n/a	n/a	n/a	-999	1	[0, 0, 0]	n/a	catFR1	0	R1616S
346.365	2.151	350986	ENCODING_START	n/a	n/a	n/a	n/a	-999	1	[0, 0, 0]	n/a	catFR1	0	R1616S
348.516	1.616	353137	WORD	n/a	wordpools/wordpool_categorized_EN.txt	PANTS	Clothing	1	1	[0, 0, 0]	n/a	catFR1	0	R1616S
350.132	0.784	354744	WORD_OFF	n/a	n/a	PANTS	Clothing	1	1	[0, 0, 0]	n/a	catFR1	0	R1616S
350.916	1.6	355526	WORD	n/a	wordpools/wordpool_categorized_EN.txt	JEANS	Clothing	2	1	[0, 0, 0]	n/a	catFR1	0	R1616S
352.516	0.816	357133	WORD_OFF	n/a	n/a	JEANS	Clothing	2	1	[0, 0, 0]	n/a	catFR1	0	R1616S
353.332	1.601	357944	WORD	n/a	wordpools/wordpool_categorized_EN.txt	RIVER	Landscapes	3	1	[0, 0, 0]	n/a	catFR1	0	R1616S
354.933	0.799	359550	WORD_OFF	n/a	n/a	RIVER	Landscapes	3	1	[0, 0, 0]	n/a	catFR1	0	R1616S
355.732	1.617	360347	WORD	n/a	wordpools/wordpool_categorized_EN.txt	VALLEY	Landscapes	4	1	[0, 0, 0]	n/a	catFR1	0	R1616S
357.349	0.783	361967	WORD_OFF	n/a	n/a	VALLEY	Landscapes	4	1	[0, 0, 0]	n/a	catFR1	0	R1616S
358.132	1.617	362750	WORD	n/a	wordpools/wordpool_categorized_EN.txt	MAPLE	Trees	5	1	[0, 0, 0]	n/a	catFR1	0	R1616S
359.749	0.767	364371	WORD_OFF	n/a	n/a	MAPLE	Trees	5	1	[0, 0, 0]	n/a	catFR1	0	R1616S
360.516	1.6	365125	WORD	n/a	wordpools/wordpool_categorized_EN.txt	CEDAR	Trees	6	1	[0, 0, 0]	n/a	catFR1	0	R1616S
362.116	0.783	366732	WORD_OFF	n/a	n/a	CEDAR	Trees	6	1	[0, 0, 0]	n/a	catFR1	0	R1616S
362.899	1.616	367514	WORD	n/a	wordpools/wordpool_categorized_EN.txt	ISLAND	Landscapes	7	1	[0, 0, 0]	n/a	catFR1	0	R1616S
364.515	0.784	369135	WORD_OFF	n/a	n/a	ISLAND	Landscapes	7	1	[0, 0, 0]	n/a	catFR1	0	R1616S
365.299	1.616	369917	WORD	n/a	wordpools/wordpool_categorized_EN.txt	BEACH	Landscapes	8	1	[0, 0, 0]	n/a	catFR1	0	R1616S
366.915	0.9	371524	WORD_OFF	n/a	n/a	BEACH	Landscapes	8	1	[0, 0, 0]	n/a	catFR1	0	R1616S
367.815	1.617	372432	WORD	n/a	wordpools/wordpool_categorized_EN.txt	SKIRT	Clothing	9	1	[0, 0, 0]	n/a	catFR1	0	R1616S
369.432	0.934	374053	WORD_OFF	n/a	n/a	SKIRT	Clothing	9	1	[0, 0, 0]	n/a	catFR1	0	R1616S
370.366	1.616	374975	WORD	n/a	wordpools/wordpool_categorized_EN.txt	SOCKS	Clothing	10	1	[0, 0, 0]	n/a	catFR1	0	R1616S
371.982	0.966	376596	WORD_OFF	n/a	n/a	SOCKS	Clothing	10	1	[0, 0, 0]	n/a	catFR1	0	R1616S
372.948	1.601	377560	WORD	n/a	wordpools/wordpool_categorized_EN.txt	WALNUT	Trees	11	1	[0, 0, 0]	n/a	catFR1	0	R1616S
374.549	0.9	379167	WORD_OFF	n/a	n/a	WALNUT	Trees	11	1	[0, 0, 0]	n/a	catFR1	0	R1616S
375.449	1.602	380061	WORD	n/a	wordpools/wordpool_categorized_EN.txt	OAK	Trees	12	1	[0, 0, 0]	n/a	catFR1	0	R1616S
377.051	0.0	381665	START	n/a	n/a	n/a	n/a	-999	1	[-999, -999, -999]	n/a	catFR1	0	R1616S
377.051	0.0	381665	PROB	7.215	n/a	n/a	n/a	-999	1	[7, 6, 8]	21.0	catFR1	0	R1616S
377.05	0.001	381668	WORD_OFF	n/a	n/a	OAK	Trees	12	1	[0, 0, 0]	n/a	catFR1	0	R1616S
377.051	0.0	381668	ENCODING_END	n/a	n/a	n/a	n/a	-999	1	[0, 0, 0]	n/a	catFR1	0	R1616S
377.051	7.232	381668	DISTRACT_START	n/a	n/a	n/a	n/a	-999	1	[0, 0, 0]	n/a	catFR1	0	R1616S
384.283	5.15	388897	PROB	5.133	n/a	n/a	n/a	-999	1	[5, 2, 3]	10.0	catFR1	0	R1616S
389.433	3.983	394047	PROB	3.966	n/a	n/a	n/a	-999	1	[8, 2, 8]	18.0	catFR1	0	R1616S
393.416	3.983	398030	PROB	3.965	n/a	n/a	n/a	-999	1	[3, 7, 5]	15.0	catFR1	0	R1616S
397.399	0.0	402011	DISTRACT_END	n/a	n/a	n/a	n/a	-999	1	[0, 0, 0]	n/a	catFR1	0	R1616S
397.399	2.267	402012	STOP	n/a	n/a	n/a	n/a	-999	1	[-999, -999, -999]	n/a	catFR1	0	R1616S
399.666	1.206	404282	REC_START	n/a	n/a	n/a	n/a	-999	1	[0, 0, 0]	n/a	catFR1	0	R1616S
400.872	1.199	405485	REC_WORD	1.206	n/a	DRESS	n/a	-999	1	[0, 0, 0]	n/a	catFR1	0	R1616S
402.071	7.173	406684	REC_WORD	2.405	n/a	MAPLE	Trees	5	1	[0, 0, 0]	n/a	catFR1	0	R1616S
409.244	1.606	413857	REC_WORD_VV	9.578	n/a	<>	n/a	-999	1	[0, 0, 0]	n/a	catFR1	0	R1616S
410.85	0.83	415463	REC_WORD	11.184	n/a	ISLAND	Landscapes	7	1	[0, 0, 0]	n/a	catFR1	0	R1616S
411.68	1.616	416293	REC_WORD	12.014	n/a	BEACH	Landscapes	8	1	[0, 0, 0]	n/a	catFR1	0	R1616S
413.296	2.912	417909	REC_WORD	13.63	n/a	RIVER	Landscapes	3	1	[0, 0, 0]	n/a	catFR1	0	R1616S
416.208	11.47	420821	REC_WORD_VV	16.542	n/a	<>	n/a	-999	1	[0, 0, 0]	n/a	catFR1	0	R1616S
427.678	2.221	432290	REC_WORD	28.012	n/a	GIRAFFE, ISLAND, MAPLE	n/a	-999	1	[0, 0, 0]	n/a	catFR1	0	R1616S
429.899	4.566	434509	REC_END	n/a	n/a	n/a	n/a	-999	1	[0, 0, 0]	n/a	catFR1	0	R1616S
434.465	10.351	439078	COUNTDOWN_START	n/a	n/a	n/a	n/a	-999	2	[0, 0, 0]	n/a	catFR1	0	R1616S
444.816	0.0	449431	COUNTDOWN_END	n/a	n/a	n/a	n/a	-999	2	[0, 0, 0]	n/a	catFR1	0	R1616S
444.816	1.933	449431	ENCODING_START	n/a	n/a	n/a	n/a	-999	2	[0, 0, 0]	n/a	catFR1	0	R1616S
446.749	1.617	451359	WORD	n/a	wordpools/wordpool_categorized_EN.txt	OCEAN	Landscapes	1	2	[0, 0, 0]	n/a	catFR1	0	R1616S
448.366	0.783	452980	WORD_OFF	n/a	n/a	OCEAN	Landscapes	1	2	[0, 0, 0]	n/a	catFR1	0	R1616S
449.149	1.6	453762	WORD	n/a	wordpools/wordpool_categorized_EN.txt	HILLS	Landscapes	2	2	[0, 0, 0]	n/a	catFR1	0	R1616S
450.749	0.916	455355	WORD_OFF	n/a	n/a	HILLS	Landscapes	2	2	[0, 0, 0]	n/a	catFR1	0	R1616S
451.665	1.6	456277	WORD	n/a	wordpools/wordpool_categorized_EN.txt	ATTIC	Building	3	2	[0, 0, 0]	n/a	catFR1	0	R1616S
453.265	0.833	457870	WORD_OFF	n/a	n/a	ATTIC	Building	3	2	[0, 0, 0]	n/a	catFR1	0	R1616S
454.098	1.601	458708	WORD	n/a	wordpools/wordpool_categorized_EN.txt	ROOF	Building	4	2	[0, 0, 0]	n/a	catFR1	0	R1616S
455.699	0.866	460315	WORD_OFF	n/a	n/a	ROOF	Building	4	2	[0, 0, 0]	n/a	catFR1	0	R1616S
456.565	1.601	461181	WORD	n/a	wordpools/wordpool_categorized_EN.txt	MIXER	Appliances	5	2	[0, 0, 0]	n/a	catFR1	0	R1616S
458.166	0.917	462774	WORD_OFF	n/a	n/a	MIXER	Appliances	5	2	[0, 0, 0]	n/a	catFR1	0	R1616S
459.083	1.599	463696	WORD	n/a	wordpools/wordpool_categorized_EN.txt	BLENDER	Appliances	6	2	[0, 0, 0]	n/a	catFR1	0	R1616S
460.682	0.784	465289	WORD_OFF	n/a	n/a	BLENDER	Appliances	6	2	[0, 0, 0]	n/a	catFR1	0	R1616S
461.466	1.599	466071	WORD	n/a	wordpools/wordpool_categorized_EN.txt	ROOM	Building	7	2	[0, 0, 0]	n/a	catFR1	0	R1616S
463.065	0.867	467678	WORD_OFF	n/a	n/a	ROOM	Building	7	2	[0, 0, 0]	n/a	catFR1	0	R1616S
463.932	1.6	468544	WORD	n/a	wordpools/wordpool_categorized_EN.txt	FLOOR	Building	8	2	[0, 0, 0]	n/a	catFR1	0	R1616S
465.532	0.801	470137	WORD_OFF	n/a	n/a	FLOOR	Building	8	2	[0, 0, 0]	n/a	catFR1	0	R1616S
466.333	1.616	470948	WORD	n/a	wordpools/wordpool_categorized_EN.txt	WASHER	Appliances	9	2	[0, 0, 0]	n/a	catFR1	0	R1616S
467.949	0.883	472554	WORD_OFF	n/a	n/a	WASHER	Appliances	9	2	[0, 0, 0]	n/a	catFR1	0	R1616S
468.832	1.617	473449	WORD	n/a	wordpools/wordpool_categorized_EN.txt	IRON	Appliances	10	2	[0, 0, 0]	n/a	catFR1	0	R1616S
470.449	0.8	475055	WORD_OFF	n/a	n/a	IRON	Appliances	10	2	[0, 0, 0]	n/a	catFR1	0	R1616S
471.249	1.6	475866	WORD	n/a	wordpools/wordpool_categorized_EN.txt	WOODS	Landscapes	11	2	[0, 0, 0]	n/a	catFR1	0	R1616S
472.849	0.867	477458	WORD_OFF	n/a	n/a	WOODS	Landscapes	11	2	[0, 0, 0]	n/a	catFR1	0	R1616S
473.716	1.617	478325	WORD	n/a	wordpools/wordpool_categorized_EN.txt	CREEK	Landscapes	12	2	[0, 0, 0]	n/a	catFR1	0	R1616S
475.333	0.001	479943	PROB	5.016	n/a	n/a	n/a	-999	2	[7, 4, 5]	16.0	catFR1	0	R1616S
475.334	0.0	479944	START	n/a	n/a	n/a	n/a	-999	2	[-999, -999, -999]	n/a	catFR1	0	R1616S
475.332	0.002	479945	WORD_OFF	n/a	n/a	CREEK	Landscapes	12	2	[0, 0, 0]	n/a	catFR1	0	R1616S
475.334	0.0	479945	ENCODING_END	n/a	n/a	n/a	n/a	-999	2	[0, 0, 0]	n/a	catFR1	0	R1616S
475.334	5.032	479945	DISTRACT_START	n/a	n/a	n/a	n/a	-999	2	[0, 0, 0]	n/a	catFR1	0	R1616S
480.366	4.8	484975	PROB	4.783	n/a	n/a	n/a	-999	2	[7, 3, 4]	14.0	catFR1	0	R1616S
485.166	5.35	489775	PROB	5.333	n/a	n/a	n/a	-999	2	[4, 1, 6]	11.0	catFR1	0	R1616S
490.516	6.799	495125	PROB	6.783	n/a	n/a	n/a	-999	2	[2, 6, 5]	13.0	catFR1	0	R1616S
497.315	0.0	501923	DISTRACT_END	n/a	n/a	n/a	n/a	-999	2	[0, 0, 0]	n/a	catFR1	0	R1616S
497.315	2.184	501924	STOP	n/a	n/a	n/a	n/a	-999	2	[-999, -999, -999]	n/a	catFR1	0	R1616S
499.499	1.267	504111	REC_START	n/a	n/a	n/a	n/a	-999	2	[0, 0, 0]	n/a	catFR1	0	R1616S
500.766	0.963	505375	REC_WORD	1.267	n/a	MAPLE	Trees	-999	2	[0, 0, 0]	n/a	catFR1	0	R1616S
501.729	1.172	506338	REC_WORD	2.23	n/a	OAK	Trees	-999	2	[0, 0, 0]	n/a	catFR1	0	R1616S
502.901	1.632	507509	REC_WORD	3.402	n/a	RIVER	Landscapes	-999	2	[0, 0, 0]	n/a	catFR1	0	R1616S
504.533	0.998	509141	REC_WORD_VV	5.034	n/a	<>	n/a	-999	2	[0, 0, 0]	n/a	catFR1	0	R1616S
505.531	1.272	510139	REC_WORD_VV	6.032	n/a	<>	n/a	-999	2	[0, 0, 0]	n/a	catFR1	0	R1616S
506.803	0.95	511411	REC_WORD	7.304	n/a	ATTIC	Building	3	2	[0, 0, 0]	n/a	catFR1	0	R1616S
507.753	3.422	512361	REC_WORD	8.254	n/a	ROOM	Building	7	2	[0, 0, 0]	n/a	catFR1	0	R1616S
511.175	3.641	515783	REC_WORD_VV	11.676	n/a	<>	n/a	-999	2	[0, 0, 0]	n/a	catFR1	0	R1616S
514.816	9.807	519424	REC_WORD	15.317	n/a	FLOOR	Building	8	2	[0, 0, 0]	n/a	catFR1	0	R1616S
524.623	1.59	529230	REC_WORD_VV	25.124	n/a	<>	n/a	-999	2	[0, 0, 0]	n/a	catFR1	0	R1616S
526.213	1.165	530820	REC_WORD_VV	26.714	n/a	<>	n/a	-999	2	[0, 0, 0]	n/a	catFR1	0	R1616S
527.378	1.075	531985	REC_WORD_VV	27.879	n/a	<>	n/a	-999	2	[0, 0, 0]	n/a	catFR1	0	R1616S
528.453	1.26	533060	REC_WORD_VV	28.954	n/a	<>	n/a	-999	2	[0, 0, 0]	n/a	catFR1	0	R1616S
529.713	3.236	534324	REC_END	n/a	n/a	n/a	n/a	-999	2	[0, 0, 0]	n/a	catFR1	0	R1616S
532.949	10.35	537565	COUNTDOWN_START	n/a	n/a	n/a	n/a	-999	3	[0, 0, 0]	n/a	catFR1	0	R1616S
543.299	0.0	547904	COUNTDOWN_END	n/a	n/a	n/a	n/a	-999	3	[0, 0, 0]	n/a	catFR1	0	R1616S
543.299	2.167	547904	ENCODING_START	n/a	n/a	n/a	n/a	-999	3	[0, 0, 0]	n/a	catFR1	0	R1616S
545.466	1.616	550070	WORD	n/a	wordpools/wordpool_categorized_EN.txt	DOOR	Building	1	3	[0, 0, 0]	n/a	catFR1	0	R1616S
547.082	0.834	551691	WORD_OFF	n/a	n/a	DOOR	Building	1	3	[0, 0, 0]	n/a	catFR1	0	R1616S
547.916	1.6	552529	WORD	n/a	wordpools/wordpool_categorized_EN.txt	STAIRS	Building	2	3	[0, 0, 0]	n/a	catFR1	0	R1616S
549.516	1.0	554122	WORD_OFF	n/a	n/a	STAIRS	Building	2	3	[0, 0, 0]	n/a	catFR1	0	R1616S
550.516	1.6	555128	WORD	n/a	wordpools/wordpool_categorized_EN.txt	LEATHER	Fabric	3	3	[0, 0, 0]	n/a	catFR1	0	R1616S
552.116	0.949	556721	WORD_OFF	n/a	n/a	LEATHER	Fabric	3	3	[0, 0, 0]	n/a	catFR1	0	R1616S
553.065	1.601	557671	WORD	n/a	wordpools/wordpool_categorized_EN.txt	VELVET	Fabric	4	3	[0, 0, 0]	n/a	catFR1	0	R1616S
554.666	0.865	559277	WORD_OFF	n/a	n/a	VELVET	Fabric	4	3	[0, 0, 0]	n/a	catFR1	0	R1616S
555.531	1.601	560144	WORD	n/a	wordpools/wordpool_categorized_EN.txt	ORANGUTAN	Zoo	5	3	[0, 0, 0]	n/a	catFR1	0	R1616S
557.132	0.948	561736	WORD_OFF	n/a	n/a	ORANGUTAN	Zoo	5	3	[0, 0, 0]	n/a	catFR1	0	R1616S
558.08	1.602	562687	WORD	n/a	wordpools/wordpool_categorized_EN.txt	TIGER	Zoo	6	3	[0, 0, 0]	n/a	catFR1	0	R1616S
559.682	0.866	564293	WORD_OFF	n/a	n/a	TIGER	Zoo	6	3	[0, 0, 0]	n/a	catFR1	0	R1616S
560.548	1.601	565160	WORD	n/a	wordpools/wordpool_categorized_EN.txt	LINEN	Fabric	7	3	[0, 0, 0]	n/a	catFR1	0	R1616S
562.149	0.982	566752	WORD_OFF	n/a	n/a	LINEN	Fabric	7	3	[0, 0, 0]	n/a	catFR1	0	R1616S
563.131	1.6	567744	WORD	n/a	wordpools/wordpool_categorized_EN.txt	FLEECE	Fabric	8	3	[0, 0, 0]	n/a	catFR1	0	R1616S
564.731	0.885	569337	WORD_OFF	n/a	n/a	FLEECE	Fabric	8	3	[0, 0, 0]	n/a	catFR1	0	R1616S
565.616	1.599	570217	WORD	n/a	wordpools/wordpool_categorized_EN.txt	BATHROOM	Building	9	3	[0, 0, 0]	n/a	catFR1	0	R1616S
567.215	0.984	571824	WORD_OFF	n/a	n/a	BATHROOM	Building	9	3	[0, 0, 0]	n/a	catFR1	0	R1616S
568.199	1.616	572802	WORD	n/a	wordpools/wordpool_categorized_EN.txt	WINDOW	Building	10	3	[0, 0, 0]	n/a	catFR1	0	R1616S
569.815	0.967	574423	WORD_OFF	n/a	n/a	WINDOW	Building	10	3	[0, 0, 0]	n/a	catFR1	0	R1616S
570.782	1.6	575387	WORD	n/a	wordpools/wordpool_categorized_EN.txt	GORILLA	Zoo	11	3	[0, 0, 0]	n/a	catFR1	0	R1616S
572.382	0.95	576994	WORD_OFF	n/a	n/a	GORILLA	Zoo	11	3	[0, 0, 0]	n/a	catFR1	0	R1616S
573.332	1.617	577944	WORD	n/a	wordpools/wordpool_categorized_EN.txt	LION	Zoo	12	3	[0, 0, 0]	n/a	catFR1	0	R1616S
574.949	0.002	579551	WORD_OFF	n/a	n/a	LION	Zoo	12	3	[0, 0, 0]	n/a	catFR1	0	R1616S
574.951	0.0	579551	ENCODING_END	n/a	n/a	n/a	n/a	-999	3	[0, 0, 0]	n/a	catFR1	0	R1616S
574.949	0.002	579554	PROB	4.933	n/a	n/a	n/a	-999	3	[5, 8, 2]	15.0	catFR1	0	R1616S
574.951	0.0	579556	START	n/a	n/a	n/a	n/a	-999	3	[-999, -999, -999]	n/a	catFR1	0	R1616S
574.951	4.948	579565	DISTRACT_START	n/a	n/a	n/a	n/a	-999	3	[0, 0, 0]	n/a	catFR1	0	R1616S
579.899	11.518	584504	PROB	11.5	n/a	n/a	n/a	-999	3	[1, 6, 8]	15.0	catFR1	0	R1616S
591.417	5.465	596021	PROB	5.449	n/a	n/a	n/a	-999	3	[7, 7, 4]	18.0	catFR1	0	R1616S
596.882	0.0	601486	DISTRACT_END	n/a	n/a	n/a	n/a	-999	3	[0, 0, 0]	n/a	catFR1	0	R1616S
596.882	2.049	601486	STOP	n/a	n/a	n/a	n/a	-999	3	[-999, -999, -999]	n/a	catFR1	0	R1616S
598.931	1.338	603534	REC_START	n/a	n/a	n/a	n/a	-999	3	[0, 0, 0]	n/a	catFR1	0	R1616S
600.269	0.647	604873	REC_WORD	1.338	n/a	ROOM	Building	-999	3	[0, 0, 0]	n/a	catFR1	0	R1616S
600.916	0.802	605520	REC_WORD	1.985	n/a	GORILLA	Zoo	11	3	[0, 0, 0]	n/a	catFR1	0	R1616S
601.718	0.876	606322	REC_WORD	2.787	n/a	LINEN	Fabric	7	3	[0, 0, 0]	n/a	catFR1	0	R1616S
602.594	0.766	607198	REC_WORD	3.663	n/a	CLOSET	n/a	-999	3	[0, 0, 0]	n/a	catFR1	0	R1616S
603.36	1.362	607964	REC_WORD	4.429	n/a	FLOOR	Building	-999	3	[0, 0, 0]	n/a	catFR1	0	R1616S
604.722	2.153	609326	REC_WORD	5.791	n/a	VELVET	Fabric	4	3	[0, 0, 0]	n/a	catFR1	0	R1616S
606.875	2.665	611479	REC_WORD_VV	7.944	n/a	<>	n/a	-999	3	[0, 0, 0]	n/a	catFR1	0	R1616S
609.54	2.236	614143	REC_WORD_VV	10.609	n/a	<>	n/a	-999	3	[0, 0, 0]	n/a	catFR1	0	R1616S
611.776	2.683	616379	REC_WORD_VV	12.845	n/a	<>	n/a	-999	3	[0, 0, 0]	n/a	catFR1	0	R1616S
614.459	1.283	619062	REC_WORD_VV	15.528	n/a	<>	n/a	-999	3	[0, 0, 0]	n/a	catFR1	0	R1616S
615.742	3.125	620345	REC_WORD	16.811	n/a	ORANGUTAN	Zoo	5	3	[0, 0, 0]	n/a	catFR1	0	R1616S
618.867	4.024	623470	REC_WORD_VV	19.936	n/a	<>	n/a	-999	3	[0, 0, 0]	n/a	catFR1	0	R1616S
622.891	1.503	627494	REC_WORD_VV	23.96	n/a	<>	n/a	-999	3	[0, 0, 0]	n/a	catFR1	0	R1616S
624.394	1.206	628997	REC_WORD_VV	25.463	n/a	<>	n/a	-999	3	[0, 0, 0]	n/a	catFR1	0	R1616S
625.6	1.331	630203	REC_WORD_VV	26.669	n/a	<>	n/a	-999	3	[0, 0, 0]	n/a	catFR1	0	R1616S
626.931	2.192	631534	REC_WORD	28.0	n/a	WINDOW	Building	10	3	[0, 0, 0]	n/a	catFR1	0	R1616S
629.123	3.193	633733	REC_END	n/a	n/a	n/a	n/a	-999	3	[0, 0, 0]	n/a	catFR1	0	R1616S
632.316	10.349	636919	COUNTDOWN_START	n/a	n/a	n/a	n/a	-999	4	[0, 0, 0]	n/a	catFR1	0	R1616S
642.665	0.0	647272	COUNTDOWN_END	n/a	n/a	n/a	n/a	-999	4	[0, 0, 0]	n/a	catFR1	0	R1616S
642.665	2.117	647272	ENCODING_START	n/a	n/a	n/a	n/a	-999	4	[0, 0, 0]	n/a	catFR1	0	R1616S
644.782	1.617	649382	WORD	n/a	wordpools/wordpool_categorized_EN.txt	BASEBALL	Toys	1	4	[0, 0, 0]	n/a	catFR1	0	R1616S
646.399	0.867	651002	WORD_OFF	n/a	n/a	BASEBALL	Toys	1	4	[0, 0, 0]	n/a	catFR1	0	R1616S
647.266	1.616	651869	WORD	n/a	wordpools/wordpool_categorized_EN.txt	DOLLHOUSE	Toys	2	4	[0, 0, 0]	n/a	catFR1	0	R1616S
648.882	0.983	653489	WORD_OFF	n/a	n/a	DOLLHOUSE	Toys	2	4	[0, 0, 0]	n/a	catFR1	0	R1616S
649.865	1.601	654467	WORD	n/a	wordpools/wordpool_categorized_EN.txt	BLUEBERRY	Fruit	3	4	[0, 0, 0]	n/a	catFR1	0	R1616S
651.466	0.916	656074	WORD_OFF	n/a	n/a	BLUEBERRY	Fruit	3	4	[0, 0, 0]	n/a	catFR1	0	R1616S
652.382	1.617	656982	WORD	n/a	wordpools/wordpool_categorized_EN.txt	PEAR	Fruit	4	4	[0, 0, 0]	n/a	catFR1	0	R1616S
653.999	0.899	658603	WORD_OFF	n/a	n/a	PEAR	Fruit	4	4	[0, 0, 0]	n/a	catFR1	0	R1616S
654.898	1.601	659497	WORD	n/a	wordpools/wordpool_categorized_EN.txt	DAISY	Flowers	5	4	[0, 0, 0]	n/a	catFR1	0	R1616S
656.499	0.917	661104	WORD_OFF	n/a	n/a	DAISY	Flowers	5	4	[0, 0, 0]	n/a	catFR1	0	R1616S
657.416	1.6	662012	WORD	n/a	wordpools/wordpool_categorized_EN.txt	TULIP	Flowers	6	4	[0, 0, 0]	n/a	catFR1	0	R1616S
659.016	0.818	663619	WORD_OFF	n/a	n/a	TULIP	Flowers	6	4	[0, 0, 0]	n/a	catFR1	0	R1616S
659.834	1.598	664429	WORD	n/a	wordpools/wordpool_categorized_EN.txt	BARBIE	Toys	7	4	[0, 0, 0]	n/a	catFR1	0	R1616S
661.432	0.866	666036	WORD_OFF	n/a	n/a	BARBIE	Toys	7	4	[0, 0, 0]	n/a	catFR1	0	R1616S
662.298	1.601	666902	WORD	n/a	wordpools/wordpool_categorized_EN.txt	FRISBEE	Toys	8	4	[0, 0, 0]	n/a	catFR1	0	R1616S
663.899	0.983	668495	WORD_OFF	n/a	n/a	FRISBEE	Toys	8	4	[0, 0, 0]	n/a	catFR1	0	R1616S
664.882	1.6	669487	WORD	n/a	wordpools/wordpool_categorized_EN.txt	VIOLET	Flowers	9	4	[0, 0, 0]	n/a	catFR1	0	R1616S
666.482	0.967	671080	WORD_OFF	n/a	n/a	VIOLET	Flowers	9	4	[0, 0, 0]	n/a	catFR1	0	R1616S
667.449	1.6	672044	WORD	n/a	wordpools/wordpool_categorized_EN.txt	PETUNIA	Flowers	10	4	[0, 0, 0]	n/a	catFR1	0	R1616S
669.049	0.883	673651	WORD_OFF	n/a	n/a	PETUNIA	Flowers	10	4	[0, 0, 0]	n/a	catFR1	0	R1616S
669.932	1.6	674531	WORD	n/a	wordpools/wordpool_categorized_EN.txt	STRAWBERRY	Fruit	11	4	[0, 0, 0]	n/a	catFR1	0	R1616S
671.532	0.949	676138	WORD_OFF	n/a	n/a	STRAWBERRY	Fruit	11	4	[0, 0, 0]	n/a	catFR1	0	R1616S
672.481	1.602	677088	WORD	n/a	wordpools/wordpool_categorized_EN.txt	GRAPE	Fruit	12	4	[0, 0, 0]	n/a	catFR1	0	R1616S
674.083	0.001	678681	WORD_OFF	n/a	n/a	GRAPE	Fruit	12	4	[0, 0, 0]	n/a	catFR1	0	R1616S
674.084	0.0	678681	ENCODING_END	n/a	n/a	n/a	n/a	-999	4	[0, 0, 0]	n/a	catFR1	0	R1616S
674.084	0.0	678681	DISTRACT_START	n/a	n/a	n/a	n/a	-999	4	[0, 0, 0]	n/a	catFR1	0	R1616S
674.084	0.0	678684	START	n/a	n/a	n/a	n/a	-999	4	[-999, -999, -999]	n/a	catFR1	0	R1616S
674.084	4.016	678684	PROB	3.999	n/a	n/a	n/a	-999	4	[2, 3, 6]	11.0	catFR1	0	R1616S
678.1	3.783	682700	PROB	3.766	n/a	n/a	n/a	-999	4	[4, 4, 3]	11.0	catFR1	0	R1616S
681.883	5.2	686483	PROB	5.183	n/a	n/a	n/a	-999	4	[8, 4, 4]	16.0	catFR1	0	R1616S
687.083	4.05	691683	PROB	4.033	n/a	n/a	n/a	-999	4	[3, 8, 8]	21.0	catFR1	0	R1616S
691.133	3.066	695732	PROB	3.049	n/a	n/a	n/a	-999	4	[6, 1, 1]	8.0	catFR1	0	R1616S
694.199	0.0	698798	STOP	n/a	n/a	n/a	n/a	-999	4	[-999, -999, -999]	n/a	catFR1	0	R1616S
694.199	2.066	698800	DISTRACT_END	n/a	n/a	n/a	n/a	-999	4	[0, 0, 0]	n/a	catFR1	0	R1616S
696.265	0.878	700862	REC_START	n/a	n/a	n/a	n/a	-999	4	[0, 0, 0]	n/a	catFR1	0	R1616S
697.143	0.811	701742	REC_WORD	0.878	n/a	PETUNIA	Flowers	10	4	[0, 0, 0]	n/a	catFR1	0	R1616S
697.954	2.346	702553	REC_WORD	1.689	n/a	VELVET	Fabric	-999	4	[0, 0, 0]	n/a	catFR1	0	R1616S
700.3	1.555	704899	REC_WORD	4.035	n/a	BARBIE	Toys	7	4	[0, 0, 0]	n/a	catFR1	0	R1616S
701.855	5.779	706454	REC_WORD	5.59	n/a	DOLLHOUSE	Toys	2	4	[0, 0, 0]	n/a	catFR1	0	R1616S
707.634	11.463	712233	REC_WORD_VV	11.369	n/a	<>	n/a	-999	4	[0, 0, 0]	n/a	catFR1	0	R1616S
719.097	0.753	723695	REC_WORD	22.832	n/a	VIOLET	Flowers	9	4	[0, 0, 0]	n/a	catFR1	0	R1616S
719.85	0.731	724448	REC_WORD	23.585	n/a	DOLLHOUSE	Toys	2	4	[0, 0, 0]	n/a	catFR1	0	R1616S
720.581	0.854	725179	REC_WORD	24.316	n/a	BARBIE	Toys	7	4	[0, 0, 0]	n/a	catFR1	0	R1616S
721.435	0.935	726033	REC_WORD	25.17	n/a	WALLET	n/a	-999	4	[0, 0, 0]	n/a	catFR1	0	R1616S
722.37	1.256	726968	REC_WORD	26.105	n/a	PETUNIA	Flowers	10	4	[0, 0, 0]	n/a	catFR1	0	R1616S
723.626	1.015	728224	REC_WORD	27.361	n/a	VELVET	Fabric	-999	4	[0, 0, 0]	n/a	catFR1	0	R1616S
724.641	1.85	729239	REC_WORD_VV	28.376	n/a	<>	n/a	-999	4	[0, 0, 0]	n/a	catFR1	0	R1616S
726.491	4.092	731089	REC_END	n/a	n/a	n/a	n/a	-999	4	[0, 0, 0]	n/a	catFR1	0	R1616S
730.583	10.35	735183	COUNTDOWN_START	n/a	n/a	n/a	n/a	-999	5	[0, 0, 0]	n/a	catFR1	0	R1616S
740.933	0.0	745536	COUNTDOWN_END	n/a	n/a	n/a	n/a	-999	5	[0, 0, 0]	n/a	catFR1	0	R1616S
740.933	2.1	745536	ENCODING_START	n/a	n/a	n/a	n/a	-999	5	[0, 0, 0]	n/a	catFR1	0	R1616S
743.033	1.599	747632	WORD	n/a	wordpools/wordpool_categorized_EN.txt	FISH	OceanAnimals	1	5	[0, 0, 0]	n/a	catFR1	0	R1616S
744.632	0.817	749224	WORD_OFF	n/a	n/a	FISH	OceanAnimals	1	5	[0, 0, 0]	n/a	catFR1	0	R1616S
745.449	1.6	750049	WORD	n/a	wordpools/wordpool_categorized_EN.txt	OCTOPUS	OceanAnimals	2	5	[0, 0, 0]	n/a	catFR1	0	R1616S
747.049	0.8	751641	WORD_OFF	n/a	n/a	OCTOPUS	OceanAnimals	2	5	[0, 0, 0]	n/a	catFR1	0	R1616S
747.849	1.6	752452	WORD	n/a	wordpools/wordpool_categorized_EN.txt	PLUM	Fruit	3	5	[0, 0, 0]	n/a	catFR1	0	R1616S
749.449	0.916	754045	WORD_OFF	n/a	n/a	PLUM	Fruit	3	5	[0, 0, 0]	n/a	catFR1	0	R1616S
750.365	1.601	754967	WORD	n/a	wordpools/wordpool_categorized_EN.txt	CHERRY	Fruit	4	5	[0, 0, 0]	n/a	catFR1	0	R1616S
751.966	0.866	756560	WORD_OFF	n/a	n/a	CHERRY	Fruit	4	5	[0, 0, 0]	n/a	catFR1	0	R1616S
752.832	1.601	757426	WORD	n/a	wordpools/wordpool_categorized_EN.txt	PINE	Trees	5	5	[0, 0, 0]	n/a	catFR1	0	R1616S
754.433	0.883	759033	WORD_OFF	n/a	n/a	PINE	Trees	5	5	[0, 0, 0]	n/a	catFR1	0	R1616S
755.316	1.6	759913	WORD	n/a	wordpools/wordpool_categorized_EN.txt	CYPRESS	Trees	6	5	[0, 0, 0]	n/a	catFR1	0	R1616S
756.916	0.782	761520	WORD_OFF	n/a	n/a	CYPRESS	Trees	6	5	[0, 0, 0]	n/a	catFR1	0	R1616S
757.698	1.601	762302	WORD	n/a	wordpools/wordpool_categorized_EN.txt	CRAB	OceanAnimals	7	5	[0, 0, 0]	n/a	catFR1	0	R1616S
759.299	0.884	763895	WORD_OFF	n/a	n/a	CRAB	OceanAnimals	7	5	[0, 0, 0]	n/a	catFR1	0	R1616S
760.183	1.599	764775	WORD	n/a	wordpools/wordpool_categorized_EN.txt	OYSTER	OceanAnimals	8	5	[0, 0, 0]	n/a	catFR1	0	R1616S
761.782	0.967	766382	WORD_OFF	n/a	n/a	OYSTER	OceanAnimals	8	5	[0, 0, 0]	n/a	catFR1	0	R1616S
762.749	1.617	767346	WORD	n/a	wordpools/wordpool_categorized_EN.txt	ELM	Trees	9	5	[0, 0, 0]	n/a	catFR1	0	R1616S
764.366	0.982	768966	WORD_OFF	n/a	n/a	ELM	Trees	9	5	[0, 0, 0]	n/a	catFR1	0	R1616S
765.348	1.6	769945	WORD	n/a	wordpools/wordpool_categorized_EN.txt	SPRUCE	Trees	10	5	[0, 0, 0]	n/a	catFR1	0	R1616S
766.948	0.901	771551	WORD_OFF	n/a	n/a	SPRUCE	Trees	10	5	[0, 0, 0]	n/a	catFR1	0	R1616S
767.849	1.617	772445	WORD	n/a	wordpools/wordpool_categorized_EN.txt	APPLE	Fruit	11	5	[0, 0, 0]	n/a	catFR1	0	R1616S
769.466	0.766	774066	WORD_OFF	n/a	n/a	APPLE	Fruit	11	5	[0, 0, 0]	n/a	catFR1	0	R1616S
770.232	1.617	774835	WORD	n/a	wordpools/wordpool_categorized_EN.txt	PEACH	Fruit	12	5	[0, 0, 0]	n/a	catFR1	0	R1616S
771.849	0.001	776441	WORD_OFF	n/a	n/a	PEACH	Fruit	12	5	[0, 0, 0]	n/a	catFR1	0	R1616S
771.85	0.0	776441	ENCODING_END	n/a	n/a	n/a	n/a	-999	5	[0, 0, 0]	n/a	catFR1	0	R1616S
771.849	0.002	776445	PROB	4.75	n/a	n/a	n/a	-999	5	[3, 1, 6]	10.0	catFR1	0	R1616S
771.851	0.0	776447	START	n/a	n/a	n/a	n/a	-999	5	[-999, -999, -999]	n/a	catFR1	0	R1616S
771.851	4.765	776455	DISTRACT_START	n/a	n/a	n/a	n/a	-999	5	[0, 0, 0]	n/a	catFR1	0	R1616S
776.616	3.867	781211	PROB	3.849	n/a	n/a	n/a	-999	5	[3, 3, 6]	12.0	catFR1	0	R1616S
780.483	3.399	785078	PROB	3.382	n/a	n/a	n/a	-999	5	[5, 1, 2]	8.0	catFR1	0	R1616S
783.882	7.318	788477	PROB	7.3	n/a	n/a	n/a	-999	5	[6, 6, 5]	17.0	catFR1	0	R1616S
791.2	4.649	795795	PROB	4.633	n/a	n/a	n/a	-999	5	[7, 7, 8]	22.0	catFR1	0	R1616S
795.849	0.0	800444	STOP	n/a	n/a	n/a	n/a	-999	5	[-999, -999, -999]	n/a	catFR1	0	R1616S
795.849	2.216	800445	DISTRACT_END	n/a	n/a	n/a	n/a	-999	5	[0, 0, 0]	n/a	catFR1	0	R1616S
798.065	1.783	802661	REC_START	n/a	n/a	n/a	n/a	-999	5	[0, 0, 0]	n/a	catFR1	0	R1616S
799.848	0.883	804442	REC_WORD	1.783	n/a	FISH	OceanAnimals	1	5	[0, 0, 0]	n/a	catFR1	0	R1616S
800.731	1.314	805325	REC_WORD	2.666	n/a	OCTOPUS	OceanAnimals	2	5	[0, 0, 0]	n/a	catFR1	0	R1616S
802.045	2.167	806639	REC_WORD	3.98	n/a	OAK	Trees	-999	5	[0, 0, 0]	n/a	catFR1	0	R1616S
804.212	2.094	808806	REC_WORD	6.147	n/a	MAPLE	Trees	-999	5	[0, 0, 0]	n/a	catFR1	0	R1616S
806.306	2.346	810900	REC_WORD	8.241	n/a	ELM	Trees	9	5	[0, 0, 0]	n/a	catFR1	0	R1616S
808.652	7.385	813246	REC_WORD	10.587	n/a	PINE	Trees	5	5	[0, 0, 0]	n/a	catFR1	0	R1616S
816.037	4.562	820631	REC_WORD	17.972	n/a	APPLE	Fruit	11	5	[0, 0, 0]	n/a	catFR1	0	R1616S
820.599	1.592	825192	REC_WORD	22.534	n/a	PLUM	Fruit	3	5	[0, 0, 0]	n/a	catFR1	0	R1616S
822.191	1.685	826784	REC_WORD_VV	24.126	n/a	<>	n/a	-999	5	[0, 0, 0]	n/a	catFR1	0	R1616S
823.876	2.122	828469	REC_WORD_VV	25.811	n/a	<>	n/a	-999	5	[0, 0, 0]	n/a	catFR1	0	R1616S
825.998	0.521	830591	REC_WORD_VV	27.933	n/a	<>	n/a	-999	5	[0, 0, 0]	n/a	catFR1	0	R1616S
826.519	1.782	831112	REC_WORD	28.454	n/a	PINE	Trees	5	5	[0, 0, 0]	n/a	catFR1	0	R1616S
828.301	2.88	832888	REC_END	n/a	n/a	n/a	n/a	-999	5	[0, 0, 0]	n/a	catFR1	0	R1616S
831.181	10.351	835780	COUNTDOWN_START	n/a	n/a	n/a	n/a	-999	6	[0, 0, 0]	n/a	catFR1	0	R1616S
841.532	0.0	846119	COUNTDOWN_END	n/a	n/a	n/a	n/a	-999	6	[0, 0, 0]	n/a	catFR1	0	R1616S
841.532	2.384	846133	ENCODING_START	n/a	n/a	n/a	n/a	-999	6	[0, 0, 0]	n/a	catFR1	0	R1616S
843.916	1.6	848508	WORD	n/a	wordpools/wordpool_categorized_EN.txt	TELEVISION	Electronics	1	6	[0, 0, 0]	n/a	catFR1	0	R1616S
845.516	0.933	850115	WORD_OFF	n/a	n/a	TELEVISION	Electronics	1	6	[0, 0, 0]	n/a	catFR1	0	R1616S
846.449	1.6	851037	WORD	n/a	wordpools/wordpool_categorized_EN.txt	HEADPHONES	Electronics	2	6	[0, 0, 0]	n/a	catFR1	0	R1616S
848.049	0.9	852644	WORD_OFF	n/a	n/a	HEADPHONES	Electronics	2	6	[0, 0, 0]	n/a	catFR1	0	R1616S
848.949	1.6	853538	WORD	n/a	wordpools/wordpool_categorized_EN.txt	FINGERS	BodyParts	3	6	[0, 0, 0]	n/a	catFR1	0	R1616S
850.549	0.817	855145	WORD_OFF	n/a	n/a	FINGERS	BodyParts	3	6	[0, 0, 0]	n/a	catFR1	0	R1616S
851.366	1.599	855955	WORD	n/a	wordpools/wordpool_categorized_EN.txt	ELBOW	BodyParts	4	6	[0, 0, 0]	n/a	catFR1	0	R1616S
852.965	0.967	857562	WORD_OFF	n/a	n/a	ELBOW	BodyParts	4	6	[0, 0, 0]	n/a	catFR1	0	R1616S
853.932	1.6	858526	WORD	n/a	wordpools/wordpool_categorized_EN.txt	CAKE	Desserts	5	6	[0, 0, 0]	n/a	catFR1	0	R1616S
855.532	0.95	860119	WORD_OFF	n/a	n/a	CAKE	Desserts	5	6	[0, 0, 0]	n/a	catFR1	0	R1616S
856.482	1.6	861069	WORD	n/a	wordpools/wordpool_categorized_EN.txt	FUDGE	Desserts	6	6	[0, 0, 0]	n/a	catFR1	0	R1616S
858.082	1.001	862675	WORD_OFF	n/a	n/a	FUDGE	Desserts	6	6	[0, 0, 0]	n/a	catFR1	0	R1616S
859.083	1.599	863681	WORD	n/a	wordpools/wordpool_categorized_EN.txt	EAR	BodyParts	7	6	[0, 0, 0]	n/a	catFR1	0	R1616S
860.682	0.901	865274	WORD_OFF	n/a	n/a	EAR	BodyParts	7	6	[0, 0, 0]	n/a	catFR1	0	R1616S
861.583	1.616	866168	WORD	n/a	wordpools/wordpool_categorized_EN.txt	HAND	BodyParts	8	6	[0, 0, 0]	n/a	catFR1	0	R1616S
863.199	0.767	867789	WORD_OFF	n/a	n/a	HAND	BodyParts	8	6	[0, 0, 0]	n/a	catFR1	0	R1616S
863.966	1.617	868558	WORD	n/a	wordpools/wordpool_categorized_EN.txt	PUDDING	Desserts	9	6	[0, 0, 0]	n/a	catFR1	0	R1616S
865.583	0.766	870178	WORD_OFF	n/a	n/a	PUDDING	Desserts	9	6	[0, 0, 0]	n/a	catFR1	0	R1616S
866.349	1.617	870947	WORD	n/a	wordpools/wordpool_categorized_EN.txt	COOKIE	Desserts	10	6	[0, 0, 0]	n/a	catFR1	0	R1616S
867.966	1.0	872554	WORD_OFF	n/a	n/a	COOKIE	Desserts	10	6	[0, 0, 0]	n/a	catFR1	0	R1616S
868.966	1.616	873560	WORD	n/a	wordpools/wordpool_categorized_EN.txt	TABLET	Electronics	11	6	[0, 0, 0]	n/a	catFR1	0	R1616S
870.582	1.0	875180	WORD_OFF	n/a	n/a	TABLET	Electronics	11	6	[0, 0, 0]	n/a	catFR1	0	R1616S
871.582	1.6	876172	WORD	n/a	wordpools/wordpool_categorized_EN.txt	STEREO	Electronics	12	6	[0, 0, 0]	n/a	catFR1	0	R1616S
873.182	0.001	877773	PROB	4.916	n/a	n/a	n/a	-999	6	[5, 3, 2]	10.0	catFR1	0	R1616S
873.183	0.0	877774	START	n/a	n/a	n/a	n/a	-999	6	[-999, -999, -999]	n/a	catFR1	0	R1616S
873.182	0.001	877779	WORD_OFF	n/a	n/a	STEREO	Electronics	12	6	[0, 0, 0]	n/a	catFR1	0	R1616S
873.183	0.0	877779	ENCODING_END	n/a	n/a	n/a	n/a	-999	6	[0, 0, 0]	n/a	catFR1	0	R1616S
873.183	4.933	877779	DISTRACT_START	n/a	n/a	n/a	n/a	-999	6	[0, 0, 0]	n/a	catFR1	0	R1616S
878.116	11.4	882707	PROB	11.383	n/a	n/a	n/a	-999	6	[1, 8, 5]	14.0	catFR1	0	R1616S
889.516	5.416	894106	PROB	5.4	n/a	n/a	n/a	-999	6	[6, 3, 4]	13.0	catFR1	0	R1616S
894.932	0.0	899519	DISTRACT_END	n/a	n/a	n/a	n/a	-999	6	[0, 0, 0]	n/a	catFR1	0	R1616S
894.932	2.334	899522	STOP	n/a	n/a	n/a	n/a	-999	6	[-999, -999, -999]	n/a	catFR1	0	R1616S
897.266	1.822	901860	REC_START	n/a	n/a	n/a	n/a	-999	6	[0, 0, 0]	n/a	catFR1	0	R1616S
899.088	2.15	903678	REC_WORD_VV	1.822	n/a	<>	n/a	-999	6	[0, 0, 0]	n/a	catFR1	0	R1616S
901.238	2.369	905828	REC_WORD	3.972	n/a	TELEVISION	Electronics	1	6	[0, 0, 0]	n/a	catFR1	0	R1616S
903.607	1.299	908196	REC_WORD	6.341	n/a	HAND	BodyParts	8	6	[0, 0, 0]	n/a	catFR1	0	R1616S
904.906	3.24	909495	REC_WORD	7.64	n/a	FINGERS	BodyParts	3	6	[0, 0, 0]	n/a	catFR1	0	R1616S
908.146	0.87	912735	REC_WORD_VV	10.88	n/a	<>	n/a	-999	6	[0, 0, 0]	n/a	catFR1	0	R1616S
909.016	1.776	913605	REC_WORD	11.75	n/a	CAKE	Desserts	5	6	[0, 0, 0]	n/a	catFR1	0	R1616S
910.792	2.376	915381	REC_WORD	13.526	n/a	PUDDING	Desserts	9	6	[0, 0, 0]	n/a	catFR1	0	R1616S
913.168	2.822	917757	REC_WORD_VV	15.902	n/a	<>	n/a	-999	6	[0, 0, 0]	n/a	catFR1	0	R1616S
915.99	0.488	920579	REC_WORD_VV	18.724	n/a	<>	n/a	-999	6	[0, 0, 0]	n/a	catFR1	0	R1616S
916.478	0.534	921067	REC_WORD	19.212	n/a	CAKE	Desserts	5	6	[0, 0, 0]	n/a	catFR1	0	R1616S
917.012	0.953	921601	REC_WORD	19.746	n/a	PUDDING	Desserts	9	6	[0, 0, 0]	n/a	catFR1	0	R1616S
917.965	2.674	922554	REC_WORD	20.699	n/a	FEET	n/a	-999	6	[0, 0, 0]	n/a	catFR1	0	R1616S
920.639	3.635	925228	REC_WORD_VV	23.373	n/a	<>	n/a	-999	6	[0, 0, 0]	n/a	catFR1	0	R1616S
924.274	0.245	928862	REC_WORD_VV	27.008	n/a	<>	n/a	-999	6	[0, 0, 0]	n/a	catFR1	0	R1616S
924.519	0.445	929107	REC_WORD	27.253	n/a	HAND	BodyParts	8	6	[0, 0, 0]	n/a	catFR1	0	R1616S
924.964	0.59	929552	REC_WORD	27.698	n/a	FINGERS	BodyParts	3	6	[0, 0, 0]	n/a	catFR1	0	R1616S
925.554	1.93	930142	REC_WORD	28.288	n/a	FEET	n/a	-999	6	[0, 0, 0]	n/a	catFR1	0	R1616S
927.484	2.265	932073	REC_END	n/a	n/a	n/a	n/a	-999	6	[0, 0, 0]	n/a	catFR1	0	R1616S
929.749	10.351	934337	COUNTDOWN_START	n/a	n/a	n/a	n/a	-999	7	[0, 0, 0]	n/a	catFR1	0	R1616S
940.1	0.0	944690	COUNTDOWN_END	n/a	n/a	n/a	n/a	-999	7	[0, 0, 0]	n/a	catFR1	0	R1616S
940.1	2.166	944690	ENCODING_START	n/a	n/a	n/a	n/a	-999	7	[0, 0, 0]	n/a	catFR1	0	R1616S
942.266	1.6	946856	WORD	n/a	wordpools/wordpool_categorized_EN.txt	ZEBRA	Zoo	1	7	[0, 0, 0]	n/a	catFR1	0	R1616S
943.866	0.816	948448	WORD_OFF	n/a	n/a	ZEBRA	Zoo	1	7	[0, 0, 0]	n/a	catFR1	0	R1616S
944.682	1.6	949273	WORD	n/a	wordpools/wordpool_categorized_EN.txt	PANDA	Zoo	2	7	[0, 0, 0]	n/a	catFR1	0	R1616S
946.282	0.917	950866	WORD_OFF	n/a	n/a	PANDA	Zoo	2	7	[0, 0, 0]	n/a	catFR1	0	R1616S
947.199	1.616	951788	WORD	n/a	wordpools/wordpool_categorized_EN.txt	SPEAKER	Electronics	3	7	[0, 0, 0]	n/a	catFR1	0	R1616S
948.815	0.901	953408	WORD_OFF	n/a	n/a	SPEAKER	Electronics	3	7	[0, 0, 0]	n/a	catFR1	0	R1616S
949.716	1.616	954303	WORD	n/a	wordpools/wordpool_categorized_EN.txt	COMPUTER	Electronics	4	7	[0, 0, 0]	n/a	catFR1	0	R1616S
951.332	0.967	955923	WORD_OFF	n/a	n/a	COMPUTER	Electronics	4	7	[0, 0, 0]	n/a	catFR1	0	R1616S
952.299	1.617	956887	WORD	n/a	wordpools/wordpool_categorized_EN.txt	PIE	Desserts	5	7	[0, 0, 0]	n/a	catFR1	0	R1616S
953.916	0.966	958508	WORD_OFF	n/a	n/a	PIE	Desserts	5	7	[0, 0, 0]	n/a	catFR1	0	R1616S
954.882	1.6	959472	WORD	n/a	wordpools/wordpool_categorized_EN.txt	BROWNIES	Desserts	6	7	[0, 0, 0]	n/a	catFR1	0	R1616S
956.482	0.817	961065	WORD_OFF	n/a	n/a	BROWNIES	Desserts	6	7	[0, 0, 0]	n/a	catFR1	0	R1616S
957.299	1.6	961889	WORD	n/a	wordpools/wordpool_categorized_EN.txt	PRINTER	Electronics	7	7	[0, 0, 0]	n/a	catFR1	0	R1616S
958.899	0.783	963482	WORD_OFF	n/a	n/a	PRINTER	Electronics	7	7	[0, 0, 0]	n/a	catFR1	0	R1616S
959.682	1.6	964265	WORD	n/a	wordpools/wordpool_categorized_EN.txt	RADIO	Electronics	8	7	[0, 0, 0]	n/a	catFR1	0	R1616S
961.282	0.949	965871	WORD_OFF	n/a	n/a	RADIO	Electronics	8	7	[0, 0, 0]	n/a	catFR1	0	R1616S
962.231	1.618	966821	WORD	n/a	wordpools/wordpool_categorized_EN.txt	ELEPHANT	Zoo	9	7	[0, 0, 0]	n/a	catFR1	0	R1616S
963.849	0.95	968442	WORD_OFF	n/a	n/a	ELEPHANT	Zoo	9	7	[0, 0, 0]	n/a	catFR1	0	R1616S
964.799	1.6	969392	WORD	n/a	wordpools/wordpool_categorized_EN.txt	MONKEY	Zoo	10	7	[0, 0, 0]	n/a	catFR1	0	R1616S
966.399	0.85	970985	WORD_OFF	n/a	n/a	MONKEY	Zoo	10	7	[0, 0, 0]	n/a	catFR1	0	R1616S
967.249	1.6	971837	WORD	n/a	wordpools/wordpool_categorized_EN.txt	PASTRY	Desserts	11	7	[0, 0, 0]	n/a	catFR1	0	R1616S
968.849	0.767	973430	WORD_OFF	n/a	n/a	PASTRY	Desserts	11	7	[0, 0, 0]	n/a	catFR1	0	R1616S
969.616	1.616	974198	WORD	n/a	wordpools/wordpool_categorized_EN.txt	CHEESECAKE	Desserts	12	7	[0, 0, 0]	n/a	catFR1	0	R1616S
971.232	0.0	975818	PROB	4.5	n/a	n/a	n/a	-999	7	[4, 6, 6]	16.0	catFR1	0	R1616S
971.232	0.002	975819	WORD_OFF	n/a	n/a	CHEESECAKE	Desserts	12	7	[0, 0, 0]	n/a	catFR1	0	R1616S
971.234	0.0	975820	START	n/a	n/a	n/a	n/a	-999	7	[-999, -999, -999]	n/a	catFR1	0	R1616S
971.234	0.0	975833	ENCODING_END	n/a	n/a	n/a	n/a	-999	7	[0, 0, 0]	n/a	catFR1	0	R1616S
971.234	4.517	975833	DISTRACT_START	n/a	n/a	n/a	n/a	-999	7	[0, 0, 0]	n/a	catFR1	0	R1616S
975.751	3.766	980337	PROB	3.75	n/a	n/a	n/a	-999	7	[5, 1, 2]	8.0	catFR1	0	R1616S
979.517	4.499	984103	PROB	4.483	n/a	n/a	n/a	-999	7	[7, 7, 8]	22.0	catFR1	0	R1616S
984.016	4.433	988602	PROB	4.417	n/a	n/a	n/a	-999	7	[8, 1, 4]	13.0	catFR1	0	R1616S
988.449	3.283	993034	PROB	3.266	n/a	n/a	n/a	-999	7	[4, 1, 5]	10.0	catFR1	0	R1616S
991.732	0.0	996316	DISTRACT_END	n/a	n/a	n/a	n/a	-999	7	[0, 0, 0]	n/a	catFR1	0	R1616S
991.732	2.067	996317	STOP	n/a	n/a	n/a	n/a	-999	7	[-999, -999, -999]	n/a	catFR1	0	R1616S
993.799	1.342	998378	REC_START	n/a	n/a	n/a	n/a	-999	7	[0, 0, 0]	n/a	catFR1	0	R1616S
995.141	0.685	999726	REC_WORD	1.342	n/a	PASTRY	Desserts	11	7	[0, 0, 0]	n/a	catFR1	0	R1616S
995.826	0.927	1000411	REC_WORD	2.027	n/a	ZEBRA	Zoo	1	7	[0, 0, 0]	n/a	catFR1	0	R1616S
996.753	1.253	1001338	REC_WORD	2.954	n/a	CAKE	Desserts	-999	7	[0, 0, 0]	n/a	catFR1	0	R1616S
998.006	2.947	1002591	REC_WORD	4.207	n/a	BROWNIES	Desserts	6	7	[0, 0, 0]	n/a	catFR1	0	R1616S
1000.953	1.369	1005538	REC_WORD_VV	7.154	n/a	<>	n/a	-999	7	[0, 0, 0]	n/a	catFR1	0	R1616S
1002.322	3.84	1006907	REC_WORD	8.523	n/a	CAKE	Desserts	-999	7	[0, 0, 0]	n/a	catFR1	0	R1616S
1006.162	6.326	1010747	REC_WORD	12.363	n/a	ZEBRA	Zoo	1	7	[0, 0, 0]	n/a	catFR1	0	R1616S
1012.488	3.614	1017072	REC_WORD_VV	18.689	n/a	<>	n/a	-999	7	[0, 0, 0]	n/a	catFR1	0	R1616S
1016.102	7.928	1020686	REC_WORD_VV	22.303	n/a	<>	n/a	-999	7	[0, 0, 0]	n/a	catFR1	0	R1616S
1024.03	1.818	1028619	REC_END	n/a	n/a	n/a	n/a	-999	7	[0, 0, 0]	n/a	catFR1	0	R1616S
1025.848	10.35	1030435	COUNTDOWN_START	n/a	n/a	n/a	n/a	-999	8	[0, 0, 0]	n/a	catFR1	0	R1616S
1036.198	0.0	1040788	COUNTDOWN_END	n/a	n/a	n/a	n/a	-999	8	[0, 0, 0]	n/a	catFR1	0	R1616S
1036.198	2.1	1040788	ENCODING_START	n/a	n/a	n/a	n/a	-999	8	[0, 0, 0]	n/a	catFR1	0	R1616S
1038.298	1.6	1042884	WORD	n/a	wordpools/wordpool_categorized_EN.txt	STOVE	Appliances	1	8	[0, 0, 0]	n/a	catFR1	0	R1616S
1039.898	0.801	1044477	WORD_OFF	n/a	n/a	STOVE	Appliances	1	8	[0, 0, 0]	n/a	catFR1	0	R1616S
1040.699	1.616	1045287	WORD	n/a	wordpools/wordpool_categorized_EN.txt	OVEN	Appliances	2	8	[0, 0, 0]	n/a	catFR1	0	R1616S
1042.315	0.867	1046894	WORD_OFF	n/a	n/a	OVEN	Appliances	2	8	[0, 0, 0]	n/a	catFR1	0	R1616S
1043.182	1.617	1047760	WORD	n/a	wordpools/wordpool_categorized_EN.txt	GUITAR	Instruments	3	8	[0, 0, 0]	n/a	catFR1	0	R1616S
1044.799	0.867	1049381	WORD_OFF	n/a	n/a	GUITAR	Instruments	3	8	[0, 0, 0]	n/a	catFR1	0	R1616S
1045.666	1.616	1050247	WORD	n/a	wordpools/wordpool_categorized_EN.txt	TRUMPET	Instruments	4	8	[0, 0, 0]	n/a	catFR1	0	R1616S
1047.282	0.8	1051868	WORD_OFF	n/a	n/a	TRUMPET	Instruments	4	8	[0, 0, 0]	n/a	catFR1	0	R1616S
1048.082	1.6	1052664	WORD	n/a	wordpools/wordpool_categorized_EN.txt	SOFA	Furniture	5	8	[0, 0, 0]	n/a	catFR1	0	R1616S
1049.682	0.934	1054271	WORD_OFF	n/a	n/a	SOFA	Furniture	5	8	[0, 0, 0]	n/a	catFR1	0	R1616S
1050.616	1.616	1055193	WORD	n/a	wordpools/wordpool_categorized_EN.txt	CABINET	Furniture	6	8	[0, 0, 0]	n/a	catFR1	0	R1616S
1052.232	0.833	1056814	WORD_OFF	n/a	n/a	CABINET	Furniture	6	8	[0, 0, 0]	n/a	catFR1	0	R1616S
1053.065	1.601	1057652	WORD	n/a	wordpools/wordpool_categorized_EN.txt	CELLO	Instruments	7	8	[0, 0, 0]	n/a	catFR1	0	R1616S
1054.666	0.833	1059245	WORD_OFF	n/a	n/a	CELLO	Instruments	7	8	[0, 0, 0]	n/a	catFR1	0	R1616S
1055.499	1.617	1060083	WORD	n/a	wordpools/wordpool_categorized_EN.txt	PIANO	Instruments	8	8	[0, 0, 0]	n/a	catFR1	0	R1616S
1057.116	1.0	1061704	WORD_OFF	n/a	n/a	PIANO	Instruments	8	8	[0, 0, 0]	n/a	catFR1	0	R1616S
1058.116	1.616	1062696	WORD	n/a	wordpools/wordpool_categorized_EN.txt	REFRIGERATOR	Appliances	9	8	[0, 0, 0]	n/a	catFR1	0	R1616S
1059.732	0.917	1064317	WORD_OFF	n/a	n/a	REFRIGERATOR	Appliances	9	8	[0, 0, 0]	n/a	catFR1	0	R1616S
1060.649	1.617	1065225	WORD	n/a	wordpools/wordpool_categorized_EN.txt	TOASTER	Appliances	10	8	[0, 0, 0]	n/a	catFR1	0	R1616S
1062.266	0.833	1066846	WORD_OFF	n/a	n/a	TOASTER	Appliances	10	8	[0, 0, 0]	n/a	catFR1	0	R1616S
1063.099	1.6	1067684	WORD	n/a	wordpools/wordpool_categorized_EN.txt	DRESSER	Furniture	11	8	[0, 0, 0]	n/a	catFR1	0	R1616S
1064.699	0.832	1069277	WORD_OFF	n/a	n/a	DRESSER	Furniture	11	8	[0, 0, 0]	n/a	catFR1	0	R1616S
1065.531	1.6	1070115	WORD	n/a	wordpools/wordpool_categorized_EN.txt	RECLINER	Furniture	12	8	[0, 0, 0]	n/a	catFR1	0	R1616S
1067.131	0.001	1071708	WORD_OFF	n/a	n/a	RECLINER	Furniture	12	8	[0, 0, 0]	n/a	catFR1	0	R1616S
1067.132	0.001	1071714	PROB	4.267	n/a	n/a	n/a	-999	8	[4, 6, 6]	16.0	catFR1	0	R1616S
1067.133	0.0	1071715	START	n/a	n/a	n/a	n/a	-999	8	[-999, -999, -999]	n/a	catFR1	0	R1616S
1067.133	0.0	1071722	ENCODING_END	n/a	n/a	n/a	n/a	-999	8	[0, 0, 0]	n/a	catFR1	0	R1616S
1067.133	4.284	1071722	DISTRACT_START	n/a	n/a	n/a	n/a	-999	8	[0, 0, 0]	n/a	catFR1	0	R1616S
1071.417	8.333	1075998	PROB	8.315	n/a	n/a	n/a	-999	8	[4, 7, 4]	15.0	catFR1	0	R1616S
1079.75	5.599	1084331	PROB	5.582	n/a	n/a	n/a	-999	8	[3, 3, 8]	14.0	catFR1	0	R1616S
1085.349	4.133	1089930	PROB	4.116	n/a	n/a	n/a	-999	8	[4, 2, 4]	10.0	catFR1	0	R1616S
1089.482	0.0	1094063	DISTRACT_END	n/a	n/a	n/a	n/a	-999	8	[0, 0, 0]	n/a	catFR1	0	R1616S
1089.482	2.316	1094063	STOP	n/a	n/a	n/a	n/a	-999	8	[-999, -999, -999]	n/a	catFR1	0	R1616S
1091.798	1.952	1096376	REC_START	n/a	n/a	n/a	n/a	-999	8	[0, 0, 0]	n/a	catFR1	0	R1616S
1093.75	0.864	1098330	REC_WORD	1.952	n/a	OVEN	Appliances	2	8	[0, 0, 0]	n/a	catFR1	0	R1616S
1094.614	0.723	1099194	REC_WORD	2.816	n/a	STOVE	Appliances	1	8	[0, 0, 0]	n/a	catFR1	0	R1616S
1095.337	2.314	1099917	REC_WORD	3.539	n/a	REFRIGERATOR	Appliances	9	8	[0, 0, 0]	n/a	catFR1	0	R1616S
1097.651	2.4	1102231	REC_WORD_VV	5.853	n/a	<>	n/a	-999	8	[0, 0, 0]	n/a	catFR1	0	R1616S
1100.051	6.451	1104631	REC_WORD	8.253	n/a	PIZZA	n/a	-999	8	[0, 0, 0]	n/a	catFR1	0	R1616S
1106.502	1.322	1111082	REC_WORD_VV	14.704	n/a	<>	n/a	-999	8	[0, 0, 0]	n/a	catFR1	0	R1616S
1107.824	7.448	1112404	REC_WORD_VV	16.026	n/a	<>	n/a	-999	8	[0, 0, 0]	n/a	catFR1	0	R1616S
1115.272	1.971	1119851	REC_WORD_VV	23.474	n/a	<>	n/a	-999	8	[0, 0, 0]	n/a	catFR1	0	R1616S
1117.243	0.592	1121822	REC_WORD	25.445	n/a	STOVE	Appliances	1	8	[0, 0, 0]	n/a	catFR1	0	R1616S
1117.835	4.186	1122414	REC_WORD_VV	26.037	n/a	<>	n/a	-999	8	[0, 0, 0]	n/a	catFR1	0	R1616S
1122.021	1.878	1126603	REC_END	n/a	n/a	n/a	n/a	-999	8	[0, 0, 0]	n/a	catFR1	0	R1616S
1123.899	10.349	1128475	COUNTDOWN_START	n/a	n/a	n/a	n/a	-999	9	[0, 0, 0]	n/a	catFR1	0	R1616S
1134.248	0.0	1138828	COUNTDOWN_END	n/a	n/a	n/a	n/a	-999	9	[0, 0, 0]	n/a	catFR1	0	R1616S
1134.248	2.117	1138828	ENCODING_START	n/a	n/a	n/a	n/a	-999	9	[0, 0, 0]	n/a	catFR1	0	R1616S
1136.365	1.6	1140938	WORD	n/a	wordpools/wordpool_categorized_EN.txt	TURTLE	OceanAnimals	1	9	[0, 0, 0]	n/a	catFR1	0	R1616S
1137.965	0.967	1142545	WORD_OFF	n/a	n/a	TURTLE	OceanAnimals	1	9	[0, 0, 0]	n/a	catFR1	0	R1616S
1138.932	1.601	1143509	WORD	n/a	wordpools/wordpool_categorized_EN.txt	PLANKTON	OceanAnimals	2	9	[0, 0, 0]	n/a	catFR1	0	R1616S
1140.533	1.0	1145116	WORD_OFF	n/a	n/a	PLANKTON	OceanAnimals	2	9	[0, 0, 0]	n/a	catFR1	0	R1616S
1141.533	1.616	1146108	WORD	n/a	wordpools/wordpool_categorized_EN.txt	BIKE	Vehicles	3	9	[0, 0, 0]	n/a	catFR1	0	R1616S
1143.149	0.983	1147728	WORD_OFF	n/a	n/a	BIKE	Vehicles	3	9	[0, 0, 0]	n/a	catFR1	0	R1616S
1144.132	1.617	1148706	WORD	n/a	wordpools/wordpool_categorized_EN.txt	PLANE	Vehicles	4	9	[0, 0, 0]	n/a	catFR1	0	R1616S
1145.749	0.85	1150327	WORD_OFF	n/a	n/a	PLANE	Vehicles	4	9	[0, 0, 0]	n/a	catFR1	0	R1616S
1146.599	1.616	1151180	WORD	n/a	wordpools/wordpool_categorized_EN.txt	CLOUD	Weather	5	9	[0, 0, 0]	n/a	catFR1	0	R1616S
1148.215	0.917	1152800	WORD_OFF	n/a	n/a	CLOUD	Weather	5	9	[0, 0, 0]	n/a	catFR1	0	R1616S
1149.132	1.616	1153708	WORD	n/a	wordpools/wordpool_categorized_EN.txt	THUNDERSTORM	Weather	6	9	[0, 0, 0]	n/a	catFR1	0	R1616S
1150.748	0.966	1155329	WORD_OFF	n/a	n/a	THUNDERSTORM	Weather	6	9	[0, 0, 0]	n/a	catFR1	0	R1616S
1151.714	1.601	1156293	WORD	n/a	wordpools/wordpool_categorized_EN.txt	DOLPHIN	OceanAnimals	7	9	[0, 0, 0]	n/a	catFR1	0	R1616S
1153.315	0.966	1157900	WORD_OFF	n/a	n/a	DOLPHIN	OceanAnimals	7	9	[0, 0, 0]	n/a	catFR1	0	R1616S
1154.281	1.601	1158864	WORD	n/a	wordpools/wordpool_categorized_EN.txt	SHRIMP	OceanAnimals	8	9	[0, 0, 0]	n/a	catFR1	0	R1616S
1155.882	0.867	1160457	WORD_OFF	n/a	n/a	SHRIMP	OceanAnimals	8	9	[0, 0, 0]	n/a	catFR1	0	R1616S
1156.749	1.6	1161323	WORD	n/a	wordpools/wordpool_categorized_EN.txt	FOG	Weather	9	9	[0, 0, 0]	n/a	catFR1	0	R1616S
1158.349	0.916	1162930	WORD_OFF	n/a	n/a	FOG	Weather	9	9	[0, 0, 0]	n/a	catFR1	0	R1616S
1159.265	1.601	1163838	WORD	n/a	wordpools/wordpool_categorized_EN.txt	HURRICANE	Weather	10	9	[0, 0, 0]	n/a	catFR1	0	R1616S
1160.866	0.9	1165445	WORD_OFF	n/a	n/a	HURRICANE	Weather	10	9	[0, 0, 0]	n/a	catFR1	0	R1616S
1161.766	1.6	1166339	WORD	n/a	wordpools/wordpool_categorized_EN.txt	TRUCK	Vehicles	11	9	[0, 0, 0]	n/a	catFR1	0	R1616S
1163.366	0.883	1167946	WORD_OFF	n/a	n/a	TRUCK	Vehicles	11	9	[0, 0, 0]	n/a	catFR1	0	R1616S
1164.249	1.616	1168826	WORD	n/a	wordpools/wordpool_categorized_EN.txt	MOPED	Vehicles	12	9	[0, 0, 0]	n/a	catFR1	0	R1616S
1165.865	0.002	1170442	PROB	6.183	n/a	n/a	n/a	-999	9	[3, 4, 5]	12.0	catFR1	0	R1616S
1165.867	0.0	1170444	START	n/a	n/a	n/a	n/a	-999	9	[-999, -999, -999]	n/a	catFR1	0	R1616S
1165.865	0.002	1170447	WORD_OFF	n/a	n/a	MOPED	Vehicles	12	9	[0, 0, 0]	n/a	catFR1	0	R1616S
1165.867	0.0	1170447	ENCODING_END	n/a	n/a	n/a	n/a	-999	9	[0, 0, 0]	n/a	catFR1	0	R1616S
1165.867	6.198	1170447	DISTRACT_START	n/a	n/a	n/a	n/a	-999	9	[0, 0, 0]	n/a	catFR1	0	R1616S
1172.065	4.018	1176642	PROB	4.0	n/a	n/a	n/a	-999	9	[1, 1, 5]	7.0	catFR1	0	R1616S
1176.083	5.549	1180659	PROB	5.533	n/a	n/a	n/a	-999	9	[6, 1, 5]	12.0	catFR1	0	R1616S
1181.632	5.05	1186208	PROB	5.034	n/a	n/a	n/a	-999	9	[1, 7, 6]	14.0	catFR1	0	R1616S
1186.682	0.0	1191258	STOP	n/a	n/a	n/a	n/a	-999	9	[-999, -999, -999]	n/a	catFR1	0	R1616S
1186.682	2.35	1191265	DISTRACT_END	n/a	n/a	n/a	n/a	-999	9	[0, 0, 0]	n/a	catFR1	0	R1616S
1189.032	0.646	1193606	REC_START	n/a	n/a	n/a	n/a	-999	9	[0, 0, 0]	n/a	catFR1	0	R1616S
1189.678	0.658	1194254	REC_WORD	0.646	n/a	TURTLE	OceanAnimals	1	9	[0, 0, 0]	n/a	catFR1	0	R1616S
1190.336	0.775	1194912	REC_WORD	1.304	n/a	PLANKTON	OceanAnimals	2	9	[0, 0, 0]	n/a	catFR1	0	R1616S
1191.111	0.712	1195687	REC_WORD	2.079	n/a	DOLPHIN	OceanAnimals	7	9	[0, 0, 0]	n/a	catFR1	0	R1616S
1191.823	1.846	1196399	REC_WORD	2.791	n/a	SEA	n/a	-999	9	[0, 0, 0]	n/a	catFR1	0	R1616S
1193.669	2.156	1198245	REC_WORD_VV	4.637	n/a	<>	n/a	-999	9	[0, 0, 0]	n/a	catFR1	0	R1616S
1195.825	1.4	1200401	REC_WORD_VV	6.793	n/a	<>	n/a	-999	9	[0, 0, 0]	n/a	catFR1	0	R1616S
1197.225	1.584	1201801	REC_WORD	8.193	n/a	HURRICANE	Weather	10	9	[0, 0, 0]	n/a	catFR1	0	R1616S
1198.809	1.363	1203384	REC_WORD	9.777	n/a	THUNDERSTORM	Weather	6	9	[0, 0, 0]	n/a	catFR1	0	R1616S
1200.172	10.262	1204747	REC_WORD	11.14	n/a	FOG	Weather	9	9	[0, 0, 0]	n/a	catFR1	0	R1616S
1210.434	4.91	1215009	REC_WORD_VV	21.402	n/a	<>	n/a	-999	9	[0, 0, 0]	n/a	catFR1	0	R1616S
1215.344	3.937	1219919	REC_WORD_VV	26.312	n/a	<>	n/a	-999	9	[0, 0, 0]	n/a	catFR1	0	R1616S
1219.281	2.218	1223861	REC_END	n/a	n/a	n/a	n/a	-999	9	[0, 0, 0]	n/a	catFR1	0	R1616S
1221.499	10.35	1226082	COUNTDOWN_START	n/a	n/a	n/a	n/a	-999	10	[0, 0, 0]	n/a	catFR1	0	R1616S
1231.849	0.0	1236422	COUNTDOWN_END	n/a	n/a	n/a	n/a	-999	10	[0, 0, 0]	n/a	catFR1	0	R1616S
1231.849	2.033	1236422	ENCODING_START	n/a	n/a	n/a	n/a	-999	10	[0, 0, 0]	n/a	catFR1	0	R1616S
1233.882	1.617	1238461	WORD	n/a	wordpools/wordpool_categorized_EN.txt	WIND	Weather	1	10	[0, 0, 0]	n/a	catFR1	0	R1616S
1235.499	1.0	1240068	WORD_OFF	n/a	n/a	WIND	Weather	1	10	[0, 0, 0]	n/a	catFR1	0	R1616S
1236.499	1.6	1241074	WORD	n/a	wordpools/wordpool_categorized_EN.txt	THUNDER	Weather	2	10	[0, 0, 0]	n/a	catFR1	0	R1616S
1238.099	0.85	1242681	WORD_OFF	n/a	n/a	THUNDER	Weather	2	10	[0, 0, 0]	n/a	catFR1	0	R1616S
1238.949	1.616	1243519	WORD	n/a	wordpools/wordpool_categorized_EN.txt	NYLON	Fabric	3	10	[0, 0, 0]	n/a	catFR1	0	R1616S
1240.565	0.8	1245140	WORD_OFF	n/a	n/a	NYLON	Fabric	3	10	[0, 0, 0]	n/a	catFR1	0	R1616S
1241.365	1.6	1245936	WORD	n/a	wordpools/wordpool_categorized_EN.txt	WOOL	Fabric	4	10	[0, 0, 0]	n/a	catFR1	0	R1616S
1242.965	0.968	1247543	WORD_OFF	n/a	n/a	WOOL	Fabric	4	10	[0, 0, 0]	n/a	catFR1	0	R1616S
1243.933	1.616	1248507	WORD	n/a	wordpools/wordpool_categorized_EN.txt	CALCULATOR	Electronics	5	10	[0, 0, 0]	n/a	catFR1	0	R1616S
1245.549	0.917	1250128	WORD_OFF	n/a	n/a	CALCULATOR	Electronics	5	10	[0, 0, 0]	n/a	catFR1	0	R1616S
1246.466	1.616	1251036	WORD	n/a	wordpools/wordpool_categorized_EN.txt	MICROWAVE	Electronics	6	10	[0, 0, 0]	n/a	catFR1	0	R1616S
1248.082	0.95	1252657	WORD_OFF	n/a	n/a	MICROWAVE	Electronics	6	10	[0, 0, 0]	n/a	catFR1	0	R1616S
1249.032	1.6	1253607	WORD	n/a	wordpools/wordpool_categorized_EN.txt	SILK	Fabric	7	10	[0, 0, 0]	n/a	catFR1	0	R1616S
1250.632	0.833	1255200	WORD_OFF	n/a	n/a	SILK	Fabric	7	10	[0, 0, 0]	n/a	catFR1	0	R1616S
1251.465	1.6	1256038	WORD	n/a	wordpools/wordpool_categorized_EN.txt	SPANDEX	Fabric	8	10	[0, 0, 0]	n/a	catFR1	0	R1616S
1253.065	0.851	1257645	WORD_OFF	n/a	n/a	SPANDEX	Fabric	8	10	[0, 0, 0]	n/a	catFR1	0	R1616S
1253.916	1.6	1258483	WORD	n/a	wordpools/wordpool_categorized_EN.txt	RAIN	Weather	9	10	[0, 0, 0]	n/a	catFR1	0	R1616S
1255.516	0.916	1260090	WORD_OFF	n/a	n/a	RAIN	Weather	9	10	[0, 0, 0]	n/a	catFR1	0	R1616S
1256.432	1.6	1261012	WORD	n/a	wordpools/wordpool_categorized_EN.txt	TORNADO	Weather	10	10	[0, 0, 0]	n/a	catFR1	0	R1616S
1258.032	0.817	1262605	WORD_OFF	n/a	n/a	TORNADO	Weather	10	10	[0, 0, 0]	n/a	catFR1	0	R1616S
1258.849	1.6	1263415	WORD	n/a	wordpools/wordpool_categorized_EN.txt	PHONE	Electronics	11	10	[0, 0, 0]	n/a	catFR1	0	R1616S
1260.449	0.766	1265022	WORD_OFF	n/a	n/a	PHONE	Electronics	11	10	[0, 0, 0]	n/a	catFR1	0	R1616S
1261.215	1.601	1265790	WORD	n/a	wordpools/wordpool_categorized_EN.txt	SCANNER	Electronics	12	10	[0, 0, 0]	n/a	catFR1	0	R1616S
1262.816	0.0	1267383	WORD_OFF	n/a	n/a	SCANNER	Electronics	12	10	[0, 0, 0]	n/a	catFR1	0	R1616S
1262.816	0.001	1267388	PROB	5.216	n/a	n/a	n/a	-999	10	[3, 6, 7]	16.0	catFR1	0	R1616S
1262.817	0.0	1267389	START	n/a	n/a	n/a	n/a	-999	10	[-999, -999, -999]	n/a	catFR1	0	R1616S
1262.817	0.0	1267397	ENCODING_END	n/a	n/a	n/a	n/a	-999	10	[0, 0, 0]	n/a	catFR1	0	R1616S
1262.817	5.232	1267397	DISTRACT_START	n/a	n/a	n/a	n/a	-999	10	[0, 0, 0]	n/a	catFR1	0	R1616S
1268.049	3.95	1272621	PROB	3.933	n/a	n/a	n/a	-999	10	[1, 5, 7]	13.0	catFR1	0	R1616S
1271.999	3.484	1276571	PROB	3.466	n/a	n/a	n/a	-999	10	[2, 3, 4]	9.0	catFR1	0	R1616S
1275.483	3.782	1280055	PROB	3.766	n/a	n/a	n/a	-999	10	[1, 4, 5]	10.0	catFR1	0	R1616S
1279.265	4.584	1283837	PROB	4.566	n/a	n/a	n/a	-999	10	[8, 6, 8]	22.0	catFR1	0	R1616S
1283.849	0.0	1288420	STOP	n/a	n/a	n/a	n/a	-999	10	[-999, -999, -999]	n/a	catFR1	0	R1616S
1283.849	2.067	1288425	DISTRACT_END	n/a	n/a	n/a	n/a	-999	10	[0, 0, 0]	n/a	catFR1	0	R1616S
1285.916	1.357	1290487	REC_START	n/a	n/a	n/a	n/a	-999	10	[0, 0, 0]	n/a	catFR1	0	R1616S
1287.273	0.321	1291844	REC_WORD_VV	1.357	n/a	<>	n/a	-999	10	[0, 0, 0]	n/a	catFR1	0	R1616S
1287.594	4.338	1292165	REC_WORD	1.678	n/a	NYLON	Fabric	3	10	[0, 0, 0]	n/a	catFR1	0	R1616S
1291.932	3.325	1296503	REC_WORD_VV	6.016	n/a	<>	n/a	-999	10	[0, 0, 0]	n/a	catFR1	0	R1616S
1295.257	1.823	1299828	REC_WORD	9.341	n/a	THUNDERSTORM	Weather	-999	10	[0, 0, 0]	n/a	catFR1	0	R1616S
1297.08	2.711	1301651	REC_WORD	11.164	n/a	WIND	Weather	1	10	[0, 0, 0]	n/a	catFR1	0	R1616S
1299.791	0.316	1304362	REC_WORD_VV	13.875	n/a	<>	n/a	-999	10	[0, 0, 0]	n/a	catFR1	0	R1616S
1300.107	8.143	1304678	REC_WORD	14.191	n/a	HURRICANE	Weather	-999	10	[0, 0, 0]	n/a	catFR1	0	R1616S
1308.25	1.565	1312820	REC_WORD_VV	22.334	n/a	<>	n/a	-999	10	[0, 0, 0]	n/a	catFR1	0	R1616S
1309.815	6.337	1314385	REC_WORD_VV	23.899	n/a	<>	n/a	-999	10	[0, 0, 0]	n/a	catFR1	0	R1616S
1316.152	5.247	1320728	REC_END	n/a	n/a	n/a	n/a	-999	10	[0, 0, 0]	n/a	catFR1	0	R1616S
1321.399	10.349	1325967	COUNTDOWN_START	n/a	n/a	n/a	n/a	-999	11	[0, 0, 0]	n/a	catFR1	0	R1616S
1331.748	0.0	1336320	COUNTDOWN_END	n/a	n/a	n/a	n/a	-999	11	[0, 0, 0]	n/a	catFR1	0	R1616S
1331.748	1.884	1336320	ENCODING_START	n/a	n/a	n/a	n/a	-999	11	[0, 0, 0]	n/a	catFR1	0	R1616S
1333.632	1.616	1338206	WORD	n/a	wordpools/wordpool_categorized_EN.txt	FOOT	BodyParts	1	11	[0, 0, 0]	n/a	catFR1	0	R1616S
1335.248	0.8	1339813	WORD_OFF	n/a	n/a	FOOT	BodyParts	1	11	[0, 0, 0]	n/a	catFR1	0	R1616S
1336.048	1.601	1340623	WORD	n/a	wordpools/wordpool_categorized_EN.txt	EYE	BodyParts	2	11	[0, 0, 0]	n/a	catFR1	0	R1616S
1337.649	0.916	1342216	WORD_OFF	n/a	n/a	EYE	BodyParts	2	11	[0, 0, 0]	n/a	catFR1	0	R1616S
1338.565	1.601	1343138	WORD	n/a	wordpools/wordpool_categorized_EN.txt	PUZZLE	Toys	3	11	[0, 0, 0]	n/a	catFR1	0	R1616S
1340.166	0.933	1344731	WORD_OFF	n/a	n/a	PUZZLE	Toys	3	11	[0, 0, 0]	n/a	catFR1	0	R1616S
1341.099	1.6	1345667	WORD	n/a	wordpools/wordpool_categorized_EN.txt	BLOCKS	Toys	4	11	[0, 0, 0]	n/a	catFR1	0	R1616S
1342.699	0.833	1347274	WORD_OFF	n/a	n/a	BLOCKS	Toys	4	11	[0, 0, 0]	n/a	catFR1	0	R1616S
1343.532	1.6	1348098	WORD	n/a	wordpools/wordpool_categorized_EN.txt	ORGAN	Instruments	5	11	[0, 0, 0]	n/a	catFR1	0	R1616S
1345.132	1.0	1349705	WORD_OFF	n/a	n/a	ORGAN	Instruments	5	11	[0, 0, 0]	n/a	catFR1	0	R1616S
1346.132	1.617	1350697	WORD	n/a	wordpools/wordpool_categorized_EN.txt	DRUM	Instruments	6	11	[0, 0, 0]	n/a	catFR1	0	R1616S
1347.749	0.867	1352318	WORD_OFF	n/a	n/a	DRUM	Instruments	6	11	[0, 0, 0]	n/a	catFR1	0	R1616S
1348.616	1.616	1353184	WORD	n/a	wordpools/wordpool_categorized_EN.txt	SLINKY	Toys	7	11	[0, 0, 0]	n/a	catFR1	0	R1616S
1350.232	0.816	1354805	WORD_OFF	n/a	n/a	SLINKY	Toys	7	11	[0, 0, 0]	n/a	catFR1	0	R1616S
1351.048	1.601	1355615	WORD	n/a	wordpools/wordpool_categorized_EN.txt	FOOTBALL	Toys	8	11	[0, 0, 0]	n/a	catFR1	0	R1616S
1352.649	0.966	1357222	WORD_OFF	n/a	n/a	FOOTBALL	Toys	8	11	[0, 0, 0]	n/a	catFR1	0	R1616S
1353.615	1.601	1358186	WORD	n/a	wordpools/wordpool_categorized_EN.txt	KNEE	BodyParts	9	11	[0, 0, 0]	n/a	catFR1	0	R1616S
1355.216	0.799	1359779	WORD_OFF	n/a	n/a	KNEE	BodyParts	9	11	[0, 0, 0]	n/a	catFR1	0	R1616S
1356.015	1.601	1360589	WORD	n/a	wordpools/wordpool_categorized_EN.txt	TOE	BodyParts	10	11	[0, 0, 0]	n/a	catFR1	0	R1616S
1357.616	0.983	1362182	WORD_OFF	n/a	n/a	TOE	BodyParts	10	11	[0, 0, 0]	n/a	catFR1	0	R1616S
1358.599	1.616	1363174	WORD	n/a	wordpools/wordpool_categorized_EN.txt	FLUTE	Instruments	11	11	[0, 0, 0]	n/a	catFR1	0	R1616S
1360.215	0.917	1364781	WORD_OFF	n/a	n/a	FLUTE	Instruments	11	11	[0, 0, 0]	n/a	catFR1	0	R1616S
1361.132	1.6	1365703	WORD	n/a	wordpools/wordpool_categorized_EN.txt	TUBA	Instruments	12	11	[0, 0, 0]	n/a	catFR1	0	R1616S
1362.732	0.002	1367296	WORD_OFF	n/a	n/a	TUBA	Instruments	12	11	[0, 0, 0]	n/a	catFR1	0	R1616S
1362.734	0.0	1367302	START	n/a	n/a	n/a	n/a	-999	11	[-999, -999, -999]	n/a	catFR1	0	R1616S
1362.734	0.0	1367302	PROB	3.099	n/a	n/a	n/a	-999	11	[1, 4, 1]	6.0	catFR1	0	R1616S
1362.734	0.0	1367310	ENCODING_END	n/a	n/a	n/a	n/a	-999	11	[0, 0, 0]	n/a	catFR1	0	R1616S
1362.734	3.116	1367310	DISTRACT_START	n/a	n/a	n/a	n/a	-999	11	[0, 0, 0]	n/a	catFR1	0	R1616S
1365.85	3.482	1370417	PROB	3.466	n/a	n/a	n/a	-999	11	[5, 2, 5]	12.0	catFR1	0	R1616S
1369.332	5.468	1373899	PROB	5.45	n/a	n/a	n/a	-999	11	[5, 2, 8]	15.0	catFR1	0	R1616S
1374.8	3.566	1379367	PROB	3.549	n/a	n/a	n/a	-999	11	[8, 2, 6]	16.0	catFR1	0	R1616S
1378.366	7.083	1382933	PROB	7.066	n/a	n/a	n/a	-999	11	[5, 2, 6]	13.0	catFR1	0	R1616S
1385.449	0.0	1390014	DISTRACT_END	n/a	n/a	n/a	n/a	-999	11	[0, 0, 0]	n/a	catFR1	0	R1616S
1385.449	2.116	1390016	STOP	n/a	n/a	n/a	n/a	-999	11	[-999, -999, -999]	n/a	catFR1	0	R1616S
1387.565	0.998	1392132	REC_START	n/a	n/a	n/a	n/a	-999	11	[0, 0, 0]	n/a	catFR1	0	R1616S
1388.563	0.974	1393129	REC_WORD	0.998	n/a	FLUTE	Instruments	11	11	[0, 0, 0]	n/a	catFR1	0	R1616S
1389.537	0.966	1394103	REC_WORD	1.972	n/a	ORGAN	Instruments	5	11	[0, 0, 0]	n/a	catFR1	0	R1616S
1390.503	1.999	1395069	REC_WORD	2.938	n/a	CELLO	Instruments	-999	11	[0, 0, 0]	n/a	catFR1	0	R1616S
1392.502	2.055	1397068	REC_WORD	4.937	n/a	FOOTBALL	Toys	8	11	[0, 0, 0]	n/a	catFR1	0	R1616S
1394.557	4.035	1399123	REC_WORD	6.992	n/a	FOOT	BodyParts	1	11	[0, 0, 0]	n/a	catFR1	0	R1616S
1398.592	1.9	1403158	REC_WORD_VV	11.027	n/a	<>	n/a	-999	11	[0, 0, 0]	n/a	catFR1	0	R1616S
1400.492	6.833	1405058	REC_WORD	12.927	n/a	TOE	BodyParts	10	11	[0, 0, 0]	n/a	catFR1	0	R1616S
1407.325	10.48	1411891	REC_WORD_VV	19.76	n/a	<>	n/a	-999	11	[0, 0, 0]	n/a	catFR1	0	R1616S
1417.805	2.444	1422373	REC_END	n/a	n/a	n/a	n/a	-999	11	[0, 0, 0]	n/a	catFR1	0	R1616S
1420.249	10.349	1424818	COUNTDOWN_START	n/a	n/a	n/a	n/a	-999	12	[0, 0, 0]	n/a	catFR1	0	R1616S
1430.598	0.001	1435157	COUNTDOWN_END	n/a	n/a	n/a	n/a	-999	12	[0, 0, 0]	n/a	catFR1	0	R1616S
1430.599	1.95	1435171	ENCODING_START	n/a	n/a	n/a	n/a	-999	12	[0, 0, 0]	n/a	catFR1	0	R1616S
1432.549	1.6	1437113	WORD	n/a	wordpools/wordpool_categorized_EN.txt	BALL	Toys	1	12	[0, 0, 0]	n/a	catFR1	0	R1616S
1434.149	0.967	1438720	WORD_OFF	n/a	n/a	BALL	Toys	1	12	[0, 0, 0]	n/a	catFR1	0	R1616S
1435.116	1.6	1439684	WORD	n/a	wordpools/wordpool_categorized_EN.txt	MARBLES	Toys	2	12	[0, 0, 0]	n/a	catFR1	0	R1616S
1436.716	0.766	1441276	WORD_OFF	n/a	n/a	MARBLES	Toys	2	12	[0, 0, 0]	n/a	catFR1	0	R1616S
1437.482	1.601	1442045	WORD	n/a	wordpools/wordpool_categorized_EN.txt	MOTORCYCLE	Vehicles	3	12	[0, 0, 0]	n/a	catFR1	0	R1616S
1439.083	0.799	1443652	WORD_OFF	n/a	n/a	MOTORCYCLE	Vehicles	3	12	[0, 0, 0]	n/a	catFR1	0	R1616S
1439.882	1.6	1444448	WORD	n/a	wordpools/wordpool_categorized_EN.txt	VAN	Vehicles	4	12	[0, 0, 0]	n/a	catFR1	0	R1616S
1441.482	0.917	1446041	WORD_OFF	n/a	n/a	VAN	Vehicles	4	12	[0, 0, 0]	n/a	catFR1	0	R1616S
1442.399	1.6	1446963	WORD	n/a	wordpools/wordpool_categorized_EN.txt	CIDER	Beverages	5	12	[0, 0, 0]	n/a	catFR1	0	R1616S
1443.999	0.983	1448570	WORD_OFF	n/a	n/a	CIDER	Beverages	5	12	[0, 0, 0]	n/a	catFR1	0	R1616S
1444.982	1.617	1449548	WORD	n/a	wordpools/wordpool_categorized_EN.txt	SODA	Beverages	6	12	[0, 0, 0]	n/a	catFR1	0	R1616S
1446.599	0.834	1451168	WORD_OFF	n/a	n/a	SODA	Beverages	6	12	[0, 0, 0]	n/a	catFR1	0	R1616S
1447.433	1.599	1451993	WORD	n/a	wordpools/wordpool_categorized_EN.txt	DOLL	Toys	7	12	[0, 0, 0]	n/a	catFR1	0	R1616S
1449.032	0.884	1453600	WORD_OFF	n/a	n/a	DOLL	Toys	7	12	[0, 0, 0]	n/a	catFR1	0	R1616S
1449.916	1.6	1454480	WORD	n/a	wordpools/wordpool_categorized_EN.txt	BASKETBALL	Toys	8	12	[0, 0, 0]	n/a	catFR1	0	R1616S
1451.516	0.966	1456086	WORD_OFF	n/a	n/a	BASKETBALL	Toys	8	12	[0, 0, 0]	n/a	catFR1	0	R1616S
1452.482	1.617	1457051	WORD	n/a	wordpools/wordpool_categorized_EN.txt	SCOOTER	Vehicles	9	12	[0, 0, 0]	n/a	catFR1	0	R1616S
1454.099	0.8	1458657	WORD_OFF	n/a	n/a	SCOOTER	Vehicles	9	12	[0, 0, 0]	n/a	catFR1	0	R1616S
1454.899	1.6	1459468	WORD	n/a	wordpools/wordpool_categorized_EN.txt	CAR	Vehicles	10	12	[0, 0, 0]	n/a	catFR1	0	R1616S
1456.499	0.95	1461060	WORD_OFF	n/a	n/a	CAR	Vehicles	10	12	[0, 0, 0]	n/a	catFR1	0	R1616S
1457.449	1.6	1462011	WORD	n/a	wordpools/wordpool_categorized_EN.txt	LEMONADE	Beverages	11	12	[0, 0, 0]	n/a	catFR1	0	R1616S
1459.049	0.817	1463617	WORD_OFF	n/a	n/a	LEMONADE	Beverages	11	12	[0, 0, 0]	n/a	catFR1	0	R1616S
1459.866	1.6	1464428	WORD	n/a	wordpools/wordpool_categorized_EN.txt	WATER	Beverages	12	12	[0, 0, 0]	n/a	catFR1	0	R1616S
1461.466	0.001	1466029	PROB	6.033	n/a	n/a	n/a	-999	12	[5, 8, 8]	21.0	catFR1	0	R1616S
1461.467	0.0	1466030	START	n/a	n/a	n/a	n/a	-999	12	[-999, -999, -999]	n/a	catFR1	0	R1616S
1461.466	0.001	1466034	WORD_OFF	n/a	n/a	WATER	Beverages	12	12	[0, 0, 0]	n/a	catFR1	0	R1616S
1461.467	0.0	1466034	ENCODING_END	n/a	n/a	n/a	n/a	-999	12	[0, 0, 0]	n/a	catFR1	0	R1616S
1461.467	6.05	1466034	DISTRACT_START	n/a	n/a	n/a	n/a	-999	12	[0, 0, 0]	n/a	catFR1	0	R1616S
1467.517	4.432	1472080	PROB	4.416	n/a	n/a	n/a	-999	12	[7, 7, 5]	19.0	catFR1	0	R1616S
1471.949	3.3	1476511	PROB	3.283	n/a	n/a	n/a	-999	12	[2, 5, 2]	9.0	catFR1	0	R1616S
1475.249	4.2	1479811	PROB	4.182	n/a	n/a	n/a	-999	12	[7, 4, 7]	18.0	catFR1	0	R1616S
1479.449	4.3	1484011	PROB	4.282	n/a	n/a	n/a	-999	12	[1, 5, 7]	13.0	catFR1	0	R1616S
1483.749	0.0	1488306	DISTRACT_END	n/a	n/a	n/a	n/a	-999	12	[0, 0, 0]	n/a	catFR1	0	R1616S
1483.749	2.216	1488311	STOP	n/a	n/a	n/a	n/a	-999	12	[-999, -999, -999]	n/a	catFR1	0	R1616S
1485.965	2.651	1490521	REC_START	n/a	n/a	n/a	n/a	-999	12	[0, 0, 0]	n/a	catFR1	0	R1616S
1488.616	0.77	1493178	REC_WORD	2.651	n/a	FLUTE	Instruments	-999	12	[0, 0, 0]	n/a	catFR1	0	R1616S
1489.386	2.273	1493948	REC_WORD	3.421	n/a	MARBLES	Toys	2	12	[0, 0, 0]	n/a	catFR1	0	R1616S
1491.659	1.051	1496221	REC_WORD	5.694	n/a	FOOTBALL	Toys	-999	12	[0, 0, 0]	n/a	catFR1	0	R1616S
1492.71	3.234	1497271	REC_WORD	6.745	n/a	BASKETBALL	Toys	8	12	[0, 0, 0]	n/a	catFR1	0	R1616S
1495.944	8.914	1500505	REC_WORD_VV	9.979	n/a	<>	n/a	-999	12	[0, 0, 0]	n/a	catFR1	0	R1616S
1504.858	11.33	1509419	REC_WORD_VV	18.893	n/a	<>	n/a	-999	12	[0, 0, 0]	n/a	catFR1	0	R1616S
1516.188	0.0	1520748	REC_END	n/a	n/a	n/a	n/a	-999	12	[0, 0, 0]	n/a	catFR1	0	R1616S
