onset	duration	sample	trial_type	response_time	stim_file	item_name	category	serialpos	list	test	answer	experiment	session	subject
0.0	0.238	-1	Logging	n/a	n/a	n/a	n/a	-999	-1	[0, 0, 0]	n/a	catFR1	1	R1332M
0.238	0.0	-1	INSTRUCT_START	n/a	n/a	n/a	n/a	-999	-999	[0, 0, 0]	n/a	catFR1	1	R1332M
0.238	0.0	-1	INSTRUCT_END	n/a	n/a	n/a	n/a	-999	-999	[0, 0, 0]	n/a	catFR1	1	R1332M
0.238	0.0	-1	MIC	n/a	n/a	n/a	n/a	-999	-999	[0, 0, 0]	n/a	catFR1	1	R1332M
0.238	0.0	-1	MIC	n/a	n/a	n/a	n/a	-999	-999	[0, 0, 0]	n/a	catFR1	1	R1332M
0.238	0.0	-1	TRIAL_START	n/a	n/a	n/a	n/a	-999	-1	[0, 0, 0]	n/a	catFR1	1	R1332M
0.238	0.0	-1	TRIAL	n/a	n/a	n/a	n/a	-999	-1	[0, 0, 0]	n/a	catFR1	1	R1332M
0.238	0.013	-1	WAITING_START	n/a	n/a	n/a	n/a	-999	-1	[0, 0, 0]	n/a	catFR1	1	R1332M
0.251	290.454	-1	Logging	n/a	n/a	n/a	n/a	-999	-999	[0, 0, 0]	n/a	catFR1	1	R1332M
290.705	0.0	256736	COUNTDOWN_START	n/a	n/a	n/a	n/a	-999	-1	[0, 0, 0]	n/a	catFR1	1	R1332M
290.705	0.0	256736	COUNTDOWN_END	n/a	n/a	n/a	n/a	-999	-1	[0, 0, 0]	n/a	catFR1	1	R1332M
290.705	0.0	256736	ORIENT_START	n/a	n/a	n/a	n/a	-999	-1	[0, 0, 0]	n/a	catFR1	1	R1332M
290.705	11.569	256736	WAITING_END	n/a	n/a	n/a	n/a	-999	-1	[0, 0, 0]	n/a	catFR1	1	R1332M
302.274	0.0	268305	ORIENT_END	n/a	n/a	n/a	n/a	-999	-1	[0, 0, 0]	n/a	catFR1	1	R1332M
302.274	1.142	268305	ENCODING_START	n/a	n/a	n/a	n/a	-999	-1	[0, 0, 0]	n/a	catFR1	1	R1332M
303.416	1.626	269448	WORD	n/a	n/a	SILK	n/a	1	-1	[0, 0, 0]	n/a	catFR1	1	R1332M
305.042	0.96	271074	WORD_OFF	n/a	n/a	SILK	n/a	1	-1	[0, 0, 0]	n/a	catFR1	1	R1332M
306.002	1.623	272034	WORD	n/a	n/a	SECOND	n/a	2	-1	[0, 0, 0]	n/a	catFR1	1	R1332M
307.625	1.087	273657	WORD_OFF	n/a	n/a	SECOND	n/a	2	-1	[0, 0, 0]	n/a	catFR1	1	R1332M
308.712	1.631	274744	WORD	n/a	n/a	TEACHER	n/a	3	-1	[0, 0, 0]	n/a	catFR1	1	R1332M
310.343	1.004	276375	WORD_OFF	n/a	n/a	TEACHER	n/a	3	-1	[0, 0, 0]	n/a	catFR1	1	R1332M
311.347	1.63	277379	WORD	n/a	n/a	MINUTE	n/a	4	-1	[0, 0, 0]	n/a	catFR1	1	R1332M
312.977	0.868	279009	WORD_OFF	n/a	n/a	MINUTE	n/a	4	-1	[0, 0, 0]	n/a	catFR1	1	R1332M
313.845	1.632	279877	WORD	n/a	n/a	WOOL	n/a	5	-1	[0, 0, 0]	n/a	catFR1	1	R1332M
315.477	0.855	281509	WORD_OFF	n/a	n/a	WOOL	n/a	5	-1	[0, 0, 0]	n/a	catFR1	1	R1332M
316.332	1.63	282364	WORD	n/a	n/a	DAY	n/a	6	-1	[0, 0, 0]	n/a	catFR1	1	R1332M
317.962	1.092	283995	WORD_OFF	n/a	n/a	DAY	n/a	6	-1	[0, 0, 0]	n/a	catFR1	1	R1332M
319.054	1.624	285087	WORD	n/a	n/a	HOUR	n/a	7	-1	[0, 0, 0]	n/a	catFR1	1	R1332M
320.678	0.769	286711	WORD_OFF	n/a	n/a	HOUR	n/a	7	-1	[0, 0, 0]	n/a	catFR1	1	R1332M
321.447	1.615	287480	WORD	n/a	n/a	PLUMBER	n/a	8	-1	[0, 0, 0]	n/a	catFR1	1	R1332M
323.062	0.985	289095	WORD_OFF	n/a	n/a	PLUMBER	n/a	8	-1	[0, 0, 0]	n/a	catFR1	1	R1332M
324.047	1.632	290080	WORD	n/a	n/a	FARMER	n/a	9	-1	[0, 0, 0]	n/a	catFR1	1	R1332M
325.679	1.015	291712	WORD_OFF	n/a	n/a	FARMER	n/a	9	-1	[0, 0, 0]	n/a	catFR1	1	R1332M
326.694	1.635	292727	WORD	n/a	n/a	FIREMAN	n/a	10	-1	[0, 0, 0]	n/a	catFR1	1	R1332M
328.329	0.917	294362	WORD_OFF	n/a	n/a	FIREMAN	n/a	10	-1	[0, 0, 0]	n/a	catFR1	1	R1332M
329.246	1.634	295279	WORD	n/a	n/a	DENIM	n/a	11	-1	[0, 0, 0]	n/a	catFR1	1	R1332M
330.88	0.958	296913	WORD_OFF	n/a	n/a	DENIM	n/a	11	-1	[0, 0, 0]	n/a	catFR1	1	R1332M
331.838	1.626	297872	WORD	n/a	n/a	LEATHER	n/a	12	-1	[0, 0, 0]	n/a	catFR1	1	R1332M
333.464	0.0	299498	WORD_OFF	n/a	n/a	LEATHER	n/a	12	-1	[0, 0, 0]	n/a	catFR1	1	R1332M
333.464	0.0	299498	ENCODING_END	n/a	n/a	n/a	n/a	-999	-1	[0, 0, 0]	n/a	catFR1	1	R1332M
333.464	0.001	299498	DISTRACT_START	n/a	n/a	n/a	n/a	-999	-1	[0, 0, 0]	n/a	catFR1	1	R1332M
333.465	0.015	299499	START	n/a	n/a	n/a	n/a	-999	-1	[-999, -999, -999]	n/a	catFR1	1	R1332M
333.48	5.018	299514	PROB	5.018	n/a	n/a	n/a	-999	-1	[8, 6, 4]	18	catFR1	1	R1332M
338.498	1.867	304532	PROB	1.867	n/a	n/a	n/a	-999	-1	[6, 3, 4]	13	catFR1	1	R1332M
340.365	2.1	306399	PROB	2.1	n/a	n/a	n/a	-999	-1	[2, 7, 7]	11	catFR1	1	R1332M
342.465	3.218	308499	PROB	3.218	n/a	n/a	n/a	-999	-1	[3, 9, 6]	18	catFR1	1	R1332M
345.683	2.584	311717	PROB	2.584	n/a	n/a	n/a	-999	-1	[6, 9, 7]	22	catFR1	1	R1332M
348.267	3.817	314302	PROB	3.817	n/a	n/a	n/a	-999	-1	[3, 5, 9]	17	catFR1	1	R1332M
352.084	7.658	318119	PROB	7.658	n/a	n/a	n/a	-999	-1	[8, 9, 4]	21	catFR1	1	R1332M
359.742	0.01	325777	STOP	n/a	n/a	n/a	n/a	-999	-1	[-999, -999, -999]	n/a	catFR1	1	R1332M
359.752	1.316	325787	DISTRACT_END	n/a	n/a	n/a	n/a	-999	-1	[0, 0, 0]	n/a	catFR1	1	R1332M
361.068	1.035	327104	RETRIEVAL_ORIENT_START	n/a	n/a	n/a	n/a	-999	-1	[0, 0, 0]	n/a	catFR1	1	R1332M
362.103	0.0	328139	RETRIEVAL_ORIENT_END	n/a	n/a	n/a	n/a	-999	-1	[0, 0, 0]	n/a	catFR1	1	R1332M
362.103	0.333	328139	REC_START	n/a	n/a	n/a	n/a	-999	-1	[0, 0, 0]	n/a	catFR1	1	R1332M
362.436	0.349	328472	REC_WORD_VV	0.349	n/a	<>	n/a	-999	-1	[0, 0, 0]	n/a	catFR1	1	R1332M
362.785	2.174	328821	REC_WORD	2.174	n/a	SILK	n/a	1	-1	[0, 0, 0]	n/a	catFR1	1	R1332M
364.959	0.484	330995	REC_WORD	0.484	n/a	DENIM	n/a	11	-1	[0, 0, 0]	n/a	catFR1	1	R1332M
365.443	1.221	331479	REC_WORD	1.221	n/a	WOOL	n/a	5	-1	[0, 0, 0]	n/a	catFR1	1	R1332M
366.664	0.767	332700	REC_WORD	0.767	n/a	FARMER	n/a	9	-1	[0, 0, 0]	n/a	catFR1	1	R1332M
367.431	3.309	333467	REC_WORD	3.309	n/a	TEACHER	n/a	3	-1	[0, 0, 0]	n/a	catFR1	1	R1332M
370.74	2.877	336776	REC_WORD	2.877	n/a	SECOND	n/a	2	-1	[0, 0, 0]	n/a	catFR1	1	R1332M
373.617	0.555	339653	REC_WORD	0.555	n/a	MINUTE	n/a	4	-1	[0, 0, 0]	n/a	catFR1	1	R1332M
374.172	7.247	340208	REC_WORD	7.247	n/a	DAY	n/a	6	-1	[0, 0, 0]	n/a	catFR1	1	R1332M
381.419	0.686	347456	REC_WORD_VV	0.686	n/a	<>	n/a	-999	-1	[0, 0, 0]	n/a	catFR1	1	R1332M
382.105	1.836	348142	REC_WORD	1.836	n/a	SECOND	n/a	2	-1	[0, 0, 0]	n/a	catFR1	1	R1332M
383.941	0.828	349978	REC_WORD	0.828	n/a	TEACHER	n/a	3	-1	[0, 0, 0]	n/a	catFR1	1	R1332M
384.769	7.847	350806	REC_WORD	7.847	n/a	FARMER	n/a	9	-1	[0, 0, 0]	n/a	catFR1	1	R1332M
392.616	0.0	358654	REC_END	n/a	n/a	n/a	n/a	-999	-1	[0, 0, 0]	n/a	catFR1	1	R1332M
392.616	13.295	358654	PRACTICE_POST_INSTRUCT_START	n/a	n/a	n/a	n/a	-999	-1	[0, 0, 0]	n/a	catFR1	1	R1332M
405.911	0.0	371950	PRACTICE_POST_INSTRUCT_END	n/a	n/a	n/a	n/a	-999	-1	[0, 0, 0]	n/a	catFR1	1	R1332M
405.911	91.711	371950	TRIAL_END	n/a	n/a	n/a	n/a	-999	-1	[0, 0, 0]	n/a	catFR1	1	R1332M
497.622	0.247	-1	Logging	n/a	n/a	n/a	n/a	-999	-1	[0, 0, 0]	n/a	catFR1	1	R1332M
497.869	109.489	-1	Logging	n/a	n/a	n/a	n/a	-999	-1	[0, 0, 0]	n/a	catFR1	1	R1332M
607.358	0.247	-1	Logging	n/a	n/a	n/a	n/a	-999	-1	[0, 0, 0]	n/a	catFR1	1	R1332M
607.605	105.342	-1	Logging	n/a	n/a	n/a	n/a	-999	-1	[0, 0, 0]	n/a	catFR1	1	R1332M
712.947	0.195	-1	Logging	n/a	n/a	n/a	n/a	-999	25	[0, 0, 0]	n/a	catFR1	1	R1332M
713.142	19.899	-1	Logging	n/a	n/a	n/a	n/a	-999	-1	[0, 0, 0]	n/a	catFR1	1	R1332M
733.041	0.0	-1	WAITING_START	n/a	n/a	n/a	n/a	-999	1	[0, 0, 0]	n/a	catFR1	1	R1332M
733.041	0.0	-1	TRIAL	n/a	n/a	n/a	n/a	-999	1	[0, 0, 0]	n/a	catFR1	1	R1332M
733.041	0.0	-1	TRIAL_START	n/a	n/a	n/a	n/a	-999	1	[0, 0, 0]	n/a	catFR1	1	R1332M
733.041	0.0	-1	INSTRUCT_START	n/a	n/a	n/a	n/a	-999	-1	[0, 0, 0]	n/a	catFR1	1	R1332M
733.041	0.0	-1	MIC	n/a	n/a	n/a	n/a	-999	-1	[0, 0, 0]	n/a	catFR1	1	R1332M
733.041	0.0	-1	MIC	n/a	n/a	n/a	n/a	-999	-1	[0, 0, 0]	n/a	catFR1	1	R1332M
733.041	52.577	-1	INSTRUCT_END	n/a	n/a	n/a	n/a	-999	-1	[0, 0, 0]	n/a	catFR1	1	R1332M
785.618	0.0	42930	ORIENT_START	n/a	n/a	n/a	n/a	-999	1	[0, 0, 0]	n/a	catFR1	1	R1332M
785.618	0.0	42930	WAITING_END	n/a	n/a	n/a	n/a	-999	1	[0, 0, 0]	n/a	catFR1	1	R1332M
785.618	0.0	42930	COUNTDOWN_START	n/a	n/a	n/a	n/a	-999	1	[0, 0, 0]	n/a	catFR1	1	R1332M
785.618	11.585	42930	COUNTDOWN_END	n/a	n/a	n/a	n/a	-999	1	[0, 0, 0]	n/a	catFR1	1	R1332M
797.203	0.0	54515	ENCODING_START	n/a	n/a	n/a	n/a	-999	1	[0, 0, 0]	n/a	catFR1	1	R1332M
797.203	0.999	54515	ORIENT_END	n/a	n/a	n/a	n/a	-999	1	[0, 0, 0]	n/a	catFR1	1	R1332M
798.202	1.635	55514	WORD	n/a	wordpools/wordpool_categorized_EN.txt	DRESSER	Furniture	1	1	[0, 0, 0]	n/a	catFR1	1	R1332M
799.837	0.783	57148	WORD_OFF	n/a	n/a	DRESSER	Furniture	1	1	[0, 0, 0]	n/a	catFR1	1	R1332M
800.62	1.634	57931	WORD	n/a	wordpools/wordpool_categorized_EN.txt	TABLE	Furniture	2	1	[0, 0, 0]	n/a	catFR1	1	R1332M
802.254	1.027	59565	WORD_OFF	n/a	n/a	TABLE	Furniture	2	1	[0, 0, 0]	n/a	catFR1	1	R1332M
803.281	1.624	60592	WORD	n/a	wordpools/wordpool_categorized_EN.txt	MOSQUITO	Insects	3	1	[0, 0, 0]	n/a	catFR1	1	R1332M
804.905	0.891	62216	WORD_OFF	n/a	n/a	MOSQUITO	Insects	3	1	[0, 0, 0]	n/a	catFR1	1	R1332M
805.796	1.626	63107	WORD	n/a	wordpools/wordpool_categorized_EN.txt	LADYBUG	Insects	4	1	[0, 0, 0]	n/a	catFR1	1	R1332M
807.422	0.873	64733	WORD_OFF	n/a	n/a	LADYBUG	Insects	4	1	[0, 0, 0]	n/a	catFR1	1	R1332M
808.295	1.627	65606	WORD	n/a	wordpools/wordpool_categorized_EN.txt	COLANDER	KitchenTools	5	1	[0, 0, 0]	n/a	catFR1	1	R1332M
809.922	1.065	67233	WORD_OFF	n/a	n/a	COLANDER	KitchenTools	5	1	[0, 0, 0]	n/a	catFR1	1	R1332M
810.987	1.636	68298	WORD	n/a	wordpools/wordpool_categorized_EN.txt	LADLE	KitchenTools	6	1	[0, 0, 0]	n/a	catFR1	1	R1332M
812.623	0.902	69934	WORD_OFF	n/a	n/a	LADLE	KitchenTools	6	1	[0, 0, 0]	n/a	catFR1	1	R1332M
813.525	1.632	70836	WORD	n/a	wordpools/wordpool_categorized_EN.txt	BEETLE	Insects	7	1	[0, 0, 0]	n/a	catFR1	1	R1332M
815.157	0.915	72468	WORD_OFF	n/a	n/a	BEETLE	Insects	7	1	[0, 0, 0]	n/a	catFR1	1	R1332M
816.072	1.635	73383	WORD	n/a	wordpools/wordpool_categorized_EN.txt	GNAT	Insects	8	1	[0, 0, 0]	n/a	catFR1	1	R1332M
817.707	0.751	75018	WORD_OFF	n/a	n/a	GNAT	Insects	8	1	[0, 0, 0]	n/a	catFR1	1	R1332M
818.458	1.633	75769	WORD	n/a	wordpools/wordpool_categorized_EN.txt	SPATULA	KitchenTools	9	1	[0, 0, 0]	n/a	catFR1	1	R1332M
820.091	1.102	77401	WORD_OFF	n/a	n/a	SPATULA	KitchenTools	9	1	[0, 0, 0]	n/a	catFR1	1	R1332M
821.193	1.632	78503	WORD	n/a	wordpools/wordpool_categorized_EN.txt	PEELER	KitchenTools	10	1	[0, 0, 0]	n/a	catFR1	1	R1332M
822.825	0.944	80135	WORD_OFF	n/a	n/a	PEELER	KitchenTools	10	1	[0, 0, 0]	n/a	catFR1	1	R1332M
823.769	1.623	81079	WORD	n/a	wordpools/wordpool_categorized_EN.txt	RECLINER	Furniture	11	1	[0, 0, 0]	n/a	catFR1	1	R1332M
825.392	1.084	82702	WORD_OFF	n/a	n/a	RECLINER	Furniture	11	1	[0, 0, 0]	n/a	catFR1	1	R1332M
826.476	1.633	83786	WORD	n/a	wordpools/wordpool_categorized_EN.txt	BED	Furniture	12	1	[0, 0, 0]	n/a	catFR1	1	R1332M
828.109	0.0	85419	WORD_OFF	n/a	n/a	BED	Furniture	12	1	[0, 0, 0]	n/a	catFR1	1	R1332M
828.109	0.0	85419	ENCODING_END	n/a	n/a	n/a	n/a	-999	1	[0, 0, 0]	n/a	catFR1	1	R1332M
828.109	0.001	85419	DISTRACT_START	n/a	n/a	n/a	n/a	-999	1	[0, 0, 0]	n/a	catFR1	1	R1332M
828.11	0.016	85420	START	n/a	n/a	n/a	n/a	-999	1	[-999, -999, -999]	n/a	catFR1	1	R1332M
828.126	2.5	85436	PROB	2.5	n/a	n/a	n/a	-999	1	[4, 3, 3]	10	catFR1	1	R1332M
830.626	3.134	87936	PROB	3.134	n/a	n/a	n/a	-999	1	[3, 8, 8]	19	catFR1	1	R1332M
833.76	2.967	91070	PROB	2.967	n/a	n/a	n/a	-999	1	[6, 9, 9]	24	catFR1	1	R1332M
836.727	3.885	94037	PROB	3.885	n/a	n/a	n/a	-999	1	[7, 6, 4]	17	catFR1	1	R1332M
840.612	4.05	97921	PROB	4.05	n/a	n/a	n/a	-999	1	[8, 6, 3]	17	catFR1	1	R1332M
844.662	2.684	101971	PROB	2.684	n/a	n/a	n/a	-999	1	[4, 3, 6]	13	catFR1	1	R1332M
847.346	1.913	104655	PROB	1.913	n/a	n/a	n/a	-999	1	[1, 5, 6]	12	catFR1	1	R1332M
849.259	0.021	106568	STOP	n/a	n/a	n/a	n/a	-999	1	[-999, -999, -999]	n/a	catFR1	1	R1332M
849.28	1.145	106589	DISTRACT_END	n/a	n/a	n/a	n/a	-999	1	[0, 0, 0]	n/a	catFR1	1	R1332M
850.425	1.022	107734	RETRIEVAL_ORIENT_START	n/a	n/a	n/a	n/a	-999	1	[0, 0, 0]	n/a	catFR1	1	R1332M
851.447	0.0	108756	RETRIEVAL_ORIENT_END	n/a	n/a	n/a	n/a	-999	1	[0, 0, 0]	n/a	catFR1	1	R1332M
851.447	0.504	108756	REC_START	n/a	n/a	n/a	n/a	-999	1	[0, 0, 0]	n/a	catFR1	1	R1332M
851.951	0.685	109260	REC_WORD_VV	0.685	n/a	<>	n/a	-999	1	[0, 0, 0]	n/a	catFR1	1	R1332M
852.636	1.324	109945	REC_WORD	1.324	n/a	GNAT	Insects	8	1	[0, 0, 0]	n/a	catFR1	1	R1332M
853.96	0.892	111269	REC_WORD	0.892	n/a	BEETLE	Insects	7	1	[0, 0, 0]	n/a	catFR1	1	R1332M
854.852	0.562	112161	REC_WORD	0.562	n/a	DRESSER	Furniture	1	1	[0, 0, 0]	n/a	catFR1	1	R1332M
855.414	2.144	112723	REC_WORD	2.144	n/a	TABLE	Furniture	2	1	[0, 0, 0]	n/a	catFR1	1	R1332M
857.558	0.427	114867	REC_WORD_VV	0.427	n/a	<>	n/a	-999	1	[0, 0, 0]	n/a	catFR1	1	R1332M
857.985	2.568	115294	REC_WORD	2.568	n/a	RECLINER	Furniture	11	1	[0, 0, 0]	n/a	catFR1	1	R1332M
860.553	4.002	117862	REC_WORD	4.002	n/a	LADLE	KitchenTools	6	1	[0, 0, 0]	n/a	catFR1	1	R1332M
864.555	1.071	121863	REC_WORD_VV	1.071	n/a	<>	n/a	-999	1	[0, 0, 0]	n/a	catFR1	1	R1332M
865.626	0.328	122934	REC_WORD	0.328	n/a	LADLE	KitchenTools	6	1	[0, 0, 0]	n/a	catFR1	1	R1332M
865.954	1.433	123262	REC_WORD	1.433	n/a	SPATULA	KitchenTools	9	1	[0, 0, 0]	n/a	catFR1	1	R1332M
867.387	4.043	124695	REC_WORD	4.043	n/a	COLANDER	KitchenTools	5	1	[0, 0, 0]	n/a	catFR1	1	R1332M
871.43	0.685	128738	REC_WORD	0.685	n/a	BEETLE	Insects	7	1	[0, 0, 0]	n/a	catFR1	1	R1332M
872.115	0.621	129423	REC_WORD	0.621	n/a	GNAT	Insects	8	1	[0, 0, 0]	n/a	catFR1	1	R1332M
872.736	0.884	130044	REC_WORD	0.884	n/a	LADYBUG	Insects	4	1	[0, 0, 0]	n/a	catFR1	1	R1332M
873.62	4.306	130928	REC_WORD	4.306	n/a	MOSQUITO	Insects	3	1	[0, 0, 0]	n/a	catFR1	1	R1332M
877.926	4.033	135234	REC_WORD_VV	4.033	n/a	<>	n/a	-999	1	[0, 0, 0]	n/a	catFR1	1	R1332M
881.959	0.0	139267	REC_END	n/a	n/a	n/a	n/a	-999	1	[0, 0, 0]	n/a	catFR1	1	R1332M
881.959	0.0	139267	TRIAL_END	n/a	n/a	n/a	n/a	-999	1	[0, 0, 0]	n/a	catFR1	1	R1332M
881.959	0.0	139267	TRIAL_START	n/a	n/a	n/a	n/a	-999	2	[0, 0, 0]	n/a	catFR1	1	R1332M
881.959	0.0	139267	TRIAL	n/a	n/a	n/a	n/a	-999	2	[0, 0, 0]	n/a	catFR1	1	R1332M
881.959	2.478	139267	WAITING_START	n/a	n/a	n/a	n/a	-999	2	[0, 0, 0]	n/a	catFR1	1	R1332M
884.437	0.0	141744	ORIENT_START	n/a	n/a	n/a	n/a	-999	2	[0, 0, 0]	n/a	catFR1	1	R1332M
884.437	0.0	141744	COUNTDOWN_START	n/a	n/a	n/a	n/a	-999	2	[0, 0, 0]	n/a	catFR1	1	R1332M
884.437	0.0	141744	COUNTDOWN_END	n/a	n/a	n/a	n/a	-999	2	[0, 0, 0]	n/a	catFR1	1	R1332M
884.437	11.518	141744	WAITING_END	n/a	n/a	n/a	n/a	-999	2	[0, 0, 0]	n/a	catFR1	1	R1332M
895.955	0.0	153262	ORIENT_END	n/a	n/a	n/a	n/a	-999	2	[0, 0, 0]	n/a	catFR1	1	R1332M
895.955	0.8	153262	ENCODING_START	n/a	n/a	n/a	n/a	-999	2	[0, 0, 0]	n/a	catFR1	1	R1332M
896.755	1.634	154062	WORD	n/a	wordpools/wordpool_categorized_EN.txt	CORN	Vegetables	1	2	[0, 0, 0]	n/a	catFR1	1	R1332M
898.389	0.837	155696	WORD_OFF	n/a	n/a	CORN	Vegetables	1	2	[0, 0, 0]	n/a	catFR1	1	R1332M
899.226	1.63	156533	WORD	n/a	wordpools/wordpool_categorized_EN.txt	BROCCOLI	Vegetables	2	2	[0, 0, 0]	n/a	catFR1	1	R1332M
900.856	1.081	158163	WORD_OFF	n/a	n/a	BROCCOLI	Vegetables	2	2	[0, 0, 0]	n/a	catFR1	1	R1332M
901.937	1.637	159244	WORD	n/a	wordpools/wordpool_categorized_EN.txt	TORNADO	Weather	3	2	[0, 0, 0]	n/a	catFR1	1	R1332M
903.574	0.862	160880	WORD_OFF	n/a	n/a	TORNADO	Weather	3	2	[0, 0, 0]	n/a	catFR1	1	R1332M
904.436	1.638	161742	WORD	n/a	wordpools/wordpool_categorized_EN.txt	DRIZZLE	Weather	4	2	[0, 0, 0]	n/a	catFR1	1	R1332M
906.074	1.09	163380	WORD_OFF	n/a	n/a	DRIZZLE	Weather	4	2	[0, 0, 0]	n/a	catFR1	1	R1332M
907.164	1.627	164470	WORD	n/a	wordpools/wordpool_categorized_EN.txt	ELEPHANT	Zoo	5	2	[0, 0, 0]	n/a	catFR1	1	R1332M
908.791	1.016	166097	WORD_OFF	n/a	n/a	ELEPHANT	Zoo	5	2	[0, 0, 0]	n/a	catFR1	1	R1332M
909.807	1.635	167113	WORD	n/a	wordpools/wordpool_categorized_EN.txt	MONKEY	Zoo	6	2	[0, 0, 0]	n/a	catFR1	1	R1332M
911.442	0.814	168748	WORD_OFF	n/a	n/a	MONKEY	Zoo	6	2	[0, 0, 0]	n/a	catFR1	1	R1332M
912.256	1.636	169562	WORD	n/a	wordpools/wordpool_categorized_EN.txt	CABBAGE	Vegetables	7	2	[0, 0, 0]	n/a	catFR1	1	R1332M
913.892	1.133	171198	WORD_OFF	n/a	n/a	CABBAGE	Vegetables	7	2	[0, 0, 0]	n/a	catFR1	1	R1332M
915.025	1.635	172331	WORD	n/a	wordpools/wordpool_categorized_EN.txt	CELERY	Vegetables	8	2	[0, 0, 0]	n/a	catFR1	1	R1332M
916.66	0.876	173966	WORD_OFF	n/a	n/a	CELERY	Vegetables	8	2	[0, 0, 0]	n/a	catFR1	1	R1332M
917.536	1.624	174842	WORD	n/a	wordpools/wordpool_categorized_EN.txt	BEAR	Zoo	9	2	[0, 0, 0]	n/a	catFR1	1	R1332M
919.16	0.781	176466	WORD_OFF	n/a	n/a	BEAR	Zoo	9	2	[0, 0, 0]	n/a	catFR1	1	R1332M
919.941	1.636	177247	WORD	n/a	wordpools/wordpool_categorized_EN.txt	GORILLA	Zoo	10	2	[0, 0, 0]	n/a	catFR1	1	R1332M
921.577	0.982	178883	WORD_OFF	n/a	n/a	GORILLA	Zoo	10	2	[0, 0, 0]	n/a	catFR1	1	R1332M
922.559	1.635	179865	WORD	n/a	wordpools/wordpool_categorized_EN.txt	SNOW	Weather	11	2	[0, 0, 0]	n/a	catFR1	1	R1332M
924.194	0.751	181499	WORD_OFF	n/a	n/a	SNOW	Weather	11	2	[0, 0, 0]	n/a	catFR1	1	R1332M
924.945	1.633	182250	WORD	n/a	wordpools/wordpool_categorized_EN.txt	HURRICANE	Weather	12	2	[0, 0, 0]	n/a	catFR1	1	R1332M
926.578	0.0	183883	ENCODING_END	n/a	n/a	n/a	n/a	-999	2	[0, 0, 0]	n/a	catFR1	1	R1332M
926.578	0.0	183883	DISTRACT_START	n/a	n/a	n/a	n/a	-999	2	[0, 0, 0]	n/a	catFR1	1	R1332M
926.578	0.001	183883	WORD_OFF	n/a	n/a	HURRICANE	Weather	12	2	[0, 0, 0]	n/a	catFR1	1	R1332M
926.579	0.016	183884	START	n/a	n/a	n/a	n/a	-999	2	[-999, -999, -999]	n/a	catFR1	1	R1332M
926.595	2.717	183900	PROB	2.717	n/a	n/a	n/a	-999	2	[7, 7, 3]	17	catFR1	1	R1332M
929.312	2.1	186617	PROB	2.1	n/a	n/a	n/a	-999	2	[3, 5, 6]	14	catFR1	1	R1332M
931.412	2.651	188717	PROB	2.651	n/a	n/a	n/a	-999	2	[5, 6, 5]	16	catFR1	1	R1332M
934.063	1.3	191368	PROB	1.3	n/a	n/a	n/a	-999	2	[6, 4, 2]	12	catFR1	1	R1332M
935.363	1.6	192668	PROB	1.6	n/a	n/a	n/a	-999	2	[1, 8, 4]	13	catFR1	1	R1332M
936.963	2.051	194268	PROB	2.051	n/a	n/a	n/a	-999	2	[3, 3, 8]	14	catFR1	1	R1332M
939.014	2.15	196319	PROB	2.15	n/a	n/a	n/a	-999	2	[1, 8, 9]	18	catFR1	1	R1332M
941.164	2.967	198469	PROB	2.967	n/a	n/a	n/a	-999	2	[8, 4, 3]	15	catFR1	1	R1332M
944.131	2.318	201436	PROB	2.318	n/a	n/a	n/a	-999	2	[9, 1, 8]	18	catFR1	1	R1332M
946.449	3.268	203753	PROB	3.268	n/a	n/a	n/a	-999	2	[1, 4, 8]	13	catFR1	1	R1332M
949.717	0.015	207021	STOP	n/a	n/a	n/a	n/a	-999	2	[-999, -999, -999]	n/a	catFR1	1	R1332M
949.732	1.219	207036	DISTRACT_END	n/a	n/a	n/a	n/a	-999	2	[0, 0, 0]	n/a	catFR1	1	R1332M
950.951	1.032	208255	RETRIEVAL_ORIENT_START	n/a	n/a	n/a	n/a	-999	2	[0, 0, 0]	n/a	catFR1	1	R1332M
951.983	0.0	209287	RETRIEVAL_ORIENT_END	n/a	n/a	n/a	n/a	-999	2	[0, 0, 0]	n/a	catFR1	1	R1332M
951.983	0.485	209287	REC_START	n/a	n/a	n/a	n/a	-999	2	[0, 0, 0]	n/a	catFR1	1	R1332M
952.468	1.557	209772	REC_WORD_VV	1.557	n/a	<>	n/a	-999	2	[0, 0, 0]	n/a	catFR1	1	R1332M
954.025	0.766	211329	REC_WORD	0.766	n/a	CORN	Vegetables	1	2	[0, 0, 0]	n/a	catFR1	1	R1332M
954.791	2.364	212095	REC_WORD	2.364	n/a	DRIZZLE	Weather	4	2	[0, 0, 0]	n/a	catFR1	1	R1332M
957.155	1.536	214459	REC_WORD	1.536	n/a	TORNADO	Weather	3	2	[0, 0, 0]	n/a	catFR1	1	R1332M
958.691	3.157	215995	REC_WORD	3.157	n/a	HURRICANE	Weather	12	2	[0, 0, 0]	n/a	catFR1	1	R1332M
961.848	1.002	219152	REC_WORD	1.002	n/a	BEAR	Zoo	9	2	[0, 0, 0]	n/a	catFR1	1	R1332M
962.85	5.079	220154	REC_WORD	5.079	n/a	GORILLA	Zoo	10	2	[0, 0, 0]	n/a	catFR1	1	R1332M
967.929	5.296	225232	REC_WORD_VV	5.296	n/a	<>	n/a	-999	2	[0, 0, 0]	n/a	catFR1	1	R1332M
973.225	1.316	230528	REC_WORD	1.316	n/a	BROCCOLI	Vegetables	2	2	[0, 0, 0]	n/a	catFR1	1	R1332M
974.541	5.83	231844	REC_WORD	5.83	n/a	CELERY	Vegetables	8	2	[0, 0, 0]	n/a	catFR1	1	R1332M
980.371	2.124	237674	REC_WORD_VV	2.124	n/a	<>	n/a	-999	2	[0, 0, 0]	n/a	catFR1	1	R1332M
982.495	0.0	239798	REC_END	n/a	n/a	n/a	n/a	-999	2	[0, 0, 0]	n/a	catFR1	1	R1332M
982.495	0.0	239798	TRIAL_END	n/a	n/a	n/a	n/a	-999	2	[0, 0, 0]	n/a	catFR1	1	R1332M
982.495	0.0	239798	TRIAL_START	n/a	n/a	n/a	n/a	-999	3	[0, 0, 0]	n/a	catFR1	1	R1332M
982.495	0.0	239798	TRIAL	n/a	n/a	n/a	n/a	-999	3	[0, 0, 0]	n/a	catFR1	1	R1332M
982.495	4.711	239798	WAITING_START	n/a	n/a	n/a	n/a	-999	3	[0, 0, 0]	n/a	catFR1	1	R1332M
987.206	0.0	244508	COUNTDOWN_END	n/a	n/a	n/a	n/a	-999	3	[0, 0, 0]	n/a	catFR1	1	R1332M
987.206	0.0	244508	ORIENT_START	n/a	n/a	n/a	n/a	-999	3	[0, 0, 0]	n/a	catFR1	1	R1332M
987.206	0.0	244508	COUNTDOWN_START	n/a	n/a	n/a	n/a	-999	3	[0, 0, 0]	n/a	catFR1	1	R1332M
987.206	11.569	244508	WAITING_END	n/a	n/a	n/a	n/a	-999	3	[0, 0, 0]	n/a	catFR1	1	R1332M
998.775	0.0	256077	ORIENT_END	n/a	n/a	n/a	n/a	-999	3	[0, 0, 0]	n/a	catFR1	1	R1332M
998.775	1.057	256077	ENCODING_START	n/a	n/a	n/a	n/a	-999	3	[0, 0, 0]	n/a	catFR1	1	R1332M
999.832	1.627	257134	WORD	n/a	wordpools/wordpool_categorized_EN.txt	PASTRY	Desserts	1	3	[0, 0, 0]	n/a	catFR1	1	R1332M
1001.459	0.995	258761	WORD_OFF	n/a	n/a	PASTRY	Desserts	1	3	[0, 0, 0]	n/a	catFR1	1	R1332M
1002.454	1.622	259756	WORD	n/a	wordpools/wordpool_categorized_EN.txt	CAKE	Desserts	2	3	[0, 0, 0]	n/a	catFR1	1	R1332M
1004.076	0.917	261378	WORD_OFF	n/a	n/a	CAKE	Desserts	2	3	[0, 0, 0]	n/a	catFR1	1	R1332M
1004.993	1.634	262295	WORD	n/a	wordpools/wordpool_categorized_EN.txt	DESK	Furniture	3	3	[0, 0, 0]	n/a	catFR1	1	R1332M
1006.627	0.888	263929	WORD_OFF	n/a	n/a	DESK	Furniture	3	3	[0, 0, 0]	n/a	catFR1	1	R1332M
1007.515	1.629	264817	WORD	n/a	wordpools/wordpool_categorized_EN.txt	BOOKCASE	Furniture	4	3	[0, 0, 0]	n/a	catFR1	1	R1332M
1009.144	0.776	266445	WORD_OFF	n/a	n/a	BOOKCASE	Furniture	4	3	[0, 0, 0]	n/a	catFR1	1	R1332M
1009.92	1.624	267221	WORD	n/a	wordpools/wordpool_categorized_EN.txt	CAR	Vehicles	5	3	[0, 0, 0]	n/a	catFR1	1	R1332M
1011.544	0.975	268845	WORD_OFF	n/a	n/a	CAR	Vehicles	5	3	[0, 0, 0]	n/a	catFR1	1	R1332M
1012.519	1.626	269820	WORD	n/a	wordpools/wordpool_categorized_EN.txt	VAN	Vehicles	6	3	[0, 0, 0]	n/a	catFR1	1	R1332M
1014.145	1.114	271446	WORD_OFF	n/a	n/a	VAN	Vehicles	6	3	[0, 0, 0]	n/a	catFR1	1	R1332M
1015.259	1.637	272560	WORD	n/a	wordpools/wordpool_categorized_EN.txt	BROWNIES	Desserts	7	3	[0, 0, 0]	n/a	catFR1	1	R1332M
1016.896	0.818	274197	WORD_OFF	n/a	n/a	BROWNIES	Desserts	7	3	[0, 0, 0]	n/a	catFR1	1	R1332M
1017.714	1.632	275015	WORD	n/a	wordpools/wordpool_categorized_EN.txt	CHEESECAKE	Desserts	8	3	[0, 0, 0]	n/a	catFR1	1	R1332M
1019.346	1.089	276647	WORD_OFF	n/a	n/a	CHEESECAKE	Desserts	8	3	[0, 0, 0]	n/a	catFR1	1	R1332M
1020.435	1.628	277736	WORD	n/a	wordpools/wordpool_categorized_EN.txt	CABINET	Furniture	9	3	[0, 0, 0]	n/a	catFR1	1	R1332M
1022.063	1.038	279364	WORD_OFF	n/a	n/a	CABINET	Furniture	9	3	[0, 0, 0]	n/a	catFR1	1	R1332M
1023.101	1.629	280402	WORD	n/a	wordpools/wordpool_categorized_EN.txt	SHELF	Furniture	10	3	[0, 0, 0]	n/a	catFR1	1	R1332M
1024.73	0.983	282031	WORD_OFF	n/a	n/a	SHELF	Furniture	10	3	[0, 0, 0]	n/a	catFR1	1	R1332M
1025.713	1.634	283014	WORD	n/a	wordpools/wordpool_categorized_EN.txt	MOPED	Vehicles	11	3	[0, 0, 0]	n/a	catFR1	1	R1332M
1027.347	1.029	284648	WORD_OFF	n/a	n/a	MOPED	Vehicles	11	3	[0, 0, 0]	n/a	catFR1	1	R1332M
1028.376	1.622	285677	WORD	n/a	wordpools/wordpool_categorized_EN.txt	TRAIN	Vehicles	12	3	[0, 0, 0]	n/a	catFR1	1	R1332M
1029.998	0.0	287298	DISTRACT_START	n/a	n/a	n/a	n/a	-999	3	[0, 0, 0]	n/a	catFR1	1	R1332M
1029.998	0.0	287298	WORD_OFF	n/a	n/a	TRAIN	Vehicles	12	3	[0, 0, 0]	n/a	catFR1	1	R1332M
1029.998	0.001	287298	ENCODING_END	n/a	n/a	n/a	n/a	-999	3	[0, 0, 0]	n/a	catFR1	1	R1332M
1029.999	0.016	287299	START	n/a	n/a	n/a	n/a	-999	3	[-999, -999, -999]	n/a	catFR1	1	R1332M
1030.015	2.133	287315	PROB	2.133	n/a	n/a	n/a	-999	3	[7, 3, 8]	18	catFR1	1	R1332M
1032.148	2.418	289448	PROB	2.418	n/a	n/a	n/a	-999	3	[6, 5, 6]	17	catFR1	1	R1332M
1034.566	2.65	291866	PROB	2.65	n/a	n/a	n/a	-999	3	[6, 6, 3]	15	catFR1	1	R1332M
1037.216	1.684	294516	PROB	1.684	n/a	n/a	n/a	-999	3	[3, 9, 3]	15	catFR1	1	R1332M
1038.9	3.184	296200	PROB	3.184	n/a	n/a	n/a	-999	3	[6, 7, 3]	16	catFR1	1	R1332M
1042.084	2.984	299384	PROB	2.984	n/a	n/a	n/a	-999	3	[5, 9, 9]	23	catFR1	1	R1332M
1045.068	1.833	302368	PROB	1.833	n/a	n/a	n/a	-999	3	[5, 7, 2]	14	catFR1	1	R1332M
1046.901	1.684	304201	PROB	1.684	n/a	n/a	n/a	-999	3	[8, 2, 3]	13	catFR1	1	R1332M
1048.585	2.637	305885	PROB	2.637	n/a	n/a	n/a	-999	3	[9, 3, 2]	14	catFR1	1	R1332M
1051.222	0.013	308521	STOP	n/a	n/a	n/a	n/a	-999	3	[-999, -999, -999]	n/a	catFR1	1	R1332M
1051.235	1.141	308534	DISTRACT_END	n/a	n/a	n/a	n/a	-999	3	[0, 0, 0]	n/a	catFR1	1	R1332M
1052.376	1.026	309675	RETRIEVAL_ORIENT_START	n/a	n/a	n/a	n/a	-999	3	[0, 0, 0]	n/a	catFR1	1	R1332M
1053.402	0.0	310701	RETRIEVAL_ORIENT_END	n/a	n/a	n/a	n/a	-999	3	[0, 0, 0]	n/a	catFR1	1	R1332M
1053.402	0.529	310701	REC_START	n/a	n/a	n/a	n/a	-999	3	[0, 0, 0]	n/a	catFR1	1	R1332M
1053.931	0.418	311230	REC_WORD_VV	0.418	n/a	<>	n/a	-999	3	[0, 0, 0]	n/a	catFR1	1	R1332M
1054.349	0.766	311648	REC_WORD	0.766	n/a	PASTRY	Desserts	1	3	[0, 0, 0]	n/a	catFR1	1	R1332M
1055.115	0.406	312414	REC_WORD	0.406	n/a	CAKE	Desserts	2	3	[0, 0, 0]	n/a	catFR1	1	R1332M
1055.521	0.64	312820	REC_WORD	0.64	n/a	CHEESECAKE	Desserts	8	3	[0, 0, 0]	n/a	catFR1	1	R1332M
1056.161	1.677	313460	REC_WORD	1.677	n/a	BROWNIES	Desserts	7	3	[0, 0, 0]	n/a	catFR1	1	R1332M
1057.838	1.29	315137	REC_WORD	1.29	n/a	CAR	Vehicles	5	3	[0, 0, 0]	n/a	catFR1	1	R1332M
1059.128	0.562	316427	REC_WORD	0.562	n/a	BUS	n/a	-999	3	[0, 0, 0]	n/a	catFR1	1	R1332M
1059.69	3.586	316989	REC_WORD	3.586	n/a	MOPED	Vehicles	11	3	[0, 0, 0]	n/a	catFR1	1	R1332M
1063.276	3.044	320575	REC_WORD_VV	3.044	n/a	<>	n/a	-999	3	[0, 0, 0]	n/a	catFR1	1	R1332M
1066.32	1.783	323619	REC_WORD	1.783	n/a	DESK	Furniture	3	3	[0, 0, 0]	n/a	catFR1	1	R1332M
1068.103	3.555	325402	REC_WORD	3.555	n/a	DRESSER	Furniture	-999	3	[0, 0, 0]	n/a	catFR1	1	R1332M
1071.658	4.722	328956	REC_WORD	4.722	n/a	BOOKSHELF	n/a	-999	3	[0, 0, 0]	n/a	catFR1	1	R1332M
1076.38	2.187	333678	REC_WORD	2.187	n/a	BUS	n/a	-999	3	[0, 0, 0]	n/a	catFR1	1	R1332M
1078.567	0.438	335865	REC_WORD_VV	0.438	n/a	<>	n/a	-999	3	[0, 0, 0]	n/a	catFR1	1	R1332M
1079.005	1.909	336303	REC_WORD	1.909	n/a	CHEESECAKE	Desserts	8	3	[0, 0, 0]	n/a	catFR1	1	R1332M
1080.914	2.999	338212	REC_WORD	2.999	n/a	PASTRY	Desserts	1	3	[0, 0, 0]	n/a	catFR1	1	R1332M
1083.913	0.0	341211	REC_END	n/a	n/a	n/a	n/a	-999	3	[0, 0, 0]	n/a	catFR1	1	R1332M
1083.913	0.0	341211	TRIAL_END	n/a	n/a	n/a	n/a	-999	3	[0, 0, 0]	n/a	catFR1	1	R1332M
1083.913	0.0	341211	TRIAL_START	n/a	n/a	n/a	n/a	-999	4	[0, 0, 0]	n/a	catFR1	1	R1332M
1083.913	0.0	341211	TRIAL	n/a	n/a	n/a	n/a	-999	4	[0, 0, 0]	n/a	catFR1	1	R1332M
1083.913	7.514	341211	WAITING_START	n/a	n/a	n/a	n/a	-999	4	[0, 0, 0]	n/a	catFR1	1	R1332M
1091.427	0.0	348725	WAITING_END	n/a	n/a	n/a	n/a	-999	4	[0, 0, 0]	n/a	catFR1	1	R1332M
1091.427	0.0	348725	COUNTDOWN_START	n/a	n/a	n/a	n/a	-999	4	[0, 0, 0]	n/a	catFR1	1	R1332M
1091.427	0.0	348725	COUNTDOWN_END	n/a	n/a	n/a	n/a	-999	4	[0, 0, 0]	n/a	catFR1	1	R1332M
1091.427	11.552	348725	ORIENT_START	n/a	n/a	n/a	n/a	-999	4	[0, 0, 0]	n/a	catFR1	1	R1332M
1102.979	0.0	360276	ORIENT_END	n/a	n/a	n/a	n/a	-999	4	[0, 0, 0]	n/a	catFR1	1	R1332M
1102.979	0.868	360276	ENCODING_START	n/a	n/a	n/a	n/a	-999	4	[0, 0, 0]	n/a	catFR1	1	R1332M
1103.847	1.632	361144	WORD	n/a	wordpools/wordpool_categorized_EN.txt	SCANNER	Electronics	1	4	[0, 0, 0]	n/a	catFR1	1	R1332M
1105.479	0.996	362776	WORD_OFF	n/a	n/a	SCANNER	Electronics	1	4	[0, 0, 0]	n/a	catFR1	1	R1332M
1106.475	1.638	363772	WORD	n/a	wordpools/wordpool_categorized_EN.txt	HEADPHONES	Electronics	2	4	[0, 0, 0]	n/a	catFR1	1	R1332M
1108.113	1.009	365410	WORD_OFF	n/a	n/a	HEADPHONES	Electronics	2	4	[0, 0, 0]	n/a	catFR1	1	R1332M
1109.122	1.625	366419	WORD	n/a	wordpools/wordpool_categorized_EN.txt	TUBA	Instruments	3	4	[0, 0, 0]	n/a	catFR1	1	R1332M
1110.747	0.829	368044	WORD_OFF	n/a	n/a	TUBA	Instruments	3	4	[0, 0, 0]	n/a	catFR1	1	R1332M
1111.576	1.621	368873	WORD	n/a	wordpools/wordpool_categorized_EN.txt	BASS	Instruments	4	4	[0, 0, 0]	n/a	catFR1	1	R1332M
1113.197	0.777	370493	WORD_OFF	n/a	n/a	BASS	Instruments	4	4	[0, 0, 0]	n/a	catFR1	1	R1332M
1113.974	1.624	371270	WORD	n/a	wordpools/wordpool_categorized_EN.txt	SLINKY	Toys	5	4	[0, 0, 0]	n/a	catFR1	1	R1332M
1115.598	0.893	372894	WORD_OFF	n/a	n/a	SLINKY	Toys	5	4	[0, 0, 0]	n/a	catFR1	1	R1332M
1116.491	1.624	373787	WORD	n/a	wordpools/wordpool_categorized_EN.txt	PUZZLE	Toys	6	4	[0, 0, 0]	n/a	catFR1	1	R1332M
1118.115	0.922	375411	WORD_OFF	n/a	n/a	PUZZLE	Toys	6	4	[0, 0, 0]	n/a	catFR1	1	R1332M
1119.037	1.628	376333	WORD	n/a	wordpools/wordpool_categorized_EN.txt	GUITAR	Instruments	7	4	[0, 0, 0]	n/a	catFR1	1	R1332M
1120.665	0.882	377961	WORD_OFF	n/a	n/a	GUITAR	Instruments	7	4	[0, 0, 0]	n/a	catFR1	1	R1332M
1121.547	1.636	378843	WORD	n/a	wordpools/wordpool_categorized_EN.txt	CELLO	Instruments	8	4	[0, 0, 0]	n/a	catFR1	1	R1332M
1123.183	1.144	380479	WORD_OFF	n/a	n/a	CELLO	Instruments	8	4	[0, 0, 0]	n/a	catFR1	1	R1332M
1124.327	1.622	381623	WORD	n/a	wordpools/wordpool_categorized_EN.txt	STEREO	Electronics	9	4	[0, 0, 0]	n/a	catFR1	1	R1332M
1125.949	0.921	383245	WORD_OFF	n/a	n/a	STEREO	Electronics	9	4	[0, 0, 0]	n/a	catFR1	1	R1332M
1126.87	1.63	384166	WORD	n/a	wordpools/wordpool_categorized_EN.txt	PRINTER	Electronics	10	4	[0, 0, 0]	n/a	catFR1	1	R1332M
1128.5	0.946	385796	WORD_OFF	n/a	n/a	PRINTER	Electronics	10	4	[0, 0, 0]	n/a	catFR1	1	R1332M
1129.446	1.638	386742	WORD	n/a	wordpools/wordpool_categorized_EN.txt	FRISBEE	Toys	11	4	[0, 0, 0]	n/a	catFR1	1	R1332M
1131.084	0.945	388380	WORD_OFF	n/a	n/a	FRISBEE	Toys	11	4	[0, 0, 0]	n/a	catFR1	1	R1332M
1132.029	1.639	389325	WORD	n/a	wordpools/wordpool_categorized_EN.txt	MARBLES	Toys	12	4	[0, 0, 0]	n/a	catFR1	1	R1332M
1133.668	0.0	390963	WORD_OFF	n/a	n/a	MARBLES	Toys	12	4	[0, 0, 0]	n/a	catFR1	1	R1332M
1133.668	0.0	390963	ENCODING_END	n/a	n/a	n/a	n/a	-999	4	[0, 0, 0]	n/a	catFR1	1	R1332M
1133.668	0.001	390963	DISTRACT_START	n/a	n/a	n/a	n/a	-999	4	[0, 0, 0]	n/a	catFR1	1	R1332M
1133.669	0.016	390964	START	n/a	n/a	n/a	n/a	-999	4	[-999, -999, -999]	n/a	catFR1	1	R1332M
1133.685	2.85	390980	PROB	2.85	n/a	n/a	n/a	-999	4	[5, 6, 9]	20	catFR1	1	R1332M
1136.535	1.951	393830	PROB	1.951	n/a	n/a	n/a	-999	4	[4, 8, 1]	13	catFR1	1	R1332M
1138.486	2.2	395781	PROB	2.2	n/a	n/a	n/a	-999	4	[8, 3, 8]	19	catFR1	1	R1332M
1140.686	1.734	397981	PROB	1.734	n/a	n/a	n/a	-999	4	[6, 6, 2]	14	catFR1	1	R1332M
1142.42	2.0	399715	PROB	2.0	n/a	n/a	n/a	-999	4	[5, 8, 2]	15	catFR1	1	R1332M
1144.42	2.334	401715	PROB	2.334	n/a	n/a	n/a	-999	4	[4, 8, 4]	16	catFR1	1	R1332M
1146.754	1.683	404049	PROB	1.683	n/a	n/a	n/a	-999	4	[1, 4, 7]	12	catFR1	1	R1332M
1148.437	2.218	405732	PROB	2.218	n/a	n/a	n/a	-999	4	[6, 3, 7]	16	catFR1	1	R1332M
1150.655	2.733	407950	PROB	2.733	n/a	n/a	n/a	-999	4	[5, 3, 4]	12	catFR1	1	R1332M
1153.388	2.483	410683	PROB	2.483	n/a	n/a	n/a	-999	4	[4, 9, 4]	17	catFR1	1	R1332M
1155.871	0.018	413165	STOP	n/a	n/a	n/a	n/a	-999	4	[-999, -999, -999]	n/a	catFR1	1	R1332M
1155.889	1.078	413183	DISTRACT_END	n/a	n/a	n/a	n/a	-999	4	[0, 0, 0]	n/a	catFR1	1	R1332M
1156.967	1.022	414261	RETRIEVAL_ORIENT_START	n/a	n/a	n/a	n/a	-999	4	[0, 0, 0]	n/a	catFR1	1	R1332M
1157.989	0.0	415283	RETRIEVAL_ORIENT_END	n/a	n/a	n/a	n/a	-999	4	[0, 0, 0]	n/a	catFR1	1	R1332M
1157.989	0.504	415283	REC_START	n/a	n/a	n/a	n/a	-999	4	[0, 0, 0]	n/a	catFR1	1	R1332M
1158.493	0.572	415787	REC_WORD_VV	0.572	n/a	<>	n/a	-999	4	[0, 0, 0]	n/a	catFR1	1	R1332M
1159.065	0.856	416359	REC_WORD	0.856	n/a	TUBA	Instruments	3	4	[0, 0, 0]	n/a	catFR1	1	R1332M
1159.921	0.593	417215	REC_WORD	0.593	n/a	BASS	Instruments	4	4	[0, 0, 0]	n/a	catFR1	1	R1332M
1160.514	0.551	417808	REC_WORD	0.551	n/a	GUITAR	Instruments	7	4	[0, 0, 0]	n/a	catFR1	1	R1332M
1161.065	4.489	418359	REC_WORD	4.489	n/a	CELLO	Instruments	8	4	[0, 0, 0]	n/a	catFR1	1	R1332M
1165.554	0.915	422848	REC_WORD	0.915	n/a	FRISBEE	Toys	11	4	[0, 0, 0]	n/a	catFR1	1	R1332M
1166.469	3.974	423763	REC_WORD	3.974	n/a	SLINKY	Toys	5	4	[0, 0, 0]	n/a	catFR1	1	R1332M
1170.443	0.862	427737	REC_WORD	0.862	n/a	SCANNER	Electronics	1	4	[0, 0, 0]	n/a	catFR1	1	R1332M
1171.305	3.113	428599	REC_WORD	3.113	n/a	PRINTER	Electronics	10	4	[0, 0, 0]	n/a	catFR1	1	R1332M
1174.418	8.645	431712	REC_WORD	8.645	n/a	MARBLES	Toys	12	4	[0, 0, 0]	n/a	catFR1	1	R1332M
1183.063	5.437	440356	REC_WORD_VV	5.437	n/a	<>	n/a	-999	4	[0, 0, 0]	n/a	catFR1	1	R1332M
1188.5	0.0	445793	REC_END	n/a	n/a	n/a	n/a	-999	4	[0, 0, 0]	n/a	catFR1	1	R1332M
1188.5	0.0	445793	TRIAL_END	n/a	n/a	n/a	n/a	-999	4	[0, 0, 0]	n/a	catFR1	1	R1332M
1188.5	0.0	445793	TRIAL_START	n/a	n/a	n/a	n/a	-999	5	[0, 0, 0]	n/a	catFR1	1	R1332M
1188.5	0.0	445793	TRIAL	n/a	n/a	n/a	n/a	-999	5	[0, 0, 0]	n/a	catFR1	1	R1332M
1188.5	3.513	445793	WAITING_START	n/a	n/a	n/a	n/a	-999	5	[0, 0, 0]	n/a	catFR1	1	R1332M
1192.013	0.0	449306	COUNTDOWN_START	n/a	n/a	n/a	n/a	-999	5	[0, 0, 0]	n/a	catFR1	1	R1332M
1192.013	0.0	449306	COUNTDOWN_END	n/a	n/a	n/a	n/a	-999	5	[0, 0, 0]	n/a	catFR1	1	R1332M
1192.013	0.0	449306	ORIENT_START	n/a	n/a	n/a	n/a	-999	5	[0, 0, 0]	n/a	catFR1	1	R1332M
1192.013	11.535	449306	WAITING_END	n/a	n/a	n/a	n/a	-999	5	[0, 0, 0]	n/a	catFR1	1	R1332M
1203.548	0.0	460840	ORIENT_END	n/a	n/a	n/a	n/a	-999	5	[0, 0, 0]	n/a	catFR1	1	R1332M
1203.548	1.124	460840	ENCODING_START	n/a	n/a	n/a	n/a	-999	5	[0, 0, 0]	n/a	catFR1	1	R1332M
1204.672	1.627	461964	WORD	n/a	wordpools/wordpool_categorized_EN.txt	DISHWASHER	Appliances	1	5	[0, 0, 0]	n/a	catFR1	1	R1332M
1206.299	1.107	463591	WORD_OFF	n/a	n/a	DISHWASHER	Appliances	1	5	[0, 0, 0]	n/a	catFR1	1	R1332M
1207.406	1.627	464698	WORD	n/a	wordpools/wordpool_categorized_EN.txt	TOASTER	Appliances	2	5	[0, 0, 0]	n/a	catFR1	1	R1332M
1209.033	0.752	466325	WORD_OFF	n/a	n/a	TOASTER	Appliances	2	5	[0, 0, 0]	n/a	catFR1	1	R1332M
1209.785	1.631	467077	WORD	n/a	wordpools/wordpool_categorized_EN.txt	SUNFLOWER	Flowers	3	5	[0, 0, 0]	n/a	catFR1	1	R1332M
1211.416	1.007	468708	WORD_OFF	n/a	n/a	SUNFLOWER	Flowers	3	5	[0, 0, 0]	n/a	catFR1	1	R1332M
1212.423	1.627	469715	WORD	n/a	wordpools/wordpool_categorized_EN.txt	DAISY	Flowers	4	5	[0, 0, 0]	n/a	catFR1	1	R1332M
1214.05	1.033	471342	WORD_OFF	n/a	n/a	DAISY	Flowers	4	5	[0, 0, 0]	n/a	catFR1	1	R1332M
1215.083	1.634	472375	WORD	n/a	wordpools/wordpool_categorized_EN.txt	VALLEY	Landscapes	5	5	[0, 0, 0]	n/a	catFR1	1	R1332M
1216.717	1.095	474009	WORD_OFF	n/a	n/a	VALLEY	Landscapes	5	5	[0, 0, 0]	n/a	catFR1	1	R1332M
1217.812	1.622	475103	WORD	n/a	wordpools/wordpool_categorized_EN.txt	CREEK	Landscapes	6	5	[0, 0, 0]	n/a	catFR1	1	R1332M
1219.434	1.128	476725	WORD_OFF	n/a	n/a	CREEK	Landscapes	6	5	[0, 0, 0]	n/a	catFR1	1	R1332M
1220.562	1.623	477853	WORD	n/a	wordpools/wordpool_categorized_EN.txt	ORCHID	Flowers	7	5	[0, 0, 0]	n/a	catFR1	1	R1332M
1222.185	0.973	479476	WORD_OFF	n/a	n/a	ORCHID	Flowers	7	5	[0, 0, 0]	n/a	catFR1	1	R1332M
1223.158	1.627	480449	WORD	n/a	wordpools/wordpool_categorized_EN.txt	LILAC	Flowers	8	5	[0, 0, 0]	n/a	catFR1	1	R1332M
1224.785	0.822	482076	WORD_OFF	n/a	n/a	LILAC	Flowers	8	5	[0, 0, 0]	n/a	catFR1	1	R1332M
1225.607	1.629	482898	WORD	n/a	wordpools/wordpool_categorized_EN.txt	VACUUM	Appliances	9	5	[0, 0, 0]	n/a	catFR1	1	R1332M
1227.236	0.808	484527	WORD_OFF	n/a	n/a	VACUUM	Appliances	9	5	[0, 0, 0]	n/a	catFR1	1	R1332M
1228.044	1.626	485335	WORD	n/a	wordpools/wordpool_categorized_EN.txt	REFRIGERATOR	Appliances	10	5	[0, 0, 0]	n/a	catFR1	1	R1332M
1229.67	0.802	486961	WORD_OFF	n/a	n/a	REFRIGERATOR	Appliances	10	5	[0, 0, 0]	n/a	catFR1	1	R1332M
1230.472	1.632	487763	WORD	n/a	wordpools/wordpool_categorized_EN.txt	ISLAND	Landscapes	11	5	[0, 0, 0]	n/a	catFR1	1	R1332M
1232.104	0.995	489395	WORD_OFF	n/a	n/a	ISLAND	Landscapes	11	5	[0, 0, 0]	n/a	catFR1	1	R1332M
1233.099	1.622	490390	WORD	n/a	wordpools/wordpool_categorized_EN.txt	LAKE	Landscapes	12	5	[0, 0, 0]	n/a	catFR1	1	R1332M
1234.721	0.0	492012	DISTRACT_START	n/a	n/a	n/a	n/a	-999	5	[0, 0, 0]	n/a	catFR1	1	R1332M
1234.721	0.0	492012	ENCODING_END	n/a	n/a	n/a	n/a	-999	5	[0, 0, 0]	n/a	catFR1	1	R1332M
1234.721	0.001	492012	WORD_OFF	n/a	n/a	LAKE	Landscapes	12	5	[0, 0, 0]	n/a	catFR1	1	R1332M
1234.722	0.016	492013	START	n/a	n/a	n/a	n/a	-999	5	[-999, -999, -999]	n/a	catFR1	1	R1332M
1234.738	2.467	492029	PROB	2.467	n/a	n/a	n/a	-999	5	[5, 1, 2]	8	catFR1	1	R1332M
1237.205	2.533	494496	PROB	2.533	n/a	n/a	n/a	-999	5	[8, 5, 4]	17	catFR1	1	R1332M
1239.738	2.184	497028	PROB	2.184	n/a	n/a	n/a	-999	5	[5, 8, 3]	16	catFR1	1	R1332M
1241.922	1.751	499212	PROB	1.751	n/a	n/a	n/a	-999	5	[1, 6, 7]	14	catFR1	1	R1332M
1243.673	3.25	500963	PROB	3.25	n/a	n/a	n/a	-999	5	[3, 9, 3]	15	catFR1	1	R1332M
1246.923	2.184	504213	PROB	2.184	n/a	n/a	n/a	-999	5	[1, 5, 6]	12	catFR1	1	R1332M
1249.107	1.867	506397	PROB	1.867	n/a	n/a	n/a	-999	5	[5, 1, 7]	13	catFR1	1	R1332M
1250.974	3.501	508264	PROB	3.501	n/a	n/a	n/a	-999	5	[4, 9, 7]	20	catFR1	1	R1332M
1254.475	2.51	511765	PROB	2.51	n/a	n/a	n/a	-999	5	[8, 8, 4]	20	catFR1	1	R1332M
1256.985	0.006	514275	STOP	n/a	n/a	n/a	n/a	-999	5	[-999, -999, -999]	n/a	catFR1	1	R1332M
1256.991	1.196	514281	DISTRACT_END	n/a	n/a	n/a	n/a	-999	5	[0, 0, 0]	n/a	catFR1	1	R1332M
1258.187	1.022	515477	RETRIEVAL_ORIENT_START	n/a	n/a	n/a	n/a	-999	5	[0, 0, 0]	n/a	catFR1	1	R1332M
1259.209	0.0	516498	RETRIEVAL_ORIENT_END	n/a	n/a	n/a	n/a	-999	5	[0, 0, 0]	n/a	catFR1	1	R1332M
1259.209	1.284	516498	REC_START	n/a	n/a	n/a	n/a	-999	5	[0, 0, 0]	n/a	catFR1	1	R1332M
1260.493	0.857	517782	REC_WORD_VV	0.857	n/a	<>	n/a	-999	5	[0, 0, 0]	n/a	catFR1	1	R1332M
1261.35	2.637	518639	REC_WORD	2.637	n/a	ORCHID	Flowers	7	5	[0, 0, 0]	n/a	catFR1	1	R1332M
1263.987	2.263	521276	REC_WORD	2.263	n/a	LILY	n/a	-999	5	[0, 0, 0]	n/a	catFR1	1	R1332M
1266.25	0.856	523539	REC_WORD	0.856	n/a	DISHWASHER	Appliances	1	5	[0, 0, 0]	n/a	catFR1	1	R1332M
1267.106	1.167	524395	REC_WORD	1.167	n/a	REFRIGERATOR	Appliances	10	5	[0, 0, 0]	n/a	catFR1	1	R1332M
1268.273	2.96	525562	REC_WORD	2.96	n/a	TOASTER	Appliances	2	5	[0, 0, 0]	n/a	catFR1	1	R1332M
1271.233	2.414	528522	REC_WORD	2.414	n/a	SUNFLOWER	Flowers	3	5	[0, 0, 0]	n/a	catFR1	1	R1332M
1273.647	3.165	530936	REC_WORD	3.165	n/a	DAISY	Flowers	4	5	[0, 0, 0]	n/a	catFR1	1	R1332M
1276.812	0.898	534101	REC_WORD	0.898	n/a	CREEK	Landscapes	6	5	[0, 0, 0]	n/a	catFR1	1	R1332M
1277.71	12.012	534999	REC_WORD	12.012	n/a	VALLEY	Landscapes	5	5	[0, 0, 0]	n/a	catFR1	1	R1332M
1289.722	0.0	547010	WAITING_START	n/a	n/a	n/a	n/a	-999	6	[0, 0, 0]	n/a	catFR1	1	R1332M
1289.722	0.0	547010	TRIAL	n/a	n/a	n/a	n/a	-999	6	[0, 0, 0]	n/a	catFR1	1	R1332M
1289.722	0.0	547010	TRIAL_END	n/a	n/a	n/a	n/a	-999	5	[0, 0, 0]	n/a	catFR1	1	R1332M
1289.722	0.0	547010	REC_END	n/a	n/a	n/a	n/a	-999	5	[0, 0, 0]	n/a	catFR1	1	R1332M
1289.722	5.911	547010	TRIAL_START	n/a	n/a	n/a	n/a	-999	6	[0, 0, 0]	n/a	catFR1	1	R1332M
1295.633	0.0	552921	COUNTDOWN_START	n/a	n/a	n/a	n/a	-999	6	[0, 0, 0]	n/a	catFR1	1	R1332M
1295.633	0.0	552921	COUNTDOWN_END	n/a	n/a	n/a	n/a	-999	6	[0, 0, 0]	n/a	catFR1	1	R1332M
1295.633	0.0	552921	ORIENT_START	n/a	n/a	n/a	n/a	-999	6	[0, 0, 0]	n/a	catFR1	1	R1332M
1295.633	11.602	552921	WAITING_END	n/a	n/a	n/a	n/a	-999	6	[0, 0, 0]	n/a	catFR1	1	R1332M
1307.235	0.0	564522	ORIENT_END	n/a	n/a	n/a	n/a	-999	6	[0, 0, 0]	n/a	catFR1	1	R1332M
1307.235	1.017	564522	ENCODING_START	n/a	n/a	n/a	n/a	-999	6	[0, 0, 0]	n/a	catFR1	1	R1332M
1308.252	1.633	565539	WORD	n/a	wordpools/wordpool_categorized_EN.txt	FOOT	BodyParts	1	6	[0, 0, 0]	n/a	catFR1	1	R1332M
1309.885	0.897	567172	WORD_OFF	n/a	n/a	FOOT	BodyParts	1	6	[0, 0, 0]	n/a	catFR1	1	R1332M
1310.782	1.637	568069	WORD	n/a	wordpools/wordpool_categorized_EN.txt	FINGERS	BodyParts	2	6	[0, 0, 0]	n/a	catFR1	1	R1332M
1312.419	0.806	569706	WORD_OFF	n/a	n/a	FINGERS	BodyParts	2	6	[0, 0, 0]	n/a	catFR1	1	R1332M
1313.225	1.628	570512	WORD	n/a	wordpools/wordpool_categorized_EN.txt	ERASER	OfficeSupplies	3	6	[0, 0, 0]	n/a	catFR1	1	R1332M
1314.853	0.911	572140	WORD_OFF	n/a	n/a	ERASER	OfficeSupplies	3	6	[0, 0, 0]	n/a	catFR1	1	R1332M
1315.764	1.623	573051	WORD	n/a	wordpools/wordpool_categorized_EN.txt	TAPE	OfficeSupplies	4	6	[0, 0, 0]	n/a	catFR1	1	R1332M
1317.387	0.828	574674	WORD_OFF	n/a	n/a	TAPE	OfficeSupplies	4	6	[0, 0, 0]	n/a	catFR1	1	R1332M
1318.215	1.639	575502	WORD	n/a	wordpools/wordpool_categorized_EN.txt	SCREWDRIVER	Tools	5	6	[0, 0, 0]	n/a	catFR1	1	R1332M
1319.854	1.102	577141	WORD_OFF	n/a	n/a	SCREWDRIVER	Tools	5	6	[0, 0, 0]	n/a	catFR1	1	R1332M
1320.956	1.632	578243	WORD	n/a	wordpools/wordpool_categorized_EN.txt	WRENCH	Tools	6	6	[0, 0, 0]	n/a	catFR1	1	R1332M
1322.588	1.079	579874	WORD_OFF	n/a	n/a	WRENCH	Tools	6	6	[0, 0, 0]	n/a	catFR1	1	R1332M
1323.667	1.638	580953	WORD	n/a	wordpools/wordpool_categorized_EN.txt	MARKER	OfficeSupplies	7	6	[0, 0, 0]	n/a	catFR1	1	R1332M
1325.305	1.147	582591	WORD_OFF	n/a	n/a	MARKER	OfficeSupplies	7	6	[0, 0, 0]	n/a	catFR1	1	R1332M
1326.452	1.637	583738	WORD	n/a	wordpools/wordpool_categorized_EN.txt	FOLDER	OfficeSupplies	8	6	[0, 0, 0]	n/a	catFR1	1	R1332M
1328.089	0.995	585375	WORD_OFF	n/a	n/a	FOLDER	OfficeSupplies	8	6	[0, 0, 0]	n/a	catFR1	1	R1332M
1329.084	1.622	586370	WORD	n/a	wordpools/wordpool_categorized_EN.txt	DRILL	Tools	9	6	[0, 0, 0]	n/a	catFR1	1	R1332M
1330.706	0.795	587992	WORD_OFF	n/a	n/a	DRILL	Tools	9	6	[0, 0, 0]	n/a	catFR1	1	R1332M
1331.501	1.639	588787	WORD	n/a	wordpools/wordpool_categorized_EN.txt	RATCHET	Tools	10	6	[0, 0, 0]	n/a	catFR1	1	R1332M
1333.14	0.804	590426	WORD_OFF	n/a	n/a	RATCHET	Tools	10	6	[0, 0, 0]	n/a	catFR1	1	R1332M
1333.944	1.63	591230	WORD	n/a	wordpools/wordpool_categorized_EN.txt	EAR	BodyParts	11	6	[0, 0, 0]	n/a	catFR1	1	R1332M
1335.574	1.147	592860	WORD_OFF	n/a	n/a	EAR	BodyParts	11	6	[0, 0, 0]	n/a	catFR1	1	R1332M
1336.721	1.637	594007	WORD	n/a	wordpools/wordpool_categorized_EN.txt	TOE	BodyParts	12	6	[0, 0, 0]	n/a	catFR1	1	R1332M
1338.358	0.0	595644	WORD_OFF	n/a	n/a	TOE	BodyParts	12	6	[0, 0, 0]	n/a	catFR1	1	R1332M
1338.358	0.0	595644	ENCODING_END	n/a	n/a	n/a	n/a	-999	6	[0, 0, 0]	n/a	catFR1	1	R1332M
1338.358	0.001	595644	DISTRACT_START	n/a	n/a	n/a	n/a	-999	6	[0, 0, 0]	n/a	catFR1	1	R1332M
1338.359	0.015	595645	START	n/a	n/a	n/a	n/a	-999	6	[-999, -999, -999]	n/a	catFR1	1	R1332M
1338.374	2.834	595660	PROB	2.834	n/a	n/a	n/a	-999	6	[1, 3, 9]	13	catFR1	1	R1332M
1341.208	2.434	598494	PROB	2.434	n/a	n/a	n/a	-999	6	[7, 7, 9]	23	catFR1	1	R1332M
1343.642	2.85	600927	PROB	2.85	n/a	n/a	n/a	-999	6	[2, 2, 4]	8	catFR1	1	R1332M
1346.492	1.901	603777	PROB	1.901	n/a	n/a	n/a	-999	6	[6, 1, 7]	14	catFR1	1	R1332M
1348.393	2.117	605678	PROB	2.117	n/a	n/a	n/a	-999	6	[1, 6, 9]	16	catFR1	1	R1332M
1350.51	2.617	607795	PROB	2.617	n/a	n/a	n/a	-999	6	[4, 1, 5]	10	catFR1	1	R1332M
1353.127	2.1	610412	PROB	2.1	n/a	n/a	n/a	-999	6	[6, 5, 2]	13	catFR1	1	R1332M
1355.227	2.134	612512	PROB	2.134	n/a	n/a	n/a	-999	6	[5, 9, 9]	23	catFR1	1	R1332M
1357.361	2.015	614646	PROB	2.015	n/a	n/a	n/a	-999	6	[1, 8, 2]	11	catFR1	1	R1332M
1359.376	0.019	616661	STOP	n/a	n/a	n/a	n/a	-999	6	[-999, -999, -999]	n/a	catFR1	1	R1332M
1359.395	1.287	616680	DISTRACT_END	n/a	n/a	n/a	n/a	-999	6	[0, 0, 0]	n/a	catFR1	1	R1332M
1360.682	1.03	617967	RETRIEVAL_ORIENT_START	n/a	n/a	n/a	n/a	-999	6	[0, 0, 0]	n/a	catFR1	1	R1332M
1361.712	0.0	618997	RETRIEVAL_ORIENT_END	n/a	n/a	n/a	n/a	-999	6	[0, 0, 0]	n/a	catFR1	1	R1332M
1361.712	0.524	618997	REC_START	n/a	n/a	n/a	n/a	-999	6	[0, 0, 0]	n/a	catFR1	1	R1332M
1362.236	1.428	619521	REC_WORD	1.428	n/a	FOOT	BodyParts	1	6	[0, 0, 0]	n/a	catFR1	1	R1332M
1363.664	1.898	620948	REC_WORD	1.898	n/a	FINGERS	BodyParts	2	6	[0, 0, 0]	n/a	catFR1	1	R1332M
1365.562	0.732	622846	REC_WORD	0.732	n/a	TOE	BodyParts	12	6	[0, 0, 0]	n/a	catFR1	1	R1332M
1366.294	1.591	623578	REC_WORD	1.591	n/a	EAR	BodyParts	11	6	[0, 0, 0]	n/a	catFR1	1	R1332M
1367.885	1.472	625169	REC_WORD	1.472	n/a	TAPE	OfficeSupplies	4	6	[0, 0, 0]	n/a	catFR1	1	R1332M
1369.357	0.779	626641	REC_WORD	0.779	n/a	RATCHET	Tools	10	6	[0, 0, 0]	n/a	catFR1	1	R1332M
1370.136	1.342	627420	REC_WORD	1.342	n/a	SCREWDRIVER	Tools	5	6	[0, 0, 0]	n/a	catFR1	1	R1332M
1371.478	6.705	628762	REC_WORD	6.705	n/a	DRILL	Tools	9	6	[0, 0, 0]	n/a	catFR1	1	R1332M
1378.183	1.564	635467	REC_WORD	1.564	n/a	FOLDER	OfficeSupplies	8	6	[0, 0, 0]	n/a	catFR1	1	R1332M
1379.747	2.723	637031	REC_WORD	2.723	n/a	ERASER	OfficeSupplies	3	6	[0, 0, 0]	n/a	catFR1	1	R1332M
1382.47	8.15	639754	REC_WORD	8.15	n/a	MARKER	OfficeSupplies	7	6	[0, 0, 0]	n/a	catFR1	1	R1332M
1390.62	1.605	647903	REC_WORD_VV	1.605	n/a	<>	n/a	-999	6	[0, 0, 0]	n/a	catFR1	1	R1332M
1392.225	0.0	649508	REC_END	n/a	n/a	n/a	n/a	-999	6	[0, 0, 0]	n/a	catFR1	1	R1332M
1392.225	0.0	649508	TRIAL_END	n/a	n/a	n/a	n/a	-999	6	[0, 0, 0]	n/a	catFR1	1	R1332M
1392.225	0.0	649508	TRIAL_START	n/a	n/a	n/a	n/a	-999	7	[0, 0, 0]	n/a	catFR1	1	R1332M
1392.225	0.0	649508	TRIAL	n/a	n/a	n/a	n/a	-999	7	[0, 0, 0]	n/a	catFR1	1	R1332M
1392.225	4.66	649508	WAITING_START	n/a	n/a	n/a	n/a	-999	7	[0, 0, 0]	n/a	catFR1	1	R1332M
1396.885	0.0	654168	ORIENT_START	n/a	n/a	n/a	n/a	-999	7	[0, 0, 0]	n/a	catFR1	1	R1332M
1396.885	0.0	654168	COUNTDOWN_END	n/a	n/a	n/a	n/a	-999	7	[0, 0, 0]	n/a	catFR1	1	R1332M
1396.885	0.0	654168	WAITING_END	n/a	n/a	n/a	n/a	-999	7	[0, 0, 0]	n/a	catFR1	1	R1332M
1396.885	11.453	654168	COUNTDOWN_START	n/a	n/a	n/a	n/a	-999	7	[0, 0, 0]	n/a	catFR1	1	R1332M
1408.338	0.0	665620	ENCODING_START	n/a	n/a	n/a	n/a	-999	7	[0, 0, 0]	n/a	catFR1	1	R1332M
1408.338	1.023	665620	ORIENT_END	n/a	n/a	n/a	n/a	-999	7	[0, 0, 0]	n/a	catFR1	1	R1332M
1409.361	1.627	666643	WORD	n/a	wordpools/wordpool_categorized_EN.txt	WINE	Beverages	1	7	[0, 0, 0]	n/a	catFR1	1	R1332M
1410.988	1.096	668270	WORD_OFF	n/a	n/a	WINE	Beverages	1	7	[0, 0, 0]	n/a	catFR1	1	R1332M
1412.084	1.621	669366	WORD	n/a	wordpools/wordpool_categorized_EN.txt	RUM	Beverages	2	7	[0, 0, 0]	n/a	catFR1	1	R1332M
1413.705	1.086	670987	WORD_OFF	n/a	n/a	RUM	Beverages	2	7	[0, 0, 0]	n/a	catFR1	1	R1332M
1414.791	1.632	672073	WORD	n/a	wordpools/wordpool_categorized_EN.txt	BUTTERFLY	Insects	3	7	[0, 0, 0]	n/a	catFR1	1	R1332M
1416.423	1.026	673705	WORD_OFF	n/a	n/a	BUTTERFLY	Insects	3	7	[0, 0, 0]	n/a	catFR1	1	R1332M
1417.449	1.624	674731	WORD	n/a	wordpools/wordpool_categorized_EN.txt	ANT	Insects	4	7	[0, 0, 0]	n/a	catFR1	1	R1332M
1419.073	0.938	676355	WORD_OFF	n/a	n/a	ANT	Insects	4	7	[0, 0, 0]	n/a	catFR1	1	R1332M
1420.011	1.629	677293	WORD	n/a	wordpools/wordpool_categorized_EN.txt	VIOLIN	Instruments	5	7	[0, 0, 0]	n/a	catFR1	1	R1332M
1421.64	0.785	678922	WORD_OFF	n/a	n/a	VIOLIN	Instruments	5	7	[0, 0, 0]	n/a	catFR1	1	R1332M
1422.425	1.632	679707	WORD	n/a	wordpools/wordpool_categorized_EN.txt	ORGAN	Instruments	6	7	[0, 0, 0]	n/a	catFR1	1	R1332M
1424.057	0.889	681339	WORD_OFF	n/a	n/a	ORGAN	Instruments	6	7	[0, 0, 0]	n/a	catFR1	1	R1332M
1424.946	1.629	682228	WORD	n/a	wordpools/wordpool_categorized_EN.txt	JUICE	Beverages	7	7	[0, 0, 0]	n/a	catFR1	1	R1332M
1426.575	0.96	683856	WORD_OFF	n/a	n/a	JUICE	Beverages	7	7	[0, 0, 0]	n/a	catFR1	1	R1332M
1427.535	1.623	684816	WORD	n/a	wordpools/wordpool_categorized_EN.txt	MILK	Beverages	8	7	[0, 0, 0]	n/a	catFR1	1	R1332M
1429.158	1.093	686439	WORD_OFF	n/a	n/a	MILK	Beverages	8	7	[0, 0, 0]	n/a	catFR1	1	R1332M
1430.251	1.625	687532	WORD	n/a	wordpools/wordpool_categorized_EN.txt	SPIDER	Insects	9	7	[0, 0, 0]	n/a	catFR1	1	R1332M
1431.876	0.975	689157	WORD_OFF	n/a	n/a	SPIDER	Insects	9	7	[0, 0, 0]	n/a	catFR1	1	R1332M
1432.851	1.625	690132	WORD	n/a	wordpools/wordpool_categorized_EN.txt	ROACH	Insects	10	7	[0, 0, 0]	n/a	catFR1	1	R1332M
1434.476	0.803	691757	WORD_OFF	n/a	n/a	ROACH	Insects	10	7	[0, 0, 0]	n/a	catFR1	1	R1332M
1435.279	1.631	692560	WORD	n/a	wordpools/wordpool_categorized_EN.txt	TRUMPET	Instruments	11	7	[0, 0, 0]	n/a	catFR1	1	R1332M
1436.91	0.827	694191	WORD_OFF	n/a	n/a	TRUMPET	Instruments	11	7	[0, 0, 0]	n/a	catFR1	1	R1332M
1437.737	1.623	695018	WORD	n/a	wordpools/wordpool_categorized_EN.txt	TROMBONE	Instruments	12	7	[0, 0, 0]	n/a	catFR1	1	R1332M
1439.36	0.0	696641	ENCODING_END	n/a	n/a	n/a	n/a	-999	7	[0, 0, 0]	n/a	catFR1	1	R1332M
1439.36	0.0	696641	DISTRACT_START	n/a	n/a	n/a	n/a	-999	7	[0, 0, 0]	n/a	catFR1	1	R1332M
1439.36	0.001	696641	WORD_OFF	n/a	n/a	TROMBONE	Instruments	12	7	[0, 0, 0]	n/a	catFR1	1	R1332M
1439.361	0.016	696642	START	n/a	n/a	n/a	n/a	-999	7	[-999, -999, -999]	n/a	catFR1	1	R1332M
1439.377	3.734	696658	PROB	3.734	n/a	n/a	n/a	-999	7	[9, 9, 2]	20	catFR1	1	R1332M
1443.111	2.25	700392	PROB	2.25	n/a	n/a	n/a	-999	7	[8, 8, 4]	20	catFR1	1	R1332M
1445.361	2.284	702642	PROB	2.284	n/a	n/a	n/a	-999	7	[4, 4, 2]	10	catFR1	1	R1332M
1447.645	1.984	704925	PROB	1.984	n/a	n/a	n/a	-999	7	[8, 2, 8]	18	catFR1	1	R1332M
1449.629	2.984	706909	PROB	2.984	n/a	n/a	n/a	-999	7	[1, 5, 3]	9	catFR1	1	R1332M
1452.613	2.1	709893	PROB	2.1	n/a	n/a	n/a	-999	7	[1, 9, 5]	15	catFR1	1	R1332M
1454.713	1.917	711993	PROB	1.917	n/a	n/a	n/a	-999	7	[9, 1, 2]	12	catFR1	1	R1332M
1456.63	1.451	713910	PROB	1.451	n/a	n/a	n/a	-999	7	[5, 4, 2]	11	catFR1	1	R1332M
1458.081	2.206	715361	PROB	2.206	n/a	n/a	n/a	-999	7	[6, 7, 4]	17	catFR1	1	R1332M
1460.287	0.011	717567	STOP	n/a	n/a	n/a	n/a	-999	7	[-999, -999, -999]	n/a	catFR1	1	R1332M
1460.298	1.189	717578	DISTRACT_END	n/a	n/a	n/a	n/a	-999	7	[0, 0, 0]	n/a	catFR1	1	R1332M
1461.487	1.028	718767	RETRIEVAL_ORIENT_START	n/a	n/a	n/a	n/a	-999	7	[0, 0, 0]	n/a	catFR1	1	R1332M
1462.515	0.0	719795	RETRIEVAL_ORIENT_END	n/a	n/a	n/a	n/a	-999	7	[0, 0, 0]	n/a	catFR1	1	R1332M
1462.515	2.109	719795	REC_START	n/a	n/a	n/a	n/a	-999	7	[0, 0, 0]	n/a	catFR1	1	R1332M
1464.624	0.632	721904	REC_WORD_VV	0.632	n/a	<>	n/a	-999	7	[0, 0, 0]	n/a	catFR1	1	R1332M
1465.256	0.509	722536	REC_WORD	0.509	n/a	TRUMPET	Instruments	11	7	[0, 0, 0]	n/a	catFR1	1	R1332M
1465.765	5.331	723045	REC_WORD	5.331	n/a	TROMBONE	Instruments	12	7	[0, 0, 0]	n/a	catFR1	1	R1332M
1471.096	1.833	728375	REC_WORD_VV	1.833	n/a	<>	n/a	-999	7	[0, 0, 0]	n/a	catFR1	1	R1332M
1472.929	1.584	730208	REC_WORD	1.584	n/a	WINE	Beverages	1	7	[0, 0, 0]	n/a	catFR1	1	R1332M
1474.513	1.583	731792	REC_WORD	1.583	n/a	RUM	Beverages	2	7	[0, 0, 0]	n/a	catFR1	1	R1332M
1476.096	0.737	733375	REC_WORD	0.737	n/a	MILK	Beverages	8	7	[0, 0, 0]	n/a	catFR1	1	R1332M
1476.833	3.018	734112	REC_WORD	3.018	n/a	JUICE	Beverages	7	7	[0, 0, 0]	n/a	catFR1	1	R1332M
1479.851	1.488	737130	REC_WORD_VV	1.488	n/a	<>	n/a	-999	7	[0, 0, 0]	n/a	catFR1	1	R1332M
1481.339	0.506	738618	REC_WORD	0.506	n/a	TRUMPET	Instruments	11	7	[0, 0, 0]	n/a	catFR1	1	R1332M
1481.845	3.516	739124	REC_WORD	3.516	n/a	TROMBONE	Instruments	12	7	[0, 0, 0]	n/a	catFR1	1	R1332M
1485.361	5.015	742640	REC_WORD	5.015	n/a	ANT	Insects	4	7	[0, 0, 0]	n/a	catFR1	1	R1332M
1490.376	2.65	747654	REC_WORD_VV	2.65	n/a	<>	n/a	-999	7	[0, 0, 0]	n/a	catFR1	1	R1332M
1493.026	0.0	750304	REC_END	n/a	n/a	n/a	n/a	-999	7	[0, 0, 0]	n/a	catFR1	1	R1332M
1493.026	0.0	750304	TRIAL_END	n/a	n/a	n/a	n/a	-999	7	[0, 0, 0]	n/a	catFR1	1	R1332M
1493.026	0.0	750304	TRIAL_START	n/a	n/a	n/a	n/a	-999	8	[0, 0, 0]	n/a	catFR1	1	R1332M
1493.026	0.0	750304	TRIAL	n/a	n/a	n/a	n/a	-999	8	[0, 0, 0]	n/a	catFR1	1	R1332M
1493.026	9.947	750304	WAITING_START	n/a	n/a	n/a	n/a	-999	8	[0, 0, 0]	n/a	catFR1	1	R1332M
1502.973	0.0	760251	COUNTDOWN_END	n/a	n/a	n/a	n/a	-999	8	[0, 0, 0]	n/a	catFR1	1	R1332M
1502.973	0.0	760251	ORIENT_START	n/a	n/a	n/a	n/a	-999	8	[0, 0, 0]	n/a	catFR1	1	R1332M
1502.973	0.0	760251	COUNTDOWN_START	n/a	n/a	n/a	n/a	-999	8	[0, 0, 0]	n/a	catFR1	1	R1332M
1502.973	11.669	760251	WAITING_END	n/a	n/a	n/a	n/a	-999	8	[0, 0, 0]	n/a	catFR1	1	R1332M
1514.642	0.0	771919	ORIENT_END	n/a	n/a	n/a	n/a	-999	8	[0, 0, 0]	n/a	catFR1	1	R1332M
1514.642	0.768	771919	ENCODING_START	n/a	n/a	n/a	n/a	-999	8	[0, 0, 0]	n/a	catFR1	1	R1332M
1515.41	1.632	772687	WORD	n/a	wordpools/wordpool_categorized_EN.txt	JELLO	Desserts	1	8	[0, 0, 0]	n/a	catFR1	1	R1332M
1517.042	0.971	774319	WORD_OFF	n/a	n/a	JELLO	Desserts	1	8	[0, 0, 0]	n/a	catFR1	1	R1332M
1518.013	1.63	775290	WORD	n/a	wordpools/wordpool_categorized_EN.txt	COOKIE	Desserts	2	8	[0, 0, 0]	n/a	catFR1	1	R1332M
1519.643	0.933	776920	WORD_OFF	n/a	n/a	COOKIE	Desserts	2	8	[0, 0, 0]	n/a	catFR1	1	R1332M
1520.576	1.633	777853	WORD	n/a	wordpools/wordpool_categorized_EN.txt	BLUEBERRY	Fruit	3	8	[0, 0, 0]	n/a	catFR1	1	R1332M
1522.209	0.965	779486	WORD_OFF	n/a	n/a	BLUEBERRY	Fruit	3	8	[0, 0, 0]	n/a	catFR1	1	R1332M
1523.174	1.636	780451	WORD	n/a	wordpools/wordpool_categorized_EN.txt	LEMON	Fruit	4	8	[0, 0, 0]	n/a	catFR1	1	R1332M
1524.81	1.021	782087	WORD_OFF	n/a	n/a	LEMON	Fruit	4	8	[0, 0, 0]	n/a	catFR1	1	R1332M
1525.831	1.63	783108	WORD	n/a	wordpools/wordpool_categorized_EN.txt	CUCUMBER	Vegetables	5	8	[0, 0, 0]	n/a	catFR1	1	R1332M
1527.461	1.139	784738	WORD_OFF	n/a	n/a	CUCUMBER	Vegetables	5	8	[0, 0, 0]	n/a	catFR1	1	R1332M
1528.6	1.628	785877	WORD	n/a	wordpools/wordpool_categorized_EN.txt	POTATO	Vegetables	6	8	[0, 0, 0]	n/a	catFR1	1	R1332M
1530.228	0.858	787505	WORD_OFF	n/a	n/a	POTATO	Vegetables	6	8	[0, 0, 0]	n/a	catFR1	1	R1332M
1531.086	1.626	788362	WORD	n/a	wordpools/wordpool_categorized_EN.txt	COBBLER	Desserts	7	8	[0, 0, 0]	n/a	catFR1	1	R1332M
1532.712	0.805	789988	WORD_OFF	n/a	n/a	COBBLER	Desserts	7	8	[0, 0, 0]	n/a	catFR1	1	R1332M
1533.517	1.628	790793	WORD	n/a	wordpools/wordpool_categorized_EN.txt	MOUSSE	Desserts	8	8	[0, 0, 0]	n/a	catFR1	1	R1332M
1535.145	0.815	792421	WORD_OFF	n/a	n/a	MOUSSE	Desserts	8	8	[0, 0, 0]	n/a	catFR1	1	R1332M
1535.96	1.636	793236	WORD	n/a	wordpools/wordpool_categorized_EN.txt	SPINACH	Vegetables	9	8	[0, 0, 0]	n/a	catFR1	1	R1332M
1537.596	0.797	794872	WORD_OFF	n/a	n/a	SPINACH	Vegetables	9	8	[0, 0, 0]	n/a	catFR1	1	R1332M
1538.393	1.637	795669	WORD	n/a	wordpools/wordpool_categorized_EN.txt	LETTUCE	Vegetables	10	8	[0, 0, 0]	n/a	catFR1	1	R1332M
1540.03	0.952	797306	WORD_OFF	n/a	n/a	LETTUCE	Vegetables	10	8	[0, 0, 0]	n/a	catFR1	1	R1332M
1540.982	1.632	798258	WORD	n/a	wordpools/wordpool_categorized_EN.txt	APPLE	Fruit	11	8	[0, 0, 0]	n/a	catFR1	1	R1332M
1542.614	0.976	799890	WORD_OFF	n/a	n/a	APPLE	Fruit	11	8	[0, 0, 0]	n/a	catFR1	1	R1332M
1543.59	1.624	800866	WORD	n/a	wordpools/wordpool_categorized_EN.txt	BANANA	Fruit	12	8	[0, 0, 0]	n/a	catFR1	1	R1332M
1545.214	0.0	802490	WORD_OFF	n/a	n/a	BANANA	Fruit	12	8	[0, 0, 0]	n/a	catFR1	1	R1332M
1545.214	0.0	802490	ENCODING_END	n/a	n/a	n/a	n/a	-999	8	[0, 0, 0]	n/a	catFR1	1	R1332M
1545.214	0.001	802490	DISTRACT_START	n/a	n/a	n/a	n/a	-999	8	[0, 0, 0]	n/a	catFR1	1	R1332M
1545.215	0.016	802491	START	n/a	n/a	n/a	n/a	-999	8	[-999, -999, -999]	n/a	catFR1	1	R1332M
1545.231	2.734	802507	PROB	2.734	n/a	n/a	n/a	-999	8	[3, 5, 4]	12	catFR1	1	R1332M
1547.965	1.717	805241	PROB	1.717	n/a	n/a	n/a	-999	8	[3, 3, 1]	7	catFR1	1	R1332M
1549.682	1.983	806958	PROB	1.983	n/a	n/a	n/a	-999	8	[5, 2, 1]	8	catFR1	1	R1332M
1551.665	3.018	808941	PROB	3.018	n/a	n/a	n/a	-999	8	[2, 3, 2]	7	catFR1	1	R1332M
1554.683	2.217	811958	PROB	2.217	n/a	n/a	n/a	-999	8	[2, 3, 9]	14	catFR1	1	R1332M
1556.9	1.933	814175	PROB	1.933	n/a	n/a	n/a	-999	8	[5, 4, 5]	14	catFR1	1	R1332M
1558.833	2.284	816108	PROB	2.284	n/a	n/a	n/a	-999	8	[8, 1, 5]	14	catFR1	1	R1332M
1561.117	2.401	818392	PROB	2.401	n/a	n/a	n/a	-999	8	[6, 3, 7]	16	catFR1	1	R1332M
1563.518	1.35	820793	PROB	1.35	n/a	n/a	n/a	-999	8	[2, 8, 2]	12	catFR1	1	R1332M
1564.868	2.555	822143	PROB	2.555	n/a	n/a	n/a	-999	8	[6, 2, 1]	9	catFR1	1	R1332M
1567.423	0.012	824698	STOP	n/a	n/a	n/a	n/a	-999	8	[-999, -999, -999]	n/a	catFR1	1	R1332M
1567.435	1.205	824710	DISTRACT_END	n/a	n/a	n/a	n/a	-999	8	[0, 0, 0]	n/a	catFR1	1	R1332M
1568.64	1.029	825915	RETRIEVAL_ORIENT_START	n/a	n/a	n/a	n/a	-999	8	[0, 0, 0]	n/a	catFR1	1	R1332M
1569.669	0.0	826944	RETRIEVAL_ORIENT_END	n/a	n/a	n/a	n/a	-999	8	[0, 0, 0]	n/a	catFR1	1	R1332M
1569.669	1.999	826944	REC_START	n/a	n/a	n/a	n/a	-999	8	[0, 0, 0]	n/a	catFR1	1	R1332M
1571.668	3.026	828943	REC_WORD	3.026	n/a	JELLO	Desserts	1	8	[0, 0, 0]	n/a	catFR1	1	R1332M
1574.694	1.352	831968	REC_WORD	1.352	n/a	BLUEBERRY	Fruit	3	8	[0, 0, 0]	n/a	catFR1	1	R1332M
1576.046	2.073	833320	REC_WORD	2.073	n/a	COOKIE	Desserts	2	8	[0, 0, 0]	n/a	catFR1	1	R1332M
1578.119	0.383	835393	REC_WORD_VV	0.383	n/a	<>	n/a	-999	8	[0, 0, 0]	n/a	catFR1	1	R1332M
1578.502	2.847	835776	REC_WORD	2.847	n/a	MOUSSE	Desserts	8	8	[0, 0, 0]	n/a	catFR1	1	R1332M
1581.349	0.475	838623	REC_WORD_VV	0.475	n/a	<>	n/a	-999	8	[0, 0, 0]	n/a	catFR1	1	R1332M
1581.824	2.879	839098	REC_WORD	2.879	n/a	APPLE	Fruit	11	8	[0, 0, 0]	n/a	catFR1	1	R1332M
1584.703	4.333	841977	REC_WORD	4.333	n/a	BANANA	Fruit	12	8	[0, 0, 0]	n/a	catFR1	1	R1332M
1589.036	7.09	846310	REC_WORD	7.09	n/a	CUCUMBER	Vegetables	5	8	[0, 0, 0]	n/a	catFR1	1	R1332M
1596.126	1.024	853399	REC_WORD_VV	1.024	n/a	<>	n/a	-999	8	[0, 0, 0]	n/a	catFR1	1	R1332M
1597.15	3.029	854423	REC_WORD	3.029	n/a	LEMON	Fruit	4	8	[0, 0, 0]	n/a	catFR1	1	R1332M
1600.179	0.0	857452	REC_END	n/a	n/a	n/a	n/a	-999	8	[0, 0, 0]	n/a	catFR1	1	R1332M
1600.179	0.0	857452	TRIAL_END	n/a	n/a	n/a	n/a	-999	8	[0, 0, 0]	n/a	catFR1	1	R1332M
1600.179	0.0	857452	TRIAL_START	n/a	n/a	n/a	n/a	-999	9	[0, 0, 0]	n/a	catFR1	1	R1332M
1600.179	0.0	857452	TRIAL	n/a	n/a	n/a	n/a	-999	9	[0, 0, 0]	n/a	catFR1	1	R1332M
1600.179	2.93	857452	WAITING_START	n/a	n/a	n/a	n/a	-999	9	[0, 0, 0]	n/a	catFR1	1	R1332M
1603.109	0.0	860382	ORIENT_START	n/a	n/a	n/a	n/a	-999	9	[0, 0, 0]	n/a	catFR1	1	R1332M
1603.109	0.0	860382	COUNTDOWN_START	n/a	n/a	n/a	n/a	-999	9	[0, 0, 0]	n/a	catFR1	1	R1332M
1603.109	0.0	860382	COUNTDOWN_END	n/a	n/a	n/a	n/a	-999	9	[0, 0, 0]	n/a	catFR1	1	R1332M
1603.109	11.502	860382	WAITING_END	n/a	n/a	n/a	n/a	-999	9	[0, 0, 0]	n/a	catFR1	1	R1332M
1614.611	0.0	871884	ORIENT_END	n/a	n/a	n/a	n/a	-999	9	[0, 0, 0]	n/a	catFR1	1	R1332M
1614.611	1.102	871884	ENCODING_START	n/a	n/a	n/a	n/a	-999	9	[0, 0, 0]	n/a	catFR1	1	R1332M
1615.713	1.632	872985	WORD	n/a	wordpools/wordpool_categorized_EN.txt	MOTH	Insects	1	9	[0, 0, 0]	n/a	catFR1	1	R1332M
1617.345	0.915	874617	WORD_OFF	n/a	n/a	MOTH	Insects	1	9	[0, 0, 0]	n/a	catFR1	1	R1332M
1618.26	1.635	875532	WORD	n/a	wordpools/wordpool_categorized_EN.txt	CRICKET	Insects	2	9	[0, 0, 0]	n/a	catFR1	1	R1332M
1619.895	0.77	877167	WORD_OFF	n/a	n/a	CRICKET	Insects	2	9	[0, 0, 0]	n/a	catFR1	1	R1332M
1620.665	1.631	877937	WORD	n/a	wordpools/wordpool_categorized_EN.txt	RULER	OfficeSupplies	3	9	[0, 0, 0]	n/a	catFR1	1	R1332M
1622.296	1.12	879568	WORD_OFF	n/a	n/a	RULER	OfficeSupplies	3	9	[0, 0, 0]	n/a	catFR1	1	R1332M
1623.416	1.63	880688	WORD	n/a	wordpools/wordpool_categorized_EN.txt	BINDER	OfficeSupplies	4	9	[0, 0, 0]	n/a	catFR1	1	R1332M
1625.046	0.915	882318	WORD_OFF	n/a	n/a	BINDER	OfficeSupplies	4	9	[0, 0, 0]	n/a	catFR1	1	R1332M
1625.961	1.636	883233	WORD	n/a	wordpools/wordpool_categorized_EN.txt	PLIERS	Tools	5	9	[0, 0, 0]	n/a	catFR1	1	R1332M
1627.597	0.842	884869	WORD_OFF	n/a	n/a	PLIERS	Tools	5	9	[0, 0, 0]	n/a	catFR1	1	R1332M
1628.439	1.625	885711	WORD	n/a	wordpools/wordpool_categorized_EN.txt	SHOVEL	Tools	6	9	[0, 0, 0]	n/a	catFR1	1	R1332M
1630.064	0.872	887336	WORD_OFF	n/a	n/a	SHOVEL	Tools	6	9	[0, 0, 0]	n/a	catFR1	1	R1332M
1630.936	1.628	888208	WORD	n/a	wordpools/wordpool_categorized_EN.txt	BEE	Insects	7	9	[0, 0, 0]	n/a	catFR1	1	R1332M
1632.564	0.809	889836	WORD_OFF	n/a	n/a	BEE	Insects	7	9	[0, 0, 0]	n/a	catFR1	1	R1332M
1633.373	1.625	890645	WORD	n/a	wordpools/wordpool_categorized_EN.txt	FLY	Insects	8	9	[0, 0, 0]	n/a	catFR1	1	R1332M
1634.998	0.761	892270	WORD_OFF	n/a	n/a	FLY	Insects	8	9	[0, 0, 0]	n/a	catFR1	1	R1332M
1635.759	1.64	893030	WORD	n/a	wordpools/wordpool_categorized_EN.txt	NOTEBOOK	OfficeSupplies	9	9	[0, 0, 0]	n/a	catFR1	1	R1332M
1637.399	0.883	894670	WORD_OFF	n/a	n/a	NOTEBOOK	OfficeSupplies	9	9	[0, 0, 0]	n/a	catFR1	1	R1332M
1638.282	1.634	895553	WORD	n/a	wordpools/wordpool_categorized_EN.txt	PENCIL	OfficeSupplies	10	9	[0, 0, 0]	n/a	catFR1	1	R1332M
1639.916	0.849	897187	WORD_OFF	n/a	n/a	PENCIL	OfficeSupplies	10	9	[0, 0, 0]	n/a	catFR1	1	R1332M
1640.765	1.635	898036	WORD	n/a	wordpools/wordpool_categorized_EN.txt	AXE	Tools	11	9	[0, 0, 0]	n/a	catFR1	1	R1332M
1642.4	0.82	899671	WORD_OFF	n/a	n/a	AXE	Tools	11	9	[0, 0, 0]	n/a	catFR1	1	R1332M
1643.22	1.63	900491	WORD	n/a	wordpools/wordpool_categorized_EN.txt	SANDER	Tools	12	9	[0, 0, 0]	n/a	catFR1	1	R1332M
1644.85	0.0	902121	ENCODING_END	n/a	n/a	n/a	n/a	-999	9	[0, 0, 0]	n/a	catFR1	1	R1332M
1644.85	0.0	902121	WORD_OFF	n/a	n/a	SANDER	Tools	12	9	[0, 0, 0]	n/a	catFR1	1	R1332M
1644.85	0.001	902121	DISTRACT_START	n/a	n/a	n/a	n/a	-999	9	[0, 0, 0]	n/a	catFR1	1	R1332M
1644.851	0.016	902122	START	n/a	n/a	n/a	n/a	-999	9	[-999, -999, -999]	n/a	catFR1	1	R1332M
1644.867	3.0	902138	PROB	3.0	n/a	n/a	n/a	-999	9	[3, 1, 2]	6	catFR1	1	R1332M
1647.867	3.851	905138	PROB	3.851	n/a	n/a	n/a	-999	9	[8, 9, 8]	25	catFR1	1	R1332M
1651.718	2.667	908989	PROB	2.667	n/a	n/a	n/a	-999	9	[6, 7, 5]	18	catFR1	1	R1332M
1654.385	3.801	911656	PROB	3.801	n/a	n/a	n/a	-999	9	[5, 2, 9]	16	catFR1	1	R1332M
1658.186	2.5	915456	PROB	2.5	n/a	n/a	n/a	-999	9	[7, 4, 9]	20	catFR1	1	R1332M
1660.686	2.068	917956	PROB	2.068	n/a	n/a	n/a	-999	9	[2, 2, 5]	9	catFR1	1	R1332M
1662.754	2.067	920024	PROB	2.067	n/a	n/a	n/a	-999	9	[2, 9, 6]	17	catFR1	1	R1332M
1664.821	2.214	922091	PROB	2.214	n/a	n/a	n/a	-999	9	[2, 7, 8]	17	catFR1	1	R1332M
1667.035	0.019	924305	STOP	n/a	n/a	n/a	n/a	-999	9	[-999, -999, -999]	n/a	catFR1	1	R1332M
1667.054	1.1	924324	DISTRACT_END	n/a	n/a	n/a	n/a	-999	9	[0, 0, 0]	n/a	catFR1	1	R1332M
1668.154	1.034	925424	RETRIEVAL_ORIENT_START	n/a	n/a	n/a	n/a	-999	9	[0, 0, 0]	n/a	catFR1	1	R1332M
1669.188	0.0	926458	RETRIEVAL_ORIENT_END	n/a	n/a	n/a	n/a	-999	9	[0, 0, 0]	n/a	catFR1	1	R1332M
1669.188	1.509	926458	REC_START	n/a	n/a	n/a	n/a	-999	9	[0, 0, 0]	n/a	catFR1	1	R1332M
1670.697	4.862	927967	REC_WORD	4.862	n/a	MOTH	Insects	1	9	[0, 0, 0]	n/a	catFR1	1	R1332M
1675.559	0.833	932829	REC_WORD	0.833	n/a	BINDER	OfficeSupplies	4	9	[0, 0, 0]	n/a	catFR1	1	R1332M
1676.392	2.661	933662	REC_WORD	2.661	n/a	RULER	OfficeSupplies	3	9	[0, 0, 0]	n/a	catFR1	1	R1332M
1679.053	5.155	936322	REC_WORD	5.155	n/a	NOTEBOOK	OfficeSupplies	9	9	[0, 0, 0]	n/a	catFR1	1	R1332M
1684.208	3.075	941477	REC_WORD	3.075	n/a	SHOVEL	Tools	6	9	[0, 0, 0]	n/a	catFR1	1	R1332M
1687.283	12.414	944552	REC_WORD	12.414	n/a	AXE	Tools	11	9	[0, 0, 0]	n/a	catFR1	1	R1332M
1699.697	0.0	956965	REC_END	n/a	n/a	n/a	n/a	-999	9	[0, 0, 0]	n/a	catFR1	1	R1332M
1699.697	0.0	956965	TRIAL_END	n/a	n/a	n/a	n/a	-999	9	[0, 0, 0]	n/a	catFR1	1	R1332M
1699.697	0.0	956965	TRIAL_START	n/a	n/a	n/a	n/a	-999	10	[0, 0, 0]	n/a	catFR1	1	R1332M
1699.697	0.0	956965	TRIAL	n/a	n/a	n/a	n/a	-999	10	[0, 0, 0]	n/a	catFR1	1	R1332M
1699.697	2.664	956965	WAITING_START	n/a	n/a	n/a	n/a	-999	10	[0, 0, 0]	n/a	catFR1	1	R1332M
1702.361	0.0	959629	COUNTDOWN_END	n/a	n/a	n/a	n/a	-999	10	[0, 0, 0]	n/a	catFR1	1	R1332M
1702.361	0.0	959629	ORIENT_START	n/a	n/a	n/a	n/a	-999	10	[0, 0, 0]	n/a	catFR1	1	R1332M
1702.361	0.0	959629	WAITING_END	n/a	n/a	n/a	n/a	-999	10	[0, 0, 0]	n/a	catFR1	1	R1332M
1702.361	11.619	959629	COUNTDOWN_START	n/a	n/a	n/a	n/a	-999	10	[0, 0, 0]	n/a	catFR1	1	R1332M
1713.98	0.0	971248	ORIENT_END	n/a	n/a	n/a	n/a	-999	10	[0, 0, 0]	n/a	catFR1	1	R1332M
1713.98	1.023	971248	ENCODING_START	n/a	n/a	n/a	n/a	-999	10	[0, 0, 0]	n/a	catFR1	1	R1332M
1715.003	1.628	972271	WORD	n/a	wordpools/wordpool_categorized_EN.txt	PIGEON	Birds	1	10	[0, 0, 0]	n/a	catFR1	1	R1332M
1716.631	1.134	973899	WORD_OFF	n/a	n/a	PIGEON	Birds	1	10	[0, 0, 0]	n/a	catFR1	1	R1332M
1717.765	1.633	975033	WORD	n/a	wordpools/wordpool_categorized_EN.txt	SEAGULL	Birds	2	10	[0, 0, 0]	n/a	catFR1	1	R1332M
1719.398	0.75	976665	WORD_OFF	n/a	n/a	SEAGULL	Birds	2	10	[0, 0, 0]	n/a	catFR1	1	R1332M
1720.148	1.634	977415	WORD	n/a	wordpools/wordpool_categorized_EN.txt	SOFA	Furniture	3	10	[0, 0, 0]	n/a	catFR1	1	R1332M
1721.782	1.143	979049	WORD_OFF	n/a	n/a	SOFA	Furniture	3	10	[0, 0, 0]	n/a	catFR1	1	R1332M
1722.925	1.624	980192	WORD	n/a	wordpools/wordpool_categorized_EN.txt	CHAIR	Furniture	4	10	[0, 0, 0]	n/a	catFR1	1	R1332M
1724.549	0.778	981816	WORD_OFF	n/a	n/a	CHAIR	Furniture	4	10	[0, 0, 0]	n/a	catFR1	1	R1332M
1725.327	1.639	982594	WORD	n/a	wordpools/wordpool_categorized_EN.txt	HUMIDITY	Weather	5	10	[0, 0, 0]	n/a	catFR1	1	R1332M
1726.966	1.116	984233	WORD_OFF	n/a	n/a	HUMIDITY	Weather	5	10	[0, 0, 0]	n/a	catFR1	1	R1332M
1728.082	1.634	985349	WORD	n/a	wordpools/wordpool_categorized_EN.txt	FOG	Weather	6	10	[0, 0, 0]	n/a	catFR1	1	R1332M
1729.716	1.086	986983	WORD_OFF	n/a	n/a	FOG	Weather	6	10	[0, 0, 0]	n/a	catFR1	1	R1332M
1730.802	1.632	988069	WORD	n/a	wordpools/wordpool_categorized_EN.txt	FINCH	Birds	7	10	[0, 0, 0]	n/a	catFR1	1	R1332M
1732.434	0.86	989701	WORD_OFF	n/a	n/a	FINCH	Birds	7	10	[0, 0, 0]	n/a	catFR1	1	R1332M
1733.294	1.623	990561	WORD	n/a	wordpools/wordpool_categorized_EN.txt	BLUEBIRD	Birds	8	10	[0, 0, 0]	n/a	catFR1	1	R1332M
1734.917	1.088	992184	WORD_OFF	n/a	n/a	BLUEBIRD	Birds	8	10	[0, 0, 0]	n/a	catFR1	1	R1332M
1736.005	1.63	993272	WORD	n/a	wordpools/wordpool_categorized_EN.txt	THUNDERSTORM	Weather	9	10	[0, 0, 0]	n/a	catFR1	1	R1332M
1737.635	1.06	994902	WORD_OFF	n/a	n/a	THUNDERSTORM	Weather	9	10	[0, 0, 0]	n/a	catFR1	1	R1332M
1738.695	1.624	995962	WORD	n/a	wordpools/wordpool_categorized_EN.txt	WIND	Weather	10	10	[0, 0, 0]	n/a	catFR1	1	R1332M
1740.319	0.845	997585	WORD_OFF	n/a	n/a	WIND	Weather	10	10	[0, 0, 0]	n/a	catFR1	1	R1332M
1741.164	1.638	998430	WORD	n/a	wordpools/wordpool_categorized_EN.txt	NIGHTSTAND	Furniture	11	10	[0, 0, 0]	n/a	catFR1	1	R1332M
1742.802	1.143	1000068	WORD_OFF	n/a	n/a	NIGHTSTAND	Furniture	11	10	[0, 0, 0]	n/a	catFR1	1	R1332M
1743.945	1.608	1001211	WORD	n/a	wordpools/wordpool_categorized_EN.txt	COUCH	Furniture	12	10	[0, 0, 0]	n/a	catFR1	1	R1332M
1745.553	0.0	1002819	WORD_OFF	n/a	n/a	COUCH	Furniture	12	10	[0, 0, 0]	n/a	catFR1	1	R1332M
1745.553	0.0	1002819	ENCODING_END	n/a	n/a	n/a	n/a	-999	10	[0, 0, 0]	n/a	catFR1	1	R1332M
1745.553	0.001	1002819	DISTRACT_START	n/a	n/a	n/a	n/a	-999	10	[0, 0, 0]	n/a	catFR1	1	R1332M
1745.554	0.015	1002820	START	n/a	n/a	n/a	n/a	-999	10	[-999, -999, -999]	n/a	catFR1	1	R1332M
1745.569	2.301	1002835	PROB	2.301	n/a	n/a	n/a	-999	10	[1, 3, 8]	12	catFR1	1	R1332M
1747.87	2.167	1005136	PROB	2.167	n/a	n/a	n/a	-999	10	[4, 9, 6]	19	catFR1	1	R1332M
1750.037	1.85	1007303	PROB	1.85	n/a	n/a	n/a	-999	10	[7, 2, 9]	18	catFR1	1	R1332M
1751.887	2.401	1009153	PROB	2.401	n/a	n/a	n/a	-999	10	[1, 2, 4]	7	catFR1	1	R1332M
1754.288	2.15	1011554	PROB	2.15	n/a	n/a	n/a	-999	10	[7, 6, 2]	15	catFR1	1	R1332M
1756.438	1.901	1013704	PROB	1.901	n/a	n/a	n/a	-999	10	[7, 8, 1]	16	catFR1	1	R1332M
1758.339	2.934	1015605	PROB	2.934	n/a	n/a	n/a	-999	10	[7, 6, 9]	22	catFR1	1	R1332M
1761.273	2.483	1018538	PROB	2.483	n/a	n/a	n/a	-999	10	[8, 6, 1]	15	catFR1	1	R1332M
1763.756	2.115	1021021	PROB	2.115	n/a	n/a	n/a	-999	10	[2, 8, 6]	16	catFR1	1	R1332M
1765.871	0.019	1023136	STOP	n/a	n/a	n/a	n/a	-999	10	[-999, -999, -999]	n/a	catFR1	1	R1332M
1765.89	1.201	1023155	DISTRACT_END	n/a	n/a	n/a	n/a	-999	10	[0, 0, 0]	n/a	catFR1	1	R1332M
1767.091	1.033	1024356	RETRIEVAL_ORIENT_START	n/a	n/a	n/a	n/a	-999	10	[0, 0, 0]	n/a	catFR1	1	R1332M
1768.124	0.0	1025389	RETRIEVAL_ORIENT_END	n/a	n/a	n/a	n/a	-999	10	[0, 0, 0]	n/a	catFR1	1	R1332M
1768.124	1.908	1025389	REC_START	n/a	n/a	n/a	n/a	-999	10	[0, 0, 0]	n/a	catFR1	1	R1332M
1770.032	3.234	1027297	REC_WORD	3.234	n/a	SOFA	Furniture	3	10	[0, 0, 0]	n/a	catFR1	1	R1332M
1773.266	2.382	1030531	REC_WORD	2.382	n/a	COUCH	Furniture	12	10	[0, 0, 0]	n/a	catFR1	1	R1332M
1775.648	1.018	1032913	REC_WORD	1.018	n/a	FOG	Weather	6	10	[0, 0, 0]	n/a	catFR1	1	R1332M
1776.666	1.662	1033931	REC_WORD	1.662	n/a	WIND	Weather	10	10	[0, 0, 0]	n/a	catFR1	1	R1332M
1778.328	4.67	1035593	REC_WORD	4.67	n/a	HUMIDITY	Weather	5	10	[0, 0, 0]	n/a	catFR1	1	R1332M
1782.998	0.92	1040262	REC_WORD_VV	0.92	n/a	<>	n/a	-999	10	[0, 0, 0]	n/a	catFR1	1	R1332M
1783.918	7.0	1041182	REC_WORD	7.0	n/a	COUCH	Furniture	12	10	[0, 0, 0]	n/a	catFR1	1	R1332M
1790.918	1.515	1048182	REC_WORD	1.515	n/a	FINCH	Birds	7	10	[0, 0, 0]	n/a	catFR1	1	R1332M
1792.433	3.014	1049697	REC_WORD	3.014	n/a	BLUEBIRD	Birds	8	10	[0, 0, 0]	n/a	catFR1	1	R1332M
1795.447	3.189	1052711	REC_WORD	3.189	n/a	PIGEON	Birds	1	10	[0, 0, 0]	n/a	catFR1	1	R1332M
1798.636	0.0	1055900	REC_END	n/a	n/a	n/a	n/a	-999	10	[0, 0, 0]	n/a	catFR1	1	R1332M
1798.636	0.0	1055900	TRIAL_END	n/a	n/a	n/a	n/a	-999	10	[0, 0, 0]	n/a	catFR1	1	R1332M
1798.636	0.0	1055900	TRIAL_START	n/a	n/a	n/a	n/a	-999	11	[0, 0, 0]	n/a	catFR1	1	R1332M
1798.636	0.0	1055900	TRIAL	n/a	n/a	n/a	n/a	-999	11	[0, 0, 0]	n/a	catFR1	1	R1332M
1798.636	3.511	1055900	WAITING_START	n/a	n/a	n/a	n/a	-999	11	[0, 0, 0]	n/a	catFR1	1	R1332M
1802.147	0.0	1059411	COUNTDOWN_START	n/a	n/a	n/a	n/a	-999	11	[0, 0, 0]	n/a	catFR1	1	R1332M
1802.147	0.0	1059411	COUNTDOWN_END	n/a	n/a	n/a	n/a	-999	11	[0, 0, 0]	n/a	catFR1	1	R1332M
1802.147	0.0	1059411	ORIENT_START	n/a	n/a	n/a	n/a	-999	11	[0, 0, 0]	n/a	catFR1	1	R1332M
1802.147	11.586	1059411	WAITING_END	n/a	n/a	n/a	n/a	-999	11	[0, 0, 0]	n/a	catFR1	1	R1332M
1813.733	0.0	1070996	ORIENT_END	n/a	n/a	n/a	n/a	-999	11	[0, 0, 0]	n/a	catFR1	1	R1332M
1813.733	0.871	1070996	ENCODING_START	n/a	n/a	n/a	n/a	-999	11	[0, 0, 0]	n/a	catFR1	1	R1332M
1814.604	1.629	1071867	WORD	n/a	wordpools/wordpool_categorized_EN.txt	SHIRT	Clothing	1	11	[0, 0, 0]	n/a	catFR1	1	R1332M
1816.233	1.141	1073496	WORD_OFF	n/a	n/a	SHIRT	Clothing	1	11	[0, 0, 0]	n/a	catFR1	1	R1332M
1817.374	1.626	1074637	WORD	n/a	wordpools/wordpool_categorized_EN.txt	BLOUSE	Clothing	2	11	[0, 0, 0]	n/a	catFR1	1	R1332M
1819.0	0.778	1076263	WORD_OFF	n/a	n/a	BLOUSE	Clothing	2	11	[0, 0, 0]	n/a	catFR1	1	R1332M
1819.778	1.639	1077041	WORD	n/a	wordpools/wordpool_categorized_EN.txt	CARNATION	Flowers	3	11	[0, 0, 0]	n/a	catFR1	1	R1332M
1821.417	0.893	1078680	WORD_OFF	n/a	n/a	CARNATION	Flowers	3	11	[0, 0, 0]	n/a	catFR1	1	R1332M
1822.31	1.625	1079573	WORD	n/a	wordpools/wordpool_categorized_EN.txt	LILY	Flowers	4	11	[0, 0, 0]	n/a	catFR1	1	R1332M
1823.935	1.05	1081198	WORD_OFF	n/a	n/a	LILY	Flowers	4	11	[0, 0, 0]	n/a	catFR1	1	R1332M
1824.985	1.633	1082247	WORD	n/a	wordpools/wordpool_categorized_EN.txt	HAMMER	Tools	5	11	[0, 0, 0]	n/a	catFR1	1	R1332M
1826.618	1.11	1083880	WORD_OFF	n/a	n/a	HAMMER	Tools	5	11	[0, 0, 0]	n/a	catFR1	1	R1332M
1827.728	1.624	1084990	WORD	n/a	wordpools/wordpool_categorized_EN.txt	CROWBAR	Tools	6	11	[0, 0, 0]	n/a	catFR1	1	R1332M
1829.352	0.916	1086614	WORD_OFF	n/a	n/a	CROWBAR	Tools	6	11	[0, 0, 0]	n/a	catFR1	1	R1332M
1830.268	1.635	1087530	WORD	n/a	wordpools/wordpool_categorized_EN.txt	UNDERWEAR	Clothing	7	11	[0, 0, 0]	n/a	catFR1	1	R1332M
1831.903	0.755	1089165	WORD_OFF	n/a	n/a	UNDERWEAR	Clothing	7	11	[0, 0, 0]	n/a	catFR1	1	R1332M
1832.658	1.629	1089920	WORD	n/a	wordpools/wordpool_categorized_EN.txt	SKIRT	Clothing	8	11	[0, 0, 0]	n/a	catFR1	1	R1332M
1834.287	0.752	1091549	WORD_OFF	n/a	n/a	SKIRT	Clothing	8	11	[0, 0, 0]	n/a	catFR1	1	R1332M
1835.039	1.631	1092301	WORD	n/a	wordpools/wordpool_categorized_EN.txt	VIOLET	Flowers	9	11	[0, 0, 0]	n/a	catFR1	1	R1332M
1836.67	0.881	1093932	WORD_OFF	n/a	n/a	VIOLET	Flowers	9	11	[0, 0, 0]	n/a	catFR1	1	R1332M
1837.551	1.637	1094813	WORD	n/a	wordpools/wordpool_categorized_EN.txt	TULIP	Flowers	10	11	[0, 0, 0]	n/a	catFR1	1	R1332M
1839.188	1.089	1096450	WORD_OFF	n/a	n/a	TULIP	Flowers	10	11	[0, 0, 0]	n/a	catFR1	1	R1332M
1840.277	1.628	1097539	WORD	n/a	wordpools/wordpool_categorized_EN.txt	LEVEL	Tools	11	11	[0, 0, 0]	n/a	catFR1	1	R1332M
1841.905	0.873	1099167	WORD_OFF	n/a	n/a	LEVEL	Tools	11	11	[0, 0, 0]	n/a	catFR1	1	R1332M
1842.778	1.627	1100040	WORD	n/a	wordpools/wordpool_categorized_EN.txt	SAW	Tools	12	11	[0, 0, 0]	n/a	catFR1	1	R1332M
1844.405	0.0	1101667	ENCODING_END	n/a	n/a	n/a	n/a	-999	11	[0, 0, 0]	n/a	catFR1	1	R1332M
1844.405	0.0	1101667	WORD_OFF	n/a	n/a	SAW	Tools	12	11	[0, 0, 0]	n/a	catFR1	1	R1332M
1844.405	0.001	1101667	DISTRACT_START	n/a	n/a	n/a	n/a	-999	11	[0, 0, 0]	n/a	catFR1	1	R1332M
1844.406	0.016	1101668	START	n/a	n/a	n/a	n/a	-999	11	[-999, -999, -999]	n/a	catFR1	1	R1332M
1844.422	3.717	1101684	PROB	3.717	n/a	n/a	n/a	-999	11	[1, 5, 8]	14	catFR1	1	R1332M
1848.139	1.951	1105400	PROB	1.951	n/a	n/a	n/a	-999	11	[4, 5, 7]	16	catFR1	1	R1332M
1850.09	1.833	1107351	PROB	1.833	n/a	n/a	n/a	-999	11	[1, 5, 7]	13	catFR1	1	R1332M
1851.923	1.901	1109184	PROB	1.901	n/a	n/a	n/a	-999	11	[9, 1, 6]	16	catFR1	1	R1332M
1853.824	3.217	1111085	PROB	3.217	n/a	n/a	n/a	-999	11	[6, 9, 9]	24	catFR1	1	R1332M
1857.041	2.084	1114302	PROB	2.084	n/a	n/a	n/a	-999	11	[5, 8, 3]	16	catFR1	1	R1332M
1859.125	3.117	1116386	PROB	3.117	n/a	n/a	n/a	-999	11	[2, 7, 8]	17	catFR1	1	R1332M
1862.242	2.264	1119503	PROB	2.264	n/a	n/a	n/a	-999	11	[8, 8, 8]	24	catFR1	1	R1332M
1864.506	0.02	1121767	STOP	n/a	n/a	n/a	n/a	-999	11	[-999, -999, -999]	n/a	catFR1	1	R1332M
1864.526	1.275	1121787	DISTRACT_END	n/a	n/a	n/a	n/a	-999	11	[0, 0, 0]	n/a	catFR1	1	R1332M
1865.801	1.025	1123062	RETRIEVAL_ORIENT_START	n/a	n/a	n/a	n/a	-999	11	[0, 0, 0]	n/a	catFR1	1	R1332M
1866.826	0.0	1124086	RETRIEVAL_ORIENT_END	n/a	n/a	n/a	n/a	-999	11	[0, 0, 0]	n/a	catFR1	1	R1332M
1866.826	0.712	1124086	REC_START	n/a	n/a	n/a	n/a	-999	11	[0, 0, 0]	n/a	catFR1	1	R1332M
1867.538	0.504	1124798	REC_WORD	0.504	n/a	SHIRT	Clothing	1	11	[0, 0, 0]	n/a	catFR1	1	R1332M
1868.042	0.598	1125302	REC_WORD	0.598	n/a	BLOUSE	Clothing	2	11	[0, 0, 0]	n/a	catFR1	1	R1332M
1868.64	1.049	1125900	REC_WORD	1.049	n/a	UNDERWEAR	Clothing	7	11	[0, 0, 0]	n/a	catFR1	1	R1332M
1869.689	1.974	1126949	REC_WORD	1.974	n/a	SKIRT	Clothing	8	11	[0, 0, 0]	n/a	catFR1	1	R1332M
1871.663	1.197	1128923	REC_WORD	1.197	n/a	TULIP	Flowers	10	11	[0, 0, 0]	n/a	catFR1	1	R1332M
1872.86	8.995	1130120	REC_WORD	8.995	n/a	LILY	Flowers	4	11	[0, 0, 0]	n/a	catFR1	1	R1332M
1881.855	4.864	1139115	REC_WORD	4.864	n/a	LILAC	Flowers	-999	11	[0, 0, 0]	n/a	catFR1	1	R1332M
1886.719	2.325	1143979	REC_WORD	2.325	n/a	LEVEL	Tools	11	11	[0, 0, 0]	n/a	catFR1	1	R1332M
1889.044	8.293	1146303	REC_WORD	8.293	n/a	WRENCH	Tools	-999	11	[0, 0, 0]	n/a	catFR1	1	R1332M
1897.337	0.0	1154596	TRIAL	n/a	n/a	n/a	n/a	-999	12	[0, 0, 0]	n/a	catFR1	1	R1332M
1897.337	0.0	1154596	WAITING_START	n/a	n/a	n/a	n/a	-999	12	[0, 0, 0]	n/a	catFR1	1	R1332M
1897.337	0.0	1154596	TRIAL_START	n/a	n/a	n/a	n/a	-999	12	[0, 0, 0]	n/a	catFR1	1	R1332M
1897.337	0.0	1154596	REC_END	n/a	n/a	n/a	n/a	-999	11	[0, 0, 0]	n/a	catFR1	1	R1332M
1897.337	6.646	1154596	TRIAL_END	n/a	n/a	n/a	n/a	-999	11	[0, 0, 0]	n/a	catFR1	1	R1332M
1903.983	0.0	1161242	COUNTDOWN_START	n/a	n/a	n/a	n/a	-999	12	[0, 0, 0]	n/a	catFR1	1	R1332M
1903.983	0.0	1161242	COUNTDOWN_END	n/a	n/a	n/a	n/a	-999	12	[0, 0, 0]	n/a	catFR1	1	R1332M
1903.983	0.0	1161242	ORIENT_START	n/a	n/a	n/a	n/a	-999	12	[0, 0, 0]	n/a	catFR1	1	R1332M
1903.983	11.503	1161242	WAITING_END	n/a	n/a	n/a	n/a	-999	12	[0, 0, 0]	n/a	catFR1	1	R1332M
1915.486	0.0	1172744	ORIENT_END	n/a	n/a	n/a	n/a	-999	12	[0, 0, 0]	n/a	catFR1	1	R1332M
1915.486	1.007	1172744	ENCODING_START	n/a	n/a	n/a	n/a	-999	12	[0, 0, 0]	n/a	catFR1	1	R1332M
1916.493	1.626	1173751	WORD	n/a	wordpools/wordpool_categorized_EN.txt	HAND	BodyParts	1	12	[0, 0, 0]	n/a	catFR1	1	R1332M
1918.119	1.132	1175377	WORD_OFF	n/a	n/a	HAND	BodyParts	1	12	[0, 0, 0]	n/a	catFR1	1	R1332M
1919.251	1.636	1176509	WORD	n/a	wordpools/wordpool_categorized_EN.txt	ELBOW	BodyParts	2	12	[0, 0, 0]	n/a	catFR1	1	R1332M
1920.887	1.044	1178145	WORD_OFF	n/a	n/a	ELBOW	BodyParts	2	12	[0, 0, 0]	n/a	catFR1	1	R1332M
1921.931	1.623	1179189	WORD	n/a	wordpools/wordpool_categorized_EN.txt	PETUNIA	Flowers	3	12	[0, 0, 0]	n/a	catFR1	1	R1332M
1923.554	1.142	1180812	WORD_OFF	n/a	n/a	PETUNIA	Flowers	3	12	[0, 0, 0]	n/a	catFR1	1	R1332M
1924.696	1.625	1181954	WORD	n/a	wordpools/wordpool_categorized_EN.txt	ROSE	Flowers	4	12	[0, 0, 0]	n/a	catFR1	1	R1332M
1926.321	0.997	1183579	WORD_OFF	n/a	n/a	ROSE	Flowers	4	12	[0, 0, 0]	n/a	catFR1	1	R1332M
1927.318	1.636	1184576	WORD	n/a	wordpools/wordpool_categorized_EN.txt	FLUTE	Instruments	5	12	[0, 0, 0]	n/a	catFR1	1	R1332M
1928.954	1.007	1186211	WORD_OFF	n/a	n/a	FLUTE	Instruments	5	12	[0, 0, 0]	n/a	catFR1	1	R1332M
1929.961	1.628	1187218	WORD	n/a	wordpools/wordpool_categorized_EN.txt	PIANO	Instruments	6	12	[0, 0, 0]	n/a	catFR1	1	R1332M
1931.589	1.002	1188846	WORD_OFF	n/a	n/a	PIANO	Instruments	6	12	[0, 0, 0]	n/a	catFR1	1	R1332M
1932.591	1.632	1189848	WORD	n/a	wordpools/wordpool_categorized_EN.txt	MARIGOLD	Flowers	7	12	[0, 0, 0]	n/a	catFR1	1	R1332M
1934.223	0.999	1191480	WORD_OFF	n/a	n/a	MARIGOLD	Flowers	7	12	[0, 0, 0]	n/a	catFR1	1	R1332M
1935.222	1.634	1192479	WORD	n/a	wordpools/wordpool_categorized_EN.txt	DAFFODIL	Flowers	8	12	[0, 0, 0]	n/a	catFR1	1	R1332M
1936.856	1.049	1194113	WORD_OFF	n/a	n/a	DAFFODIL	Flowers	8	12	[0, 0, 0]	n/a	catFR1	1	R1332M
1937.905	1.635	1195162	WORD	n/a	wordpools/wordpool_categorized_EN.txt	EYE	BodyParts	9	12	[0, 0, 0]	n/a	catFR1	1	R1332M
1939.54	0.774	1196797	WORD_OFF	n/a	n/a	EYE	BodyParts	9	12	[0, 0, 0]	n/a	catFR1	1	R1332M
1940.314	1.627	1197571	WORD	n/a	wordpools/wordpool_categorized_EN.txt	ARM	BodyParts	10	12	[0, 0, 0]	n/a	catFR1	1	R1332M
1941.941	1.148	1199198	WORD_OFF	n/a	n/a	ARM	BodyParts	10	12	[0, 0, 0]	n/a	catFR1	1	R1332M
1943.089	1.636	1200346	WORD	n/a	wordpools/wordpool_categorized_EN.txt	DRUM	Instruments	11	12	[0, 0, 0]	n/a	catFR1	1	R1332M
1944.725	1.143	1201982	WORD_OFF	n/a	n/a	DRUM	Instruments	11	12	[0, 0, 0]	n/a	catFR1	1	R1332M
1945.868	1.624	1203125	WORD	n/a	wordpools/wordpool_categorized_EN.txt	BANJO	Instruments	12	12	[0, 0, 0]	n/a	catFR1	1	R1332M
1947.492	0.0	1204749	WORD_OFF	n/a	n/a	BANJO	Instruments	12	12	[0, 0, 0]	n/a	catFR1	1	R1332M
1947.492	0.0	1204749	ENCODING_END	n/a	n/a	n/a	n/a	-999	12	[0, 0, 0]	n/a	catFR1	1	R1332M
1947.492	0.001	1204749	DISTRACT_START	n/a	n/a	n/a	n/a	-999	12	[0, 0, 0]	n/a	catFR1	1	R1332M
1947.493	0.015	1204750	START	n/a	n/a	n/a	n/a	-999	12	[-999, -999, -999]	n/a	catFR1	1	R1332M
1947.508	2.801	1204765	PROB	2.801	n/a	n/a	n/a	-999	12	[4, 8, 1]	13	catFR1	1	R1332M
1950.309	1.95	1207565	PROB	1.95	n/a	n/a	n/a	-999	12	[5, 8, 1]	14	catFR1	1	R1332M
1952.259	2.684	1209515	PROB	2.684	n/a	n/a	n/a	-999	12	[1, 5, 1]	7	catFR1	1	R1332M
1954.943	2.284	1212199	PROB	2.284	n/a	n/a	n/a	-999	12	[2, 9, 7]	18	catFR1	1	R1332M
1957.227	2.35	1214483	PROB	2.35	n/a	n/a	n/a	-999	12	[8, 4, 8]	20	catFR1	1	R1332M
1959.577	2.468	1216833	PROB	2.468	n/a	n/a	n/a	-999	12	[3, 6, 2]	11	catFR1	1	R1332M
1962.045	1.9	1219301	PROB	1.9	n/a	n/a	n/a	-999	12	[6, 3, 2]	11	catFR1	1	R1332M
1963.945	2.317	1221201	PROB	2.317	n/a	n/a	n/a	-999	12	[9, 4, 1]	14	catFR1	1	R1332M
1966.262	2.801	1223518	PROB	2.801	n/a	n/a	n/a	-999	12	[1, 7, 6]	14	catFR1	1	R1332M
1969.063	0.016	1226319	STOP	n/a	n/a	n/a	n/a	-999	12	[-999, -999, -999]	n/a	catFR1	1	R1332M
1969.079	1.163	1226335	DISTRACT_END	n/a	n/a	n/a	n/a	-999	12	[0, 0, 0]	n/a	catFR1	1	R1332M
1970.242	1.021	1227498	RETRIEVAL_ORIENT_START	n/a	n/a	n/a	n/a	-999	12	[0, 0, 0]	n/a	catFR1	1	R1332M
1971.263	0.0	1228518	RETRIEVAL_ORIENT_END	n/a	n/a	n/a	n/a	-999	12	[0, 0, 0]	n/a	catFR1	1	R1332M
1971.263	0.756	1228518	REC_START	n/a	n/a	n/a	n/a	-999	12	[0, 0, 0]	n/a	catFR1	1	R1332M
1972.019	1.089	1229274	REC_WORD	1.089	n/a	HAND	BodyParts	1	12	[0, 0, 0]	n/a	catFR1	1	R1332M
1973.108	0.796	1230363	REC_WORD	0.796	n/a	ARM	BodyParts	10	12	[0, 0, 0]	n/a	catFR1	1	R1332M
1973.904	2.236	1231159	REC_WORD	2.236	n/a	ELBOW	BodyParts	2	12	[0, 0, 0]	n/a	catFR1	1	R1332M
1976.14	3.044	1233395	REC_WORD	3.044	n/a	EYE	BodyParts	9	12	[0, 0, 0]	n/a	catFR1	1	R1332M
1979.184	3.016	1236439	REC_WORD	3.016	n/a	BANJO	Instruments	12	12	[0, 0, 0]	n/a	catFR1	1	R1332M
1982.2	2.534	1239455	REC_WORD	2.534	n/a	GUITAR	Instruments	-999	12	[0, 0, 0]	n/a	catFR1	1	R1332M
1984.734	3.854	1241989	REC_WORD	3.854	n/a	DAFFODIL	Flowers	8	12	[0, 0, 0]	n/a	catFR1	1	R1332M
1988.588	5.771	1245843	REC_WORD	5.771	n/a	ROSE	Flowers	4	12	[0, 0, 0]	n/a	catFR1	1	R1332M
1994.359	7.415	1251613	REC_WORD	7.415	n/a	MARIGOLD	Flowers	7	12	[0, 0, 0]	n/a	catFR1	1	R1332M
2001.774	0.0	1259028	REC_END	n/a	n/a	n/a	n/a	-999	12	[0, 0, 0]	n/a	catFR1	1	R1332M
2001.774	0.0	1259028	TRIAL_END	n/a	n/a	n/a	n/a	-999	12	[0, 0, 0]	n/a	catFR1	1	R1332M
2001.774	0.0	1259028	TRIAL_START	n/a	n/a	n/a	n/a	-999	13	[0, 0, 0]	n/a	catFR1	1	R1332M
2001.774	0.0	1259028	TRIAL	n/a	n/a	n/a	n/a	-999	13	[0, 0, 0]	n/a	catFR1	1	R1332M
2001.774	5.679	1259028	WAITING_START	n/a	n/a	n/a	n/a	-999	13	[0, 0, 0]	n/a	catFR1	1	R1332M
2007.453	0.0	1264707	ORIENT_START	n/a	n/a	n/a	n/a	-999	13	[0, 0, 0]	n/a	catFR1	1	R1332M
2007.453	0.0	1264707	COUNTDOWN_END	n/a	n/a	n/a	n/a	-999	13	[0, 0, 0]	n/a	catFR1	1	R1332M
2007.453	0.0	1264707	WAITING_END	n/a	n/a	n/a	n/a	-999	13	[0, 0, 0]	n/a	catFR1	1	R1332M
2007.453	11.536	1264707	COUNTDOWN_START	n/a	n/a	n/a	n/a	-999	13	[0, 0, 0]	n/a	catFR1	1	R1332M
2018.989	0.0	1276242	ORIENT_END	n/a	n/a	n/a	n/a	-999	13	[0, 0, 0]	n/a	catFR1	1	R1332M
2018.989	0.955	1276242	ENCODING_START	n/a	n/a	n/a	n/a	-999	13	[0, 0, 0]	n/a	catFR1	1	R1332M
2019.944	1.612	1277197	WORD	n/a	wordpools/wordpool_categorized_EN.txt	BULL	FarmAnimals	1	13	[0, 0, 0]	n/a	catFR1	1	R1332M
2021.556	0.895	1278809	WORD_OFF	n/a	n/a	BULL	FarmAnimals	1	13	[0, 0, 0]	n/a	catFR1	1	R1332M
2022.451	1.622	1279704	WORD	n/a	wordpools/wordpool_categorized_EN.txt	PIG	FarmAnimals	2	13	[0, 0, 0]	n/a	catFR1	1	R1332M
2024.073	1.067	1281326	WORD_OFF	n/a	n/a	PIG	FarmAnimals	2	13	[0, 0, 0]	n/a	catFR1	1	R1332M
2025.14	1.634	1282393	WORD	n/a	wordpools/wordpool_categorized_EN.txt	TURTLE	OceanAnimals	3	13	[0, 0, 0]	n/a	catFR1	1	R1332M
2026.774	1.106	1284027	WORD_OFF	n/a	n/a	TURTLE	OceanAnimals	3	13	[0, 0, 0]	n/a	catFR1	1	R1332M
2027.88	1.628	1285133	WORD	n/a	wordpools/wordpool_categorized_EN.txt	PLANKTON	OceanAnimals	4	13	[0, 0, 0]	n/a	catFR1	1	R1332M
2029.508	1.001	1286761	WORD_OFF	n/a	n/a	PLANKTON	OceanAnimals	4	13	[0, 0, 0]	n/a	catFR1	1	R1332M
2030.509	1.632	1287762	WORD	n/a	wordpools/wordpool_categorized_EN.txt	DOLLHOUSE	Toys	5	13	[0, 0, 0]	n/a	catFR1	1	R1332M
2032.141	1.124	1289394	WORD_OFF	n/a	n/a	DOLLHOUSE	Toys	5	13	[0, 0, 0]	n/a	catFR1	1	R1332M
2033.265	1.627	1290518	WORD	n/a	wordpools/wordpool_categorized_EN.txt	BASKETBALL	Toys	6	13	[0, 0, 0]	n/a	catFR1	1	R1332M
2034.892	0.972	1292144	WORD_OFF	n/a	n/a	BASKETBALL	Toys	6	13	[0, 0, 0]	n/a	catFR1	1	R1332M
2035.864	1.629	1293116	WORD	n/a	wordpools/wordpool_categorized_EN.txt	CALF	FarmAnimals	7	13	[0, 0, 0]	n/a	catFR1	1	R1332M
2037.493	1.127	1294745	WORD_OFF	n/a	n/a	CALF	FarmAnimals	7	13	[0, 0, 0]	n/a	catFR1	1	R1332M
2038.62	1.623	1295872	WORD	n/a	wordpools/wordpool_categorized_EN.txt	ROOSTER	FarmAnimals	8	13	[0, 0, 0]	n/a	catFR1	1	R1332M
2040.243	0.771	1297495	WORD_OFF	n/a	n/a	ROOSTER	FarmAnimals	8	13	[0, 0, 0]	n/a	catFR1	1	R1332M
2041.014	1.63	1298266	WORD	n/a	wordpools/wordpool_categorized_EN.txt	BARBIE	Toys	9	13	[0, 0, 0]	n/a	catFR1	1	R1332M
2042.644	1.046	1299896	WORD_OFF	n/a	n/a	BARBIE	Toys	9	13	[0, 0, 0]	n/a	catFR1	1	R1332M
2043.69	1.637	1300942	WORD	n/a	wordpools/wordpool_categorized_EN.txt	FOOTBALL	Toys	10	13	[0, 0, 0]	n/a	catFR1	1	R1332M
2045.327	0.944	1302579	WORD_OFF	n/a	n/a	FOOTBALL	Toys	10	13	[0, 0, 0]	n/a	catFR1	1	R1332M
2046.271	1.623	1303523	WORD	n/a	wordpools/wordpool_categorized_EN.txt	OYSTER	OceanAnimals	11	13	[0, 0, 0]	n/a	catFR1	1	R1332M
2047.894	0.782	1305146	WORD_OFF	n/a	n/a	OYSTER	OceanAnimals	11	13	[0, 0, 0]	n/a	catFR1	1	R1332M
2048.676	1.636	1305928	WORD	n/a	wordpools/wordpool_categorized_EN.txt	OCTOPUS	OceanAnimals	12	13	[0, 0, 0]	n/a	catFR1	1	R1332M
2050.312	0.0	1307564	WORD_OFF	n/a	n/a	OCTOPUS	OceanAnimals	12	13	[0, 0, 0]	n/a	catFR1	1	R1332M
2050.312	0.0	1307564	ENCODING_END	n/a	n/a	n/a	n/a	-999	13	[0, 0, 0]	n/a	catFR1	1	R1332M
2050.312	0.001	1307564	DISTRACT_START	n/a	n/a	n/a	n/a	-999	13	[0, 0, 0]	n/a	catFR1	1	R1332M
2050.313	0.015	1307565	START	n/a	n/a	n/a	n/a	-999	13	[-999, -999, -999]	n/a	catFR1	1	R1332M
2050.328	2.634	1307580	PROB	2.634	n/a	n/a	n/a	-999	13	[2, 7, 4]	13	catFR1	1	R1332M
2052.962	2.217	1310214	PROB	2.217	n/a	n/a	n/a	-999	13	[1, 5, 1]	7	catFR1	1	R1332M
2055.179	1.801	1312430	PROB	1.801	n/a	n/a	n/a	-999	13	[7, 3, 1]	11	catFR1	1	R1332M
2056.98	2.167	1314231	PROB	2.167	n/a	n/a	n/a	-999	13	[4, 3, 2]	9	catFR1	1	R1332M
2059.147	2.967	1316398	PROB	2.967	n/a	n/a	n/a	-999	13	[3, 4, 4]	11	catFR1	1	R1332M
2062.114	2.833	1319365	PROB	2.833	n/a	n/a	n/a	-999	13	[7, 7, 5]	19	catFR1	1	R1332M
2064.947	2.485	1322198	PROB	2.485	n/a	n/a	n/a	-999	13	[2, 6, 1]	9	catFR1	1	R1332M
2067.432	3.724	1324683	PROB	3.724	n/a	n/a	n/a	-999	13	[5, 1, 6]	12	catFR1	1	R1332M
2071.156	0.01	1328407	STOP	n/a	n/a	n/a	n/a	-999	13	[-999, -999, -999]	n/a	catFR1	1	R1332M
2071.166	1.347	1328417	DISTRACT_END	n/a	n/a	n/a	n/a	-999	13	[0, 0, 0]	n/a	catFR1	1	R1332M
2072.513	1.02	1329764	RETRIEVAL_ORIENT_START	n/a	n/a	n/a	n/a	-999	13	[0, 0, 0]	n/a	catFR1	1	R1332M
2073.533	0.0	1330784	RETRIEVAL_ORIENT_END	n/a	n/a	n/a	n/a	-999	13	[0, 0, 0]	n/a	catFR1	1	R1332M
2073.533	1.067	1330784	REC_START	n/a	n/a	n/a	n/a	-999	13	[0, 0, 0]	n/a	catFR1	1	R1332M
2074.6	0.704	1331851	REC_WORD	0.704	n/a	BULL	FarmAnimals	1	13	[0, 0, 0]	n/a	catFR1	1	R1332M
2075.304	0.815	1332554	REC_WORD	0.815	n/a	PIG	FarmAnimals	2	13	[0, 0, 0]	n/a	catFR1	1	R1332M
2076.119	0.983	1333369	REC_WORD	0.983	n/a	TURTLE	OceanAnimals	3	13	[0, 0, 0]	n/a	catFR1	1	R1332M
2077.102	0.952	1334352	REC_WORD	0.952	n/a	DOLLHOUSE	Toys	5	13	[0, 0, 0]	n/a	catFR1	1	R1332M
2078.054	1.541	1335304	REC_WORD	1.541	n/a	BARBIE	Toys	9	13	[0, 0, 0]	n/a	catFR1	1	R1332M
2079.595	0.881	1336845	REC_WORD	0.881	n/a	OCTOPUS	OceanAnimals	12	13	[0, 0, 0]	n/a	catFR1	1	R1332M
2080.476	4.929	1337726	REC_WORD	4.929	n/a	PLANKTON	OceanAnimals	4	13	[0, 0, 0]	n/a	catFR1	1	R1332M
2085.405	4.807	1342655	REC_WORD	4.807	n/a	BASKETBALL	Toys	6	13	[0, 0, 0]	n/a	catFR1	1	R1332M
2090.212	2.702	1347462	REC_WORD	2.702	n/a	BASEBALL	n/a	-999	13	[0, 0, 0]	n/a	catFR1	1	R1332M
2092.914	1.183	1350164	REC_WORD_VV	1.183	n/a	<>	n/a	-999	13	[0, 0, 0]	n/a	catFR1	1	R1332M
2094.097	3.152	1351347	REC_WORD_VV	3.152	n/a	<>	n/a	-999	13	[0, 0, 0]	n/a	catFR1	1	R1332M
2097.249	2.205	1354498	REC_WORD	2.205	n/a	CALF	FarmAnimals	7	13	[0, 0, 0]	n/a	catFR1	1	R1332M
2099.454	0.394	1356703	REC_WORD	0.394	n/a	BULL	FarmAnimals	1	13	[0, 0, 0]	n/a	catFR1	1	R1332M
2099.848	4.196	1357097	REC_WORD	4.196	n/a	CALF	FarmAnimals	7	13	[0, 0, 0]	n/a	catFR1	1	R1332M
2104.044	0.0	1361293	REC_END	n/a	n/a	n/a	n/a	-999	13	[0, 0, 0]	n/a	catFR1	1	R1332M
2104.044	0.0	1361293	TRIAL_END	n/a	n/a	n/a	n/a	-999	13	[0, 0, 0]	n/a	catFR1	1	R1332M
2104.044	0.0	1361293	TRIAL_START	n/a	n/a	n/a	n/a	-999	14	[0, 0, 0]	n/a	catFR1	1	R1332M
2104.044	0.0	1361293	TRIAL	n/a	n/a	n/a	n/a	-999	14	[0, 0, 0]	n/a	catFR1	1	R1332M
2104.044	2.779	1361293	WAITING_START	n/a	n/a	n/a	n/a	-999	14	[0, 0, 0]	n/a	catFR1	1	R1332M
2106.823	0.0	1364072	WAITING_END	n/a	n/a	n/a	n/a	-999	14	[0, 0, 0]	n/a	catFR1	1	R1332M
2106.823	0.0	1364072	COUNTDOWN_START	n/a	n/a	n/a	n/a	-999	14	[0, 0, 0]	n/a	catFR1	1	R1332M
2106.823	0.0	1364072	COUNTDOWN_END	n/a	n/a	n/a	n/a	-999	14	[0, 0, 0]	n/a	catFR1	1	R1332M
2106.823	11.469	1364072	ORIENT_START	n/a	n/a	n/a	n/a	-999	14	[0, 0, 0]	n/a	catFR1	1	R1332M
2118.292	0.0	1375540	ENCODING_START	n/a	n/a	n/a	n/a	-999	14	[0, 0, 0]	n/a	catFR1	1	R1332M
2118.292	0.825	1375540	ORIENT_END	n/a	n/a	n/a	n/a	-999	14	[0, 0, 0]	n/a	catFR1	1	R1332M
2119.117	1.625	1376365	WORD	n/a	wordpools/wordpool_categorized_EN.txt	BLOCKS	Toys	1	14	[0, 0, 0]	n/a	catFR1	1	R1332M
2120.742	1.076	1377990	WORD_OFF	n/a	n/a	BLOCKS	Toys	1	14	[0, 0, 0]	n/a	catFR1	1	R1332M
2121.818	1.624	1379066	WORD	n/a	wordpools/wordpool_categorized_EN.txt	BASEBALL	Toys	2	14	[0, 0, 0]	n/a	catFR1	1	R1332M
2123.442	1.104	1380690	WORD_OFF	n/a	n/a	BASEBALL	Toys	2	14	[0, 0, 0]	n/a	catFR1	1	R1332M
2124.546	1.63	1381794	WORD	n/a	wordpools/wordpool_categorized_EN.txt	WALNUT	Trees	3	14	[0, 0, 0]	n/a	catFR1	1	R1332M
2126.176	0.816	1383424	WORD_OFF	n/a	n/a	WALNUT	Trees	3	14	[0, 0, 0]	n/a	catFR1	1	R1332M
2126.992	1.635	1384240	WORD	n/a	wordpools/wordpool_categorized_EN.txt	BIRCH	Trees	4	14	[0, 0, 0]	n/a	catFR1	1	R1332M
2128.627	0.964	1385875	WORD_OFF	n/a	n/a	BIRCH	Trees	4	14	[0, 0, 0]	n/a	catFR1	1	R1332M
2129.591	1.636	1386839	WORD	n/a	wordpools/wordpool_categorized_EN.txt	SCOOTER	Vehicles	5	14	[0, 0, 0]	n/a	catFR1	1	R1332M
2131.227	0.916	1388475	WORD_OFF	n/a	n/a	SCOOTER	Vehicles	5	14	[0, 0, 0]	n/a	catFR1	1	R1332M
2132.143	1.635	1389391	WORD	n/a	wordpools/wordpool_categorized_EN.txt	TRUCK	Vehicles	6	14	[0, 0, 0]	n/a	catFR1	1	R1332M
2133.778	0.977	1391026	WORD_OFF	n/a	n/a	TRUCK	Vehicles	6	14	[0, 0, 0]	n/a	catFR1	1	R1332M
2134.755	1.623	1392003	WORD	n/a	wordpools/wordpool_categorized_EN.txt	CYPRESS	Trees	7	14	[0, 0, 0]	n/a	catFR1	1	R1332M
2136.378	0.788	1393626	WORD_OFF	n/a	n/a	CYPRESS	Trees	7	14	[0, 0, 0]	n/a	catFR1	1	R1332M
2137.166	1.629	1394414	WORD	n/a	wordpools/wordpool_categorized_EN.txt	EVERGREEN	Trees	8	14	[0, 0, 0]	n/a	catFR1	1	R1332M
2138.795	0.884	1396042	WORD_OFF	n/a	n/a	EVERGREEN	Trees	8	14	[0, 0, 0]	n/a	catFR1	1	R1332M
2139.679	1.634	1396926	WORD	n/a	wordpools/wordpool_categorized_EN.txt	JEEP	Vehicles	9	14	[0, 0, 0]	n/a	catFR1	1	R1332M
2141.313	0.86	1398560	WORD_OFF	n/a	n/a	JEEP	Vehicles	9	14	[0, 0, 0]	n/a	catFR1	1	R1332M
2142.173	1.623	1399420	WORD	n/a	wordpools/wordpool_categorized_EN.txt	PLANE	Vehicles	10	14	[0, 0, 0]	n/a	catFR1	1	R1332M
2143.796	0.962	1401043	WORD_OFF	n/a	n/a	PLANE	Vehicles	10	14	[0, 0, 0]	n/a	catFR1	1	R1332M
2144.758	1.622	1402005	WORD	n/a	wordpools/wordpool_categorized_EN.txt	BALL	Toys	11	14	[0, 0, 0]	n/a	catFR1	1	R1332M
2146.38	0.829	1403627	WORD_OFF	n/a	n/a	BALL	Toys	11	14	[0, 0, 0]	n/a	catFR1	1	R1332M
2147.209	1.622	1404456	WORD	n/a	wordpools/wordpool_categorized_EN.txt	DOLL	Toys	12	14	[0, 0, 0]	n/a	catFR1	1	R1332M
2148.831	0.0	1406078	WORD_OFF	n/a	n/a	DOLL	Toys	12	14	[0, 0, 0]	n/a	catFR1	1	R1332M
2148.831	0.0	1406078	ENCODING_END	n/a	n/a	n/a	n/a	-999	14	[0, 0, 0]	n/a	catFR1	1	R1332M
2148.831	0.001	1406078	DISTRACT_START	n/a	n/a	n/a	n/a	-999	14	[0, 0, 0]	n/a	catFR1	1	R1332M
2148.832	0.015	1406079	START	n/a	n/a	n/a	n/a	-999	14	[-999, -999, -999]	n/a	catFR1	1	R1332M
2148.847	3.701	1406094	PROB	3.701	n/a	n/a	n/a	-999	14	[3, 4, 7]	14	catFR1	1	R1332M
2152.548	2.484	1409795	PROB	2.484	n/a	n/a	n/a	-999	14	[3, 3, 6]	12	catFR1	1	R1332M
2155.032	2.834	1412279	PROB	2.834	n/a	n/a	n/a	-999	14	[6, 7, 7]	20	catFR1	1	R1332M
2157.866	1.55	1415113	PROB	1.55	n/a	n/a	n/a	-999	14	[1, 6, 5]	12	catFR1	1	R1332M
2159.416	1.784	1416662	PROB	1.784	n/a	n/a	n/a	-999	14	[5, 3, 5]	13	catFR1	1	R1332M
2161.2	1.6	1418446	PROB	1.6	n/a	n/a	n/a	-999	14	[6, 4, 6]	16	catFR1	1	R1332M
2162.8	1.634	1420046	PROB	1.634	n/a	n/a	n/a	-999	14	[8, 8, 8]	24	catFR1	1	R1332M
2164.434	2.867	1421680	PROB	2.867	n/a	n/a	n/a	-999	14	[1, 8, 1]	10	catFR1	1	R1332M
2167.301	4.943	1424547	PROB	4.943	n/a	n/a	n/a	-999	14	[9, 9, 7]	25	catFR1	1	R1332M
2172.244	0.008	1429490	STOP	n/a	n/a	n/a	n/a	-999	14	[-999, -999, -999]	n/a	catFR1	1	R1332M
2172.252	1.335	1429498	DISTRACT_END	n/a	n/a	n/a	n/a	-999	14	[0, 0, 0]	n/a	catFR1	1	R1332M
2173.587	1.032	1430833	RETRIEVAL_ORIENT_START	n/a	n/a	n/a	n/a	-999	14	[0, 0, 0]	n/a	catFR1	1	R1332M
2174.619	0.0	1431865	REC_START	n/a	n/a	n/a	n/a	-999	14	[0, 0, 0]	n/a	catFR1	1	R1332M
2174.619	0.951	1431865	RETRIEVAL_ORIENT_END	n/a	n/a	n/a	n/a	-999	14	[0, 0, 0]	n/a	catFR1	1	R1332M
2175.57	1.576	1432816	REC_WORD	1.576	n/a	SCOOTER	Vehicles	5	14	[0, 0, 0]	n/a	catFR1	1	R1332M
2177.146	0.675	1434392	REC_WORD	0.675	n/a	JEEP	Vehicles	9	14	[0, 0, 0]	n/a	catFR1	1	R1332M
2177.821	1.121	1435067	REC_WORD	1.121	n/a	PLANE	Vehicles	10	14	[0, 0, 0]	n/a	catFR1	1	R1332M
2178.942	0.67	1436188	REC_WORD	0.67	n/a	WALNUT	Trees	3	14	[0, 0, 0]	n/a	catFR1	1	R1332M
2179.612	3.499	1436858	REC_WORD	3.499	n/a	CYPRESS	Trees	7	14	[0, 0, 0]	n/a	catFR1	1	R1332M
2183.111	7.538	1440356	REC_WORD	7.538	n/a	BLOCKS	Toys	1	14	[0, 0, 0]	n/a	catFR1	1	R1332M
2190.649	5.769	1447894	REC_WORD	5.769	n/a	EVERGREEN	Trees	8	14	[0, 0, 0]	n/a	catFR1	1	R1332M
2196.418	1.641	1453663	REC_WORD_VV	1.641	n/a	<>	n/a	-999	14	[0, 0, 0]	n/a	catFR1	1	R1332M
2198.059	4.762	1455304	REC_WORD_VV	4.762	n/a	<>	n/a	-999	14	[0, 0, 0]	n/a	catFR1	1	R1332M
2202.821	2.309	1460065	REC_WORD_VV	2.309	n/a	<>	n/a	-999	14	[0, 0, 0]	n/a	catFR1	1	R1332M
2205.13	0.0	1462374	WAITING_START	n/a	n/a	n/a	n/a	-999	15	[0, 0, 0]	n/a	catFR1	1	R1332M
2205.13	0.0	1462374	TRIAL	n/a	n/a	n/a	n/a	-999	15	[0, 0, 0]	n/a	catFR1	1	R1332M
2205.13	0.0	1462374	REC_END	n/a	n/a	n/a	n/a	-999	14	[0, 0, 0]	n/a	catFR1	1	R1332M
2205.13	0.0	1462374	TRIAL_END	n/a	n/a	n/a	n/a	-999	14	[0, 0, 0]	n/a	catFR1	1	R1332M
2205.13	10.214	1462374	TRIAL_START	n/a	n/a	n/a	n/a	-999	15	[0, 0, 0]	n/a	catFR1	1	R1332M
2215.344	0.0	1472588	WAITING_END	n/a	n/a	n/a	n/a	-999	15	[0, 0, 0]	n/a	catFR1	1	R1332M
2215.344	0.0	1472588	COUNTDOWN_START	n/a	n/a	n/a	n/a	-999	15	[0, 0, 0]	n/a	catFR1	1	R1332M
2215.344	0.0	1472588	COUNTDOWN_END	n/a	n/a	n/a	n/a	-999	15	[0, 0, 0]	n/a	catFR1	1	R1332M
2215.344	11.552	1472588	ORIENT_START	n/a	n/a	n/a	n/a	-999	15	[0, 0, 0]	n/a	catFR1	1	R1332M
2226.896	0.0	1484139	ORIENT_END	n/a	n/a	n/a	n/a	-999	15	[0, 0, 0]	n/a	catFR1	1	R1332M
2226.896	1.072	1484139	ENCODING_START	n/a	n/a	n/a	n/a	-999	15	[0, 0, 0]	n/a	catFR1	1	R1332M
2227.968	1.628	1485211	WORD	n/a	wordpools/wordpool_categorized_EN.txt	MIXER	Appliances	1	15	[0, 0, 0]	n/a	catFR1	1	R1332M
2229.596	0.852	1486839	WORD_OFF	n/a	n/a	MIXER	Appliances	1	15	[0, 0, 0]	n/a	catFR1	1	R1332M
2230.448	1.632	1487691	WORD	n/a	wordpools/wordpool_categorized_EN.txt	STOVE	Appliances	2	15	[0, 0, 0]	n/a	catFR1	1	R1332M
2232.08	1.034	1489323	WORD_OFF	n/a	n/a	STOVE	Appliances	2	15	[0, 0, 0]	n/a	catFR1	1	R1332M
2233.114	1.633	1490357	WORD	n/a	wordpools/wordpool_categorized_EN.txt	WHISK	KitchenTools	3	15	[0, 0, 0]	n/a	catFR1	1	R1332M
2234.747	0.871	1491990	WORD_OFF	n/a	n/a	WHISK	KitchenTools	3	15	[0, 0, 0]	n/a	catFR1	1	R1332M
2235.618	1.63	1492861	WORD	n/a	wordpools/wordpool_categorized_EN.txt	FORK	KitchenTools	4	15	[0, 0, 0]	n/a	catFR1	1	R1332M
2237.248	0.879	1494491	WORD_OFF	n/a	n/a	FORK	KitchenTools	4	15	[0, 0, 0]	n/a	catFR1	1	R1332M
2238.127	1.621	1495370	WORD	n/a	wordpools/wordpool_categorized_EN.txt	PAPER	OfficeSupplies	5	15	[0, 0, 0]	n/a	catFR1	1	R1332M
2239.748	0.859	1496991	WORD_OFF	n/a	n/a	PAPER	OfficeSupplies	5	15	[0, 0, 0]	n/a	catFR1	1	R1332M
2240.607	1.625	1497850	WORD	n/a	wordpools/wordpool_categorized_EN.txt	STAPLER	OfficeSupplies	6	15	[0, 0, 0]	n/a	catFR1	1	R1332M
2242.232	1.041	1499475	WORD_OFF	n/a	n/a	STAPLER	OfficeSupplies	6	15	[0, 0, 0]	n/a	catFR1	1	R1332M
2243.273	1.626	1500515	WORD	n/a	wordpools/wordpool_categorized_EN.txt	WASHER	Appliances	7	15	[0, 0, 0]	n/a	catFR1	1	R1332M
2244.899	0.8	1502141	WORD_OFF	n/a	n/a	WASHER	Appliances	7	15	[0, 0, 0]	n/a	catFR1	1	R1332M
2245.699	1.634	1502941	WORD	n/a	wordpools/wordpool_categorized_EN.txt	IRON	Appliances	8	15	[0, 0, 0]	n/a	catFR1	1	R1332M
2247.333	0.889	1504575	WORD_OFF	n/a	n/a	IRON	Appliances	8	15	[0, 0, 0]	n/a	catFR1	1	R1332M
2248.222	1.628	1505464	WORD	n/a	wordpools/wordpool_categorized_EN.txt	GLUE	OfficeSupplies	9	15	[0, 0, 0]	n/a	catFR1	1	R1332M
2249.85	1.138	1507092	WORD_OFF	n/a	n/a	GLUE	OfficeSupplies	9	15	[0, 0, 0]	n/a	catFR1	1	R1332M
2250.988	1.629	1508230	WORD	n/a	wordpools/wordpool_categorized_EN.txt	PEN	OfficeSupplies	10	15	[0, 0, 0]	n/a	catFR1	1	R1332M
2252.617	1.015	1509859	WORD_OFF	n/a	n/a	PEN	OfficeSupplies	10	15	[0, 0, 0]	n/a	catFR1	1	R1332M
2253.632	1.636	1510874	WORD	n/a	wordpools/wordpool_categorized_EN.txt	CORKSCREW	KitchenTools	11	15	[0, 0, 0]	n/a	catFR1	1	R1332M
2255.268	1.1	1512510	WORD_OFF	n/a	n/a	CORKSCREW	KitchenTools	11	15	[0, 0, 0]	n/a	catFR1	1	R1332M
2256.368	1.634	1513610	WORD	n/a	wordpools/wordpool_categorized_EN.txt	KNIFE	KitchenTools	12	15	[0, 0, 0]	n/a	catFR1	1	R1332M
2258.002	0.0	1515244	DISTRACT_START	n/a	n/a	n/a	n/a	-999	15	[0, 0, 0]	n/a	catFR1	1	R1332M
2258.002	0.0	1515244	WORD_OFF	n/a	n/a	KNIFE	KitchenTools	12	15	[0, 0, 0]	n/a	catFR1	1	R1332M
2258.002	0.001	1515244	ENCODING_END	n/a	n/a	n/a	n/a	-999	15	[0, 0, 0]	n/a	catFR1	1	R1332M
2258.003	0.015	1515245	START	n/a	n/a	n/a	n/a	-999	15	[-999, -999, -999]	n/a	catFR1	1	R1332M
2258.018	1.967	1515260	PROB	1.967	n/a	n/a	n/a	-999	15	[5, 5, 5]	15	catFR1	1	R1332M
2259.985	4.035	1517227	PROB	4.035	n/a	n/a	n/a	-999	15	[5, 1, 9]	15	catFR1	1	R1332M
2264.02	2.317	1521261	PROB	2.317	n/a	n/a	n/a	-999	15	[8, 4, 8]	20	catFR1	1	R1332M
2266.337	3.734	1523578	PROB	3.734	n/a	n/a	n/a	-999	15	[5, 2, 3]	10	catFR1	1	R1332M
2270.071	2.067	1527312	PROB	2.067	n/a	n/a	n/a	-999	15	[7, 7, 1]	15	catFR1	1	R1332M
2272.138	3.001	1529379	PROB	3.001	n/a	n/a	n/a	-999	15	[7, 7, 3]	17	catFR1	1	R1332M
2275.139	1.866	1532380	PROB	1.866	n/a	n/a	n/a	-999	15	[5, 7, 3]	15	catFR1	1	R1332M
2277.005	4.011	1534246	PROB	4.011	n/a	n/a	n/a	-999	15	[9, 9, 7]	25	catFR1	1	R1332M
2281.016	0.007	1538257	STOP	n/a	n/a	n/a	n/a	-999	15	[-999, -999, -999]	n/a	catFR1	1	R1332M
2281.023	1.197	1538264	DISTRACT_END	n/a	n/a	n/a	n/a	-999	15	[0, 0, 0]	n/a	catFR1	1	R1332M
2282.22	1.02	1539461	RETRIEVAL_ORIENT_START	n/a	n/a	n/a	n/a	-999	15	[0, 0, 0]	n/a	catFR1	1	R1332M
2283.24	0.0	1540481	REC_START	n/a	n/a	n/a	n/a	-999	15	[0, 0, 0]	n/a	catFR1	1	R1332M
2283.24	0.435	1540481	RETRIEVAL_ORIENT_END	n/a	n/a	n/a	n/a	-999	15	[0, 0, 0]	n/a	catFR1	1	R1332M
2283.675	0.461	1540916	REC_WORD	0.461	n/a	MIXER	Appliances	1	15	[0, 0, 0]	n/a	catFR1	1	R1332M
2284.136	1.016	1541377	REC_WORD	1.016	n/a	STOVE	Appliances	2	15	[0, 0, 0]	n/a	catFR1	1	R1332M
2285.152	2.929	1542392	REC_WORD	2.929	n/a	WHISK	KitchenTools	3	15	[0, 0, 0]	n/a	catFR1	1	R1332M
2288.081	0.325	1545321	REC_WORD_VV	0.325	n/a	<>	n/a	-999	15	[0, 0, 0]	n/a	catFR1	1	R1332M
2288.406	1.848	1545646	REC_WORD	1.848	n/a	DISHWASHER	Appliances	-999	15	[0, 0, 0]	n/a	catFR1	1	R1332M
2290.254	1.912	1547494	REC_WORD	1.912	n/a	PAPER	OfficeSupplies	5	15	[0, 0, 0]	n/a	catFR1	1	R1332M
2292.166	1.265	1549406	REC_WORD	1.265	n/a	STAPLER	OfficeSupplies	6	15	[0, 0, 0]	n/a	catFR1	1	R1332M
2293.431	0.746	1550671	REC_WORD	0.746	n/a	GLUE	OfficeSupplies	9	15	[0, 0, 0]	n/a	catFR1	1	R1332M
2294.177	5.495	1551417	REC_WORD	5.495	n/a	PEN	OfficeSupplies	10	15	[0, 0, 0]	n/a	catFR1	1	R1332M
2299.672	1.1	1556912	REC_WORD	1.1	n/a	MIXER	Appliances	1	15	[0, 0, 0]	n/a	catFR1	1	R1332M
2300.772	1.432	1558012	REC_WORD_VV	1.432	n/a	<>	n/a	-999	15	[0, 0, 0]	n/a	catFR1	1	R1332M
2302.204	3.971	1559444	REC_WORD	3.971	n/a	FORK	KitchenTools	4	15	[0, 0, 0]	n/a	catFR1	1	R1332M
2306.175	1.73	1563414	REC_WORD	1.73	n/a	PEN	OfficeSupplies	10	15	[0, 0, 0]	n/a	catFR1	1	R1332M
2307.905	5.847	1565144	REC_WORD	5.847	n/a	STOVE	Appliances	2	15	[0, 0, 0]	n/a	catFR1	1	R1332M
2313.752	0.0	1570991	TRIAL_END	n/a	n/a	n/a	n/a	-999	15	[0, 0, 0]	n/a	catFR1	1	R1332M
2313.752	0.0	1570991	WAITING_START	n/a	n/a	n/a	n/a	-999	16	[0, 0, 0]	n/a	catFR1	1	R1332M
2313.752	0.0	1570991	REC_END	n/a	n/a	n/a	n/a	-999	15	[0, 0, 0]	n/a	catFR1	1	R1332M
2313.752	0.0	1570991	TRIAL_START	n/a	n/a	n/a	n/a	-999	16	[0, 0, 0]	n/a	catFR1	1	R1332M
2313.752	6.929	1570991	TRIAL	n/a	n/a	n/a	n/a	-999	16	[0, 0, 0]	n/a	catFR1	1	R1332M
2320.681	0.0	1577920	WAITING_END	n/a	n/a	n/a	n/a	-999	16	[0, 0, 0]	n/a	catFR1	1	R1332M
2320.681	0.0	1577920	COUNTDOWN_START	n/a	n/a	n/a	n/a	-999	16	[0, 0, 0]	n/a	catFR1	1	R1332M
2320.681	0.0	1577920	COUNTDOWN_END	n/a	n/a	n/a	n/a	-999	16	[0, 0, 0]	n/a	catFR1	1	R1332M
2320.681	11.685	1577920	ORIENT_START	n/a	n/a	n/a	n/a	-999	16	[0, 0, 0]	n/a	catFR1	1	R1332M
2332.366	0.0	1589604	ENCODING_START	n/a	n/a	n/a	n/a	-999	16	[0, 0, 0]	n/a	catFR1	1	R1332M
2332.366	0.907	1589604	ORIENT_END	n/a	n/a	n/a	n/a	-999	16	[0, 0, 0]	n/a	catFR1	1	R1332M
2333.273	1.627	1590511	WORD	n/a	wordpools/wordpool_categorized_EN.txt	GOOSE	Birds	1	16	[0, 0, 0]	n/a	catFR1	1	R1332M
2334.9	1.032	1592138	WORD_OFF	n/a	n/a	GOOSE	Birds	1	16	[0, 0, 0]	n/a	catFR1	1	R1332M
2335.932	1.635	1593170	WORD	n/a	wordpools/wordpool_categorized_EN.txt	ROBIN	Birds	2	16	[0, 0, 0]	n/a	catFR1	1	R1332M
2337.567	0.934	1594805	WORD_OFF	n/a	n/a	ROBIN	Birds	2	16	[0, 0, 0]	n/a	catFR1	1	R1332M
2338.501	1.633	1595739	WORD	n/a	wordpools/wordpool_categorized_EN.txt	FLOOR	Building	3	16	[0, 0, 0]	n/a	catFR1	1	R1332M
2340.134	0.892	1597372	WORD_OFF	n/a	n/a	FLOOR	Building	3	16	[0, 0, 0]	n/a	catFR1	1	R1332M
2341.026	1.626	1598264	WORD	n/a	wordpools/wordpool_categorized_EN.txt	STAIRS	Building	4	16	[0, 0, 0]	n/a	catFR1	1	R1332M
2342.652	0.764	1599890	WORD_OFF	n/a	n/a	STAIRS	Building	4	16	[0, 0, 0]	n/a	catFR1	1	R1332M
2343.416	1.636	1600654	WORD	n/a	wordpools/wordpool_categorized_EN.txt	TURKEY	FarmAnimals	5	16	[0, 0, 0]	n/a	catFR1	1	R1332M
2345.052	0.831	1602290	WORD_OFF	n/a	n/a	TURKEY	FarmAnimals	5	16	[0, 0, 0]	n/a	catFR1	1	R1332M
2345.883	1.636	1603121	WORD	n/a	wordpools/wordpool_categorized_EN.txt	CHICKEN	FarmAnimals	6	16	[0, 0, 0]	n/a	catFR1	1	R1332M
2347.519	0.764	1604756	WORD_OFF	n/a	n/a	CHICKEN	FarmAnimals	6	16	[0, 0, 0]	n/a	catFR1	1	R1332M
2348.283	1.637	1605520	WORD	n/a	wordpools/wordpool_categorized_EN.txt	CROW	Birds	7	16	[0, 0, 0]	n/a	catFR1	1	R1332M
2349.92	1.052	1607157	WORD_OFF	n/a	n/a	CROW	Birds	7	16	[0, 0, 0]	n/a	catFR1	1	R1332M
2350.972	1.631	1608209	WORD	n/a	wordpools/wordpool_categorized_EN.txt	CARDINAL	Birds	8	16	[0, 0, 0]	n/a	catFR1	1	R1332M
2352.603	0.812	1609840	WORD_OFF	n/a	n/a	CARDINAL	Birds	8	16	[0, 0, 0]	n/a	catFR1	1	R1332M
2353.415	1.639	1610652	WORD	n/a	wordpools/wordpool_categorized_EN.txt	SHEEP	FarmAnimals	9	16	[0, 0, 0]	n/a	catFR1	1	R1332M
2355.054	0.752	1612291	WORD_OFF	n/a	n/a	SHEEP	FarmAnimals	9	16	[0, 0, 0]	n/a	catFR1	1	R1332M
2355.806	1.632	1613043	WORD	n/a	wordpools/wordpool_categorized_EN.txt	HORSE	FarmAnimals	10	16	[0, 0, 0]	n/a	catFR1	1	R1332M
2357.438	0.937	1614675	WORD_OFF	n/a	n/a	HORSE	FarmAnimals	10	16	[0, 0, 0]	n/a	catFR1	1	R1332M
2358.375	1.63	1615612	WORD	n/a	wordpools/wordpool_categorized_EN.txt	ROOM	Building	11	16	[0, 0, 0]	n/a	catFR1	1	R1332M
2360.005	0.813	1617242	WORD_OFF	n/a	n/a	ROOM	Building	11	16	[0, 0, 0]	n/a	catFR1	1	R1332M
2360.818	1.637	1618055	WORD	n/a	wordpools/wordpool_categorized_EN.txt	DOOR	Building	12	16	[0, 0, 0]	n/a	catFR1	1	R1332M
2362.455	0.0	1619692	WORD_OFF	n/a	n/a	DOOR	Building	12	16	[0, 0, 0]	n/a	catFR1	1	R1332M
2362.455	0.0	1619692	ENCODING_END	n/a	n/a	n/a	n/a	-999	16	[0, 0, 0]	n/a	catFR1	1	R1332M
2362.455	0.001	1619692	DISTRACT_START	n/a	n/a	n/a	n/a	-999	16	[0, 0, 0]	n/a	catFR1	1	R1332M
2362.456	0.016	1619693	START	n/a	n/a	n/a	n/a	-999	16	[-999, -999, -999]	n/a	catFR1	1	R1332M
2362.472	3.517	1619709	PROB	3.517	n/a	n/a	n/a	-999	16	[9, 9, 8]	16	catFR1	1	R1332M
2365.989	3.101	1623226	PROB	3.101	n/a	n/a	n/a	-999	16	[5, 8, 4]	17	catFR1	1	R1332M
2369.09	2.134	1626326	PROB	2.134	n/a	n/a	n/a	-999	16	[2, 5, 6]	13	catFR1	1	R1332M
