onset	duration	sample	trial_type	response_time	stim_file	item_name	category	serialpos	list	test	answer	experiment	session	subject
0.0	17.089	375669	SESS_START	n/a	n/a	n/a	n/a	-999	-999	[0, 0, 0]	n/a	catFR1	0	R1056M
17.089	10.428	384213	COUNTDOWN_START	n/a	n/a	n/a	n/a	-999	-999	[0, 0, 0]	n/a	catFR1	0	R1056M
27.517	3.457	389426	COUNTDOWN_END	n/a	n/a	n/a	n/a	-999	-999	[0, 0, 0]	n/a	catFR1	0	R1056M
30.974	2.385	391154	PRACTICE_WORD	n/a	n/a	RHINO	n/a	-999	-999	[0, 0, 0]	n/a	catFR1	0	R1056M
33.359	2.583	392347	PRACTICE_WORD	n/a	n/a	FLOOD	n/a	-999	-999	[0, 0, 0]	n/a	catFR1	0	R1056M
35.942	2.551	393638	PRACTICE_WORD	n/a	n/a	WATCH	n/a	-999	-999	[0, 0, 0]	n/a	catFR1	0	R1056M
38.493	2.45	394914	PRACTICE_WORD	n/a	n/a	ATTIC	n/a	-999	-999	[0, 0, 0]	n/a	catFR1	0	R1056M
40.943	2.401	396138	PRACTICE_WORD	n/a	n/a	IRON	n/a	-999	-999	[0, 0, 0]	n/a	catFR1	0	R1056M
43.344	2.416	397339	PRACTICE_WORD	n/a	n/a	TONGUE	n/a	-999	-999	[0, 0, 0]	n/a	catFR1	0	R1056M
45.76	2.602	398547	PRACTICE_WORD	n/a	n/a	RING	n/a	-999	-999	[0, 0, 0]	n/a	catFR1	0	R1056M
48.362	2.566	399848	PRACTICE_WORD	n/a	n/a	CHEST	n/a	-999	-999	[0, 0, 0]	n/a	catFR1	0	R1056M
50.928	2.617	401130	PRACTICE_WORD	n/a	n/a	COTTON	n/a	-999	-999	[0, 0, 0]	n/a	catFR1	0	R1056M
53.545	2.585	402439	PRACTICE_WORD	n/a	n/a	CAMEL	n/a	-999	-999	[0, 0, 0]	n/a	catFR1	0	R1056M
56.13	2.399	403731	PRACTICE_WORD	n/a	n/a	BEAM	n/a	-999	-999	[0, 0, 0]	n/a	catFR1	0	R1056M
58.529	1.602	404931	PRACTICE_WORD	n/a	n/a	WAGON	n/a	-999	-999	[0, 0, 0]	n/a	catFR1	0	R1056M
60.131	0.0	405731	PRACTICE_DISTRACT_START	n/a	n/a	n/a	n/a	-999	-999	[0, 0, 0]	n/a	catFR1	0	R1056M
60.131	0.016	405731	START	n/a	n/a	n/a	n/a	-999	-1	[-999, -999, -999]	n/a	catFR1	0	R1056M
60.147	3.65	405739	PROB	3.618	n/a	n/a	n/a	-999	-1	[4, 5, 8]	17.0	catFR1	0	R1056M
63.797	1.25	407564	PROB	1.216	n/a	n/a	n/a	-999	-1	[1, 5, 5]	1.0	catFR1	0	R1056M
65.047	3.901	408189	PROB	3.878	n/a	n/a	n/a	-999	-1	[4, 9, 3]	16.0	catFR1	0	R1056M
68.948	2.518	410140	PROB	2.49	n/a	n/a	n/a	-999	-1	[2, 9, 8]	19.0	catFR1	0	R1056M
71.466	2.116	411398	PROB	2.083	n/a	n/a	n/a	-999	-1	[1, 5, 1]	7.0	catFR1	0	R1056M
73.582	2.284	412456	PROB	2.263	n/a	n/a	n/a	-999	-1	[7, 5, 3]	15.0	catFR1	0	R1056M
75.866	2.468	413598	PROB	2.436	n/a	n/a	n/a	-999	-1	[1, 7, 4]	12.0	catFR1	0	R1056M
78.334	2.375	414832	PROB	2.375	n/a	n/a	n/a	-999	-1	[9, 4, 8]	22.0	catFR1	0	R1056M
80.709	0.008	416019	STOP	n/a	n/a	n/a	n/a	-999	-1	[-999, -999, -999]	n/a	catFR1	0	R1056M
80.717	0.57	416023	PRACTICE_DISTRACT_END	n/a	n/a	n/a	n/a	-999	-999	[0, 0, 0]	n/a	catFR1	0	R1056M
81.287	30.514	416308	PRACTICE_REC_START	n/a	n/a	n/a	n/a	-999	-999	[0, 0, 0]	n/a	catFR1	0	R1056M
111.801	16.393	431564	PRACTICE_REC_END	n/a	n/a	n/a	n/a	-999	-999	[0, 0, 0]	n/a	catFR1	0	R1056M
128.194	0.0	439759	TRIAL	n/a	n/a	n/a	n/a	-999	1	[0, 0, 0]	n/a	catFR1	0	R1056M
128.194	10.428	439759	COUNTDOWN_START	n/a	n/a	n/a	n/a	-999	1	[0, 0, 0]	n/a	catFR1	0	R1056M
138.622	0.006	444973	COUNTDOWN_END	n/a	n/a	n/a	n/a	-999	1	[0, 0, 0]	n/a	catFR1	0	R1056M
138.628	3.802	444976	ORIENT	n/a	n/a	n/a	n/a	-999	1	[0, 0, 0]	n/a	catFR1	0	R1056M
142.43	2.55	446877	WORD	n/a	wordpools/wordpool_categorized_EN.txt	PLANKTON	OceanAnimals	1	1	[0, 0, 0]	n/a	catFR1	0	R1056M
144.98	2.518	448152	WORD	n/a	wordpools/wordpool_categorized_EN.txt	OCTOPUS	OceanAnimals	2	1	[0, 0, 0]	n/a	catFR1	0	R1056M
147.498	2.483	449410	WORD	n/a	wordpools/wordpool_categorized_EN.txt	GNAT	Insects	3	1	[0, 0, 0]	n/a	catFR1	0	R1056M
149.981	2.401	450652	WORD	n/a	wordpools/wordpool_categorized_EN.txt	BEETLE	Insects	4	1	[0, 0, 0]	n/a	catFR1	0	R1056M
152.382	2.6	451852	WORD	n/a	wordpools/wordpool_categorized_EN.txt	MILK	Beverages	5	1	[0, 0, 0]	n/a	catFR1	0	R1056M
154.982	2.583	453152	WORD	n/a	wordpools/wordpool_categorized_EN.txt	CIDER	Beverages	6	1	[0, 0, 0]	n/a	catFR1	0	R1056M
157.565	2.519	454443	WORD	n/a	wordpools/wordpool_categorized_EN.txt	ROACH	Insects	7	1	[0, 0, 0]	n/a	catFR1	0	R1056M
160.084	2.499	455703	WORD	n/a	wordpools/wordpool_categorized_EN.txt	BUTTERFLY	Insects	8	1	[0, 0, 0]	n/a	catFR1	0	R1056M
162.583	2.552	456952	WORD	n/a	wordpools/wordpool_categorized_EN.txt	TURTLE	OceanAnimals	9	1	[0, 0, 0]	n/a	catFR1	0	R1056M
165.135	2.499	458228	WORD	n/a	wordpools/wordpool_categorized_EN.txt	JELLYFISH	OceanAnimals	10	1	[0, 0, 0]	n/a	catFR1	0	R1056M
167.634	2.485	459477	WORD	n/a	wordpools/wordpool_categorized_EN.txt	RUM	Beverages	11	1	[0, 0, 0]	n/a	catFR1	0	R1056M
170.119	1.616	460720	WORD	n/a	wordpools/wordpool_categorized_EN.txt	LEMONADE	Beverages	12	1	[0, 0, 0]	n/a	catFR1	0	R1056M
171.735	0.001	461528	DISTRACT_START	n/a	n/a	n/a	n/a	-999	1	[0, 0, 0]	n/a	catFR1	0	R1056M
171.736	0.016	461528	START	n/a	n/a	n/a	n/a	-999	1	[-999, -999, -999]	n/a	catFR1	0	R1056M
171.752	2.883	461536	PROB	2.861	n/a	n/a	n/a	-999	1	[2, 9, 2]	13.0	catFR1	0	R1056M
174.635	6.853	462978	PROB	6.827	n/a	n/a	n/a	-999	1	[9, 9, 6]	24.0	catFR1	0	R1056M
181.488	1.933	466404	PROB	1.902	n/a	n/a	n/a	-999	1	[1, 2, 9]	12.0	catFR1	0	R1056M
183.421	2.383	467370	PROB	2.352	n/a	n/a	n/a	-999	1	[6, 8, 5]	19.0	catFR1	0	R1056M
185.804	1.635	468562	PROB	1.602	n/a	n/a	n/a	-999	1	[3, 7, 3]	13.0	catFR1	0	R1056M
187.439	3.266	469379	PROB	3.238	n/a	n/a	n/a	-999	1	[3, 8, 5]	16.0	catFR1	0	R1056M
190.705	2.276	471012	PROB	2.276	n/a	n/a	n/a	-999	1	[6, 1, 7]	14.0	catFR1	0	R1056M
192.981	0.008	472150	STOP	n/a	n/a	n/a	n/a	-999	1	[-999, -999, -999]	n/a	catFR1	0	R1056M
192.989	1.034	472154	DISTRACT_END	n/a	n/a	n/a	n/a	-999	1	[0, 0, 0]	n/a	catFR1	0	R1056M
194.023	1.363	472671	REC_START	n/a	n/a	n/a	n/a	-999	1	[0, 0, 0]	n/a	catFR1	0	R1056M
195.386	0.871	473352	REC_WORD	1.363	n/a	BUTTERFLY	Insects	8	1	[0, 0, 0]	n/a	catFR1	0	R1056M
196.257	0.861	473787	REC_WORD	2.234	n/a	ROACH	Insects	7	1	[0, 0, 0]	n/a	catFR1	0	R1056M
197.118	0.794	474218	REC_WORD	3.095	n/a	GNAT	Insects	3	1	[0, 0, 0]	n/a	catFR1	0	R1056M
197.912	1.021	474615	REC_WORD	3.889	n/a	BEETLE	Insects	4	1	[0, 0, 0]	n/a	catFR1	0	R1056M
198.933	0.887	475125	REC_WORD	4.91	n/a	MILK	Beverages	5	1	[0, 0, 0]	n/a	catFR1	0	R1056M
199.82	1.055	475569	REC_WORD	5.797	n/a	RUM	Beverages	11	1	[0, 0, 0]	n/a	catFR1	0	R1056M
200.875	2.809	476096	REC_WORD	6.852	n/a	LEMONADE	Beverages	12	1	[0, 0, 0]	n/a	catFR1	0	R1056M
203.684	1.203	477501	REC_WORD	9.661	n/a	TURTLE	OceanAnimals	9	1	[0, 0, 0]	n/a	catFR1	0	R1056M
204.887	0.793	478102	REC_WORD	10.864	n/a	OCTOPUS	OceanAnimals	2	1	[0, 0, 0]	n/a	catFR1	0	R1056M
205.68	18.36	478498	REC_WORD	11.657	n/a	JELLYFISH	OceanAnimals	10	1	[0, 0, 0]	n/a	catFR1	0	R1056M
224.04	5.39	487678	REC_END	n/a	n/a	n/a	n/a	-999	1	[0, 0, 0]	n/a	catFR1	0	R1056M
229.43	0.001	490372	COUNTDOWN_START	n/a	n/a	n/a	n/a	-999	2	[0, 0, 0]	n/a	catFR1	0	R1056M
229.431	10.427	490373	TRIAL	n/a	n/a	n/a	n/a	-999	2	[0, 0, 0]	n/a	catFR1	0	R1056M
239.858	0.007	495586	COUNTDOWN_END	n/a	n/a	n/a	n/a	-999	2	[0, 0, 0]	n/a	catFR1	0	R1056M
239.865	3.635	495589	ORIENT	n/a	n/a	n/a	n/a	-999	2	[0, 0, 0]	n/a	catFR1	0	R1056M
243.5	2.433	497407	WORD	n/a	wordpools/wordpool_categorized_EN.txt	LADLE	KitchenTools	1	2	[0, 0, 0]	n/a	catFR1	0	R1056M
245.933	2.384	498623	WORD	n/a	wordpools/wordpool_categorized_EN.txt	FORK	KitchenTools	2	2	[0, 0, 0]	n/a	catFR1	0	R1056M
248.317	2.467	499815	WORD	n/a	wordpools/wordpool_categorized_EN.txt	ROOF	Building	3	2	[0, 0, 0]	n/a	catFR1	0	R1056M
250.784	2.484	501048	WORD	n/a	wordpools/wordpool_categorized_EN.txt	ROOM	Building	4	2	[0, 0, 0]	n/a	catFR1	0	R1056M
253.268	2.5	502290	WORD	n/a	wordpools/wordpool_categorized_EN.txt	ELM	Trees	5	2	[0, 0, 0]	n/a	catFR1	0	R1056M
255.768	2.585	503540	WORD	n/a	wordpools/wordpool_categorized_EN.txt	SPRUCE	Trees	6	2	[0, 0, 0]	n/a	catFR1	0	R1056M
258.353	2.516	504832	WORD	n/a	wordpools/wordpool_categorized_EN.txt	SPOON	KitchenTools	7	2	[0, 0, 0]	n/a	catFR1	0	R1056M
260.869	2.551	506090	WORD	n/a	wordpools/wordpool_categorized_EN.txt	SPATULA	KitchenTools	8	2	[0, 0, 0]	n/a	catFR1	0	R1056M
263.42	2.583	507366	WORD	n/a	wordpools/wordpool_categorized_EN.txt	BIRCH	Trees	9	2	[0, 0, 0]	n/a	catFR1	0	R1056M
266.003	2.452	508657	WORD	n/a	wordpools/wordpool_categorized_EN.txt	CEDAR	Trees	10	2	[0, 0, 0]	n/a	catFR1	0	R1056M
268.455	2.399	509883	WORD	n/a	wordpools/wordpool_categorized_EN.txt	DOOR	Building	11	2	[0, 0, 0]	n/a	catFR1	0	R1056M
270.854	1.601	511082	WORD	n/a	wordpools/wordpool_categorized_EN.txt	CEILING	Building	12	2	[0, 0, 0]	n/a	catFR1	0	R1056M
272.455	0.001	511883	DISTRACT_START	n/a	n/a	n/a	n/a	-999	2	[0, 0, 0]	n/a	catFR1	0	R1056M
272.456	0.016	511883	START	n/a	n/a	n/a	n/a	-999	2	[-999, -999, -999]	n/a	catFR1	0	R1056M
272.472	3.516	511891	PROB	3.493	n/a	n/a	n/a	-999	2	[7, 3, 8]	18.0	catFR1	0	R1056M
275.988	2.152	513649	PROB	2.122	n/a	n/a	n/a	-999	2	[2, 6, 6]	14.0	catFR1	0	R1056M
278.14	1.766	514725	PROB	1.745	n/a	n/a	n/a	-999	2	[1, 3, 4]	8.0	catFR1	0	R1056M
279.906	1.435	515608	PROB	1.404	n/a	n/a	n/a	-999	2	[1, 2, 1]	4.0	catFR1	0	R1056M
281.341	2.067	516325	PROB	2.033	n/a	n/a	n/a	-999	2	[3, 6, 1]	10.0	catFR1	0	R1056M
283.408	3.266	517358	PROB	3.237	n/a	n/a	n/a	-999	2	[5, 7, 7]	19.0	catFR1	0	R1056M
286.674	2.551	518991	PROB	2.516	n/a	n/a	n/a	-999	2	[9, 8, 5]	22.0	catFR1	0	R1056M
289.225	2.466	520267	PROB	2.444	n/a	n/a	n/a	-999	2	[3, 9, 5]	17.0	catFR1	0	R1056M
291.691	2.33	521500	PROB	2.33	n/a	n/a	n/a	-999	2	[8, 5, 4]	17.0	catFR1	0	R1056M
294.021	0.004	522664	STOP	n/a	n/a	n/a	n/a	-999	2	[-999, -999, -999]	n/a	catFR1	0	R1056M
294.025	1.119	522666	DISTRACT_END	n/a	n/a	n/a	n/a	-999	2	[0, 0, 0]	n/a	catFR1	0	R1056M
295.144	1.743	523226	REC_START	n/a	n/a	n/a	n/a	-999	2	[0, 0, 0]	n/a	catFR1	0	R1056M
296.887	0.602	524097	REC_WORD	1.743	n/a	DOOR	Building	11	2	[0, 0, 0]	n/a	catFR1	0	R1056M
297.489	1.165	524398	REC_WORD	2.345	n/a	CEILING	Building	12	2	[0, 0, 0]	n/a	catFR1	0	R1056M
298.654	0.716	524981	REC_WORD	3.51	n/a	ROOM	Building	4	2	[0, 0, 0]	n/a	catFR1	0	R1056M
299.37	0.754	525339	REC_WORD	4.226	n/a	ROOF	Building	3	2	[0, 0, 0]	n/a	catFR1	0	R1056M
300.124	1.159	525716	REC_WORD	4.98	n/a	SPRUCE	Trees	6	2	[0, 0, 0]	n/a	catFR1	0	R1056M
301.283	1.129	526295	REC_WORD	6.139	n/a	ELM	Trees	5	2	[0, 0, 0]	n/a	catFR1	0	R1056M
302.412	2.449	526860	REC_WORD	7.268	n/a	CEDAR	Trees	10	2	[0, 0, 0]	n/a	catFR1	0	R1056M
304.861	0.669	528084	REC_WORD	9.717	n/a	LADLE	KitchenTools	1	2	[0, 0, 0]	n/a	catFR1	0	R1056M
305.53	0.751	528418	REC_WORD	10.386	n/a	FORK	KitchenTools	2	2	[0, 0, 0]	n/a	catFR1	0	R1056M
306.281	1.897	528794	REC_WORD	11.137	n/a	SPOON	KitchenTools	7	2	[0, 0, 0]	n/a	catFR1	0	R1056M
308.178	16.976	529742	REC_WORD	13.034	n/a	SPATULA	KitchenTools	8	2	[0, 0, 0]	n/a	catFR1	0	R1056M
325.154	33.251	538229	REC_END	n/a	n/a	n/a	n/a	-999	2	[0, 0, 0]	n/a	catFR1	0	R1056M
358.405	0.001	554853	COUNTDOWN_START	n/a	n/a	n/a	n/a	-999	3	[0, 0, 0]	n/a	catFR1	0	R1056M
358.406	10.427	554854	TRIAL	n/a	n/a	n/a	n/a	-999	3	[0, 0, 0]	n/a	catFR1	0	R1056M
368.833	0.007	560067	COUNTDOWN_END	n/a	n/a	n/a	n/a	-999	3	[0, 0, 0]	n/a	catFR1	0	R1056M
368.84	3.834	560070	ORIENT	n/a	n/a	n/a	n/a	-999	3	[0, 0, 0]	n/a	catFR1	0	R1056M
372.674	2.601	561987	WORD	n/a	wordpools/wordpool_categorized_EN.txt	PIE	Desserts	1	3	[0, 0, 0]	n/a	catFR1	0	R1056M
375.275	2.5	563287	WORD	n/a	wordpools/wordpool_categorized_EN.txt	BROWNIES	Desserts	2	3	[0, 0, 0]	n/a	catFR1	0	R1056M
377.775	2.568	564537	WORD	n/a	wordpools/wordpool_categorized_EN.txt	COLANDER	KitchenTools	3	3	[0, 0, 0]	n/a	catFR1	0	R1056M
380.343	2.5	565821	WORD	n/a	wordpools/wordpool_categorized_EN.txt	TONGS	KitchenTools	4	3	[0, 0, 0]	n/a	catFR1	0	R1056M
382.843	2.451	567071	WORD	n/a	wordpools/wordpool_categorized_EN.txt	OYSTER	OceanAnimals	5	3	[0, 0, 0]	n/a	catFR1	0	R1056M
385.294	2.4	568296	WORD	n/a	wordpools/wordpool_categorized_EN.txt	LOBSTER	OceanAnimals	6	3	[0, 0, 0]	n/a	catFR1	0	R1056M
387.694	2.383	569496	WORD	n/a	wordpools/wordpool_categorized_EN.txt	STRAINER	KitchenTools	7	3	[0, 0, 0]	n/a	catFR1	0	R1056M
390.077	2.501	570687	WORD	n/a	wordpools/wordpool_categorized_EN.txt	KNIFE	KitchenTools	8	3	[0, 0, 0]	n/a	catFR1	0	R1056M
392.578	2.618	571938	WORD	n/a	wordpools/wordpool_categorized_EN.txt	CHEESECAKE	Desserts	9	3	[0, 0, 0]	n/a	catFR1	0	R1056M
395.196	2.416	573247	WORD	n/a	wordpools/wordpool_categorized_EN.txt	COBBLER	Desserts	10	3	[0, 0, 0]	n/a	catFR1	0	R1056M
397.612	2.384	574455	WORD	n/a	wordpools/wordpool_categorized_EN.txt	WHALE	OceanAnimals	11	3	[0, 0, 0]	n/a	catFR1	0	R1056M
399.996	1.617	575646	WORD	n/a	wordpools/wordpool_categorized_EN.txt	CRAB	OceanAnimals	12	3	[0, 0, 0]	n/a	catFR1	0	R1056M
401.613	0.001	576455	DISTRACT_START	n/a	n/a	n/a	n/a	-999	3	[0, 0, 0]	n/a	catFR1	0	R1056M
401.614	0.016	576455	START	n/a	n/a	n/a	n/a	-999	3	[-999, -999, -999]	n/a	catFR1	0	R1056M
401.63	3.367	576463	PROB	3.343	n/a	n/a	n/a	-999	3	[8, 6, 5]	19.0	catFR1	0	R1056M
404.997	3.151	578147	PROB	3.121	n/a	n/a	n/a	-999	3	[4, 9, 5]	18.0	catFR1	0	R1056M
408.148	2.85	579722	PROB	2.817	n/a	n/a	n/a	-999	3	[7, 1, 2]	10.0	catFR1	0	R1056M
410.998	5.419	581147	PROB	5.392	n/a	n/a	n/a	-999	3	[7, 7, 8]	24.0	catFR1	0	R1056M
416.417	1.867	583856	PROB	1.845	n/a	n/a	n/a	-999	3	[3, 3, 2]	8.0	catFR1	0	R1056M
418.284	2.616	584790	PROB	2.593	n/a	n/a	n/a	-999	3	[8, 6, 4]	18.0	catFR1	0	R1056M
420.9	2.242	586097	PROB	2.242	n/a	n/a	n/a	-999	3	[6, 7, 5]	18.0	catFR1	0	R1056M
423.142	0.009	587218	STOP	n/a	n/a	n/a	n/a	-999	3	[-999, -999, -999]	n/a	catFR1	0	R1056M
423.151	1.185	587223	DISTRACT_END	n/a	n/a	n/a	n/a	-999	3	[0, 0, 0]	n/a	catFR1	0	R1056M
424.336	0.993	587815	REC_START	n/a	n/a	n/a	n/a	-999	3	[0, 0, 0]	n/a	catFR1	0	R1056M
425.329	0.703	588312	REC_WORD	0.993	n/a	COLANDER	KitchenTools	3	3	[0, 0, 0]	n/a	catFR1	0	R1056M
426.032	16.737	588663	REC_WORD	1.696	n/a	STRAINER	KitchenTools	7	3	[0, 0, 0]	n/a	catFR1	0	R1056M
442.769	1.312	597031	REC_WORD	18.433	n/a	OYSTER	OceanAnimals	5	3	[0, 0, 0]	n/a	catFR1	0	R1056M
444.081	0.906	597687	REC_WORD	19.745	n/a	CRAB	OceanAnimals	12	3	[0, 0, 0]	n/a	catFR1	0	R1056M
444.987	2.879	598140	REC_WORD	20.651	n/a	LOBSTER	OceanAnimals	6	3	[0, 0, 0]	n/a	catFR1	0	R1056M
447.866	5.696	599579	REC_WORD	23.53	n/a	FORK	n/a	-999	3	[0, 0, 0]	n/a	catFR1	0	R1056M
453.562	0.493	602427	REC_WORD	29.226	n/a	BROWNIES	Desserts	2	3	[0, 0, 0]	n/a	catFR1	0	R1056M
454.055	0.293	602673	REC_WORD	29.719	n/a	PIE	Desserts	1	3	[0, 0, 0]	n/a	catFR1	0	R1056M
454.348	17.729	602820	REC_END	n/a	n/a	n/a	n/a	-999	3	[0, 0, 0]	n/a	catFR1	0	R1056M
472.077	0.0	611683	TRIAL	n/a	n/a	n/a	n/a	-999	4	[0, 0, 0]	n/a	catFR1	0	R1056M
472.077	10.428	611683	COUNTDOWN_START	n/a	n/a	n/a	n/a	-999	4	[0, 0, 0]	n/a	catFR1	0	R1056M
482.505	0.008	616897	COUNTDOWN_END	n/a	n/a	n/a	n/a	-999	4	[0, 0, 0]	n/a	catFR1	0	R1056M
482.513	3.634	616901	ORIENT	n/a	n/a	n/a	n/a	-999	4	[0, 0, 0]	n/a	catFR1	0	R1056M
486.147	2.499	618718	WORD	n/a	wordpools/wordpool_categorized_EN.txt	BALL	Toys	1	4	[0, 0, 0]	n/a	catFR1	0	R1056M
488.646	2.452	619967	WORD	n/a	wordpools/wordpool_categorized_EN.txt	FRISBEE	Toys	2	4	[0, 0, 0]	n/a	catFR1	0	R1056M
491.098	2.599	621193	WORD	n/a	wordpools/wordpool_categorized_EN.txt	LEMON	Fruit	3	4	[0, 0, 0]	n/a	catFR1	0	R1056M
493.697	2.602	622492	WORD	n/a	wordpools/wordpool_categorized_EN.txt	PEAR	Fruit	4	4	[0, 0, 0]	n/a	catFR1	0	R1056M
496.299	2.383	623793	WORD	n/a	wordpools/wordpool_categorized_EN.txt	MOTORCYCLE	Vehicles	5	4	[0, 0, 0]	n/a	catFR1	0	R1056M
498.682	2.401	624984	WORD	n/a	wordpools/wordpool_categorized_EN.txt	BIKE	Vehicles	6	4	[0, 0, 0]	n/a	catFR1	0	R1056M
501.083	2.6	626185	WORD	n/a	wordpools/wordpool_categorized_EN.txt	BASKETBALL	Toys	7	4	[0, 0, 0]	n/a	catFR1	0	R1056M
503.683	2.501	627485	WORD	n/a	wordpools/wordpool_categorized_EN.txt	PUZZLE	Toys	8	4	[0, 0, 0]	n/a	catFR1	0	R1056M
506.184	2.4	628735	WORD	n/a	wordpools/wordpool_categorized_EN.txt	BUS	Vehicles	9	4	[0, 0, 0]	n/a	catFR1	0	R1056M
508.584	2.518	629935	WORD	n/a	wordpools/wordpool_categorized_EN.txt	VAN	Vehicles	10	4	[0, 0, 0]	n/a	catFR1	0	R1056M
511.102	2.516	631194	WORD	n/a	wordpools/wordpool_categorized_EN.txt	GRAPE	Fruit	11	4	[0, 0, 0]	n/a	catFR1	0	R1056M
513.618	1.618	632452	WORD	n/a	wordpools/wordpool_categorized_EN.txt	PEACH	Fruit	12	4	[0, 0, 0]	n/a	catFR1	0	R1056M
515.236	0.001	633261	DISTRACT_START	n/a	n/a	n/a	n/a	-999	4	[0, 0, 0]	n/a	catFR1	0	R1056M
515.237	0.016	633261	START	n/a	n/a	n/a	n/a	-999	4	[-999, -999, -999]	n/a	catFR1	0	R1056M
515.253	2.117	633269	PROB	2.097	n/a	n/a	n/a	-999	4	[1, 6, 4]	11.0	catFR1	0	R1056M
517.37	1.917	634327	PROB	1.892	n/a	n/a	n/a	-999	4	[1, 2, 9]	12.0	catFR1	0	R1056M
519.287	2.1	635286	PROB	2.079	n/a	n/a	n/a	-999	4	[7, 2, 6]	15.0	catFR1	0	R1056M
521.387	1.75	636336	PROB	1.715	n/a	n/a	n/a	-999	4	[2, 3, 4]	9.0	catFR1	0	R1056M
523.137	2.117	637211	PROB	2.093	n/a	n/a	n/a	-999	4	[3, 4, 5]	12.0	catFR1	0	R1056M
525.254	1.533	638269	PROB	1.511	n/a	n/a	n/a	-999	4	[7, 3, 6]	16.0	catFR1	0	R1056M
526.787	1.884	639035	PROB	1.85	n/a	n/a	n/a	-999	4	[7, 4, 3]	14.0	catFR1	0	R1056M
528.671	3.0	639977	PROB	2.974	n/a	n/a	n/a	-999	4	[5, 8, 4]	17.0	catFR1	0	R1056M
531.671	3.084	641477	PROB	3.062	n/a	n/a	n/a	-999	4	[5, 9, 3]	17.0	catFR1	0	R1056M
534.755	4.563	643019	PROB	4.563	n/a	n/a	n/a	-999	4	[9, 2, 3]	14.0	catFR1	0	R1056M
539.318	0.006	645300	STOP	n/a	n/a	n/a	n/a	-999	4	[-999, -999, -999]	n/a	catFR1	0	R1056M
539.324	1.2	645303	DISTRACT_END	n/a	n/a	n/a	n/a	-999	4	[0, 0, 0]	n/a	catFR1	0	R1056M
540.524	1.491	645903	REC_START	n/a	n/a	n/a	n/a	-999	4	[0, 0, 0]	n/a	catFR1	0	R1056M
542.015	0.591	646649	REC_WORD	1.491	n/a	BALL	Toys	1	4	[0, 0, 0]	n/a	catFR1	0	R1056M
542.606	1.206	646944	REC_WORD	2.082	n/a	FRISBEE	Toys	2	4	[0, 0, 0]	n/a	catFR1	0	R1056M
543.812	2.41	647547	REC_WORD	3.288	n/a	BASKETBALL	Toys	7	4	[0, 0, 0]	n/a	catFR1	0	R1056M
546.222	4.554	648752	REC_WORD	5.698	n/a	PUZZLE	Toys	8	4	[0, 0, 0]	n/a	catFR1	0	R1056M
550.776	1.134	651029	REC_WORD	10.252	n/a	MOTORCYCLE	Vehicles	5	4	[0, 0, 0]	n/a	catFR1	0	R1056M
551.91	1.592	651596	REC_WORD	11.386	n/a	BIKE	Vehicles	6	4	[0, 0, 0]	n/a	catFR1	0	R1056M
553.502	0.592	652392	REC_WORD	12.978	n/a	VAN	Vehicles	10	4	[0, 0, 0]	n/a	catFR1	0	R1056M
554.094	2.386	652688	REC_WORD	13.57	n/a	BUS	Vehicles	9	4	[0, 0, 0]	n/a	catFR1	0	R1056M
556.48	0.789	653880	REC_WORD	15.956	n/a	LEMON	Fruit	3	4	[0, 0, 0]	n/a	catFR1	0	R1056M
557.269	2.07	654275	REC_WORD	16.745	n/a	GRAPE	Fruit	11	4	[0, 0, 0]	n/a	catFR1	0	R1056M
559.339	10.082	655310	REC_WORD	18.815	n/a	PEACH	Fruit	12	4	[0, 0, 0]	n/a	catFR1	0	R1056M
569.421	1.114	660350	REC_WORD	28.897	n/a	PEAR	Fruit	4	4	[0, 0, 0]	n/a	catFR1	0	R1056M
570.535	36.919	660907	REC_END	n/a	n/a	n/a	n/a	-999	4	[0, 0, 0]	n/a	catFR1	0	R1056M
607.454	0.0	679365	TRIAL	n/a	n/a	n/a	n/a	-999	5	[0, 0, 0]	n/a	catFR1	0	R1056M
607.454	10.428	679365	COUNTDOWN_START	n/a	n/a	n/a	n/a	-999	5	[0, 0, 0]	n/a	catFR1	0	R1056M
617.882	0.006	684578	COUNTDOWN_END	n/a	n/a	n/a	n/a	-999	5	[0, 0, 0]	n/a	catFR1	0	R1056M
617.888	3.585	684581	ORIENT	n/a	n/a	n/a	n/a	-999	5	[0, 0, 0]	n/a	catFR1	0	R1056M
621.473	2.433	686374	WORD	n/a	wordpools/wordpool_categorized_EN.txt	WINDOW	Building	1	5	[0, 0, 0]	n/a	catFR1	0	R1056M
623.906	2.501	687590	WORD	n/a	wordpools/wordpool_categorized_EN.txt	FOUNDATION	Building	2	5	[0, 0, 0]	n/a	catFR1	0	R1056M
626.407	2.4	688840	WORD	n/a	wordpools/wordpool_categorized_EN.txt	LIGHTNING	Weather	3	5	[0, 0, 0]	n/a	catFR1	0	R1056M
628.807	2.451	690040	WORD	n/a	wordpools/wordpool_categorized_EN.txt	THUNDERSTORM	Weather	4	5	[0, 0, 0]	n/a	catFR1	0	R1056M
631.258	2.5	691266	WORD	n/a	wordpools/wordpool_categorized_EN.txt	TULIP	Flowers	5	5	[0, 0, 0]	n/a	catFR1	0	R1056M
633.758	2.535	692515	WORD	n/a	wordpools/wordpool_categorized_EN.txt	PETUNIA	Flowers	6	5	[0, 0, 0]	n/a	catFR1	0	R1056M
636.293	2.549	693783	WORD	n/a	wordpools/wordpool_categorized_EN.txt	SNOW	Weather	7	5	[0, 0, 0]	n/a	catFR1	0	R1056M
638.842	2.502	695057	WORD	n/a	wordpools/wordpool_categorized_EN.txt	WIND	Weather	8	5	[0, 0, 0]	n/a	catFR1	0	R1056M
641.344	2.399	696308	WORD	n/a	wordpools/wordpool_categorized_EN.txt	BATHROOM	Building	9	5	[0, 0, 0]	n/a	catFR1	0	R1056M
643.743	2.485	697507	WORD	n/a	wordpools/wordpool_categorized_EN.txt	ATTIC	Building	10	5	[0, 0, 0]	n/a	catFR1	0	R1056M
646.228	2.516	698750	WORD	n/a	wordpools/wordpool_categorized_EN.txt	DAISY	Flowers	11	5	[0, 0, 0]	n/a	catFR1	0	R1056M
648.744	1.618	700008	WORD	n/a	wordpools/wordpool_categorized_EN.txt	ROSE	Flowers	12	5	[0, 0, 0]	n/a	catFR1	0	R1056M
650.362	0.001	700817	DISTRACT_START	n/a	n/a	n/a	n/a	-999	5	[0, 0, 0]	n/a	catFR1	0	R1056M
650.363	0.016	700817	START	n/a	n/a	n/a	n/a	-999	5	[-999, -999, -999]	n/a	catFR1	0	R1056M
650.379	2.984	700825	PROB	2.955	n/a	n/a	n/a	-999	5	[2, 6, 8]	16.0	catFR1	0	R1056M
653.363	4.951	702317	PROB	4.915	n/a	n/a	n/a	-999	5	[6, 5, 6]	17.0	catFR1	0	R1056M
658.314	1.933	704792	PROB	1.9	n/a	n/a	n/a	-999	5	[6, 6, 2]	14.0	catFR1	0	R1056M
660.247	2.517	705759	PROB	2.486	n/a	n/a	n/a	-999	5	[2, 8, 9]	19.0	catFR1	0	R1056M
662.764	1.783	707017	PROB	1.761	n/a	n/a	n/a	-999	5	[9, 1, 9]	19.0	catFR1	0	R1056M
664.547	1.752	707908	PROB	1.723	n/a	n/a	n/a	-999	5	[5, 5, 6]	16.0	catFR1	0	R1056M
666.299	2.15	708784	PROB	2.123	n/a	n/a	n/a	-999	5	[5, 7, 7]	19.0	catFR1	0	R1056M
668.449	3.356	709859	PROB	3.356	n/a	n/a	n/a	-999	5	[1, 5, 8]	14.0	catFR1	0	R1056M
671.805	0.01	711537	STOP	n/a	n/a	n/a	n/a	-999	5	[-999, -999, -999]	n/a	catFR1	0	R1056M
671.815	1.051	711542	DISTRACT_END	n/a	n/a	n/a	n/a	-999	5	[0, 0, 0]	n/a	catFR1	0	R1056M
672.866	1.132	712067	REC_START	n/a	n/a	n/a	n/a	-999	5	[0, 0, 0]	n/a	catFR1	0	R1056M
673.998	0.835	712633	REC_WORD	1.132	n/a	TULIP	Flowers	5	5	[0, 0, 0]	n/a	catFR1	0	R1056M
674.833	0.764	713051	REC_WORD	1.967	n/a	DAISY	Flowers	11	5	[0, 0, 0]	n/a	catFR1	0	R1056M
675.597	0.935	713433	REC_WORD	2.731	n/a	ROSE	Flowers	12	5	[0, 0, 0]	n/a	catFR1	0	R1056M
676.532	1.265	713900	REC_WORD	3.666	n/a	PETUNIA	Flowers	6	5	[0, 0, 0]	n/a	catFR1	0	R1056M
677.797	0.668	714533	REC_WORD	4.931	n/a	WINDOW	Building	1	5	[0, 0, 0]	n/a	catFR1	0	R1056M
678.465	3.49	714867	REC_WORD	5.599	n/a	FOUNDATION	Building	2	5	[0, 0, 0]	n/a	catFR1	0	R1056M
681.955	1.484	716611	REC_WORD	9.089	n/a	THUNDERSTORM	Weather	4	5	[0, 0, 0]	n/a	catFR1	0	R1056M
683.439	4.724	717353	REC_WORD	10.573	n/a	WIND	Weather	8	5	[0, 0, 0]	n/a	catFR1	0	R1056M
688.163	14.719	719715	REC_WORD	15.297	n/a	SNOW	Weather	7	5	[0, 0, 0]	n/a	catFR1	0	R1056M
702.882	21.561	727074	REC_END	n/a	n/a	n/a	n/a	-999	5	[0, 0, 0]	n/a	catFR1	0	R1056M
724.443	0.0	737853	TRIAL	n/a	n/a	n/a	n/a	-999	6	[0, 0, 0]	n/a	catFR1	0	R1056M
724.443	10.428	737853	COUNTDOWN_START	n/a	n/a	n/a	n/a	-999	6	[0, 0, 0]	n/a	catFR1	0	R1056M
734.871	0.007	743067	COUNTDOWN_END	n/a	n/a	n/a	n/a	-999	6	[0, 0, 0]	n/a	catFR1	0	R1056M
734.878	3.484	743070	ORIENT	n/a	n/a	n/a	n/a	-999	6	[0, 0, 0]	n/a	catFR1	0	R1056M
738.362	2.533	744812	WORD	n/a	wordpools/wordpool_categorized_EN.txt	LEVEL	Tools	1	6	[0, 0, 0]	n/a	catFR1	0	R1056M
740.895	2.602	746078	WORD	n/a	wordpools/wordpool_categorized_EN.txt	SAW	Tools	2	6	[0, 0, 0]	n/a	catFR1	0	R1056M
743.497	2.382	747379	WORD	n/a	wordpools/wordpool_categorized_EN.txt	HAND	BodyParts	3	6	[0, 0, 0]	n/a	catFR1	0	R1056M
745.879	2.485	748570	WORD	n/a	wordpools/wordpool_categorized_EN.txt	HEAD	BodyParts	4	6	[0, 0, 0]	n/a	catFR1	0	R1056M
748.364	2.5	749813	WORD	n/a	wordpools/wordpool_categorized_EN.txt	STRAWBERRY	Fruit	5	6	[0, 0, 0]	n/a	catFR1	0	R1056M
750.864	2.385	751062	WORD	n/a	wordpools/wordpool_categorized_EN.txt	BANANA	Fruit	6	6	[0, 0, 0]	n/a	catFR1	0	R1056M
753.249	2.549	752255	WORD	n/a	wordpools/wordpool_categorized_EN.txt	EAR	BodyParts	7	6	[0, 0, 0]	n/a	catFR1	0	R1056M
755.798	2.485	753529	WORD	n/a	wordpools/wordpool_categorized_EN.txt	LEG	BodyParts	8	6	[0, 0, 0]	n/a	catFR1	0	R1056M
758.283	2.4	754772	WORD	n/a	wordpools/wordpool_categorized_EN.txt	AXE	Tools	9	6	[0, 0, 0]	n/a	catFR1	0	R1056M
760.683	2.568	755971	WORD	n/a	wordpools/wordpool_categorized_EN.txt	CROWBAR	Tools	10	6	[0, 0, 0]	n/a	catFR1	0	R1056M
763.251	2.449	757255	WORD	n/a	wordpools/wordpool_categorized_EN.txt	BLUEBERRY	Fruit	11	6	[0, 0, 0]	n/a	catFR1	0	R1056M
765.7	1.618	758480	WORD	n/a	wordpools/wordpool_categorized_EN.txt	ORANGE	Fruit	12	6	[0, 0, 0]	n/a	catFR1	0	R1056M
767.318	0.001	759289	DISTRACT_START	n/a	n/a	n/a	n/a	-999	6	[0, 0, 0]	n/a	catFR1	0	R1056M
767.319	0.016	759289	START	n/a	n/a	n/a	n/a	-999	6	[-999, -999, -999]	n/a	catFR1	0	R1056M
767.335	2.583	759297	PROB	2.558	n/a	n/a	n/a	-999	6	[1, 4, 1]	6.0	catFR1	0	R1056M
769.918	3.917	760588	PROB	3.895	n/a	n/a	n/a	-999	6	[2, 6, 9]	17.0	catFR1	0	R1056M
773.835	2.05	762547	PROB	2.026	n/a	n/a	n/a	-999	6	[9, 7, 1]	17.0	catFR1	0	R1056M
775.885	1.717	763572	PROB	1.696	n/a	n/a	n/a	-999	6	[1, 9, 5]	15.0	catFR1	0	R1056M
777.602	6.152	764430	PROB	6.131	n/a	n/a	n/a	-999	6	[9, 8, 9]	226.0	catFR1	0	R1056M
783.754	4.7	767506	PROB	4.7	n/a	n/a	n/a	-999	6	[9, 5, 7]	23.0	catFR1	0	R1056M
788.454	0.018	769855	STOP	n/a	n/a	n/a	n/a	-999	6	[-999, -999, -999]	n/a	catFR1	0	R1056M
788.472	1.117	769864	DISTRACT_END	n/a	n/a	n/a	n/a	-999	6	[0, 0, 0]	n/a	catFR1	0	R1056M
789.589	2.361	770423	REC_START	n/a	n/a	n/a	n/a	-999	6	[0, 0, 0]	n/a	catFR1	0	R1056M
791.95	4.358	771603	REC_WORD	2.361	n/a	BLUEBERRY	Fruit	11	6	[0, 0, 0]	n/a	catFR1	0	R1056M
796.308	0.758	773782	REC_WORD	6.719	n/a	SAW	Tools	2	6	[0, 0, 0]	n/a	catFR1	0	R1056M
797.066	0.649	774161	REC_WORD	7.477	n/a	AXE	Tools	9	6	[0, 0, 0]	n/a	catFR1	0	R1056M
797.715	1.954	774486	REC_WORD	8.126	n/a	LEVEL	Tools	1	6	[0, 0, 0]	n/a	catFR1	0	R1056M
799.669	2.822	775462	REC_WORD	10.08	n/a	CROWBAR	Tools	10	6	[0, 0, 0]	n/a	catFR1	0	R1056M
802.491	0.683	776873	REC_WORD	12.902	n/a	HEAD	BodyParts	4	6	[0, 0, 0]	n/a	catFR1	0	R1056M
803.174	1.355	777215	REC_WORD	13.585	n/a	EAR	BodyParts	7	6	[0, 0, 0]	n/a	catFR1	0	R1056M
804.529	1.315	777892	REC_WORD	14.94	n/a	LEG	BodyParts	8	6	[0, 0, 0]	n/a	catFR1	0	R1056M
805.844	7.038	778550	REC_WORD	16.255	n/a	ARM	n/a	-999	6	[0, 0, 0]	n/a	catFR1	0	R1056M
812.882	3.089	782068	REC_WORD	23.293	n/a	ORANGE	Fruit	12	6	[0, 0, 0]	n/a	catFR1	0	R1056M
815.971	3.629	783613	REC_WORD	26.382	n/a	BANANA	Fruit	6	6	[0, 0, 0]	n/a	catFR1	0	R1056M
819.6	17.765	785427	REC_END	n/a	n/a	n/a	n/a	-999	6	[0, 0, 0]	n/a	catFR1	0	R1056M
837.365	0.0	794308	COUNTDOWN_START	n/a	n/a	n/a	n/a	-999	7	[0, 0, 0]	n/a	catFR1	0	R1056M
837.365	10.428	794308	TRIAL	n/a	n/a	n/a	n/a	-999	7	[0, 0, 0]	n/a	catFR1	0	R1056M
847.793	0.006	799522	COUNTDOWN_END	n/a	n/a	n/a	n/a	-999	7	[0, 0, 0]	n/a	catFR1	0	R1056M
847.799	3.868	799525	ORIENT	n/a	n/a	n/a	n/a	-999	7	[0, 0, 0]	n/a	catFR1	0	R1056M
851.667	2.551	801459	WORD	n/a	wordpools/wordpool_categorized_EN.txt	TUBA	Instruments	1	7	[0, 0, 0]	n/a	catFR1	0	R1056M
854.218	2.5	802734	WORD	n/a	wordpools/wordpool_categorized_EN.txt	BANJO	Instruments	2	7	[0, 0, 0]	n/a	catFR1	0	R1056M
856.718	2.401	803984	WORD	n/a	wordpools/wordpool_categorized_EN.txt	COUCH	Furniture	3	7	[0, 0, 0]	n/a	catFR1	0	R1056M
859.119	2.433	805184	WORD	n/a	wordpools/wordpool_categorized_EN.txt	BED	Furniture	4	7	[0, 0, 0]	n/a	catFR1	0	R1056M
861.552	2.467	806401	WORD	n/a	wordpools/wordpool_categorized_EN.txt	BLOUSE	Clothing	5	7	[0, 0, 0]	n/a	catFR1	0	R1056M
864.019	2.401	807634	WORD	n/a	wordpools/wordpool_categorized_EN.txt	JEANS	Clothing	6	7	[0, 0, 0]	n/a	catFR1	0	R1056M
866.42	2.383	808834	WORD	n/a	wordpools/wordpool_categorized_EN.txt	ORGAN	Instruments	7	7	[0, 0, 0]	n/a	catFR1	0	R1056M
868.803	2.385	810026	WORD	n/a	wordpools/wordpool_categorized_EN.txt	BASS	Instruments	8	7	[0, 0, 0]	n/a	catFR1	0	R1056M
871.188	2.383	811218	WORD	n/a	wordpools/wordpool_categorized_EN.txt	SHOES	Clothing	9	7	[0, 0, 0]	n/a	catFR1	0	R1056M
873.571	2.434	812410	WORD	n/a	wordpools/wordpool_categorized_EN.txt	COAT	Clothing	10	7	[0, 0, 0]	n/a	catFR1	0	R1056M
876.005	2.401	813626	WORD	n/a	wordpools/wordpool_categorized_EN.txt	DESK	Furniture	11	7	[0, 0, 0]	n/a	catFR1	0	R1056M
878.406	1.616	814827	WORD	n/a	wordpools/wordpool_categorized_EN.txt	DRESSER	Furniture	12	7	[0, 0, 0]	n/a	catFR1	0	R1056M
880.022	0.001	815635	DISTRACT_START	n/a	n/a	n/a	n/a	-999	7	[0, 0, 0]	n/a	catFR1	0	R1056M
880.023	0.016	815635	START	n/a	n/a	n/a	n/a	-999	7	[-999, -999, -999]	n/a	catFR1	0	R1056M
880.039	3.468	815643	PROB	3.439	n/a	n/a	n/a	-999	7	[4, 8, 7]	19.0	catFR1	0	R1056M
883.507	5.801	817377	PROB	5.779	n/a	n/a	n/a	-999	7	[1, 5, 8]	14.0	catFR1	0	R1056M
889.308	2.051	820277	PROB	2.026	n/a	n/a	n/a	-999	7	[1, 6, 3]	10.0	catFR1	0	R1056M
891.359	1.699	821303	PROB	1.678	n/a	n/a	n/a	-999	7	[3, 7, 4]	14.0	catFR1	0	R1056M
893.058	3.168	822152	PROB	3.14	n/a	n/a	n/a	-999	7	[8, 9, 4]	22.0	catFR1	0	R1056M
896.226	2.35	823736	PROB	2.315	n/a	n/a	n/a	-999	7	[5, 5, 8]	18.0	catFR1	0	R1056M
898.576	1.493	824911	PROB	1.493	n/a	n/a	n/a	-999	7	[2, 5, 5]	12.0	catFR1	0	R1056M
900.069	0.007	825657	STOP	n/a	n/a	n/a	n/a	-999	7	[-999, -999, -999]	n/a	catFR1	0	R1056M
900.076	1.152	825661	DISTRACT_END	n/a	n/a	n/a	n/a	-999	7	[0, 0, 0]	n/a	catFR1	0	R1056M
901.228	1.217	826237	REC_START	n/a	n/a	n/a	n/a	-999	7	[0, 0, 0]	n/a	catFR1	0	R1056M
902.445	0.767	826845	REC_WORD	1.217	n/a	TUBA	Instruments	1	7	[0, 0, 0]	n/a	catFR1	0	R1056M
903.212	1.945	827229	REC_WORD	1.984	n/a	BANJO	Instruments	2	7	[0, 0, 0]	n/a	catFR1	0	R1056M
905.157	5.317	828201	REC_WORD	3.929	n/a	BASS	Instruments	8	7	[0, 0, 0]	n/a	catFR1	0	R1056M
910.474	2.567	830859	REC_WORD	9.246	n/a	DRESSER	Furniture	12	7	[0, 0, 0]	n/a	catFR1	0	R1056M
913.041	1.366	832143	REC_WORD	11.813	n/a	CHEST	n/a	-999	7	[0, 0, 0]	n/a	catFR1	0	R1056M
914.407	2.572	832826	REC_WORD	13.179	n/a	COUCH	Furniture	3	7	[0, 0, 0]	n/a	catFR1	0	R1056M
916.979	6.275	834111	REC_WORD	15.751	n/a	BED	Furniture	4	7	[0, 0, 0]	n/a	catFR1	0	R1056M
923.254	0.602	837249	REC_WORD	22.026	n/a	JEANS	Clothing	6	7	[0, 0, 0]	n/a	catFR1	0	R1056M
923.856	7.382	837550	REC_WORD	22.628	n/a	BLOUSE	Clothing	5	7	[0, 0, 0]	n/a	catFR1	0	R1056M
931.238	24.95	841240	REC_END	n/a	n/a	n/a	n/a	-999	7	[0, 0, 0]	n/a	catFR1	0	R1056M
956.188	0.0	853714	COUNTDOWN_START	n/a	n/a	n/a	n/a	-999	8	[0, 0, 0]	n/a	catFR1	0	R1056M
956.188	10.428	853714	TRIAL	n/a	n/a	n/a	n/a	-999	8	[0, 0, 0]	n/a	catFR1	0	R1056M
966.616	0.006	858927	COUNTDOWN_END	n/a	n/a	n/a	n/a	-999	8	[0, 0, 0]	n/a	catFR1	0	R1056M
966.622	3.469	858930	ORIENT	n/a	n/a	n/a	n/a	-999	8	[0, 0, 0]	n/a	catFR1	0	R1056M
970.091	2.499	860665	WORD	n/a	wordpools/wordpool_categorized_EN.txt	CELERY	Vegetables	1	8	[0, 0, 0]	n/a	catFR1	0	R1056M
972.59	2.467	861914	WORD	n/a	wordpools/wordpool_categorized_EN.txt	CABBAGE	Vegetables	2	8	[0, 0, 0]	n/a	catFR1	0	R1056M
975.057	2.402	863147	WORD	n/a	wordpools/wordpool_categorized_EN.txt	CELLO	Instruments	3	8	[0, 0, 0]	n/a	catFR1	0	R1056M
977.459	2.433	864348	WORD	n/a	wordpools/wordpool_categorized_EN.txt	TROMBONE	Instruments	4	8	[0, 0, 0]	n/a	catFR1	0	R1056M
979.892	2.568	865565	WORD	n/a	wordpools/wordpool_categorized_EN.txt	MOTH	Insects	5	8	[0, 0, 0]	n/a	catFR1	0	R1056M
982.46	2.516	866849	WORD	n/a	wordpools/wordpool_categorized_EN.txt	SPIDER	Insects	6	8	[0, 0, 0]	n/a	catFR1	0	R1056M
984.976	2.584	868106	WORD	n/a	wordpools/wordpool_categorized_EN.txt	CAULIFLOWER	Vegetables	7	8	[0, 0, 0]	n/a	catFR1	0	R1056M
987.56	2.585	869398	WORD	n/a	wordpools/wordpool_categorized_EN.txt	POTATO	Vegetables	8	8	[0, 0, 0]	n/a	catFR1	0	R1056M
990.145	2.566	870691	WORD	n/a	wordpools/wordpool_categorized_EN.txt	BEE	Insects	9	8	[0, 0, 0]	n/a	catFR1	0	R1056M
992.711	2.618	871973	WORD	n/a	wordpools/wordpool_categorized_EN.txt	MOSQUITO	Insects	10	8	[0, 0, 0]	n/a	catFR1	0	R1056M
995.329	2.449	873282	WORD	n/a	wordpools/wordpool_categorized_EN.txt	FLUTE	Instruments	11	8	[0, 0, 0]	n/a	catFR1	0	R1056M
997.778	1.602	874507	WORD	n/a	wordpools/wordpool_categorized_EN.txt	PIANO	Instruments	12	8	[0, 0, 0]	n/a	catFR1	0	R1056M
999.38	0.001	875308	DISTRACT_START	n/a	n/a	n/a	n/a	-999	8	[0, 0, 0]	n/a	catFR1	0	R1056M
999.381	0.015	875308	START	n/a	n/a	n/a	n/a	-999	8	[-999, -999, -999]	n/a	catFR1	0	R1056M
999.396	2.851	875316	PROB	2.826	n/a	n/a	n/a	-999	8	[7, 9, 2]	18.0	catFR1	0	R1056M
1002.247	2.599	876741	PROB	2.574	n/a	n/a	n/a	-999	8	[1, 6, 6]	13.0	catFR1	0	R1056M
1004.846	1.552	878040	PROB	1.528	n/a	n/a	n/a	-999	8	[3, 6, 3]	12.0	catFR1	0	R1056M
1006.398	2.616	878816	PROB	2.583	n/a	n/a	n/a	-999	8	[9, 9, 6]	24.0	catFR1	0	R1056M
1009.014	2.368	880124	PROB	2.344	n/a	n/a	n/a	-999	8	[3, 6, 7]	16.0	catFR1	0	R1056M
1011.382	5.65	881308	PROB	5.623	n/a	n/a	n/a	-999	8	[9, 3, 3]	15.0	catFR1	0	R1056M
1017.032	2.068	884133	PROB	2.045	n/a	n/a	n/a	-999	8	[6, 7, 1]	14.0	catFR1	0	R1056M
1019.1	1.833	885167	PROB	1.833	n/a	n/a	n/a	-999	8	[7, 8, 1]	16.0	catFR1	0	R1056M
1020.933	0.017	886083	STOP	n/a	n/a	n/a	n/a	-999	8	[-999, -999, -999]	n/a	catFR1	0	R1056M
1020.95	1.05	886092	DISTRACT_END	n/a	n/a	n/a	n/a	-999	8	[0, 0, 0]	n/a	catFR1	0	R1056M
1022.0	1.49	886616	REC_START	n/a	n/a	n/a	n/a	-999	8	[0, 0, 0]	n/a	catFR1	0	R1056M
1023.49	0.832	887361	REC_WORD	1.49	n/a	CELERY	Vegetables	1	8	[0, 0, 0]	n/a	catFR1	0	R1056M
1024.322	3.282	887777	REC_WORD	2.322	n/a	CABBAGE	Vegetables	2	8	[0, 0, 0]	n/a	catFR1	0	R1056M
1027.604	2.607	889418	REC_WORD	5.604	n/a	LETTUCE	n/a	-999	8	[0, 0, 0]	n/a	catFR1	0	R1056M
1030.211	3.893	890722	REC_WORD	8.211	n/a	BEE	Insects	9	8	[0, 0, 0]	n/a	catFR1	0	R1056M
1034.104	17.907	892668	REC_WORD	12.104	n/a	CELLO	Instruments	3	8	[0, 0, 0]	n/a	catFR1	0	R1056M
1052.011	297.237	901620	REC_END	n/a	n/a	n/a	n/a	-999	8	[0, 0, 0]	n/a	catFR1	0	R1056M
1349.248	0.0	1050224	TRIAL	n/a	n/a	n/a	n/a	-999	9	[0, 0, 0]	n/a	catFR1	0	R1056M
1349.248	10.428	1050224	COUNTDOWN_START	n/a	n/a	n/a	n/a	-999	9	[0, 0, 0]	n/a	catFR1	0	R1056M
1359.676	0.006	1055437	COUNTDOWN_END	n/a	n/a	n/a	n/a	-999	9	[0, 0, 0]	n/a	catFR1	0	R1056M
1359.682	3.502	1055440	ORIENT	n/a	n/a	n/a	n/a	-999	9	[0, 0, 0]	n/a	catFR1	0	R1056M
1363.184	2.399	1057191	WORD	n/a	wordpools/wordpool_categorized_EN.txt	RAIN	Weather	1	9	[0, 0, 0]	n/a	catFR1	0	R1056M
1365.583	2.451	1058390	WORD	n/a	wordpools/wordpool_categorized_EN.txt	CLOUD	Weather	2	9	[0, 0, 0]	n/a	catFR1	0	R1056M
1368.034	2.483	1059616	WORD	n/a	wordpools/wordpool_categorized_EN.txt	BEER	Beverages	3	9	[0, 0, 0]	n/a	catFR1	0	R1056M
1370.517	2.451	1060857	WORD	n/a	wordpools/wordpool_categorized_EN.txt	WATER	Beverages	4	9	[0, 0, 0]	n/a	catFR1	0	R1056M
1372.968	2.385	1062082	WORD	n/a	wordpools/wordpool_categorized_EN.txt	SCREWDRIVER	Tools	5	9	[0, 0, 0]	n/a	catFR1	0	R1056M
1375.353	2.549	1063275	WORD	n/a	wordpools/wordpool_categorized_EN.txt	WRENCH	Tools	6	9	[0, 0, 0]	n/a	catFR1	0	R1056M
1377.902	2.368	1064549	WORD	n/a	wordpools/wordpool_categorized_EN.txt	COLA	Beverages	7	9	[0, 0, 0]	n/a	catFR1	0	R1056M
1380.27	2.4	1065733	WORD	n/a	wordpools/wordpool_categorized_EN.txt	SODA	Beverages	8	9	[0, 0, 0]	n/a	catFR1	0	R1056M
1382.67	2.501	1066933	WORD	n/a	wordpools/wordpool_categorized_EN.txt	HUMIDITY	Weather	9	9	[0, 0, 0]	n/a	catFR1	0	R1056M
1385.171	2.4	1068183	WORD	n/a	wordpools/wordpool_categorized_EN.txt	THUNDER	Weather	10	9	[0, 0, 0]	n/a	catFR1	0	R1056M
1387.571	2.518	1069383	WORD	n/a	wordpools/wordpool_categorized_EN.txt	PLIERS	Tools	11	9	[0, 0, 0]	n/a	catFR1	0	R1056M
1390.089	1.616	1070642	WORD	n/a	wordpools/wordpool_categorized_EN.txt	RATCHET	Tools	12	9	[0, 0, 0]	n/a	catFR1	0	R1056M
1391.705	0.0	1071450	DISTRACT_START	n/a	n/a	n/a	n/a	-999	9	[0, 0, 0]	n/a	catFR1	0	R1056M
1391.705	0.016	1071450	START	n/a	n/a	n/a	n/a	-999	9	[-999, -999, -999]	n/a	catFR1	0	R1056M
1391.721	3.719	1071458	PROB	3.693	n/a	n/a	n/a	-999	9	[6, 5, 9]	20.0	catFR1	0	R1056M
1395.44	2.516	1073317	PROB	2.493	n/a	n/a	n/a	-999	9	[7, 4, 5]	16.0	catFR1	0	R1056M
1397.956	3.101	1074575	PROB	3.065	n/a	n/a	n/a	-999	9	[7, 9, 4]	20.0	catFR1	0	R1056M
1401.057	1.85	1076125	PROB	1.82	n/a	n/a	n/a	-999	9	[8, 2, 6]	16.0	catFR1	0	R1056M
1402.907	2.684	1077050	PROB	2.65	n/a	n/a	n/a	-999	9	[3, 9, 7]	19.0	catFR1	0	R1056M
1405.591	4.334	1078392	PROB	4.302	n/a	n/a	n/a	-999	9	[8, 1, 4]	13.0	catFR1	0	R1056M
1409.925	1.75	1080559	PROB	1.72	n/a	n/a	n/a	-999	9	[4, 4, 5]	13.0	catFR1	0	R1056M
1411.675	2.122	1081434	PROB	2.122	n/a	n/a	n/a	-999	9	[7, 5, 7]	19.0	catFR1	0	R1056M
1413.797	0.012	1082495	STOP	n/a	n/a	n/a	n/a	-999	9	[-999, -999, -999]	n/a	catFR1	0	R1056M
1413.809	1.134	1082501	DISTRACT_END	n/a	n/a	n/a	n/a	-999	9	[0, 0, 0]	n/a	catFR1	0	R1056M
1414.943	1.424	1083068	REC_START	n/a	n/a	n/a	n/a	-999	9	[0, 0, 0]	n/a	catFR1	0	R1056M
1416.367	0.463	1083780	REC_WORD	1.424	n/a	RAIN	Weather	1	9	[0, 0, 0]	n/a	catFR1	0	R1056M
1416.83	1.866	1084011	REC_WORD	1.887	n/a	CLOUD	Weather	2	9	[0, 0, 0]	n/a	catFR1	0	R1056M
1418.696	1.065	1084944	REC_WORD	3.753	n/a	SCREWDRIVER	Tools	5	9	[0, 0, 0]	n/a	catFR1	0	R1056M
1419.761	0.899	1085477	REC_WORD	4.818	n/a	PLIERS	Tools	11	9	[0, 0, 0]	n/a	catFR1	0	R1056M
1420.66	3.788	1085926	REC_WORD	5.717	n/a	RATCHET	Tools	12	9	[0, 0, 0]	n/a	catFR1	0	R1056M
1424.448	15.01	1087820	REC_WORD	9.505	n/a	HUMIDITY	Weather	9	9	[0, 0, 0]	n/a	catFR1	0	R1056M
1439.458	1.346	1095324	REC_WORD	24.515	n/a	COLA	Beverages	7	9	[0, 0, 0]	n/a	catFR1	0	R1056M
1440.804	0.757	1095997	REC_WORD	25.861	n/a	BEER	Beverages	3	9	[0, 0, 0]	n/a	catFR1	0	R1056M
1441.561	3.396	1096375	REC_WORD	26.618	n/a	WATER	Beverages	4	9	[0, 0, 0]	n/a	catFR1	0	R1056M
1444.957	6.826	1098073	REC_END	n/a	n/a	n/a	n/a	-999	9	[0, 0, 0]	n/a	catFR1	0	R1056M
1451.783	0.0	1101486	TRIAL	n/a	n/a	n/a	n/a	-999	10	[0, 0, 0]	n/a	catFR1	0	R1056M
1451.783	10.428	1101486	COUNTDOWN_START	n/a	n/a	n/a	n/a	-999	10	[0, 0, 0]	n/a	catFR1	0	R1056M
1462.211	0.008	1106699	COUNTDOWN_END	n/a	n/a	n/a	n/a	-999	10	[0, 0, 0]	n/a	catFR1	0	R1056M
1462.219	3.816	1106703	ORIENT	n/a	n/a	n/a	n/a	-999	10	[0, 0, 0]	n/a	catFR1	0	R1056M
1466.035	2.618	1108611	WORD	n/a	wordpools/wordpool_categorized_EN.txt	BARBIE	Toys	1	10	[0, 0, 0]	n/a	catFR1	0	R1056M
1468.653	2.451	1109920	WORD	n/a	wordpools/wordpool_categorized_EN.txt	MARBLES	Toys	2	10	[0, 0, 0]	n/a	catFR1	0	R1056M
1471.104	2.517	1111145	WORD	n/a	wordpools/wordpool_categorized_EN.txt	HICKORY	Trees	3	10	[0, 0, 0]	n/a	catFR1	0	R1056M
1473.621	2.601	1112404	WORD	n/a	wordpools/wordpool_categorized_EN.txt	WALNUT	Trees	4	10	[0, 0, 0]	n/a	catFR1	0	R1056M
1476.222	2.566	1113704	WORD	n/a	wordpools/wordpool_categorized_EN.txt	FOG	Weather	5	10	[0, 0, 0]	n/a	catFR1	0	R1056M
1478.788	2.385	1114987	WORD	n/a	wordpools/wordpool_categorized_EN.txt	HURRICANE	Weather	6	10	[0, 0, 0]	n/a	catFR1	0	R1056M
1481.173	2.449	1116179	WORD	n/a	wordpools/wordpool_categorized_EN.txt	PINE	Trees	7	10	[0, 0, 0]	n/a	catFR1	0	R1056M
1483.622	2.502	1117404	WORD	n/a	wordpools/wordpool_categorized_EN.txt	WILLOW	Trees	8	10	[0, 0, 0]	n/a	catFR1	0	R1056M
1486.124	2.399	1118655	WORD	n/a	wordpools/wordpool_categorized_EN.txt	DOLLHOUSE	Toys	9	10	[0, 0, 0]	n/a	catFR1	0	R1056M
1488.523	2.534	1119854	WORD	n/a	wordpools/wordpool_categorized_EN.txt	DOLL	Toys	10	10	[0, 0, 0]	n/a	catFR1	0	R1056M
1491.057	2.467	1121121	WORD	n/a	wordpools/wordpool_categorized_EN.txt	TORNADO	Weather	11	10	[0, 0, 0]	n/a	catFR1	0	R1056M
1493.524	1.602	1122354	WORD	n/a	wordpools/wordpool_categorized_EN.txt	DRIZZLE	Weather	12	10	[0, 0, 0]	n/a	catFR1	0	R1056M
1495.126	0.001	1123155	DISTRACT_START	n/a	n/a	n/a	n/a	-999	10	[0, 0, 0]	n/a	catFR1	0	R1056M
1495.127	0.015	1123156	START	n/a	n/a	n/a	n/a	-999	10	[-999, -999, -999]	n/a	catFR1	0	R1056M
1495.142	2.867	1123163	PROB	2.831	n/a	n/a	n/a	-999	10	[7, 8, 2]	17.0	catFR1	0	R1056M
1498.009	1.484	1124596	PROB	1.453	n/a	n/a	n/a	-999	10	[5, 2, 5]	12.0	catFR1	0	R1056M
1499.493	2.216	1125338	PROB	2.192	n/a	n/a	n/a	-999	10	[7, 7, 5]	19.0	catFR1	0	R1056M
1501.709	4.602	1126446	PROB	4.577	n/a	n/a	n/a	-999	10	[3, 5, 8]	16.0	catFR1	0	R1056M
1506.311	1.716	1128747	PROB	1.694	n/a	n/a	n/a	-999	10	[1, 1, 7]	9.0	catFR1	0	R1056M
1508.027	2.551	1129605	PROB	2.53	n/a	n/a	n/a	-999	10	[7, 7, 6]	20.0	catFR1	0	R1056M
1510.578	2.384	1130880	PROB	2.347	n/a	n/a	n/a	-999	10	[4, 5, 2]	11.0	catFR1	0	R1056M
1512.962	1.85	1132072	PROB	1.819	n/a	n/a	n/a	-999	10	[3, 7, 5]	15.0	catFR1	0	R1056M
1514.812	9.753	1132997	PROB	9.753	n/a	n/a	n/a	-999	10	[8, 4, 9]	21.0	catFR1	0	R1056M
1524.565	0.015	1137873	STOP	n/a	n/a	n/a	n/a	-999	10	[-999, -999, -999]	n/a	catFR1	0	R1056M
1524.58	1.101	1137881	DISTRACT_END	n/a	n/a	n/a	n/a	-999	10	[0, 0, 0]	n/a	catFR1	0	R1056M
1525.681	0.893	1138431	REC_START	n/a	n/a	n/a	n/a	-999	10	[0, 0, 0]	n/a	catFR1	0	R1056M
1526.574	0.776	1138878	REC_WORD	0.893	n/a	HICKORY	Trees	3	10	[0, 0, 0]	n/a	catFR1	0	R1056M
1527.35	4.497	1139265	REC_WORD	1.669	n/a	WALNUT	Trees	4	10	[0, 0, 0]	n/a	catFR1	0	R1056M
1531.847	3.449	1141514	REC_WORD	6.166	n/a	DRIZZLE	Weather	12	10	[0, 0, 0]	n/a	catFR1	0	R1056M
1535.296	0.754	1143238	REC_WORD	9.615	n/a	HURRICANE	Weather	6	10	[0, 0, 0]	n/a	catFR1	0	R1056M
1536.05	1.865	1143615	REC_WORD	10.369	n/a	FOG	Weather	5	10	[0, 0, 0]	n/a	catFR1	0	R1056M
1537.915	0.514	1144547	REC_WORD	12.234	n/a	DOLL	Toys	10	10	[0, 0, 0]	n/a	catFR1	0	R1056M
1538.429	1.248	1144804	REC_WORD	12.748	n/a	DOLLHOUSE	Toys	9	10	[0, 0, 0]	n/a	catFR1	0	R1056M
1539.677	1.276	1145428	REC_WORD	13.996	n/a	MARBLES	Toys	2	10	[0, 0, 0]	n/a	catFR1	0	R1056M
1540.953	14.742	1146066	REC_WORD	15.272	n/a	BARBIE	Toys	1	10	[0, 0, 0]	n/a	catFR1	0	R1056M
1555.695	13.795	1153437	REC_END	n/a	n/a	n/a	n/a	-999	10	[0, 0, 0]	n/a	catFR1	0	R1056M
1569.49	0.0	1160333	TRIAL	n/a	n/a	n/a	n/a	-999	11	[0, 0, 0]	n/a	catFR1	0	R1056M
1569.49	10.428	1160333	COUNTDOWN_START	n/a	n/a	n/a	n/a	-999	11	[0, 0, 0]	n/a	catFR1	0	R1056M
1579.918	0.006	1165547	COUNTDOWN_END	n/a	n/a	n/a	n/a	-999	11	[0, 0, 0]	n/a	catFR1	0	R1056M
1579.924	3.801	1165550	ORIENT	n/a	n/a	n/a	n/a	-999	11	[0, 0, 0]	n/a	catFR1	0	R1056M
1583.725	2.552	1167450	WORD	n/a	wordpools/wordpool_categorized_EN.txt	DOVE	Birds	1	11	[0, 0, 0]	n/a	catFR1	0	R1056M
1586.277	2.633	1168726	WORD	n/a	wordpools/wordpool_categorized_EN.txt	SEAGULL	Birds	2	11	[0, 0, 0]	n/a	catFR1	0	R1056M
1588.91	2.501	1170042	WORD	n/a	wordpools/wordpool_categorized_EN.txt	BROCCOLI	Vegetables	3	11	[0, 0, 0]	n/a	catFR1	0	R1056M
1591.411	2.45	1171293	WORD	n/a	wordpools/wordpool_categorized_EN.txt	CORN	Vegetables	4	11	[0, 0, 0]	n/a	catFR1	0	R1056M
1593.861	2.634	1172518	WORD	n/a	wordpools/wordpool_categorized_EN.txt	BINDER	OfficeSupplies	5	11	[0, 0, 0]	n/a	catFR1	0	R1056M
1596.495	2.567	1173834	WORD	n/a	wordpools/wordpool_categorized_EN.txt	TAPE	OfficeSupplies	6	11	[0, 0, 0]	n/a	catFR1	0	R1056M
1599.062	2.583	1175118	WORD	n/a	wordpools/wordpool_categorized_EN.txt	PEAS	Vegetables	7	11	[0, 0, 0]	n/a	catFR1	0	R1056M
1601.645	2.535	1176409	WORD	n/a	wordpools/wordpool_categorized_EN.txt	ONION	Vegetables	8	11	[0, 0, 0]	n/a	catFR1	0	R1056M
1604.18	2.383	1177677	WORD	n/a	wordpools/wordpool_categorized_EN.txt	CARDINAL	Birds	9	11	[0, 0, 0]	n/a	catFR1	0	R1056M
1606.563	2.367	1178868	WORD	n/a	wordpools/wordpool_categorized_EN.txt	GOOSE	Birds	10	11	[0, 0, 0]	n/a	catFR1	0	R1056M
1608.93	2.518	1180051	WORD	n/a	wordpools/wordpool_categorized_EN.txt	NOTEBOOK	OfficeSupplies	11	11	[0, 0, 0]	n/a	catFR1	0	R1056M
1611.448	1.616	1181310	WORD	n/a	wordpools/wordpool_categorized_EN.txt	STAPLER	OfficeSupplies	12	11	[0, 0, 0]	n/a	catFR1	0	R1056M
1613.064	0.001	1182118	DISTRACT_START	n/a	n/a	n/a	n/a	-999	11	[0, 0, 0]	n/a	catFR1	0	R1056M
1613.065	0.017	1182119	START	n/a	n/a	n/a	n/a	-999	11	[-999, -999, -999]	n/a	catFR1	0	R1056M
1613.082	5.251	1182127	PROB	5.228	n/a	n/a	n/a	-999	11	[3, 6, 9]	21.0	catFR1	0	R1056M
1618.333	2.75	1184752	PROB	2.72	n/a	n/a	n/a	-999	11	[6, 5, 4]	15.0	catFR1	0	R1056M
1621.083	2.101	1186127	PROB	2.067	n/a	n/a	n/a	-999	11	[5, 6, 3]	14.0	catFR1	0	R1056M
1623.184	2.3	1187178	PROB	2.278	n/a	n/a	n/a	-999	11	[4, 9, 1]	14.0	catFR1	0	R1056M
1625.484	2.618	1188327	PROB	2.593	n/a	n/a	n/a	-999	11	[9, 2, 5]	16.0	catFR1	0	R1056M
1628.102	3.599	1189636	PROB	3.567	n/a	n/a	n/a	-999	11	[1, 4, 3]	8.0	catFR1	0	R1056M
1631.701	3.352	1191436	PROB	3.352	n/a	n/a	n/a	-999	11	[8, 1, 3]	12.0	catFR1	0	R1056M
1635.053	0.016	1193111	STOP	n/a	n/a	n/a	n/a	-999	11	[-999, -999, -999]	n/a	catFR1	0	R1056M
1635.069	1.051	1193119	DISTRACT_END	n/a	n/a	n/a	n/a	-999	11	[0, 0, 0]	n/a	catFR1	0	R1056M
1636.12	1.416	1193645	REC_START	n/a	n/a	n/a	n/a	-999	11	[0, 0, 0]	n/a	catFR1	0	R1056M
1637.536	0.685	1194353	REC_WORD	1.416	n/a	DOVE	Birds	1	11	[0, 0, 0]	n/a	catFR1	0	R1056M
1638.221	1.367	1194695	REC_WORD	2.101	n/a	SEAGULL	Birds	2	11	[0, 0, 0]	n/a	catFR1	0	R1056M
1639.588	0.873	1195379	REC_WORD	3.468	n/a	CARDINAL	Birds	9	11	[0, 0, 0]	n/a	catFR1	0	R1056M
1640.461	8.064	1195815	REC_WORD	4.341	n/a	GOOSE	Birds	10	11	[0, 0, 0]	n/a	catFR1	0	R1056M
1648.525	0.747	1199847	REC_WORD	12.405	n/a	BINDER	OfficeSupplies	5	11	[0, 0, 0]	n/a	catFR1	0	R1056M
1649.272	3.089	1200220	REC_WORD	13.152	n/a	NOTEBOOK	OfficeSupplies	11	11	[0, 0, 0]	n/a	catFR1	0	R1056M
1652.361	4.409	1201765	REC_WORD	16.241	n/a	BROCCOLI	Vegetables	3	11	[0, 0, 0]	n/a	catFR1	0	R1056M
1656.77	9.365	1203969	REC_WORD	20.65	n/a	STAPLER	OfficeSupplies	12	11	[0, 0, 0]	n/a	catFR1	0	R1056M
1666.135	15.277	1208651	REC_END	n/a	n/a	n/a	n/a	-999	11	[0, 0, 0]	n/a	catFR1	0	R1056M
1681.412	0.0	1216289	TRIAL	n/a	n/a	n/a	n/a	-999	12	[0, 0, 0]	n/a	catFR1	0	R1056M
1681.412	10.428	1216289	COUNTDOWN_START	n/a	n/a	n/a	n/a	-999	12	[0, 0, 0]	n/a	catFR1	0	R1056M
1691.84	0.006	1221502	COUNTDOWN_END	n/a	n/a	n/a	n/a	-999	12	[0, 0, 0]	n/a	catFR1	0	R1056M
1691.846	3.784	1221505	ORIENT	n/a	n/a	n/a	n/a	-999	12	[0, 0, 0]	n/a	catFR1	0	R1056M
1695.63	2.417	1223397	WORD	n/a	wordpools/wordpool_categorized_EN.txt	OCEAN	Landscapes	1	12	[0, 0, 0]	n/a	catFR1	0	R1056M
1698.047	2.501	1224605	WORD	n/a	wordpools/wordpool_categorized_EN.txt	MOUNTAIN	Landscapes	2	12	[0, 0, 0]	n/a	catFR1	0	R1056M
1700.548	2.585	1225856	WORD	n/a	wordpools/wordpool_categorized_EN.txt	FOOTBALL	Toys	3	12	[0, 0, 0]	n/a	catFR1	0	R1056M
1703.133	2.383	1227148	WORD	n/a	wordpools/wordpool_categorized_EN.txt	BASEBALL	Toys	4	12	[0, 0, 0]	n/a	catFR1	0	R1056M
1705.516	2.417	1228339	WORD	n/a	wordpools/wordpool_categorized_EN.txt	OVEN	Appliances	5	12	[0, 0, 0]	n/a	catFR1	0	R1056M
1707.933	2.6	1229548	WORD	n/a	wordpools/wordpool_categorized_EN.txt	WASHER	Appliances	6	12	[0, 0, 0]	n/a	catFR1	0	R1056M
1710.533	2.384	1230848	WORD	n/a	wordpools/wordpool_categorized_EN.txt	SLINKY	Toys	7	12	[0, 0, 0]	n/a	catFR1	0	R1056M
1712.917	2.535	1232039	WORD	n/a	wordpools/wordpool_categorized_EN.txt	BLOCKS	Toys	8	12	[0, 0, 0]	n/a	catFR1	0	R1056M
1715.452	2.599	1233307	WORD	n/a	wordpools/wordpool_categorized_EN.txt	VALLEY	Landscapes	9	12	[0, 0, 0]	n/a	catFR1	0	R1056M
1718.051	2.584	1234606	WORD	n/a	wordpools/wordpool_categorized_EN.txt	RIVER	Landscapes	10	12	[0, 0, 0]	n/a	catFR1	0	R1056M
1720.635	2.602	1235898	WORD	n/a	wordpools/wordpool_categorized_EN.txt	DRYER	Appliances	11	12	[0, 0, 0]	n/a	catFR1	0	R1056M
1723.237	1.616	1237199	WORD	n/a	wordpools/wordpool_categorized_EN.txt	REFRIGERATOR	Appliances	12	12	[0, 0, 0]	n/a	catFR1	0	R1056M
1724.853	0.001	1238007	DISTRACT_START	n/a	n/a	n/a	n/a	-999	12	[0, 0, 0]	n/a	catFR1	0	R1056M
1724.854	0.015	1238007	START	n/a	n/a	n/a	n/a	-999	12	[-999, -999, -999]	n/a	catFR1	0	R1056M
1724.869	2.934	1238015	PROB	2.912	n/a	n/a	n/a	-999	12	[2, 3, 5]	10.0	catFR1	0	R1056M
1727.803	2.801	1239482	PROB	2.77	n/a	n/a	n/a	-999	12	[6, 3, 9]	18.0	catFR1	0	R1056M
1730.604	2.317	1240882	PROB	2.289	n/a	n/a	n/a	-999	12	[8, 7, 3]	18.0	catFR1	0	R1056M
1732.921	2.634	1242040	PROB	2.604	n/a	n/a	n/a	-999	12	[1, 2, 6]	9.0	catFR1	0	R1056M
1735.555	3.3	1243357	PROB	3.274	n/a	n/a	n/a	-999	12	[8, 9, 4]	21.0	catFR1	0	R1056M
1738.855	2.402	1245007	PROB	2.367	n/a	n/a	n/a	-999	12	[6, 2, 3]	11.0	catFR1	0	R1056M
1741.257	2.283	1246208	PROB	2.253	n/a	n/a	n/a	-999	12	[5, 3, 8]	16.0	catFR1	0	R1056M
1743.54	2.265	1247349	PROB	2.265	n/a	n/a	n/a	-999	12	[1, 6, 9]	16.0	catFR1	0	R1056M
1745.805	0.018	1248482	STOP	n/a	n/a	n/a	n/a	-999	12	[-999, -999, -999]	n/a	catFR1	0	R1056M
1745.823	1.085	1248491	DISTRACT_END	n/a	n/a	n/a	n/a	-999	12	[0, 0, 0]	n/a	catFR1	0	R1056M
1746.908	1.6	1249033	REC_START	n/a	n/a	n/a	n/a	-999	12	[0, 0, 0]	n/a	catFR1	0	R1056M
1748.508	0.466	1249833	REC_WORD	1.6	n/a	OVEN	Appliances	5	12	[0, 0, 0]	n/a	catFR1	0	R1056M
1748.974	0.463	1250066	REC_WORD	2.066	n/a	WASHER	Appliances	6	12	[0, 0, 0]	n/a	catFR1	0	R1056M
1749.437	0.555	1250298	REC_WORD	2.529	n/a	DRYER	Appliances	11	12	[0, 0, 0]	n/a	catFR1	0	R1056M
1749.992	2.465	1250575	REC_WORD	3.084	n/a	REFRIGERATOR	Appliances	12	12	[0, 0, 0]	n/a	catFR1	0	R1056M
1752.457	0.443	1251807	REC_WORD	5.549	n/a	OCEAN	Landscapes	1	12	[0, 0, 0]	n/a	catFR1	0	R1056M
1752.9	0.943	1252029	REC_WORD	5.992	n/a	MOUNTAIN	Landscapes	2	12	[0, 0, 0]	n/a	catFR1	0	R1056M
1753.843	1.295	1252500	REC_WORD	6.935	n/a	RIVER	Landscapes	10	12	[0, 0, 0]	n/a	catFR1	0	R1056M
1755.138	1.938	1253148	REC_WORD	8.23	n/a	VALLEY	Landscapes	9	12	[0, 0, 0]	n/a	catFR1	0	R1056M
1757.076	0.693	1254117	REC_WORD	10.168	n/a	FOOTBALL	Toys	3	12	[0, 0, 0]	n/a	catFR1	0	R1056M
1757.769	15.537	1254463	REC_WORD	10.861	n/a	BASEBALL	Toys	4	12	[0, 0, 0]	n/a	catFR1	0	R1056M
1773.306	3.612	1262231	REC_WORD	26.398	n/a	SLINKY	Toys	7	12	[0, 0, 0]	n/a	catFR1	0	R1056M
1776.918	70.459	1264037	REC_END	n/a	n/a	n/a	n/a	-999	12	[0, 0, 0]	n/a	catFR1	0	R1056M
1847.377	0.0	1299262	TRIAL	n/a	n/a	n/a	n/a	-999	13	[0, 0, 0]	n/a	catFR1	0	R1056M
1847.377	10.428	1299262	COUNTDOWN_START	n/a	n/a	n/a	n/a	-999	13	[0, 0, 0]	n/a	catFR1	0	R1056M
1857.805	0.007	1304476	COUNTDOWN_END	n/a	n/a	n/a	n/a	-999	13	[0, 0, 0]	n/a	catFR1	0	R1056M
1857.812	3.9	1304479	ORIENT	n/a	n/a	n/a	n/a	-999	13	[0, 0, 0]	n/a	catFR1	0	R1056M
1861.712	2.519	1306429	WORD	n/a	wordpools/wordpool_categorized_EN.txt	PLANE	Vehicles	1	13	[0, 0, 0]	n/a	catFR1	0	R1056M
1864.231	2.516	1307689	WORD	n/a	wordpools/wordpool_categorized_EN.txt	SCOOTER	Vehicles	2	13	[0, 0, 0]	n/a	catFR1	0	R1056M
1866.747	2.401	1308946	WORD	n/a	wordpools/wordpool_categorized_EN.txt	RULER	OfficeSupplies	3	13	[0, 0, 0]	n/a	catFR1	0	R1056M
1869.148	2.483	1310147	WORD	n/a	wordpools/wordpool_categorized_EN.txt	PEN	OfficeSupplies	4	13	[0, 0, 0]	n/a	catFR1	0	R1056M
1871.631	2.568	1311388	WORD	n/a	wordpools/wordpool_categorized_EN.txt	TURKEY	FarmAnimals	5	13	[0, 0, 0]	n/a	catFR1	0	R1056M
1874.199	2.566	1312672	WORD	n/a	wordpools/wordpool_categorized_EN.txt	SHEEP	FarmAnimals	6	13	[0, 0, 0]	n/a	catFR1	0	R1056M
1876.765	2.585	1313955	WORD	n/a	wordpools/wordpool_categorized_EN.txt	TRUCK	Vehicles	7	13	[0, 0, 0]	n/a	catFR1	0	R1056M
1879.35	2.616	1315247	WORD	n/a	wordpools/wordpool_categorized_EN.txt	BOAT	Vehicles	8	13	[0, 0, 0]	n/a	catFR1	0	R1056M
1881.966	2.601	1316555	WORD	n/a	wordpools/wordpool_categorized_EN.txt	CALF	FarmAnimals	9	13	[0, 0, 0]	n/a	catFR1	0	R1056M
1884.567	2.367	1317856	WORD	n/a	wordpools/wordpool_categorized_EN.txt	CHICKEN	FarmAnimals	10	13	[0, 0, 0]	n/a	catFR1	0	R1056M
1886.934	2.402	1319039	WORD	n/a	wordpools/wordpool_categorized_EN.txt	PAPER	OfficeSupplies	11	13	[0, 0, 0]	n/a	catFR1	0	R1056M
1889.336	1.616	1320240	WORD	n/a	wordpools/wordpool_categorized_EN.txt	MARKER	OfficeSupplies	12	13	[0, 0, 0]	n/a	catFR1	0	R1056M
1890.952	0.0	1321048	DISTRACT_START	n/a	n/a	n/a	n/a	-999	13	[0, 0, 0]	n/a	catFR1	0	R1056M
1890.952	0.016	1321048	START	n/a	n/a	n/a	n/a	-999	13	[-999, -999, -999]	n/a	catFR1	0	R1056M
1890.968	3.435	1321056	PROB	3.406	n/a	n/a	n/a	-999	13	[2, 7, 5]	14.0	catFR1	0	R1056M
1894.403	1.8	1322773	PROB	1.779	n/a	n/a	n/a	-999	13	[1, 6, 1]	8.0	catFR1	0	R1056M
1896.203	1.984	1323673	PROB	1.955	n/a	n/a	n/a	-999	13	[1, 5, 6]	12.0	catFR1	0	R1056M
1898.187	2.201	1324665	PROB	2.171	n/a	n/a	n/a	-999	13	[3, 6, 4]	13.0	catFR1	0	R1056M
1900.388	2.499	1325765	PROB	2.465	n/a	n/a	n/a	-999	13	[2, 6, 7]	15.0	catFR1	0	R1056M
1902.887	3.067	1327015	PROB	3.038	n/a	n/a	n/a	-999	13	[9, 7, 9]	25.0	catFR1	0	R1056M
1905.954	4.352	1328548	PROB	4.332	n/a	n/a	n/a	-999	13	[5, 2, 4]	11.0	catFR1	0	R1056M
1910.306	6.427	1330724	PROB	6.427	n/a	n/a	n/a	-999	13	[6, 1, 2]	8.0	catFR1	0	R1056M
1916.733	0.007	1333937	STOP	n/a	n/a	n/a	n/a	-999	13	[-999, -999, -999]	n/a	catFR1	0	R1056M
1916.74	1.151	1333940	DISTRACT_END	n/a	n/a	n/a	n/a	-999	13	[0, 0, 0]	n/a	catFR1	0	R1056M
1917.891	1.935	1334516	REC_START	n/a	n/a	n/a	n/a	-999	13	[0, 0, 0]	n/a	catFR1	0	R1056M
1919.826	0.755	1335483	REC_WORD	1.935	n/a	PLANE	Vehicles	1	13	[0, 0, 0]	n/a	catFR1	0	R1056M
1920.581	1.769	1335861	REC_WORD	2.69	n/a	RULER	OfficeSupplies	3	13	[0, 0, 0]	n/a	catFR1	0	R1056M
1922.35	4.481	1336745	REC_WORD	4.459	n/a	TRUCK	Vehicles	7	13	[0, 0, 0]	n/a	catFR1	0	R1056M
1926.831	0.456	1338985	REC_WORD	8.94	n/a	RULER	OfficeSupplies	3	13	[0, 0, 0]	n/a	catFR1	0	R1056M
1927.287	0.509	1339213	REC_WORD	9.396	n/a	MARKER	OfficeSupplies	12	13	[0, 0, 0]	n/a	catFR1	0	R1056M
1927.796	2.584	1339468	REC_WORD	9.905	n/a	PEN	OfficeSupplies	4	13	[0, 0, 0]	n/a	catFR1	0	R1056M
1930.38	0.669	1340760	REC_WORD	12.489	n/a	TURKEY	FarmAnimals	5	13	[0, 0, 0]	n/a	catFR1	0	R1056M
1931.049	3.537	1341094	REC_WORD	13.158	n/a	SHEEP	FarmAnimals	6	13	[0, 0, 0]	n/a	catFR1	0	R1056M
1934.586	13.314	1342863	REC_WORD	16.695	n/a	CALF	FarmAnimals	9	13	[0, 0, 0]	n/a	catFR1	0	R1056M
1947.9	30.453	1349519	REC_END	n/a	n/a	n/a	n/a	-999	13	[0, 0, 0]	n/a	catFR1	0	R1056M
1978.353	0.0	1364744	TRIAL	n/a	n/a	n/a	n/a	-999	14	[0, 0, 0]	n/a	catFR1	0	R1056M
1978.353	10.428	1364744	COUNTDOWN_START	n/a	n/a	n/a	n/a	-999	14	[0, 0, 0]	n/a	catFR1	0	R1056M
1988.781	0.006	1369957	COUNTDOWN_END	n/a	n/a	n/a	n/a	-999	14	[0, 0, 0]	n/a	catFR1	0	R1056M
1988.787	3.951	1369960	ORIENT	n/a	n/a	n/a	n/a	-999	14	[0, 0, 0]	n/a	catFR1	0	R1056M
1992.738	2.451	1371936	WORD	n/a	wordpools/wordpool_categorized_EN.txt	STAIRS	Building	1	14	[0, 0, 0]	n/a	catFR1	0	R1056M
1995.189	2.55	1373161	WORD	n/a	wordpools/wordpool_categorized_EN.txt	FLOOR	Building	2	14	[0, 0, 0]	n/a	catFR1	0	R1056M
1997.739	2.401	1374436	WORD	n/a	wordpools/wordpool_categorized_EN.txt	LAMB	FarmAnimals	3	14	[0, 0, 0]	n/a	catFR1	0	R1056M
2000.14	2.516	1375636	WORD	n/a	wordpools/wordpool_categorized_EN.txt	PIG	FarmAnimals	4	14	[0, 0, 0]	n/a	catFR1	0	R1056M
2002.656	2.485	1376894	WORD	n/a	wordpools/wordpool_categorized_EN.txt	KNEE	BodyParts	5	14	[0, 0, 0]	n/a	catFR1	0	R1056M
2005.141	2.45	1378136	WORD	n/a	wordpools/wordpool_categorized_EN.txt	ARM	BodyParts	6	14	[0, 0, 0]	n/a	catFR1	0	R1056M
2007.591	2.484	1379361	WORD	n/a	wordpools/wordpool_categorized_EN.txt	WALL	Building	7	14	[0, 0, 0]	n/a	catFR1	0	R1056M
2010.075	2.384	1380603	WORD	n/a	wordpools/wordpool_categorized_EN.txt	HALLWAY	Building	8	14	[0, 0, 0]	n/a	catFR1	0	R1056M
2012.459	2.466	1381795	WORD	n/a	wordpools/wordpool_categorized_EN.txt	ELBOW	BodyParts	9	14	[0, 0, 0]	n/a	catFR1	0	R1056M
2014.925	2.385	1383028	WORD	n/a	wordpools/wordpool_categorized_EN.txt	FINGERS	BodyParts	10	14	[0, 0, 0]	n/a	catFR1	0	R1056M
2017.31	2.6	1384220	WORD	n/a	wordpools/wordpool_categorized_EN.txt	HEN	FarmAnimals	11	14	[0, 0, 0]	n/a	catFR1	0	R1056M
2019.91	1.601	1385520	WORD	n/a	wordpools/wordpool_categorized_EN.txt	COW	FarmAnimals	12	14	[0, 0, 0]	n/a	catFR1	0	R1056M
2021.511	0.001	1386321	DISTRACT_START	n/a	n/a	n/a	n/a	-999	14	[0, 0, 0]	n/a	catFR1	0	R1056M
2021.512	0.015	1386321	START	n/a	n/a	n/a	n/a	-999	14	[-999, -999, -999]	n/a	catFR1	0	R1056M
2021.527	2.133	1386329	PROB	2.11	n/a	n/a	n/a	-999	14	[3, 7, 2]	12.0	catFR1	0	R1056M
2023.66	2.752	1387395	PROB	2.722	n/a	n/a	n/a	-999	14	[6, 1, 7]	14.0	catFR1	0	R1056M
2026.412	2.183	1388771	PROB	2.161	n/a	n/a	n/a	-999	14	[3, 2, 7]	12.0	catFR1	0	R1056M
2028.595	3.184	1389862	PROB	3.154	n/a	n/a	n/a	-999	14	[5, 1, 9]	15.0	catFR1	0	R1056M
2031.779	1.551	1391454	PROB	1.523	n/a	n/a	n/a	-999	14	[4, 6, 1]	11.0	catFR1	0	R1056M
2033.33	1.95	1392229	PROB	1.924	n/a	n/a	n/a	-999	14	[1, 6, 5]	12.0	catFR1	0	R1056M
2035.28	2.4	1393204	PROB	2.373	n/a	n/a	n/a	-999	14	[7, 7, 5]	19.0	catFR1	0	R1056M
2037.68	1.867	1394404	PROB	1.845	n/a	n/a	n/a	-999	14	[4, 5, 1]	10.0	catFR1	0	R1056M
2039.547	2.835	1395338	PROB	2.835	n/a	n/a	n/a	-999	14	[2, 1, 8]	11.0	catFR1	0	R1056M
2042.382	0.017	1396755	STOP	n/a	n/a	n/a	n/a	-999	14	[-999, -999, -999]	n/a	catFR1	0	R1056M
2042.399	1.067	1396763	DISTRACT_END	n/a	n/a	n/a	n/a	-999	14	[0, 0, 0]	n/a	catFR1	0	R1056M
2043.466	1.636	1397297	REC_START	n/a	n/a	n/a	n/a	-999	14	[0, 0, 0]	n/a	catFR1	0	R1056M
2045.102	0.486	1398115	REC_WORD	1.636	n/a	HEN	FarmAnimals	11	14	[0, 0, 0]	n/a	catFR1	0	R1056M
2045.588	0.67	1398358	REC_WORD	2.122	n/a	COW	FarmAnimals	12	14	[0, 0, 0]	n/a	catFR1	0	R1056M
2046.258	2.475	1398693	REC_WORD	2.792	n/a	LAMB	FarmAnimals	3	14	[0, 0, 0]	n/a	catFR1	0	R1056M
2048.733	1.062	1399930	REC_WORD	5.267	n/a	STAIRS	Building	1	14	[0, 0, 0]	n/a	catFR1	0	R1056M
2049.795	1.788	1400461	REC_WORD	6.329	n/a	FLOOR	Building	2	14	[0, 0, 0]	n/a	catFR1	0	R1056M
2051.583	1.974	1401355	REC_WORD	8.117	n/a	WALL	Building	7	14	[0, 0, 0]	n/a	catFR1	0	R1056M
2053.557	1.811	1402342	REC_WORD	10.091	n/a	HALLWAY	Building	8	14	[0, 0, 0]	n/a	catFR1	0	R1056M
2055.368	0.925	1403247	REC_WORD	11.902	n/a	KNEE	BodyParts	5	14	[0, 0, 0]	n/a	catFR1	0	R1056M
2056.293	4.356	1403710	REC_WORD	12.827	n/a	ARM	BodyParts	6	14	[0, 0, 0]	n/a	catFR1	0	R1056M
2060.649	3.216	1405888	REC_WORD	17.183	n/a	ELBOW	BodyParts	9	14	[0, 0, 0]	n/a	catFR1	0	R1056M
2063.865	9.611	1407495	REC_WORD	20.399	n/a	FINGERS	BodyParts	10	14	[0, 0, 0]	n/a	catFR1	0	R1056M
2073.476	27.383	1412300	REC_END	n/a	n/a	n/a	n/a	-999	14	[0, 0, 0]	n/a	catFR1	0	R1056M
2100.859	0.0	1425990	TRIAL	n/a	n/a	n/a	n/a	-999	15	[0, 0, 0]	n/a	catFR1	0	R1056M
2100.859	10.428	1425990	COUNTDOWN_START	n/a	n/a	n/a	n/a	-999	15	[0, 0, 0]	n/a	catFR1	0	R1056M
2111.287	0.008	1431204	COUNTDOWN_END	n/a	n/a	n/a	n/a	-999	15	[0, 0, 0]	n/a	catFR1	0	R1056M
2111.295	3.4	1431208	ORIENT	n/a	n/a	n/a	n/a	-999	15	[0, 0, 0]	n/a	catFR1	0	R1056M
2114.695	2.618	1432908	WORD	n/a	wordpools/wordpool_categorized_EN.txt	LILAC	Flowers	1	15	[0, 0, 0]	n/a	catFR1	0	R1056M
2117.313	2.383	1434217	WORD	n/a	wordpools/wordpool_categorized_EN.txt	MARIGOLD	Flowers	2	15	[0, 0, 0]	n/a	catFR1	0	R1056M
2119.696	2.385	1435408	WORD	n/a	wordpools/wordpool_categorized_EN.txt	JEEP	Vehicles	3	15	[0, 0, 0]	n/a	catFR1	0	R1056M
2122.081	2.549	1436600	WORD	n/a	wordpools/wordpool_categorized_EN.txt	TRAIN	Vehicles	4	15	[0, 0, 0]	n/a	catFR1	0	R1056M
2124.63	2.434	1437875	WORD	n/a	wordpools/wordpool_categorized_EN.txt	MONKEY	Zoo	5	15	[0, 0, 0]	n/a	catFR1	0	R1056M
2127.064	2.434	1439092	WORD	n/a	wordpools/wordpool_categorized_EN.txt	LION	Zoo	6	15	[0, 0, 0]	n/a	catFR1	0	R1056M
2129.498	2.383	1440308	WORD	n/a	wordpools/wordpool_categorized_EN.txt	MOPED	Vehicles	7	15	[0, 0, 0]	n/a	catFR1	0	R1056M
2131.881	2.435	1441500	WORD	n/a	wordpools/wordpool_categorized_EN.txt	CAR	Vehicles	8	15	[0, 0, 0]	n/a	catFR1	0	R1056M
2134.316	2.383	1442717	WORD	n/a	wordpools/wordpool_categorized_EN.txt	ORCHID	Flowers	9	15	[0, 0, 0]	n/a	catFR1	0	R1056M
2136.699	2.602	1443909	WORD	n/a	wordpools/wordpool_categorized_EN.txt	DAFFODIL	Flowers	10	15	[0, 0, 0]	n/a	catFR1	0	R1056M
2139.301	2.466	1445209	WORD	n/a	wordpools/wordpool_categorized_EN.txt	CHIMPANZEE	Zoo	11	15	[0, 0, 0]	n/a	catFR1	0	R1056M
2141.767	1.618	1446442	WORD	n/a	wordpools/wordpool_categorized_EN.txt	GIRAFFE	Zoo	12	15	[0, 0, 0]	n/a	catFR1	0	R1056M
2143.385	0.001	1447251	DISTRACT_START	n/a	n/a	n/a	n/a	-999	15	[0, 0, 0]	n/a	catFR1	0	R1056M
2143.386	0.015	1447252	START	n/a	n/a	n/a	n/a	-999	15	[-999, -999, -999]	n/a	catFR1	0	R1056M
2143.401	4.901	1447259	PROB	4.869	n/a	n/a	n/a	-999	15	[4, 5, 7]	16.0	catFR1	0	R1056M
2148.302	2.583	1449710	PROB	2.559	n/a	n/a	n/a	-999	15	[7, 6, 1]	14.0	catFR1	0	R1056M
2150.885	2.667	1451001	PROB	2.632	n/a	n/a	n/a	-999	15	[6, 7, 4]	17.0	catFR1	0	R1056M
2153.552	1.852	1452334	PROB	1.822	n/a	n/a	n/a	-999	15	[4, 4, 8]	16.0	catFR1	0	R1056M
2155.404	1.7	1453260	PROB	1.673	n/a	n/a	n/a	-999	15	[6, 1, 1]	8.0	catFR1	0	R1056M
2157.104	1.949	1454110	PROB	1.917	n/a	n/a	n/a	-999	15	[2, 4, 8]	14.0	catFR1	0	R1056M
2159.053	1.967	1455084	PROB	1.936	n/a	n/a	n/a	-999	15	[6, 6, 7]	19.0	catFR1	0	R1056M
2161.02	1.934	1456068	PROB	1.905	n/a	n/a	n/a	-999	15	[6, 3, 6]	15.0	catFR1	0	R1056M
2162.954	2.115	1457035	PROB	2.115	n/a	n/a	n/a	-999	15	[2, 6, 9]	17.0	catFR1	0	R1056M
2165.069	0.02	1458092	STOP	n/a	n/a	n/a	n/a	-999	15	[-999, -999, -999]	n/a	catFR1	0	R1056M
2165.089	1.201	1458102	DISTRACT_END	n/a	n/a	n/a	n/a	-999	15	[0, 0, 0]	n/a	catFR1	0	R1056M
2166.29	1.21	1458703	REC_START	n/a	n/a	n/a	n/a	-999	15	[0, 0, 0]	n/a	catFR1	0	R1056M
2167.5	0.518	1459308	REC_WORD	1.21	n/a	MONKEY	Zoo	5	15	[0, 0, 0]	n/a	catFR1	0	R1056M
2168.018	1.142	1459566	REC_WORD	1.728	n/a	CHIMPANZEE	Zoo	11	15	[0, 0, 0]	n/a	catFR1	0	R1056M
2169.16	1.767	1460137	REC_WORD	2.87	n/a	GIRAFFE	Zoo	12	15	[0, 0, 0]	n/a	catFR1	0	R1056M
2170.927	0.641	1461021	REC_WORD	4.637	n/a	MARIGOLD	Flowers	2	15	[0, 0, 0]	n/a	catFR1	0	R1056M
2171.568	6.88	1461341	REC_WORD	5.278	n/a	LILAC	Flowers	1	15	[0, 0, 0]	n/a	catFR1	0	R1056M
2178.448	1.258	1464781	REC_WORD	12.158	n/a	JEEP	Vehicles	3	15	[0, 0, 0]	n/a	catFR1	0	R1056M
2179.706	12.98	1465410	REC_WORD	13.416	n/a	TRAIN	Vehicles	4	15	[0, 0, 0]	n/a	catFR1	0	R1056M
2192.686	3.614	1471899	REC_WORD	26.396	n/a	DAFFODIL	Flowers	10	15	[0, 0, 0]	n/a	catFR1	0	R1056M
2196.3	97.763	1473706	REC_END	n/a	n/a	n/a	n/a	-999	15	[0, 0, 0]	n/a	catFR1	0	R1056M
2294.063	0.0	1522583	TRIAL	n/a	n/a	n/a	n/a	-999	16	[0, 0, 0]	n/a	catFR1	0	R1056M
2294.063	0.0	1522583	COUNTDOWN_START	n/a	n/a	n/a	n/a	-999	16	[0, 0, 0]	n/a	catFR1	0	R1056M
