onset	duration	sample	trial_type	response_time	stim_file	item_name	category	serialpos	list	test	answer	experiment	session	subject
0.0	1.316	19825	INSTRUCT_START	n/a	n/a	n/a	n/a	-999	-999	[0, 0, 0]	n/a	catFR1	2	R1655S
1.316	35.295	21133	INSTRUCT_END	n/a	n/a	n/a	n/a	-999	-999	[0, 0, 0]	n/a	catFR1	2	R1655S
36.611	10.355	56428	COUNTDOWN_START	n/a	n/a	n/a	n/a	-999	-999	[0, 0, 0]	n/a	catFR1	2	R1655S
46.966	0.001	66794	COUNTDOWN_END	n/a	n/a	n/a	n/a	-999	-999	[0, 0, 0]	n/a	catFR1	2	R1655S
46.967	2.075	66794	ENCODING_START	n/a	n/a	n/a	n/a	-999	-1	[0, 0, 0]	n/a	catFR1	2	R1655S
49.042	1.604	68864	WORD	n/a	n/a	WALNUT	Trees	1	-1	[0, 0, 0]	n/a	catFR1	2	R1655S
50.646	0.764	70475	WORD_OFF	n/a	n/a	WALNUT	Trees	1	-1	[0, 0, 0]	n/a	catFR1	2	R1655S
51.41	1.602	71237	WORD	n/a	n/a	WILLOW	Trees	2	-1	[0, 0, 0]	n/a	catFR1	2	R1655S
53.012	0.951	72832	WORD_OFF	n/a	n/a	WILLOW	Trees	2	-1	[0, 0, 0]	n/a	catFR1	2	R1655S
53.963	1.606	73781	WORD	n/a	n/a	BANJO	Instruments	3	-1	[0, 0, 0]	n/a	catFR1	2	R1655S
55.569	0.993	75391	WORD_OFF	n/a	n/a	BANJO	Instruments	3	-1	[0, 0, 0]	n/a	catFR1	2	R1655S
56.562	1.6	76383	WORD	n/a	n/a	TUBA	Instruments	4	-1	[0, 0, 0]	n/a	catFR1	2	R1655S
58.162	0.757	77994	WORD_OFF	n/a	n/a	TUBA	Instruments	4	-1	[0, 0, 0]	n/a	catFR1	2	R1655S
58.919	1.615	78741	WORD	n/a	n/a	ROBIN	Birds	5	-1	[0, 0, 0]	n/a	catFR1	2	R1655S
60.534	0.853	80351	WORD_OFF	n/a	n/a	ROBIN	Birds	5	-1	[0, 0, 0]	n/a	catFR1	2	R1655S
61.387	1.608	81214	WORD	n/a	n/a	PIGEON	Birds	6	-1	[0, 0, 0]	n/a	catFR1	2	R1655S
62.995	0.942	82824	WORD_OFF	n/a	n/a	PIGEON	Birds	6	-1	[0, 0, 0]	n/a	catFR1	2	R1655S
63.937	1.607	83759	WORD	n/a	n/a	GUITAR	Instruments	7	-1	[0, 0, 0]	n/a	catFR1	2	R1655S
65.544	0.943	85369	WORD_OFF	n/a	n/a	GUITAR	Instruments	7	-1	[0, 0, 0]	n/a	catFR1	2	R1655S
66.487	1.607	86303	WORD	n/a	n/a	DRUM	Instruments	8	-1	[0, 0, 0]	n/a	catFR1	2	R1655S
68.094	0.975	87914	WORD_OFF	n/a	n/a	DRUM	Instruments	8	-1	[0, 0, 0]	n/a	catFR1	2	R1655S
69.069	1.601	88891	WORD	n/a	n/a	DOVE	Birds	9	-1	[0, 0, 0]	n/a	catFR1	2	R1655S
70.67	0.849	90487	WORD_OFF	n/a	n/a	DOVE	Birds	9	-1	[0, 0, 0]	n/a	catFR1	2	R1655S
71.519	1.601	91350	WORD	n/a	n/a	SPARROW	Birds	10	-1	[0, 0, 0]	n/a	catFR1	2	R1655S
73.12	0.984	92946	WORD_OFF	n/a	n/a	SPARROW	Birds	10	-1	[0, 0, 0]	n/a	catFR1	2	R1655S
74.104	1.607	93923	WORD	n/a	n/a	CEDAR	Trees	11	-1	[0, 0, 0]	n/a	catFR1	2	R1655S
75.711	0.909	95533	WORD_OFF	n/a	n/a	CEDAR	Trees	11	-1	[0, 0, 0]	n/a	catFR1	2	R1655S
76.62	1.604	96439	WORD	n/a	n/a	ELM	Trees	12	-1	[0, 0, 0]	n/a	catFR1	2	R1655S
78.224	0.003	98044	START	n/a	n/a	n/a	n/a	-999	-1	[-999, -999, -999]	n/a	catFR1	2	R1655S
78.227	0.0	98047	PROB	0.0	n/a	n/a	n/a	-999	-1	[4, 4, 1]	9	catFR1	2	R1655S
78.22	0.003	98049	WORD_OFF	n/a	n/a	ELM	Trees	12	-1	[0, 0, 0]	n/a	catFR1	2	R1655S
78.223	0.001	98049	ENCODING_END	n/a	n/a	n/a	n/a	-999	-1	[0, 0, 0]	n/a	catFR1	2	R1655S
78.224	4.713	98049	DISTRACT_START	n/a	n/a	n/a	n/a	-999	-1	[0, 0, 0]	n/a	catFR1	2	R1655S
82.937	4.725	102757	PROB	4.725	n/a	n/a	n/a	-999	-1	[8, 7, 4]	19	catFR1	2	R1655S
87.662	4.36	107482	PROB	4.36	n/a	n/a	n/a	-999	-1	[8, 8, 1]	17	catFR1	2	R1655S
92.022	3.832	111842	PROB	3.832	n/a	n/a	n/a	-999	-1	[6, 8, 2]	16	catFR1	2	R1655S
95.854	3.759	115674	PROB	3.759	n/a	n/a	n/a	-999	-1	[7, 4, 2]	13	catFR1	2	R1655S
99.613	0.0	119433	STOP	n/a	n/a	n/a	n/a	-999	-1	[-999, -999, -999]	n/a	catFR1	2	R1655S
99.613	2.217	119442	DISTRACT_END	n/a	n/a	n/a	n/a	-999	-1	[0, 0, 0]	n/a	catFR1	2	R1655S
101.83	0.456	121656	REC_START	n/a	n/a	n/a	n/a	-999	-1	[0, 0, 0]	n/a	catFR1	2	R1655S
102.286	1.344	122106	REC_WORD_VV	1.344	n/a	<>	n/a	-999	-1	[0, 0, 0]	n/a	catFR1	2	R1655S
103.63	0.955	123450	REC_WORD	0.955	n/a	WALNUT	Trees	1	-1	[0, 0, 0]	n/a	catFR1	2	R1655S
104.585	1.796	124405	REC_WORD	1.796	n/a	WILLOW	Trees	2	-1	[0, 0, 0]	n/a	catFR1	2	R1655S
106.381	1.018	126201	REC_WORD_VV	1.018	n/a	<>	n/a	-999	-1	[0, 0, 0]	n/a	catFR1	2	R1655S
107.399	0.895	127219	REC_WORD_VV	0.895	n/a	<>	n/a	-999	-1	[0, 0, 0]	n/a	catFR1	2	R1655S
108.294	6.448	128114	REC_WORD	6.448	n/a	TRUMPET	n/a	-999	-1	[0, 0, 0]	n/a	catFR1	2	R1655S
114.742	1.805	134562	REC_WORD	1.805	n/a	KNIFE	n/a	-999	-1	[0, 0, 0]	n/a	catFR1	2	R1655S
116.547	15.428	136367	REC_WORD_VV	15.428	n/a	<>	n/a	-999	-1	[0, 0, 0]	n/a	catFR1	2	R1655S
131.975	7.602	151804	REC_END	n/a	n/a	n/a	n/a	-999	-1	[0, 0, 0]	n/a	catFR1	2	R1655S
139.577	10.343	159409	COUNTDOWN_START	n/a	n/a	n/a	n/a	-999	1	[0, 0, 0]	n/a	catFR1	2	R1655S
149.92	0.0	169746	COUNTDOWN_END	n/a	n/a	n/a	n/a	-999	1	[0, 0, 0]	n/a	catFR1	2	R1655S
149.92	2.219	169746	ENCODING_START	n/a	n/a	n/a	n/a	-999	1	[0, 0, 0]	n/a	catFR1	2	R1655S
152.139	1.598	171960	WORD	n/a	wordpools/wordpool_categorized_EN.txt	ERASER	OfficeSupplies	1	1	[0, 0, 0]	n/a	catFR1	2	R1655S
153.737	0.824	173556	WORD_OFF	n/a	n/a	ERASER	OfficeSupplies	1	1	[0, 0, 0]	n/a	catFR1	2	R1655S
154.561	1.601	174390	WORD	n/a	wordpools/wordpool_categorized_EN.txt	PAPER	OfficeSupplies	2	1	[0, 0, 0]	n/a	catFR1	2	R1655S
156.162	0.758	175986	WORD_OFF	n/a	n/a	PAPER	OfficeSupplies	2	1	[0, 0, 0]	n/a	catFR1	2	R1655S
156.92	1.609	176748	WORD	n/a	wordpools/wordpool_categorized_EN.txt	ORCHID	Flowers	3	1	[0, 0, 0]	n/a	catFR1	2	R1655S
158.529	0.974	178358	WORD_OFF	n/a	n/a	ORCHID	Flowers	3	1	[0, 0, 0]	n/a	catFR1	2	R1655S
159.503	1.601	179321	WORD	n/a	wordpools/wordpool_categorized_EN.txt	DAISY	Flowers	4	1	[0, 0, 0]	n/a	catFR1	2	R1655S
161.104	0.874	180932	WORD_OFF	n/a	n/a	DAISY	Flowers	4	1	[0, 0, 0]	n/a	catFR1	2	R1655S
161.978	1.6	181808	WORD	n/a	wordpools/wordpool_categorized_EN.txt	KNIFE	KitchenTools	5	1	[0, 0, 0]	n/a	catFR1	2	R1655S
163.578	0.893	183404	WORD_OFF	n/a	n/a	KNIFE	KitchenTools	5	1	[0, 0, 0]	n/a	catFR1	2	R1655S
164.471	1.607	184296	WORD	n/a	wordpools/wordpool_categorized_EN.txt	PEELER	KitchenTools	6	1	[0, 0, 0]	n/a	catFR1	2	R1655S
166.078	0.759	185906	WORD_OFF	n/a	n/a	PEELER	KitchenTools	6	1	[0, 0, 0]	n/a	catFR1	2	R1655S
166.837	1.6	186653	WORD	n/a	wordpools/wordpool_categorized_EN.txt	DAFFODIL	Flowers	7	1	[0, 0, 0]	n/a	catFR1	2	R1655S
168.437	0.95	188264	WORD_OFF	n/a	n/a	DAFFODIL	Flowers	7	1	[0, 0, 0]	n/a	catFR1	2	R1655S
169.387	1.6	189213	WORD	n/a	wordpools/wordpool_categorized_EN.txt	ROSE	Flowers	8	1	[0, 0, 0]	n/a	catFR1	2	R1655S
170.987	0.808	190808	WORD_OFF	n/a	n/a	ROSE	Flowers	8	1	[0, 0, 0]	n/a	catFR1	2	R1655S
171.795	1.609	191613	WORD	n/a	wordpools/wordpool_categorized_EN.txt	LADLE	KitchenTools	9	1	[0, 0, 0]	n/a	catFR1	2	R1655S
173.404	0.965	193224	WORD_OFF	n/a	n/a	LADLE	KitchenTools	9	1	[0, 0, 0]	n/a	catFR1	2	R1655S
174.369	1.61	194187	WORD	n/a	wordpools/wordpool_categorized_EN.txt	SPOON	KitchenTools	10	1	[0, 0, 0]	n/a	catFR1	2	R1655S
175.979	0.848	195797	WORD_OFF	n/a	n/a	SPOON	KitchenTools	10	1	[0, 0, 0]	n/a	catFR1	2	R1655S
176.827	1.602	196645	WORD	n/a	wordpools/wordpool_categorized_EN.txt	BINDER	OfficeSupplies	11	1	[0, 0, 0]	n/a	catFR1	2	R1655S
178.429	0.99	198256	WORD_OFF	n/a	n/a	BINDER	OfficeSupplies	11	1	[0, 0, 0]	n/a	catFR1	2	R1655S
179.419	1.603	199248	WORD	n/a	wordpools/wordpool_categorized_EN.txt	PEN	OfficeSupplies	12	1	[0, 0, 0]	n/a	catFR1	2	R1655S
181.022	0.0	200842	PROB	0.0	n/a	n/a	n/a	-999	1	[6, 6, 8]	20	catFR1	2	R1655S
181.021	0.006	200843	WORD_OFF	n/a	n/a	PEN	OfficeSupplies	12	1	[0, 0, 0]	n/a	catFR1	2	R1655S
181.027	0.0	200843	ENCODING_END	n/a	n/a	n/a	n/a	-999	1	[0, 0, 0]	n/a	catFR1	2	R1655S
181.027	0.0	200847	START	n/a	n/a	n/a	n/a	-999	1	[-999, -999, -999]	n/a	catFR1	2	R1655S
181.027	5.544	200858	DISTRACT_START	n/a	n/a	n/a	n/a	-999	1	[0, 0, 0]	n/a	catFR1	2	R1655S
186.571	4.282	206391	PROB	4.282	n/a	n/a	n/a	-999	1	[3, 3, 6]	15	catFR1	2	R1655S
190.853	5.842	210673	PROB	5.842	n/a	n/a	n/a	-999	1	[7, 3, 8]	18	catFR1	2	R1655S
196.695	6.982	216515	PROB	6.982	n/a	n/a	n/a	-999	1	[4, 5, 8]	17	catFR1	2	R1655S
203.677	0.0	223497	STOP	n/a	n/a	n/a	n/a	-999	1	[-999, -999, -999]	n/a	catFR1	2	R1655S
203.677	2.261	223501	DISTRACT_END	n/a	n/a	n/a	n/a	-999	1	[0, 0, 0]	n/a	catFR1	2	R1655S
205.938	1.191	225758	REC_START	n/a	n/a	n/a	n/a	-999	1	[0, 0, 0]	n/a	catFR1	2	R1655S
207.129	2.0	226949	REC_WORD_VV	2.0	n/a	<>	n/a	-999	1	[0, 0, 0]	n/a	catFR1	2	R1655S
209.129	6.451	228949	REC_WORD_VV	6.451	n/a	<>	n/a	-999	1	[0, 0, 0]	n/a	catFR1	2	R1655S
215.58	20.503	235400	REC_WORD_VV	20.503	n/a	<>	n/a	-999	1	[0, 0, 0]	n/a	catFR1	2	R1655S
236.083	2.01	255907	REC_END	n/a	n/a	n/a	n/a	-999	1	[0, 0, 0]	n/a	catFR1	2	R1655S
238.093	10.344	257919	COUNTDOWN_START	n/a	n/a	n/a	n/a	-999	1	[0, 0, 0]	n/a	catFR1	2	R1655S
248.437	0.0	268256	COUNTDOWN_END	n/a	n/a	n/a	n/a	-999	1	[0, 0, 0]	n/a	catFR1	2	R1655S
248.437	1.925	268256	ENCODING_START	n/a	n/a	n/a	n/a	-999	2	[0, 0, 0]	n/a	catFR1	2	R1655S
250.362	1.608	270183	WORD	n/a	wordpools/wordpool_categorized_EN.txt	HEADPHONES	Electronics	1	2	[0, 0, 0]	n/a	catFR1	2	R1655S
251.97	0.783	271793	WORD_OFF	n/a	n/a	HEADPHONES	Electronics	1	2	[0, 0, 0]	n/a	catFR1	2	R1655S
252.753	1.607	272584	WORD	n/a	wordpools/wordpool_categorized_EN.txt	TELEVISION	Electronics	2	2	[0, 0, 0]	n/a	catFR1	2	R1655S
254.36	0.985	274179	WORD_OFF	n/a	n/a	TELEVISION	Electronics	2	2	[0, 0, 0]	n/a	catFR1	2	R1655S
255.345	1.6	275171	WORD	n/a	wordpools/wordpool_categorized_EN.txt	FOOTBALL	Toys	3	2	[0, 0, 0]	n/a	catFR1	2	R1655S
256.945	0.809	276767	WORD_OFF	n/a	n/a	FOOTBALL	Toys	3	2	[0, 0, 0]	n/a	catFR1	2	R1655S
257.754	1.607	277572	WORD	n/a	wordpools/wordpool_categorized_EN.txt	DOLLHOUSE	Toys	4	2	[0, 0, 0]	n/a	catFR1	2	R1655S
259.361	0.8	279183	WORD_OFF	n/a	n/a	DOLLHOUSE	Toys	4	2	[0, 0, 0]	n/a	catFR1	2	R1655S
260.161	1.6	279988	WORD	n/a	wordpools/wordpool_categorized_EN.txt	HAND	BodyParts	5	2	[0, 0, 0]	n/a	catFR1	2	R1655S
261.761	0.9	281584	WORD_OFF	n/a	n/a	HAND	BodyParts	5	2	[0, 0, 0]	n/a	catFR1	2	R1655S
262.661	1.6	282489	WORD	n/a	wordpools/wordpool_categorized_EN.txt	EAR	BodyParts	6	2	[0, 0, 0]	n/a	catFR1	2	R1655S
264.261	0.841	284085	WORD_OFF	n/a	n/a	EAR	BodyParts	6	2	[0, 0, 0]	n/a	catFR1	2	R1655S
265.102	1.601	284919	WORD	n/a	wordpools/wordpool_categorized_EN.txt	BALL	Toys	7	2	[0, 0, 0]	n/a	catFR1	2	R1655S
266.703	0.842	286529	WORD_OFF	n/a	n/a	BALL	Toys	7	2	[0, 0, 0]	n/a	catFR1	2	R1655S
267.545	1.608	287363	WORD	n/a	wordpools/wordpool_categorized_EN.txt	SLINKY	Toys	8	2	[0, 0, 0]	n/a	catFR1	2	R1655S
269.153	0.943	288973	WORD_OFF	n/a	n/a	SLINKY	Toys	8	2	[0, 0, 0]	n/a	catFR1	2	R1655S
270.096	1.607	289922	WORD	n/a	wordpools/wordpool_categorized_EN.txt	FOOT	BodyParts	9	2	[0, 0, 0]	n/a	catFR1	2	R1655S
271.703	0.866	291532	WORD_OFF	n/a	n/a	FOOT	BodyParts	9	2	[0, 0, 0]	n/a	catFR1	2	R1655S
272.569	1.617	292395	WORD	n/a	wordpools/wordpool_categorized_EN.txt	KNEE	BodyParts	10	2	[0, 0, 0]	n/a	catFR1	2	R1655S
274.186	0.866	294005	WORD_OFF	n/a	n/a	KNEE	BodyParts	10	2	[0, 0, 0]	n/a	catFR1	2	R1655S
275.052	1.61	294868	WORD	n/a	wordpools/wordpool_categorized_EN.txt	COMPUTER	Electronics	11	2	[0, 0, 0]	n/a	catFR1	2	R1655S
276.662	0.898	296492	WORD_OFF	n/a	n/a	COMPUTER	Electronics	11	2	[0, 0, 0]	n/a	catFR1	2	R1655S
277.56	1.6	297384	WORD	n/a	wordpools/wordpool_categorized_EN.txt	SPEAKER	Electronics	12	2	[0, 0, 0]	n/a	catFR1	2	R1655S
279.16	0.002	298979	WORD_OFF	n/a	n/a	SPEAKER	Electronics	12	2	[0, 0, 0]	n/a	catFR1	2	R1655S
279.162	0.0	298979	ENCODING_END	n/a	n/a	n/a	n/a	-999	2	[0, 0, 0]	n/a	catFR1	2	R1655S
279.162	0.0	298979	DISTRACT_START	n/a	n/a	n/a	n/a	-999	2	[0, 0, 0]	n/a	catFR1	2	R1655S
279.161	0.001	298981	PROB	0.001	n/a	n/a	n/a	-999	2	[1, 7, 2]	10	catFR1	2	R1655S
279.162	4.708	298982	START	n/a	n/a	n/a	n/a	-999	2	[-999, -999, -999]	n/a	catFR1	2	R1655S
283.87	4.492	303690	PROB	4.492	n/a	n/a	n/a	-999	2	[3, 5, 5]	13	catFR1	2	R1655S
288.362	3.932	308182	PROB	3.932	n/a	n/a	n/a	-999	2	[7, 8, 2]	17	catFR1	2	R1655S
292.294	3.094	312114	PROB	3.094	n/a	n/a	n/a	-999	2	[4, 6, 3]	13	catFR1	2	R1655S
295.388	4.014	315208	PROB	4.014	n/a	n/a	n/a	-999	2	[5, 1, 3]	9	catFR1	2	R1655S
299.402	0.0	319222	DISTRACT_END	n/a	n/a	n/a	n/a	-999	2	[0, 0, 0]	n/a	catFR1	2	R1655S
299.402	2.285	319222	STOP	n/a	n/a	n/a	n/a	-999	2	[-999, -999, -999]	n/a	catFR1	2	R1655S
301.687	0.915	321508	REC_START	n/a	n/a	n/a	n/a	-999	2	[0, 0, 0]	n/a	catFR1	2	R1655S
302.602	0.951	322422	REC_WORD_VV	0.951	n/a	<>	n/a	-999	2	[0, 0, 0]	n/a	catFR1	2	R1655S
303.553	2.262	323373	REC_WORD	2.262	n/a	FOOTBALL	Toys	3	2	[0, 0, 0]	n/a	catFR1	2	R1655S
305.815	2.77	325635	REC_WORD	2.77	n/a	TELEVISION	Electronics	2	2	[0, 0, 0]	n/a	catFR1	2	R1655S
308.585	0.59	328405	REC_WORD_VV	0.59	n/a	<>	n/a	-999	2	[0, 0, 0]	n/a	catFR1	2	R1655S
309.175	22.654	328995	REC_WORD	22.654	n/a	COMPUTER	Electronics	11	2	[0, 0, 0]	n/a	catFR1	2	R1655S
331.829	1.923	351656	REC_END	n/a	n/a	n/a	n/a	-999	2	[0, 0, 0]	n/a	catFR1	2	R1655S
333.752	10.343	353583	COUNTDOWN_START	n/a	n/a	n/a	n/a	-999	2	[0, 0, 0]	n/a	catFR1	2	R1655S
344.095	0.0	363919	COUNTDOWN_END	n/a	n/a	n/a	n/a	-999	2	[0, 0, 0]	n/a	catFR1	2	R1655S
344.095	2.15	363919	ENCODING_START	n/a	n/a	n/a	n/a	-999	3	[0, 0, 0]	n/a	catFR1	2	R1655S
346.245	1.607	366076	WORD	n/a	wordpools/wordpool_categorized_EN.txt	BOOKCASE	Furniture	1	3	[0, 0, 0]	n/a	catFR1	2	R1655S
347.852	0.968	367672	WORD_OFF	n/a	n/a	BOOKCASE	Furniture	1	3	[0, 0, 0]	n/a	catFR1	2	R1655S
348.82	1.6	368649	WORD	n/a	wordpools/wordpool_categorized_EN.txt	COUCH	Furniture	2	3	[0, 0, 0]	n/a	catFR1	2	R1655S
350.42	0.8	370245	WORD_OFF	n/a	n/a	COUCH	Furniture	2	3	[0, 0, 0]	n/a	catFR1	2	R1655S
351.22	1.609	371050	WORD	n/a	wordpools/wordpool_categorized_EN.txt	ZEBRA	Zoo	3	3	[0, 0, 0]	n/a	catFR1	2	R1655S
352.829	0.909	372646	WORD_OFF	n/a	n/a	ZEBRA	Zoo	3	3	[0, 0, 0]	n/a	catFR1	2	R1655S
353.738	1.607	373566	WORD	n/a	wordpools/wordpool_categorized_EN.txt	ORANGUTAN	Zoo	4	3	[0, 0, 0]	n/a	catFR1	2	R1655S
355.345	0.76	375162	WORD_OFF	n/a	n/a	ORANGUTAN	Zoo	4	3	[0, 0, 0]	n/a	catFR1	2	R1655S
356.105	1.605	375924	WORD	n/a	wordpools/wordpool_categorized_EN.txt	BEE	Insects	5	3	[0, 0, 0]	n/a	catFR1	2	R1655S
357.71	0.767	377534	WORD_OFF	n/a	n/a	BEE	Insects	5	3	[0, 0, 0]	n/a	catFR1	2	R1655S
358.477	1.6	378296	WORD	n/a	wordpools/wordpool_categorized_EN.txt	LADYBUG	Insects	6	3	[0, 0, 0]	n/a	catFR1	2	R1655S
360.077	0.935	379906	WORD_OFF	n/a	n/a	LADYBUG	Insects	6	3	[0, 0, 0]	n/a	catFR1	2	R1655S
361.012	1.606	380841	WORD	n/a	wordpools/wordpool_categorized_EN.txt	DESK	Furniture	7	3	[0, 0, 0]	n/a	catFR1	2	R1655S
362.618	0.777	382437	WORD_OFF	n/a	n/a	DESK	Furniture	7	3	[0, 0, 0]	n/a	catFR1	2	R1655S
363.395	1.599	383213	WORD	n/a	wordpools/wordpool_categorized_EN.txt	NIGHTSTAND	Furniture	8	3	[0, 0, 0]	n/a	catFR1	2	R1655S
364.994	0.969	384823	WORD_OFF	n/a	n/a	NIGHTSTAND	Furniture	8	3	[0, 0, 0]	n/a	catFR1	2	R1655S
365.963	1.607	385787	WORD	n/a	wordpools/wordpool_categorized_EN.txt	SPIDER	Insects	9	3	[0, 0, 0]	n/a	catFR1	2	R1655S
367.57	0.824	387397	WORD_OFF	n/a	n/a	SPIDER	Insects	9	3	[0, 0, 0]	n/a	catFR1	2	R1655S
368.394	1.601	388216	WORD	n/a	wordpools/wordpool_categorized_EN.txt	ROACH	Insects	10	3	[0, 0, 0]	n/a	catFR1	2	R1655S
369.995	0.757	389826	WORD_OFF	n/a	n/a	ROACH	Insects	10	3	[0, 0, 0]	n/a	catFR1	2	R1655S
370.752	1.6	390574	WORD	n/a	wordpools/wordpool_categorized_EN.txt	ELEPHANT	Zoo	11	3	[0, 0, 0]	n/a	catFR1	2	R1655S
372.352	0.861	392170	WORD_OFF	n/a	n/a	ELEPHANT	Zoo	11	3	[0, 0, 0]	n/a	catFR1	2	R1655S
373.213	1.606	393032	WORD	n/a	wordpools/wordpool_categorized_EN.txt	TIGER	Zoo	12	3	[0, 0, 0]	n/a	catFR1	2	R1655S
374.819	0.0	394639	PROB	0.0	n/a	n/a	n/a	-999	3	[8, 3, 3]	14	catFR1	2	R1655S
374.819	0.004	394643	WORD_OFF	n/a	n/a	TIGER	Zoo	12	3	[0, 0, 0]	n/a	catFR1	2	R1655S
374.823	0.0	394643	ENCODING_END	n/a	n/a	n/a	n/a	-999	3	[0, 0, 0]	n/a	catFR1	2	R1655S
374.823	0.0	394643	DISTRACT_START	n/a	n/a	n/a	n/a	-999	3	[0, 0, 0]	n/a	catFR1	2	R1655S
374.823	7.847	394643	START	n/a	n/a	n/a	n/a	-999	3	[-999, -999, -999]	n/a	catFR1	2	R1655S
382.67	5.099	402490	PROB	5.099	n/a	n/a	n/a	-999	3	[7, 5, 3]	15	catFR1	2	R1655S
387.769	3.585	407589	PROB	3.585	n/a	n/a	n/a	-999	3	[2, 8, 7]	17	catFR1	2	R1655S
391.354	7.506	411174	PROB	7.506	n/a	n/a	n/a	-999	3	[4, 4, 7]	15	catFR1	2	R1655S
398.86	0.0	418680	STOP	n/a	n/a	n/a	n/a	-999	3	[-999, -999, -999]	n/a	catFR1	2	R1655S
398.86	2.035	418681	DISTRACT_END	n/a	n/a	n/a	n/a	-999	3	[0, 0, 0]	n/a	catFR1	2	R1655S
400.895	2.683	420722	REC_START	n/a	n/a	n/a	n/a	-999	3	[0, 0, 0]	n/a	catFR1	2	R1655S
403.578	1.695	423398	REC_WORD_VV	1.695	n/a	<>	n/a	-999	3	[0, 0, 0]	n/a	catFR1	2	R1655S
405.273	2.269	425093	REC_WORD	2.269	n/a	SPIDER	Insects	9	3	[0, 0, 0]	n/a	catFR1	2	R1655S
407.542	4.516	427362	REC_WORD_VV	4.516	n/a	<>	n/a	-999	3	[0, 0, 0]	n/a	catFR1	2	R1655S
412.058	5.65	431878	REC_WORD	5.65	n/a	KNIFE	KitchenTools	-999	3	[0, 0, 0]	n/a	catFR1	2	R1655S
417.708	13.33	437528	REC_WORD	13.33	n/a	ROACH	Insects	10	3	[0, 0, 0]	n/a	catFR1	2	R1655S
431.038	2.023	450856	REC_END	n/a	n/a	n/a	n/a	-999	3	[0, 0, 0]	n/a	catFR1	2	R1655S
433.061	10.342	452883	COUNTDOWN_START	n/a	n/a	n/a	n/a	-999	3	[0, 0, 0]	n/a	catFR1	2	R1655S
443.403	0.001	463220	COUNTDOWN_END	n/a	n/a	n/a	n/a	-999	3	[0, 0, 0]	n/a	catFR1	2	R1655S
443.404	1.875	463234	ENCODING_START	n/a	n/a	n/a	n/a	-999	4	[0, 0, 0]	n/a	catFR1	2	R1655S
445.279	1.606	465103	WORD	n/a	wordpools/wordpool_categorized_EN.txt	ROOSTER	FarmAnimals	1	4	[0, 0, 0]	n/a	catFR1	2	R1655S
446.885	0.819	466714	WORD_OFF	n/a	n/a	ROOSTER	FarmAnimals	1	4	[0, 0, 0]	n/a	catFR1	2	R1655S
447.704	1.606	467533	WORD	n/a	wordpools/wordpool_categorized_EN.txt	HORSE	FarmAnimals	2	4	[0, 0, 0]	n/a	catFR1	2	R1655S
449.31	0.969	469129	WORD_OFF	n/a	n/a	HORSE	FarmAnimals	2	4	[0, 0, 0]	n/a	catFR1	2	R1655S
450.279	1.608	470106	WORD	n/a	wordpools/wordpool_categorized_EN.txt	TURTLE	OceanAnimals	3	4	[0, 0, 0]	n/a	catFR1	2	R1655S
451.887	0.973	471717	WORD_OFF	n/a	n/a	TURTLE	OceanAnimals	3	4	[0, 0, 0]	n/a	catFR1	2	R1655S
452.86	1.601	472680	WORD	n/a	wordpools/wordpool_categorized_EN.txt	SQUID	OceanAnimals	4	4	[0, 0, 0]	n/a	catFR1	2	R1655S
454.461	0.841	474290	WORD_OFF	n/a	n/a	SQUID	OceanAnimals	4	4	[0, 0, 0]	n/a	catFR1	2	R1655S
455.302	1.601	475124	WORD	n/a	wordpools/wordpool_categorized_EN.txt	JEEP	Vehicles	5	4	[0, 0, 0]	n/a	catFR1	2	R1655S
456.903	0.992	476720	WORD_OFF	n/a	n/a	JEEP	Vehicles	5	4	[0, 0, 0]	n/a	catFR1	2	R1655S
457.895	1.609	477712	WORD	n/a	wordpools/wordpool_categorized_EN.txt	TRUCK	Vehicles	6	4	[0, 0, 0]	n/a	catFR1	2	R1655S
459.504	0.824	479336	WORD_OFF	n/a	n/a	TRUCK	Vehicles	6	4	[0, 0, 0]	n/a	catFR1	2	R1655S
460.328	1.599	480156	WORD	n/a	wordpools/wordpool_categorized_EN.txt	CRAB	OceanAnimals	7	4	[0, 0, 0]	n/a	catFR1	2	R1655S
461.927	0.959	481752	WORD_OFF	n/a	n/a	CRAB	OceanAnimals	7	4	[0, 0, 0]	n/a	catFR1	2	R1655S
462.886	1.6	482715	WORD	n/a	wordpools/wordpool_categorized_EN.txt	JELLYFISH	OceanAnimals	8	4	[0, 0, 0]	n/a	catFR1	2	R1655S
464.486	0.85	484311	WORD_OFF	n/a	n/a	JELLYFISH	OceanAnimals	8	4	[0, 0, 0]	n/a	catFR1	2	R1655S
465.336	1.6	485159	WORD	n/a	wordpools/wordpool_categorized_EN.txt	GOAT	FarmAnimals	9	4	[0, 0, 0]	n/a	catFR1	2	R1655S
466.936	0.844	486755	WORD_OFF	n/a	n/a	GOAT	FarmAnimals	9	4	[0, 0, 0]	n/a	catFR1	2	R1655S
467.78	1.606	487603	WORD	n/a	wordpools/wordpool_categorized_EN.txt	CHICKEN	FarmAnimals	10	4	[0, 0, 0]	n/a	catFR1	2	R1655S
469.386	0.832	489213	WORD_OFF	n/a	n/a	CHICKEN	FarmAnimals	10	4	[0, 0, 0]	n/a	catFR1	2	R1655S
470.218	1.6	490047	WORD	n/a	wordpools/wordpool_categorized_EN.txt	BIKE	Vehicles	11	4	[0, 0, 0]	n/a	catFR1	2	R1655S
471.818	0.91	491643	WORD_OFF	n/a	n/a	BIKE	Vehicles	11	4	[0, 0, 0]	n/a	catFR1	2	R1655S
472.728	1.602	492549	WORD	n/a	wordpools/wordpool_categorized_EN.txt	MOPED	Vehicles	12	4	[0, 0, 0]	n/a	catFR1	2	R1655S
474.33	0.003	494150	PROB	0.003	n/a	n/a	n/a	-999	4	[1, 3, 6]	10	catFR1	2	R1655S
474.333	0.0	494153	START	n/a	n/a	n/a	n/a	-999	4	[-999, -999, -999]	n/a	catFR1	2	R1655S
474.33	0.003	494159	WORD_OFF	n/a	n/a	MOPED	Vehicles	12	4	[0, 0, 0]	n/a	catFR1	2	R1655S
474.333	0.0	494159	ENCODING_END	n/a	n/a	n/a	n/a	-999	4	[0, 0, 0]	n/a	catFR1	2	R1655S
474.333	6.27	494159	DISTRACT_START	n/a	n/a	n/a	n/a	-999	4	[0, 0, 0]	n/a	catFR1	2	R1655S
480.603	5.399	500423	PROB	5.399	n/a	n/a	n/a	-999	4	[2, 2, 4]	8	catFR1	2	R1655S
486.002	4.858	505822	PROB	4.858	n/a	n/a	n/a	-999	4	[4, 5, 7]	16	catFR1	2	R1655S
490.86	3.535	510680	PROB	3.535	n/a	n/a	n/a	-999	4	[4, 2, 1]	7	catFR1	2	R1655S
494.395	0.0	514214	DISTRACT_END	n/a	n/a	n/a	n/a	-999	4	[0, 0, 0]	n/a	catFR1	2	R1655S
494.395	2.075	514215	STOP	n/a	n/a	n/a	n/a	-999	4	[-999, -999, -999]	n/a	catFR1	2	R1655S
496.47	0.803	516299	REC_START	n/a	n/a	n/a	n/a	-999	4	[0, 0, 0]	n/a	catFR1	2	R1655S
497.273	1.17	517093	REC_WORD	1.17	n/a	JEEP	Vehicles	5	4	[0, 0, 0]	n/a	catFR1	2	R1655S
498.443	1.093	518263	REC_WORD	1.093	n/a	DUCK	n/a	-999	4	[0, 0, 0]	n/a	catFR1	2	R1655S
499.536	2.044	519356	REC_WORD	2.044	n/a	CRAB	OceanAnimals	7	4	[0, 0, 0]	n/a	catFR1	2	R1655S
501.58	0.44	521400	REC_WORD	0.44	n/a	CHICKEN	FarmAnimals	10	4	[0, 0, 0]	n/a	catFR1	2	R1655S
502.02	2.779	521840	REC_WORD_VV	2.779	n/a	<>	n/a	-999	4	[0, 0, 0]	n/a	catFR1	2	R1655S
504.799	21.814	524619	REC_WORD	21.814	n/a	WALNUT	Trees	-999	4	[0, 0, 0]	n/a	catFR1	2	R1655S
526.613	2.023	546433	REC_END	n/a	n/a	n/a	n/a	-999	4	[0, 0, 0]	n/a	catFR1	2	R1655S
528.636	10.341	548460	COUNTDOWN_START	n/a	n/a	n/a	n/a	-999	4	[0, 0, 0]	n/a	catFR1	2	R1655S
538.977	0.001	558797	COUNTDOWN_END	n/a	n/a	n/a	n/a	-999	4	[0, 0, 0]	n/a	catFR1	2	R1655S
538.978	2.142	558797	ENCODING_START	n/a	n/a	n/a	n/a	-999	5	[0, 0, 0]	n/a	catFR1	2	R1655S
541.12	1.6	560939	WORD	n/a	wordpools/wordpool_categorized_EN.txt	CROWBAR	Tools	1	5	[0, 0, 0]	n/a	catFR1	2	R1655S
542.72	0.933	562549	WORD_OFF	n/a	n/a	CROWBAR	Tools	1	5	[0, 0, 0]	n/a	catFR1	2	R1655S
543.653	1.608	563484	WORD	n/a	wordpools/wordpool_categorized_EN.txt	SHOVEL	Tools	2	5	[0, 0, 0]	n/a	catFR1	2	R1655S
545.261	0.783	565080	WORD_OFF	n/a	n/a	SHOVEL	Tools	2	5	[0, 0, 0]	n/a	catFR1	2	R1655S
546.044	1.608	565870	WORD	n/a	wordpools/wordpool_categorized_EN.txt	ARM	BodyParts	3	5	[0, 0, 0]	n/a	catFR1	2	R1655S
547.652	0.792	567480	WORD_OFF	n/a	n/a	ARM	BodyParts	3	5	[0, 0, 0]	n/a	catFR1	2	R1655S
548.444	1.602	568271	WORD	n/a	wordpools/wordpool_categorized_EN.txt	HEAD	BodyParts	4	5	[0, 0, 0]	n/a	catFR1	2	R1655S
550.046	0.79	569867	WORD_OFF	n/a	n/a	HEAD	BodyParts	4	5	[0, 0, 0]	n/a	catFR1	2	R1655S
550.836	1.601	570658	WORD	n/a	wordpools/wordpool_categorized_EN.txt	TONGS	KitchenTools	5	5	[0, 0, 0]	n/a	catFR1	2	R1655S
552.437	0.906	572254	WORD_OFF	n/a	n/a	TONGS	KitchenTools	5	5	[0, 0, 0]	n/a	catFR1	2	R1655S
553.343	1.601	573159	WORD	n/a	wordpools/wordpool_categorized_EN.txt	CORKSCREW	KitchenTools	6	5	[0, 0, 0]	n/a	catFR1	2	R1655S
554.944	0.876	574770	WORD_OFF	n/a	n/a	CORKSCREW	KitchenTools	6	5	[0, 0, 0]	n/a	catFR1	2	R1655S
555.82	1.606	575647	WORD	n/a	wordpools/wordpool_categorized_EN.txt	SAW	Tools	7	5	[0, 0, 0]	n/a	catFR1	2	R1655S
557.426	0.985	577242	WORD_OFF	n/a	n/a	SAW	Tools	7	5	[0, 0, 0]	n/a	catFR1	2	R1655S
558.411	1.608	578234	WORD	n/a	wordpools/wordpool_categorized_EN.txt	PLIERS	Tools	8	5	[0, 0, 0]	n/a	catFR1	2	R1655S
560.019	1.0	579845	WORD_OFF	n/a	n/a	PLIERS	Tools	8	5	[0, 0, 0]	n/a	catFR1	2	R1655S
561.019	1.608	580837	WORD	n/a	wordpools/wordpool_categorized_EN.txt	FINGERS	BodyParts	9	5	[0, 0, 0]	n/a	catFR1	2	R1655S
562.627	0.884	582447	WORD_OFF	n/a	n/a	FINGERS	BodyParts	9	5	[0, 0, 0]	n/a	catFR1	2	R1655S
563.511	1.6	583338	WORD	n/a	wordpools/wordpool_categorized_EN.txt	EYE	BodyParts	10	5	[0, 0, 0]	n/a	catFR1	2	R1655S
565.111	0.924	584934	WORD_OFF	n/a	n/a	EYE	BodyParts	10	5	[0, 0, 0]	n/a	catFR1	2	R1655S
566.035	1.602	585854	WORD	n/a	wordpools/wordpool_categorized_EN.txt	GRATER	KitchenTools	11	5	[0, 0, 0]	n/a	catFR1	2	R1655S
567.637	0.974	587464	WORD_OFF	n/a	n/a	GRATER	KitchenTools	11	5	[0, 0, 0]	n/a	catFR1	2	R1655S
568.611	1.601	588442	WORD	n/a	wordpools/wordpool_categorized_EN.txt	COLANDER	KitchenTools	12	5	[0, 0, 0]	n/a	catFR1	2	R1655S
570.212	0.004	590032	PROB	0.004	n/a	n/a	n/a	-999	5	[7, 4, 3]	14	catFR1	2	R1655S
570.216	0.0	590036	START	n/a	n/a	n/a	n/a	-999	5	[-999, -999, -999]	n/a	catFR1	2	R1655S
570.212	0.004	590038	WORD_OFF	n/a	n/a	COLANDER	KitchenTools	12	5	[0, 0, 0]	n/a	catFR1	2	R1655S
570.216	0.0	590038	ENCODING_END	n/a	n/a	n/a	n/a	-999	5	[0, 0, 0]	n/a	catFR1	2	R1655S
570.216	7.329	590038	DISTRACT_START	n/a	n/a	n/a	n/a	-999	5	[0, 0, 0]	n/a	catFR1	2	R1655S
577.545	4.866	597365	PROB	4.866	n/a	n/a	n/a	-999	5	[6, 6, 5]	17	catFR1	2	R1655S
582.411	4.4	602231	PROB	4.4	n/a	n/a	n/a	-999	5	[4, 6, 7]	17	catFR1	2	R1655S
586.811	5.258	606631	PROB	5.258	n/a	n/a	n/a	-999	5	[5, 3, 4]	12	catFR1	2	R1655S
592.069	0.0	611889	STOP	n/a	n/a	n/a	n/a	-999	5	[-999, -999, -999]	n/a	catFR1	2	R1655S
592.069	2.393	611890	DISTRACT_END	n/a	n/a	n/a	n/a	-999	5	[0, 0, 0]	n/a	catFR1	2	R1655S
594.462	0.769	614291	REC_START	n/a	n/a	n/a	n/a	-999	5	[0, 0, 0]	n/a	catFR1	2	R1655S
595.231	4.555	615051	REC_WORD_VV	4.555	n/a	<>	n/a	-999	5	[0, 0, 0]	n/a	catFR1	2	R1655S
599.786	3.917	619606	REC_WORD	3.917	n/a	JEEP	Vehicles	-999	5	[0, 0, 0]	n/a	catFR1	2	R1655S
603.703	1.0	623523	REC_WORD_VV	1.0	n/a	<>	n/a	-999	5	[0, 0, 0]	n/a	catFR1	2	R1655S
604.703	1.0	624523	REC_WORD_VV	1.0	n/a	<>	n/a	-999	5	[0, 0, 0]	n/a	catFR1	2	R1655S
605.703	3.256	625523	REC_WORD_VV	3.256	n/a	<>	n/a	-999	5	[0, 0, 0]	n/a	catFR1	2	R1655S
608.959	15.647	628779	REC_WORD_VV	15.647	n/a	<>	n/a	-999	5	[0, 0, 0]	n/a	catFR1	2	R1655S
624.606	0.796	644425	REC_END	n/a	n/a	n/a	n/a	-999	5	[0, 0, 0]	n/a	catFR1	2	R1655S
625.402	10.351	645230	COUNTDOWN_START	n/a	n/a	n/a	n/a	-999	5	[0, 0, 0]	n/a	catFR1	2	R1655S
635.753	0.0	655582	COUNTDOWN_END	n/a	n/a	n/a	n/a	-999	5	[0, 0, 0]	n/a	catFR1	2	R1655S
635.753	1.983	655582	ENCODING_START	n/a	n/a	n/a	n/a	-999	6	[0, 0, 0]	n/a	catFR1	2	R1655S
637.736	1.609	657566	WORD	n/a	wordpools/wordpool_categorized_EN.txt	NYLON	Fabric	1	6	[0, 0, 0]	n/a	catFR1	2	R1655S
639.345	0.757	659176	WORD_OFF	n/a	n/a	NYLON	Fabric	1	6	[0, 0, 0]	n/a	catFR1	2	R1655S
640.102	1.609	659923	WORD	n/a	wordpools/wordpool_categorized_EN.txt	SATIN	Fabric	2	6	[0, 0, 0]	n/a	catFR1	2	R1655S
641.711	0.874	661533	WORD_OFF	n/a	n/a	SATIN	Fabric	2	6	[0, 0, 0]	n/a	catFR1	2	R1655S
642.585	1.601	662410	WORD	n/a	wordpools/wordpool_categorized_EN.txt	HEN	FarmAnimals	3	6	[0, 0, 0]	n/a	catFR1	2	R1655S
644.186	0.866	664006	WORD_OFF	n/a	n/a	HEN	FarmAnimals	3	6	[0, 0, 0]	n/a	catFR1	2	R1655S
645.052	1.601	664869	WORD	n/a	wordpools/wordpool_categorized_EN.txt	CALF	FarmAnimals	4	6	[0, 0, 0]	n/a	catFR1	2	R1655S
646.653	0.848	666479	WORD_OFF	n/a	n/a	CALF	FarmAnimals	4	6	[0, 0, 0]	n/a	catFR1	2	R1655S
647.501	1.609	667327	WORD	n/a	wordpools/wordpool_categorized_EN.txt	WRENCH	Tools	5	6	[0, 0, 0]	n/a	catFR1	2	R1655S
649.11	0.876	668938	WORD_OFF	n/a	n/a	WRENCH	Tools	5	6	[0, 0, 0]	n/a	catFR1	2	R1655S
649.986	1.6	669815	WORD	n/a	wordpools/wordpool_categorized_EN.txt	SANDER	Tools	6	6	[0, 0, 0]	n/a	catFR1	2	R1655S
651.586	0.991	671410	WORD_OFF	n/a	n/a	SANDER	Tools	6	6	[0, 0, 0]	n/a	catFR1	2	R1655S
652.577	1.6	672402	WORD	n/a	wordpools/wordpool_categorized_EN.txt	WOOL	Fabric	7	6	[0, 0, 0]	n/a	catFR1	2	R1655S
654.177	0.917	673998	WORD_OFF	n/a	n/a	WOOL	Fabric	7	6	[0, 0, 0]	n/a	catFR1	2	R1655S
655.094	1.608	674918	WORD	n/a	wordpools/wordpool_categorized_EN.txt	SPANDEX	Fabric	8	6	[0, 0, 0]	n/a	catFR1	2	R1655S
656.702	0.968	676528	WORD_OFF	n/a	n/a	SPANDEX	Fabric	8	6	[0, 0, 0]	n/a	catFR1	2	R1655S
657.67	1.601	677492	WORD	n/a	wordpools/wordpool_categorized_EN.txt	SCREWDRIVER	Tools	9	6	[0, 0, 0]	n/a	catFR1	2	R1655S
659.271	0.848	679102	WORD_OFF	n/a	n/a	SCREWDRIVER	Tools	9	6	[0, 0, 0]	n/a	catFR1	2	R1655S
660.119	1.6	679950	WORD	n/a	wordpools/wordpool_categorized_EN.txt	DRILL	Tools	10	6	[0, 0, 0]	n/a	catFR1	2	R1655S
661.719	0.951	681546	WORD_OFF	n/a	n/a	DRILL	Tools	10	6	[0, 0, 0]	n/a	catFR1	2	R1655S
662.67	1.606	682495	WORD	n/a	wordpools/wordpool_categorized_EN.txt	SHEEP	FarmAnimals	11	6	[0, 0, 0]	n/a	catFR1	2	R1655S
664.276	0.959	684105	WORD_OFF	n/a	n/a	SHEEP	FarmAnimals	11	6	[0, 0, 0]	n/a	catFR1	2	R1655S
665.235	1.602	685054	WORD	n/a	wordpools/wordpool_categorized_EN.txt	PIG	FarmAnimals	12	6	[0, 0, 0]	n/a	catFR1	2	R1655S
666.837	0.002	686657	PROB	0.002	n/a	n/a	n/a	-999	6	[3, 7, 5]	15	catFR1	2	R1655S
666.839	0.0	686659	START	n/a	n/a	n/a	n/a	-999	6	[-999, -999, -999]	n/a	catFR1	2	R1655S
666.836	0.003	686664	WORD_OFF	n/a	n/a	PIG	FarmAnimals	12	6	[0, 0, 0]	n/a	catFR1	2	R1655S
666.839	0.0	686664	ENCODING_END	n/a	n/a	n/a	n/a	-999	6	[0, 0, 0]	n/a	catFR1	2	R1655S
666.839	5.63	686664	DISTRACT_START	n/a	n/a	n/a	n/a	-999	6	[0, 0, 0]	n/a	catFR1	2	R1655S
672.469	4.724	692289	PROB	4.724	n/a	n/a	n/a	-999	6	[8, 6, 3]	17	catFR1	2	R1655S
677.193	5.809	697013	PROB	5.809	n/a	n/a	n/a	-999	6	[3, 8, 6]	17	catFR1	2	R1655S
683.002	3.325	702822	PROB	3.325	n/a	n/a	n/a	-999	6	[2, 8, 3]	13	catFR1	2	R1655S
686.327	5.241	706147	PROB	5.241	n/a	n/a	n/a	-999	6	[4, 2, 4]	10	catFR1	2	R1655S
691.568	0.0	711388	STOP	n/a	n/a	n/a	n/a	-999	6	[-999, -999, -999]	n/a	catFR1	2	R1655S
691.568	2.377	711392	DISTRACT_END	n/a	n/a	n/a	n/a	-999	6	[0, 0, 0]	n/a	catFR1	2	R1655S
693.945	1.114	713764	REC_START	n/a	n/a	n/a	n/a	-999	6	[0, 0, 0]	n/a	catFR1	2	R1655S
695.059	2.5	714879	REC_WORD_VV	2.5	n/a	<>	n/a	-999	6	[0, 0, 0]	n/a	catFR1	2	R1655S
697.559	1.204	717379	REC_WORD	1.204	n/a	JEEP	Vehicles	-999	6	[0, 0, 0]	n/a	catFR1	2	R1655S
698.763	2.572	718583	REC_WORD	2.572	n/a	DUCK	n/a	-999	6	[0, 0, 0]	n/a	catFR1	2	R1655S
701.335	22.746	721155	REC_WORD	22.746	n/a	WRENCH	Tools	5	6	[0, 0, 0]	n/a	catFR1	2	R1655S
724.081	1.796	743898	REC_END	n/a	n/a	n/a	n/a	-999	6	[0, 0, 0]	n/a	catFR1	2	R1655S
725.877	10.342	745695	COUNTDOWN_START	n/a	n/a	n/a	n/a	-999	6	[0, 0, 0]	n/a	catFR1	2	R1655S
736.219	0.0	756047	COUNTDOWN_END	n/a	n/a	n/a	n/a	-999	6	[0, 0, 0]	n/a	catFR1	2	R1655S
736.219	2.342	756047	ENCODING_START	n/a	n/a	n/a	n/a	-999	7	[0, 0, 0]	n/a	catFR1	2	R1655S
738.561	1.609	758390	WORD	n/a	wordpools/wordpool_categorized_EN.txt	ANT	Insects	1	7	[0, 0, 0]	n/a	catFR1	2	R1655S
740.17	0.924	760000	WORD_OFF	n/a	n/a	ANT	Insects	1	7	[0, 0, 0]	n/a	catFR1	2	R1655S
741.094	1.601	760920	WORD	n/a	wordpools/wordpool_categorized_EN.txt	FLY	Insects	2	7	[0, 0, 0]	n/a	catFR1	2	R1655S
742.695	0.858	762516	WORD_OFF	n/a	n/a	FLY	Insects	2	7	[0, 0, 0]	n/a	catFR1	2	R1655S
743.553	1.601	763379	WORD	n/a	wordpools/wordpool_categorized_EN.txt	CAKE	Desserts	3	7	[0, 0, 0]	n/a	catFR1	2	R1655S
745.154	0.941	764975	WORD_OFF	n/a	n/a	CAKE	Desserts	3	7	[0, 0, 0]	n/a	catFR1	2	R1655S
746.095	1.601	765923	WORD	n/a	wordpools/wordpool_categorized_EN.txt	BROWNIES	Desserts	4	7	[0, 0, 0]	n/a	catFR1	2	R1655S
747.696	0.806	767519	WORD_OFF	n/a	n/a	BROWNIES	Desserts	4	7	[0, 0, 0]	n/a	catFR1	2	R1655S
748.502	1.619	768324	WORD	n/a	wordpools/wordpool_categorized_EN.txt	DUCK	Birds	5	7	[0, 0, 0]	n/a	catFR1	2	R1655S
750.121	0.898	769949	WORD_OFF	n/a	n/a	DUCK	Birds	5	7	[0, 0, 0]	n/a	catFR1	2	R1655S
751.019	1.601	770840	WORD	n/a	wordpools/wordpool_categorized_EN.txt	FINCH	Birds	6	7	[0, 0, 0]	n/a	catFR1	2	R1655S
752.62	0.823	772451	WORD_OFF	n/a	n/a	FINCH	Birds	6	7	[0, 0, 0]	n/a	catFR1	2	R1655S
753.443	1.601	773270	WORD	n/a	wordpools/wordpool_categorized_EN.txt	MOSQUITO	Insects	7	7	[0, 0, 0]	n/a	catFR1	2	R1655S
755.044	0.849	774866	WORD_OFF	n/a	n/a	MOSQUITO	Insects	7	7	[0, 0, 0]	n/a	catFR1	2	R1655S
755.893	1.61	775714	WORD	n/a	wordpools/wordpool_categorized_EN.txt	CRICKET	Insects	8	7	[0, 0, 0]	n/a	catFR1	2	R1655S
757.503	0.875	777324	WORD_OFF	n/a	n/a	CRICKET	Insects	8	7	[0, 0, 0]	n/a	catFR1	2	R1655S
758.378	1.609	778201	WORD	n/a	wordpools/wordpool_categorized_EN.txt	SEAGULL	Birds	9	7	[0, 0, 0]	n/a	catFR1	2	R1655S
759.987	0.965	779811	WORD_OFF	n/a	n/a	SEAGULL	Birds	9	7	[0, 0, 0]	n/a	catFR1	2	R1655S
760.952	1.601	780775	WORD	n/a	wordpools/wordpool_categorized_EN.txt	CARDINAL	Birds	10	7	[0, 0, 0]	n/a	catFR1	2	R1655S
762.553	0.975	782370	WORD_OFF	n/a	n/a	CARDINAL	Birds	10	7	[0, 0, 0]	n/a	catFR1	2	R1655S
763.528	1.6	783348	WORD	n/a	wordpools/wordpool_categorized_EN.txt	PUDDING	Desserts	11	7	[0, 0, 0]	n/a	catFR1	2	R1655S
765.128	0.767	784958	WORD_OFF	n/a	n/a	PUDDING	Desserts	11	7	[0, 0, 0]	n/a	catFR1	2	R1655S
765.895	1.607	785720	WORD	n/a	wordpools/wordpool_categorized_EN.txt	CUPCAKE	Desserts	12	7	[0, 0, 0]	n/a	catFR1	2	R1655S
767.502	0.005	787322	PROB	0.005	n/a	n/a	n/a	-999	7	[2, 3, 2]	7	catFR1	2	R1655S
767.507	0.0	787327	START	n/a	n/a	n/a	n/a	-999	7	[-999, -999, -999]	n/a	catFR1	2	R1655S
767.503	0.004	787330	WORD_OFF	n/a	n/a	CUPCAKE	Desserts	12	7	[0, 0, 0]	n/a	catFR1	2	R1655S
767.507	0.0	787330	ENCODING_END	n/a	n/a	n/a	n/a	-999	7	[0, 0, 0]	n/a	catFR1	2	R1655S
767.507	6.229	787330	DISTRACT_START	n/a	n/a	n/a	n/a	-999	7	[0, 0, 0]	n/a	catFR1	2	R1655S
773.736	3.359	793556	PROB	3.359	n/a	n/a	n/a	-999	7	[4, 1, 1]	6	catFR1	2	R1655S
777.095	3.999	796915	PROB	3.999	n/a	n/a	n/a	-999	7	[2, 6, 3]	11	catFR1	2	R1655S
781.094	4.126	800914	PROB	4.126	n/a	n/a	n/a	-999	7	[6, 8, 5]	19	catFR1	2	R1655S
785.22	3.924	805040	PROB	3.924	n/a	n/a	n/a	-999	7	[4, 2, 6]	12	catFR1	2	R1655S
789.144	0.0	808964	STOP	n/a	n/a	n/a	n/a	-999	7	[-999, -999, -999]	n/a	catFR1	2	R1655S
789.144	2.032	808968	DISTRACT_END	n/a	n/a	n/a	n/a	-999	7	[0, 0, 0]	n/a	catFR1	2	R1655S
791.176	0.941	810995	REC_START	n/a	n/a	n/a	n/a	-999	7	[0, 0, 0]	n/a	catFR1	2	R1655S
792.117	0.79	811937	REC_WORD	0.79	n/a	ANT	Insects	1	7	[0, 0, 0]	n/a	catFR1	2	R1655S
792.907	1.03	812727	REC_WORD	1.03	n/a	FLY	Insects	2	7	[0, 0, 0]	n/a	catFR1	2	R1655S
793.937	0.955	813757	REC_WORD	0.955	n/a	CAKE	Desserts	3	7	[0, 0, 0]	n/a	catFR1	2	R1655S
794.892	1.37	814712	REC_WORD	1.37	n/a	BROWNIES	Desserts	4	7	[0, 0, 0]	n/a	catFR1	2	R1655S
796.262	25.048	816082	REC_WORD_VV	25.048	n/a	<>	n/a	-999	7	[0, 0, 0]	n/a	catFR1	2	R1655S
821.31	1.959	841128	REC_END	n/a	n/a	n/a	n/a	-999	7	[0, 0, 0]	n/a	catFR1	2	R1655S
823.269	10.341	843098	COUNTDOWN_START	n/a	n/a	n/a	n/a	-999	7	[0, 0, 0]	n/a	catFR1	2	R1655S
833.61	0.0	853435	COUNTDOWN_END	n/a	n/a	n/a	n/a	-999	7	[0, 0, 0]	n/a	catFR1	2	R1655S
833.61	2.134	853435	ENCODING_START	n/a	n/a	n/a	n/a	-999	8	[0, 0, 0]	n/a	catFR1	2	R1655S
835.744	1.608	855563	WORD	n/a	wordpools/wordpool_categorized_EN.txt	CEILING	Building	1	8	[0, 0, 0]	n/a	catFR1	2	R1655S
837.352	0.858	857173	WORD_OFF	n/a	n/a	CEILING	Building	1	8	[0, 0, 0]	n/a	catFR1	2	R1655S
838.21	1.602	858036	WORD	n/a	wordpools/wordpool_categorized_EN.txt	BATHROOM	Building	2	8	[0, 0, 0]	n/a	catFR1	2	R1655S
839.812	0.998	859631	WORD_OFF	n/a	n/a	BATHROOM	Building	2	8	[0, 0, 0]	n/a	catFR1	2	R1655S
840.81	1.61	860638	WORD	n/a	wordpools/wordpool_categorized_EN.txt	CABINET	Furniture	3	8	[0, 0, 0]	n/a	catFR1	2	R1655S
842.42	1.001	862248	WORD_OFF	n/a	n/a	CABINET	Furniture	3	8	[0, 0, 0]	n/a	catFR1	2	R1655S
843.421	1.606	863240	WORD	n/a	wordpools/wordpool_categorized_EN.txt	RECLINER	Furniture	4	8	[0, 0, 0]	n/a	catFR1	2	R1655S
845.027	0.926	864850	WORD_OFF	n/a	n/a	RECLINER	Furniture	4	8	[0, 0, 0]	n/a	catFR1	2	R1655S
845.953	1.609	865785	WORD	n/a	wordpools/wordpool_categorized_EN.txt	LAMB	FarmAnimals	5	8	[0, 0, 0]	n/a	catFR1	2	R1655S
847.562	0.958	867380	WORD_OFF	n/a	n/a	LAMB	FarmAnimals	5	8	[0, 0, 0]	n/a	catFR1	2	R1655S
848.52	1.607	868344	WORD	n/a	wordpools/wordpool_categorized_EN.txt	BULL	FarmAnimals	6	8	[0, 0, 0]	n/a	catFR1	2	R1655S
850.127	0.926	869954	WORD_OFF	n/a	n/a	BULL	FarmAnimals	6	8	[0, 0, 0]	n/a	catFR1	2	R1655S
851.053	1.6	870874	WORD	n/a	wordpools/wordpool_categorized_EN.txt	DRESSER	Furniture	7	8	[0, 0, 0]	n/a	catFR1	2	R1655S
852.653	0.816	872470	WORD_OFF	n/a	n/a	DRESSER	Furniture	7	8	[0, 0, 0]	n/a	catFR1	2	R1655S
853.469	1.6	873289	WORD	n/a	wordpools/wordpool_categorized_EN.txt	TABLE	Furniture	8	8	[0, 0, 0]	n/a	catFR1	2	R1655S
855.069	0.934	874885	WORD_OFF	n/a	n/a	TABLE	Furniture	8	8	[0, 0, 0]	n/a	catFR1	2	R1655S
856.003	1.601	875834	WORD	n/a	wordpools/wordpool_categorized_EN.txt	TURKEY	FarmAnimals	9	8	[0, 0, 0]	n/a	catFR1	2	R1655S
857.604	0.797	877430	WORD_OFF	n/a	n/a	TURKEY	FarmAnimals	9	8	[0, 0, 0]	n/a	catFR1	2	R1655S
858.401	1.6	878221	WORD	n/a	wordpools/wordpool_categorized_EN.txt	COW	FarmAnimals	10	8	[0, 0, 0]	n/a	catFR1	2	R1655S
860.001	0.901	879831	WORD_OFF	n/a	n/a	COW	FarmAnimals	10	8	[0, 0, 0]	n/a	catFR1	2	R1655S
860.902	1.602	880722	WORD	n/a	wordpools/wordpool_categorized_EN.txt	ATTIC	Building	11	8	[0, 0, 0]	n/a	catFR1	2	R1655S
862.504	0.982	882332	WORD_OFF	n/a	n/a	ATTIC	Building	11	8	[0, 0, 0]	n/a	catFR1	2	R1655S
863.486	1.608	883310	WORD	n/a	wordpools/wordpool_categorized_EN.txt	HALLWAY	Building	12	8	[0, 0, 0]	n/a	catFR1	2	R1655S
865.094	0.002	884914	PROB	0.002	n/a	n/a	n/a	-999	8	[7, 7, 4]	18	catFR1	2	R1655S
865.096	0.0	884916	START	n/a	n/a	n/a	n/a	-999	8	[-999, -999, -999]	n/a	catFR1	2	R1655S
865.094	0.002	884920	WORD_OFF	n/a	n/a	HALLWAY	Building	12	8	[0, 0, 0]	n/a	catFR1	2	R1655S
865.096	0.0	884920	ENCODING_END	n/a	n/a	n/a	n/a	-999	8	[0, 0, 0]	n/a	catFR1	2	R1655S
865.096	5.715	884920	DISTRACT_START	n/a	n/a	n/a	n/a	-999	8	[0, 0, 0]	n/a	catFR1	2	R1655S
870.811	6.375	890631	PROB	6.375	n/a	n/a	n/a	-999	8	[2, 5, 6]	13	catFR1	2	R1655S
877.186	5.317	897006	PROB	5.317	n/a	n/a	n/a	-999	8	[6, 8, 3]	17	catFR1	2	R1655S
882.503	3.241	902323	PROB	3.241	n/a	n/a	n/a	-999	8	[3, 8, 8]	19	catFR1	2	R1655S
885.744	0.0	905564	STOP	n/a	n/a	n/a	n/a	-999	8	[-999, -999, -999]	n/a	catFR1	2	R1655S
885.744	2.133	905565	DISTRACT_END	n/a	n/a	n/a	n/a	-999	8	[0, 0, 0]	n/a	catFR1	2	R1655S
887.877	0.52	907707	REC_START	n/a	n/a	n/a	n/a	-999	8	[0, 0, 0]	n/a	catFR1	2	R1655S
888.397	2.393	908217	REC_WORD_VV	2.393	n/a	<>	n/a	-999	8	[0, 0, 0]	n/a	catFR1	2	R1655S
890.79	3.765	910610	REC_WORD	3.765	n/a	ATTIC	Building	11	8	[0, 0, 0]	n/a	catFR1	2	R1655S
894.555	23.455	914375	REC_WORD	23.455	n/a	ANT	Insects	-999	8	[0, 0, 0]	n/a	catFR1	2	R1655S
918.01	1.935	937827	REC_END	n/a	n/a	n/a	n/a	-999	8	[0, 0, 0]	n/a	catFR1	2	R1655S
919.945	10.341	939768	COUNTDOWN_START	n/a	n/a	n/a	n/a	-999	8	[0, 0, 0]	n/a	catFR1	2	R1655S
930.286	0.0	950105	COUNTDOWN_END	n/a	n/a	n/a	n/a	-999	8	[0, 0, 0]	n/a	catFR1	2	R1655S
930.286	2.157	950105	ENCODING_START	n/a	n/a	n/a	n/a	-999	9	[0, 0, 0]	n/a	catFR1	2	R1655S
932.443	1.602	952261	WORD	n/a	wordpools/wordpool_categorized_EN.txt	AXE	Tools	1	9	[0, 0, 0]	n/a	catFR1	2	R1655S
934.045	0.814	953871	WORD_OFF	n/a	n/a	AXE	Tools	1	9	[0, 0, 0]	n/a	catFR1	2	R1655S
934.859	1.601	954676	WORD	n/a	wordpools/wordpool_categorized_EN.txt	RATCHET	Tools	2	9	[0, 0, 0]	n/a	catFR1	2	R1655S
936.46	0.942	956287	WORD_OFF	n/a	n/a	RATCHET	Tools	2	9	[0, 0, 0]	n/a	catFR1	2	R1655S
937.402	1.601	957221	WORD	n/a	wordpools/wordpool_categorized_EN.txt	TROMBONE	Instruments	3	9	[0, 0, 0]	n/a	catFR1	2	R1655S
939.003	0.833	958831	WORD_OFF	n/a	n/a	TROMBONE	Instruments	3	9	[0, 0, 0]	n/a	catFR1	2	R1655S
939.836	1.6	959665	WORD	n/a	wordpools/wordpool_categorized_EN.txt	CELLO	Instruments	4	9	[0, 0, 0]	n/a	catFR1	2	R1655S
941.436	0.917	961261	WORD_OFF	n/a	n/a	CELLO	Instruments	4	9	[0, 0, 0]	n/a	catFR1	2	R1655S
942.353	1.607	962181	WORD	n/a	wordpools/wordpool_categorized_EN.txt	DENIM	Fabric	5	9	[0, 0, 0]	n/a	catFR1	2	R1655S
943.96	0.793	963777	WORD_OFF	n/a	n/a	DENIM	Fabric	5	9	[0, 0, 0]	n/a	catFR1	2	R1655S
944.753	1.6	964582	WORD	n/a	wordpools/wordpool_categorized_EN.txt	LINEN	Fabric	6	9	[0, 0, 0]	n/a	catFR1	2	R1655S
946.353	0.808	966178	WORD_OFF	n/a	n/a	LINEN	Fabric	6	9	[0, 0, 0]	n/a	catFR1	2	R1655S
947.161	1.607	966983	WORD	n/a	wordpools/wordpool_categorized_EN.txt	LEVEL	Tools	7	9	[0, 0, 0]	n/a	catFR1	2	R1655S
948.768	0.808	968593	WORD_OFF	n/a	n/a	LEVEL	Tools	7	9	[0, 0, 0]	n/a	catFR1	2	R1655S
949.576	1.6	969398	WORD	n/a	wordpools/wordpool_categorized_EN.txt	HAMMER	Tools	8	9	[0, 0, 0]	n/a	catFR1	2	R1655S
951.176	0.968	970994	WORD_OFF	n/a	n/a	HAMMER	Tools	8	9	[0, 0, 0]	n/a	catFR1	2	R1655S
952.144	1.609	971972	WORD	n/a	wordpools/wordpool_categorized_EN.txt	PIANO	Instruments	9	9	[0, 0, 0]	n/a	catFR1	2	R1655S
953.753	0.874	973582	WORD_OFF	n/a	n/a	PIANO	Instruments	9	9	[0, 0, 0]	n/a	catFR1	2	R1655S
954.627	1.609	974459	WORD	n/a	wordpools/wordpool_categorized_EN.txt	FLUTE	Instruments	10	9	[0, 0, 0]	n/a	catFR1	2	R1655S
956.236	0.942	976055	WORD_OFF	n/a	n/a	FLUTE	Instruments	10	9	[0, 0, 0]	n/a	catFR1	2	R1655S
957.178	1.608	977004	WORD	n/a	wordpools/wordpool_categorized_EN.txt	LEATHER	Fabric	11	9	[0, 0, 0]	n/a	catFR1	2	R1655S
958.786	0.983	978614	WORD_OFF	n/a	n/a	LEATHER	Fabric	11	9	[0, 0, 0]	n/a	catFR1	2	R1655S
959.769	1.6	979591	WORD	n/a	wordpools/wordpool_categorized_EN.txt	VELVET	Fabric	12	9	[0, 0, 0]	n/a	catFR1	2	R1655S
961.369	0.005	981189	PROB	0.005	n/a	n/a	n/a	-999	9	[6, 8, 7]	21	catFR1	2	R1655S
961.374	0.0	981194	START	n/a	n/a	n/a	n/a	-999	9	[-999, -999, -999]	n/a	catFR1	2	R1655S
961.369	0.005	981202	WORD_OFF	n/a	n/a	VELVET	Fabric	12	9	[0, 0, 0]	n/a	catFR1	2	R1655S
961.374	0.0	981202	ENCODING_END	n/a	n/a	n/a	n/a	-999	9	[0, 0, 0]	n/a	catFR1	2	R1655S
961.374	11.745	981202	DISTRACT_START	n/a	n/a	n/a	n/a	-999	9	[0, 0, 0]	n/a	catFR1	2	R1655S
973.119	3.918	992939	PROB	3.918	n/a	n/a	n/a	-999	9	[6, 6, 1]	13	catFR1	2	R1655S
977.037	5.257	996857	PROB	5.257	n/a	n/a	n/a	-999	9	[8, 7, 8]	23	catFR1	2	R1655S
982.294	0.0	1002114	STOP	n/a	n/a	n/a	n/a	-999	9	[-999, -999, -999]	n/a	catFR1	2	R1655S
982.294	2.159	1002120	DISTRACT_END	n/a	n/a	n/a	n/a	-999	9	[0, 0, 0]	n/a	catFR1	2	R1655S
984.453	1.787	1004276	REC_START	n/a	n/a	n/a	n/a	-999	9	[0, 0, 0]	n/a	catFR1	2	R1655S
986.24	1.0	1006060	REC_WORD_VV	1.0	n/a	<>	n/a	-999	9	[0, 0, 0]	n/a	catFR1	2	R1655S
987.24	2.745	1007060	REC_WORD_VV	2.745	n/a	<>	n/a	-999	9	[0, 0, 0]	n/a	catFR1	2	R1655S
989.985	2.61	1009805	REC_WORD	2.61	n/a	VELVET	Fabric	12	9	[0, 0, 0]	n/a	catFR1	2	R1655S
992.595	21.998	1012415	REC_WORD	21.998	n/a	AXE	Tools	1	9	[0, 0, 0]	n/a	catFR1	2	R1655S
1014.593	2.058	1034410	REC_END	n/a	n/a	n/a	n/a	-999	9	[0, 0, 0]	n/a	catFR1	2	R1655S
1016.651	10.345	1036480	COUNTDOWN_START	n/a	n/a	n/a	n/a	-999	9	[0, 0, 0]	n/a	catFR1	2	R1655S
1026.996	0.001	1046817	COUNTDOWN_END	n/a	n/a	n/a	n/a	-999	9	[0, 0, 0]	n/a	catFR1	2	R1655S
1026.997	2.082	1046817	ENCODING_START	n/a	n/a	n/a	n/a	-999	10	[0, 0, 0]	n/a	catFR1	2	R1655S
1029.079	1.606	1048902	WORD	n/a	wordpools/wordpool_categorized_EN.txt	WINDOW	Building	1	10	[0, 0, 0]	n/a	catFR1	2	R1655S
1030.685	0.825	1050512	WORD_OFF	n/a	n/a	WINDOW	Building	1	10	[0, 0, 0]	n/a	catFR1	2	R1655S
1031.51	1.6	1051332	WORD	n/a	wordpools/wordpool_categorized_EN.txt	ROOF	Building	2	10	[0, 0, 0]	n/a	catFR1	2	R1655S
1033.11	0.767	1052927	WORD_OFF	n/a	n/a	ROOF	Building	2	10	[0, 0, 0]	n/a	catFR1	2	R1655S
1033.877	1.601	1053704	WORD	n/a	wordpools/wordpool_categorized_EN.txt	ORGAN	Instruments	3	10	[0, 0, 0]	n/a	catFR1	2	R1655S
1035.478	0.9	1055300	WORD_OFF	n/a	n/a	ORGAN	Instruments	3	10	[0, 0, 0]	n/a	catFR1	2	R1655S
1036.378	1.599	1056205	WORD	n/a	wordpools/wordpool_categorized_EN.txt	TRUMPET	Instruments	4	10	[0, 0, 0]	n/a	catFR1	2	R1655S
1037.977	0.919	1057801	WORD_OFF	n/a	n/a	TRUMPET	Instruments	4	10	[0, 0, 0]	n/a	catFR1	2	R1655S
1038.896	1.598	1058721	WORD	n/a	wordpools/wordpool_categorized_EN.txt	FREEZER	Appliances	5	10	[0, 0, 0]	n/a	catFR1	2	R1655S
1040.494	0.859	1060317	WORD_OFF	n/a	n/a	FREEZER	Appliances	5	10	[0, 0, 0]	n/a	catFR1	2	R1655S
1041.353	1.608	1061180	WORD	n/a	wordpools/wordpool_categorized_EN.txt	VACUUM	Appliances	6	10	[0, 0, 0]	n/a	catFR1	2	R1655S
1042.961	0.89	1062790	WORD_OFF	n/a	n/a	VACUUM	Appliances	6	10	[0, 0, 0]	n/a	catFR1	2	R1655S
1043.851	1.602	1063681	WORD	n/a	wordpools/wordpool_categorized_EN.txt	BASS	Instruments	7	10	[0, 0, 0]	n/a	catFR1	2	R1655S
1045.453	0.858	1065277	WORD_OFF	n/a	n/a	BASS	Instruments	7	10	[0, 0, 0]	n/a	catFR1	2	R1655S
1046.311	1.6	1066140	WORD	n/a	wordpools/wordpool_categorized_EN.txt	VIOLIN	Instruments	8	10	[0, 0, 0]	n/a	catFR1	2	R1655S
1047.911	0.999	1067736	WORD_OFF	n/a	n/a	VIOLIN	Instruments	8	10	[0, 0, 0]	n/a	catFR1	2	R1655S
1048.91	1.601	1068742	WORD	n/a	wordpools/wordpool_categorized_EN.txt	ROOM	Building	9	10	[0, 0, 0]	n/a	catFR1	2	R1655S
1050.511	0.867	1070338	WORD_OFF	n/a	n/a	ROOM	Building	9	10	[0, 0, 0]	n/a	catFR1	2	R1655S
1051.378	1.6	1071200	WORD	n/a	wordpools/wordpool_categorized_EN.txt	WALL	Building	10	10	[0, 0, 0]	n/a	catFR1	2	R1655S
1052.978	0.899	1072796	WORD_OFF	n/a	n/a	WALL	Building	10	10	[0, 0, 0]	n/a	catFR1	2	R1655S
1053.877	1.608	1073702	WORD	n/a	wordpools/wordpool_categorized_EN.txt	WASHER	Appliances	11	10	[0, 0, 0]	n/a	catFR1	2	R1655S
1055.485	0.802	1075312	WORD_OFF	n/a	n/a	WASHER	Appliances	11	10	[0, 0, 0]	n/a	catFR1	2	R1655S
1056.287	1.607	1076117	WORD	n/a	wordpools/wordpool_categorized_EN.txt	DRYER	Appliances	12	10	[0, 0, 0]	n/a	catFR1	2	R1655S
1057.894	0.001	1077713	WORD_OFF	n/a	n/a	DRYER	Appliances	12	10	[0, 0, 0]	n/a	catFR1	2	R1655S
1057.895	0.003	1077715	PROB	0.003	n/a	n/a	n/a	-999	10	[3, 6, 6]	15	catFR1	2	R1655S
1057.898	0.0	1077718	START	n/a	n/a	n/a	n/a	-999	10	[-999, -999, -999]	n/a	catFR1	2	R1655S
1057.898	0.0	1077727	ENCODING_END	n/a	n/a	n/a	n/a	-999	10	[0, 0, 0]	n/a	catFR1	2	R1655S
1057.898	7.847	1077727	DISTRACT_START	n/a	n/a	n/a	n/a	-999	10	[0, 0, 0]	n/a	catFR1	2	R1655S
1065.745	6.624	1085565	PROB	6.624	n/a	n/a	n/a	-999	10	[5, 8, 7]	20	catFR1	2	R1655S
1072.369	5.899	1092189	PROB	5.899	n/a	n/a	n/a	-999	10	[4, 3, 8]	15	catFR1	2	R1655S
1078.268	0.0	1098085	DISTRACT_END	n/a	n/a	n/a	n/a	-999	10	[0, 0, 0]	n/a	catFR1	2	R1655S
1078.268	2.368	1098088	STOP	n/a	n/a	n/a	n/a	-999	10	[-999, -999, -999]	n/a	catFR1	2	R1655S
1080.636	1.96	1100457	REC_START	n/a	n/a	n/a	n/a	-999	10	[0, 0, 0]	n/a	catFR1	2	R1655S
1082.596	0.89	1102416	REC_WORD_VV	0.89	n/a	<>	n/a	-999	10	[0, 0, 0]	n/a	catFR1	2	R1655S
1083.486	2.845	1103306	REC_WORD	2.845	n/a	WINDOW	Building	1	10	[0, 0, 0]	n/a	catFR1	2	R1655S
1086.331	2.895	1106151	REC_WORD_VV	2.895	n/a	<>	n/a	-999	10	[0, 0, 0]	n/a	catFR1	2	R1655S
1089.226	21.544	1109046	REC_WORD	21.544	n/a	CABINET	Furniture	-999	10	[0, 0, 0]	n/a	catFR1	2	R1655S
1110.77	1.831	1130591	REC_END	n/a	n/a	n/a	n/a	-999	10	[0, 0, 0]	n/a	catFR1	2	R1655S
1112.601	10.334	1132431	COUNTDOWN_START	n/a	n/a	n/a	n/a	-999	10	[0, 0, 0]	n/a	catFR1	2	R1655S
1122.935	0.0	1142754	COUNTDOWN_END	n/a	n/a	n/a	n/a	-999	10	[0, 0, 0]	n/a	catFR1	2	R1655S
1122.935	2.25	1142754	ENCODING_START	n/a	n/a	n/a	n/a	-999	11	[0, 0, 0]	n/a	catFR1	2	R1655S
1125.185	1.601	1145011	WORD	n/a	wordpools/wordpool_categorized_EN.txt	HICKORY	Trees	1	11	[0, 0, 0]	n/a	catFR1	2	R1655S
1126.786	1.0	1146607	WORD_OFF	n/a	n/a	HICKORY	Trees	1	11	[0, 0, 0]	n/a	catFR1	2	R1655S
1127.786	1.608	1147613	WORD	n/a	wordpools/wordpool_categorized_EN.txt	EVERGREEN	Trees	2	11	[0, 0, 0]	n/a	catFR1	2	R1655S
1129.394	0.867	1149223	WORD_OFF	n/a	n/a	EVERGREEN	Trees	2	11	[0, 0, 0]	n/a	catFR1	2	R1655S
1130.261	1.6	1150086	WORD	n/a	wordpools/wordpool_categorized_EN.txt	IRON	Appliances	3	11	[0, 0, 0]	n/a	catFR1	2	R1655S
1131.861	0.859	1151682	WORD_OFF	n/a	n/a	IRON	Appliances	3	11	[0, 0, 0]	n/a	catFR1	2	R1655S
1132.72	1.6	1152544	WORD	n/a	wordpools/wordpool_categorized_EN.txt	OVEN	Appliances	4	11	[0, 0, 0]	n/a	catFR1	2	R1655S
1134.32	0.983	1154140	WORD_OFF	n/a	n/a	OVEN	Appliances	4	11	[0, 0, 0]	n/a	catFR1	2	R1655S
1135.303	1.6	1155132	WORD	n/a	wordpools/wordpool_categorized_EN.txt	FOREST	Landscapes	5	11	[0, 0, 0]	n/a	catFR1	2	R1655S
1136.903	0.941	1156728	WORD_OFF	n/a	n/a	FOREST	Landscapes	5	11	[0, 0, 0]	n/a	catFR1	2	R1655S
1137.844	1.608	1157662	WORD	n/a	wordpools/wordpool_categorized_EN.txt	BEACH	Landscapes	6	11	[0, 0, 0]	n/a	catFR1	2	R1655S
1139.452	0.767	1159273	WORD_OFF	n/a	n/a	BEACH	Landscapes	6	11	[0, 0, 0]	n/a	catFR1	2	R1655S
1140.219	1.609	1160049	WORD	n/a	wordpools/wordpool_categorized_EN.txt	MAPLE	Trees	7	11	[0, 0, 0]	n/a	catFR1	2	R1655S
1141.828	0.875	1161659	WORD_OFF	n/a	n/a	MAPLE	Trees	7	11	[0, 0, 0]	n/a	catFR1	2	R1655S
1142.703	1.6	1162536	WORD	n/a	wordpools/wordpool_categorized_EN.txt	CYPRESS	Trees	8	11	[0, 0, 0]	n/a	catFR1	2	R1655S
1144.303	0.974	1164132	WORD_OFF	n/a	n/a	CYPRESS	Trees	8	11	[0, 0, 0]	n/a	catFR1	2	R1655S
1145.277	1.607	1165095	WORD	n/a	wordpools/wordpool_categorized_EN.txt	TOASTER	Appliances	9	11	[0, 0, 0]	n/a	catFR1	2	R1655S
1146.884	0.925	1166705	WORD_OFF	n/a	n/a	TOASTER	Appliances	9	11	[0, 0, 0]	n/a	catFR1	2	R1655S
1147.809	1.601	1167626	WORD	n/a	wordpools/wordpool_categorized_EN.txt	STOVE	Appliances	10	11	[0, 0, 0]	n/a	catFR1	2	R1655S
1149.41	0.833	1169236	WORD_OFF	n/a	n/a	STOVE	Appliances	10	11	[0, 0, 0]	n/a	catFR1	2	R1655S
1150.243	1.6	1170070	WORD	n/a	wordpools/wordpool_categorized_EN.txt	MOUNTAIN	Landscapes	11	11	[0, 0, 0]	n/a	catFR1	2	R1655S
1151.843	0.884	1171665	WORD_OFF	n/a	n/a	MOUNTAIN	Landscapes	11	11	[0, 0, 0]	n/a	catFR1	2	R1655S
1152.727	1.601	1172557	WORD	n/a	wordpools/wordpool_categorized_EN.txt	ISLAND	Landscapes	12	11	[0, 0, 0]	n/a	catFR1	2	R1655S
1154.328	0.004	1174148	PROB	0.004	n/a	n/a	n/a	-999	11	[6, 3, 2]	11	catFR1	2	R1655S
1154.332	0.0	1174152	START	n/a	n/a	n/a	n/a	-999	11	[-999, -999, -999]	n/a	catFR1	2	R1655S
1154.328	0.004	1174153	WORD_OFF	n/a	n/a	ISLAND	Landscapes	12	11	[0, 0, 0]	n/a	catFR1	2	R1655S
1154.332	0.0	1174153	ENCODING_END	n/a	n/a	n/a	n/a	-999	11	[0, 0, 0]	n/a	catFR1	2	R1655S
1154.332	5.162	1174153	DISTRACT_START	n/a	n/a	n/a	n/a	-999	11	[0, 0, 0]	n/a	catFR1	2	R1655S
1159.494	5.933	1179314	PROB	5.933	n/a	n/a	n/a	-999	11	[3, 2, 8]	13	catFR1	2	R1655S
1165.427	3.534	1185247	PROB	3.534	n/a	n/a	n/a	-999	11	[3, 7, 3]	13	catFR1	2	R1655S
1168.961	3.508	1188781	PROB	3.508	n/a	n/a	n/a	-999	11	[4, 7, 1]	12	catFR1	2	R1655S
1172.469	4.015	1192289	PROB	4.015	n/a	n/a	n/a	-999	11	[5, 3, 3]	11	catFR1	2	R1655S
1176.484	0.0	1196304	STOP	n/a	n/a	n/a	n/a	-999	11	[-999, -999, -999]	n/a	catFR1	2	R1655S
1176.484	2.01	1196307	DISTRACT_END	n/a	n/a	n/a	n/a	-999	11	[0, 0, 0]	n/a	catFR1	2	R1655S
1178.494	0.119	1198320	REC_START	n/a	n/a	n/a	n/a	-999	11	[0, 0, 0]	n/a	catFR1	2	R1655S
1178.613	1.811	1198433	REC_WORD_VV	1.811	n/a	<>	n/a	-999	11	[0, 0, 0]	n/a	catFR1	2	R1655S
1180.424	3.315	1200244	REC_WORD	3.315	n/a	HICKORY	Trees	1	11	[0, 0, 0]	n/a	catFR1	2	R1655S
1183.739	24.893	1203559	REC_WORD	24.893	n/a	OVEN	Appliances	4	11	[0, 0, 0]	n/a	catFR1	2	R1655S
1208.632	2.421	1228454	REC_END	n/a	n/a	n/a	n/a	-999	11	[0, 0, 0]	n/a	catFR1	2	R1655S
1211.053	10.34	1230883	COUNTDOWN_START	n/a	n/a	n/a	n/a	-999	11	[0, 0, 0]	n/a	catFR1	2	R1655S
1221.393	0.0	1241220	COUNTDOWN_END	n/a	n/a	n/a	n/a	-999	11	[0, 0, 0]	n/a	catFR1	2	R1655S
1221.393	2.209	1241220	ENCODING_START	n/a	n/a	n/a	n/a	-999	12	[0, 0, 0]	n/a	catFR1	2	R1655S
1223.602	1.6	1243420	WORD	n/a	wordpools/wordpool_categorized_EN.txt	MOTH	Insects	1	12	[0, 0, 0]	n/a	catFR1	2	R1655S
1225.202	0.767	1245030	WORD_OFF	n/a	n/a	MOTH	Insects	1	12	[0, 0, 0]	n/a	catFR1	2	R1655S
1225.969	1.608	1245792	WORD	n/a	wordpools/wordpool_categorized_EN.txt	BUTTERFLY	Insects	2	12	[0, 0, 0]	n/a	catFR1	2	R1655S
1227.577	0.983	1247402	WORD_OFF	n/a	n/a	BUTTERFLY	Insects	2	12	[0, 0, 0]	n/a	catFR1	2	R1655S
1228.56	1.6	1248380	WORD	n/a	wordpools/wordpool_categorized_EN.txt	FOUNDATION	Building	3	12	[0, 0, 0]	n/a	catFR1	2	R1655S
1230.16	0.809	1249990	WORD_OFF	n/a	n/a	FOUNDATION	Building	3	12	[0, 0, 0]	n/a	catFR1	2	R1655S
1230.969	1.6	1250795	WORD	n/a	wordpools/wordpool_categorized_EN.txt	STAIRS	Building	4	12	[0, 0, 0]	n/a	catFR1	2	R1655S
1232.569	0.849	1252391	WORD_OFF	n/a	n/a	STAIRS	Building	4	12	[0, 0, 0]	n/a	catFR1	2	R1655S
1233.418	1.6	1253239	WORD	n/a	wordpools/wordpool_categorized_EN.txt	PINE	Trees	5	12	[0, 0, 0]	n/a	catFR1	2	R1655S
1235.018	0.776	1254835	WORD_OFF	n/a	n/a	PINE	Trees	5	12	[0, 0, 0]	n/a	catFR1	2	R1655S
1235.794	1.61	1255612	WORD	n/a	wordpools/wordpool_categorized_EN.txt	BIRCH	Trees	6	12	[0, 0, 0]	n/a	catFR1	2	R1655S
1237.404	0.768	1257236	WORD_OFF	n/a	n/a	BIRCH	Trees	6	12	[0, 0, 0]	n/a	catFR1	2	R1655S
1238.172	1.604	1257998	WORD	n/a	wordpools/wordpool_categorized_EN.txt	GNAT	Insects	7	12	[0, 0, 0]	n/a	catFR1	2	R1655S
1239.776	0.918	1259594	WORD_OFF	n/a	n/a	GNAT	Insects	7	12	[0, 0, 0]	n/a	catFR1	2	R1655S
1240.694	1.608	1260514	WORD	n/a	wordpools/wordpool_categorized_EN.txt	BEETLE	Insects	8	12	[0, 0, 0]	n/a	catFR1	2	R1655S
1242.302	0.983	1262124	WORD_OFF	n/a	n/a	BEETLE	Insects	8	12	[0, 0, 0]	n/a	catFR1	2	R1655S
1243.285	1.608	1263116	WORD	n/a	wordpools/wordpool_categorized_EN.txt	DOOR	Building	9	12	[0, 0, 0]	n/a	catFR1	2	R1655S
1244.893	0.95	1264712	WORD_OFF	n/a	n/a	DOOR	Building	9	12	[0, 0, 0]	n/a	catFR1	2	R1655S
1245.843	1.6	1265661	WORD	n/a	wordpools/wordpool_categorized_EN.txt	FLOOR	Building	10	12	[0, 0, 0]	n/a	catFR1	2	R1655S
1247.443	0.976	1267271	WORD_OFF	n/a	n/a	FLOOR	Building	10	12	[0, 0, 0]	n/a	catFR1	2	R1655S
1248.419	1.601	1268249	WORD	n/a	wordpools/wordpool_categorized_EN.txt	OAK	Trees	11	12	[0, 0, 0]	n/a	catFR1	2	R1655S
1250.02	0.909	1269845	WORD_OFF	n/a	n/a	OAK	Trees	11	12	[0, 0, 0]	n/a	catFR1	2	R1655S
1250.929	1.598	1270750	WORD	n/a	wordpools/wordpool_categorized_EN.txt	SPRUCE	Trees	12	12	[0, 0, 0]	n/a	catFR1	2	R1655S
1252.527	0.005	1272347	PROB	0.005	n/a	n/a	n/a	-999	12	[4, 2, 2]	8	catFR1	2	R1655S
1252.532	0.0	1272352	START	n/a	n/a	n/a	n/a	-999	12	[-999, -999, -999]	n/a	catFR1	2	R1655S
1252.528	0.004	1272360	WORD_OFF	n/a	n/a	SPRUCE	Trees	12	12	[0, 0, 0]	n/a	catFR1	2	R1655S
1252.532	0.0	1272360	ENCODING_END	n/a	n/a	n/a	n/a	-999	12	[0, 0, 0]	n/a	catFR1	2	R1655S
1252.532	5.63	1272360	DISTRACT_START	n/a	n/a	n/a	n/a	-999	12	[0, 0, 0]	n/a	catFR1	2	R1655S
1258.162	3.397	1277982	PROB	3.397	n/a	n/a	n/a	-999	12	[7, 8, 6]	21	catFR1	2	R1655S
1261.559	3.834	1281379	PROB	3.834	n/a	n/a	n/a	-999	12	[5, 1, 6]	12	catFR1	2	R1655S
1265.393	3.859	1285213	PROB	3.859	n/a	n/a	n/a	-999	12	[5, 4, 2]	11	catFR1	2	R1655S
1269.252	3.283	1289072	PROB	3.283	n/a	n/a	n/a	-999	12	[1, 6, 1]	8	catFR1	2	R1655S
1272.535	0.0	1292355	STOP	n/a	n/a	n/a	n/a	-999	12	[-999, -999, -999]	n/a	catFR1	2	R1655S
1272.535	2.167	1292359	DISTRACT_END	n/a	n/a	n/a	n/a	-999	12	[0, 0, 0]	n/a	catFR1	2	R1655S
1274.702	1.464	1294530	REC_START	n/a	n/a	n/a	n/a	-999	12	[0, 0, 0]	n/a	catFR1	2	R1655S
1276.166	1.942	1295986	REC_WORD_VV	1.942	n/a	<>	n/a	-999	12	[0, 0, 0]	n/a	catFR1	2	R1655S
1278.108	4.196	1297928	REC_WORD_VV	4.196	n/a	<>	n/a	-999	12	[0, 0, 0]	n/a	catFR1	2	R1655S
1282.304	5.169	1302124	REC_WORD	5.169	n/a	HICKORY	Trees	-999	12	[0, 0, 0]	n/a	catFR1	2	R1655S
1287.473	1.0	1307293	REC_WORD_VV	1.0	n/a	<>	n/a	-999	12	[0, 0, 0]	n/a	catFR1	2	R1655S
1288.473	16.37	1308293	REC_WORD_VV	16.37	n/a	<>	n/a	-999	12	[0, 0, 0]	n/a	catFR1	2	R1655S
1304.843	0.0	1324663	REC_END	n/a	n/a	n/a	n/a	-999	12	[0, 0, 0]	n/a	catFR1	2	R1655S
