onset	duration	sample	trial_type	response_time	stim_file	item_name	category	serialpos	list	test	answer	experiment	session	subject
0.0	164.909	43964	INSTRUCT_START	n/a	n/a	n/a	n/a	-999	-999	[0, 0, 0]	n/a	catFR1	4	R1491T
164.909	28.4	208870	INSTRUCT_END	n/a	n/a	n/a	n/a	-999	-999	[0, 0, 0]	n/a	catFR1	4	R1491T
193.309	10.349	237266	COUNTDOWN_START	n/a	n/a	n/a	n/a	-999	-999	[0, 0, 0]	n/a	catFR1	4	R1491T
203.658	0.0	247614	COUNTDOWN_END	n/a	n/a	n/a	n/a	-999	-999	[0, 0, 0]	n/a	catFR1	4	R1491T
203.658	2.085	247614	ENCODING_START	n/a	n/a	n/a	n/a	-999	-1	[0, 0, 0]	n/a	catFR1	4	R1491T
205.743	1.599	249694	WORD	n/a	n/a	RATCHET	Tools	1	-1	[0, 0, 0]	n/a	catFR1	4	R1491T
207.342	0.851	251292	WORD_OFF	n/a	n/a	RATCHET	Tools	1	-1	[0, 0, 0]	n/a	catFR1	4	R1491T
208.193	1.616	252146	WORD	n/a	n/a	LEVEL	Tools	2	-1	[0, 0, 0]	n/a	catFR1	4	R1491T
209.809	0.9	253758	WORD_OFF	n/a	n/a	LEVEL	Tools	2	-1	[0, 0, 0]	n/a	catFR1	4	R1491T
210.709	1.617	254668	WORD	n/a	n/a	SKIRT	Clothing	3	-1	[0, 0, 0]	n/a	catFR1	4	R1491T
212.326	0.933	256280	WORD_OFF	n/a	n/a	SKIRT	Clothing	3	-1	[0, 0, 0]	n/a	catFR1	4	R1491T
213.259	1.615	257217	WORD	n/a	n/a	COAT	Clothing	4	-1	[0, 0, 0]	n/a	catFR1	4	R1491T
214.874	0.951	258829	WORD_OFF	n/a	n/a	COAT	Clothing	4	-1	[0, 0, 0]	n/a	catFR1	4	R1491T
215.825	1.601	259779	WORD	n/a	n/a	CREEK	Landscapes	5	-1	[0, 0, 0]	n/a	catFR1	4	R1491T
217.426	0.767	261378	WORD_OFF	n/a	n/a	CREEK	Landscapes	5	-1	[0, 0, 0]	n/a	catFR1	4	R1491T
218.193	1.616	262149	WORD	n/a	n/a	STREAM	Landscapes	6	-1	[0, 0, 0]	n/a	catFR1	4	R1491T
219.809	0.833	263761	WORD_OFF	n/a	n/a	STREAM	Landscapes	6	-1	[0, 0, 0]	n/a	catFR1	4	R1491T
220.642	1.616	264602	WORD	n/a	n/a	AXE	Tools	7	-1	[0, 0, 0]	n/a	catFR1	4	R1491T
222.258	0.916	266214	WORD_OFF	n/a	n/a	AXE	Tools	7	-1	[0, 0, 0]	n/a	catFR1	4	R1491T
223.174	1.617	267123	WORD	n/a	n/a	SANDER	Tools	8	-1	[0, 0, 0]	n/a	catFR1	4	R1491T
224.791	0.885	268749	WORD_OFF	n/a	n/a	SANDER	Tools	8	-1	[0, 0, 0]	n/a	catFR1	4	R1491T
225.676	1.615	269630	WORD	n/a	n/a	JEANS	Clothing	9	-1	[0, 0, 0]	n/a	catFR1	4	R1491T
227.291	1.001	271242	WORD_OFF	n/a	n/a	JEANS	Clothing	9	-1	[0, 0, 0]	n/a	catFR1	4	R1491T
228.292	1.6	272248	WORD	n/a	n/a	SHIRT	Clothing	10	-1	[0, 0, 0]	n/a	catFR1	4	R1491T
229.892	0.767	273846	WORD_OFF	n/a	n/a	SHIRT	Clothing	10	-1	[0, 0, 0]	n/a	catFR1	4	R1491T
230.659	1.616	274618	WORD	n/a	n/a	BEACH	Landscapes	11	-1	[0, 0, 0]	n/a	catFR1	4	R1491T
232.275	0.833	276230	WORD_OFF	n/a	n/a	BEACH	Landscapes	11	-1	[0, 0, 0]	n/a	catFR1	4	R1491T
233.108	1.602	277057	WORD	n/a	n/a	VALLEY	Landscapes	12	-1	[0, 0, 0]	n/a	catFR1	4	R1491T
234.71	0.001	278661	START	n/a	n/a	n/a	n/a	-999	-1	[-999, -999, -999]	n/a	catFR1	4	R1491T
234.711	0.0	278662	PROB	0.0	n/a	n/a	n/a	-999	-1	[5, 4, 1]	10	catFR1	4	R1491T
234.708	0.002	278669	WORD_OFF	n/a	n/a	VALLEY	Landscapes	12	-1	[0, 0, 0]	n/a	catFR1	4	R1491T
234.71	0.0	278669	ENCODING_END	n/a	n/a	n/a	n/a	-999	-1	[0, 0, 0]	n/a	catFR1	4	R1491T
234.71	5.999	278669	DISTRACT_START	n/a	n/a	n/a	n/a	-999	-1	[0, 0, 0]	n/a	catFR1	4	R1491T
240.709	4.917	284659	PROB	4.917	n/a	n/a	n/a	-999	-1	[7, 3, 1]	11	catFR1	4	R1491T
245.626	4.816	289576	PROB	4.816	n/a	n/a	n/a	-999	-1	[7, 8, 7]	22	catFR1	4	R1491T
250.442	5.583	294392	PROB	5.583	n/a	n/a	n/a	-999	-1	[5, 1, 2]	8	catFR1	4	R1491T
256.025	0.0	299975	STOP	n/a	n/a	n/a	n/a	-999	-1	[-999, -999, -999]	n/a	catFR1	4	R1491T
256.025	1.034	299983	DISTRACT_END	n/a	n/a	n/a	n/a	-999	-1	[0, 0, 0]	n/a	catFR1	4	R1491T
257.059	1.749	301016	REC_START	n/a	n/a	n/a	n/a	-999	-1	[0, 0, 0]	n/a	catFR1	4	R1491T
258.808	0.759	302757	REC_WORD_VV	0.759	n/a	<>	n/a	-999	-1	[0, 0, 0]	n/a	catFR1	4	R1491T
259.567	11.826	303516	REC_WORD_VV	11.826	n/a	<>	n/a	-999	-1	[0, 0, 0]	n/a	catFR1	4	R1491T
271.393	0.291	315342	REC_WORD_VV	0.291	n/a	<>	n/a	-999	-1	[0, 0, 0]	n/a	catFR1	4	R1491T
271.684	1.0	315633	REC_WORD	1.0	n/a	STRETCH	n/a	-999	-1	[0, 0, 0]	n/a	catFR1	4	R1491T
272.684	15.577	316633	REC_WORD	15.577	n/a	STRETCH	n/a	-999	-1	[0, 0, 0]	n/a	catFR1	4	R1491T
288.261	16.498	332209	REC_END	n/a	n/a	n/a	n/a	-999	-1	[0, 0, 0]	n/a	catFR1	4	R1491T
304.759	10.35	348715	COUNTDOWN_START	n/a	n/a	n/a	n/a	-999	1	[0, 0, 0]	n/a	catFR1	4	R1491T
315.109	0.0	359062	COUNTDOWN_END	n/a	n/a	n/a	n/a	-999	1	[0, 0, 0]	n/a	catFR1	4	R1491T
315.109	2.082	359062	ENCODING_START	n/a	n/a	n/a	n/a	-999	1	[0, 0, 0]	n/a	catFR1	4	R1491T
317.191	1.601	361142	WORD	n/a	wordpools/wordpool_categorized_EN.txt	SPANDEX	Fabric	1	1	[0, 0, 0]	n/a	catFR1	4	R1491T
318.792	0.95	362741	WORD_OFF	n/a	n/a	SPANDEX	Fabric	1	1	[0, 0, 0]	n/a	catFR1	4	R1491T
319.742	1.616	363691	WORD	n/a	wordpools/wordpool_categorized_EN.txt	LEATHER	Fabric	2	1	[0, 0, 0]	n/a	catFR1	4	R1491T
321.358	0.918	365303	WORD_OFF	n/a	n/a	LEATHER	Fabric	2	1	[0, 0, 0]	n/a	catFR1	4	R1491T
322.276	1.616	366226	WORD	n/a	wordpools/wordpool_categorized_EN.txt	COMPUTER	Electronics	3	1	[0, 0, 0]	n/a	catFR1	4	R1491T
323.892	0.817	367838	WORD_OFF	n/a	n/a	COMPUTER	Electronics	3	1	[0, 0, 0]	n/a	catFR1	4	R1491T
324.709	1.617	368652	WORD	n/a	wordpools/wordpool_categorized_EN.txt	STEREO	Electronics	4	1	[0, 0, 0]	n/a	catFR1	4	R1491T
326.326	0.85	370277	WORD_OFF	n/a	n/a	STEREO	Electronics	4	1	[0, 0, 0]	n/a	catFR1	4	R1491T
327.176	1.616	371131	WORD	n/a	wordpools/wordpool_categorized_EN.txt	COLA	Beverages	5	1	[0, 0, 0]	n/a	catFR1	4	R1491T
328.792	0.782	372743	WORD_OFF	n/a	n/a	COLA	Beverages	5	1	[0, 0, 0]	n/a	catFR1	4	R1491T
329.574	1.602	373529	WORD	n/a	wordpools/wordpool_categorized_EN.txt	WATER	Beverages	6	1	[0, 0, 0]	n/a	catFR1	4	R1491T
331.176	0.85	375127	WORD_OFF	n/a	n/a	WATER	Beverages	6	1	[0, 0, 0]	n/a	catFR1	4	R1491T
332.026	1.616	375981	WORD	n/a	wordpools/wordpool_categorized_EN.txt	VELVET	Fabric	7	1	[0, 0, 0]	n/a	catFR1	4	R1491T
333.642	0.8	377593	WORD_OFF	n/a	n/a	VELVET	Fabric	7	1	[0, 0, 0]	n/a	catFR1	4	R1491T
334.442	1.6	378392	WORD	n/a	wordpools/wordpool_categorized_EN.txt	SUEDE	Fabric	8	1	[0, 0, 0]	n/a	catFR1	4	R1491T
336.042	0.784	379990	WORD_OFF	n/a	n/a	SUEDE	Fabric	8	1	[0, 0, 0]	n/a	catFR1	4	R1491T
336.826	1.615	380776	WORD	n/a	wordpools/wordpool_categorized_EN.txt	CALCULATOR	Electronics	9	1	[0, 0, 0]	n/a	catFR1	4	R1491T
338.441	0.851	382388	WORD_OFF	n/a	n/a	CALCULATOR	Electronics	9	1	[0, 0, 0]	n/a	catFR1	4	R1491T
339.292	1.617	383242	WORD	n/a	wordpools/wordpool_categorized_EN.txt	TELEVISION	Electronics	10	1	[0, 0, 0]	n/a	catFR1	4	R1491T
340.909	0.832	384854	WORD_OFF	n/a	n/a	TELEVISION	Electronics	10	1	[0, 0, 0]	n/a	catFR1	4	R1491T
341.741	1.601	385694	WORD	n/a	wordpools/wordpool_categorized_EN.txt	RUM	Beverages	11	1	[0, 0, 0]	n/a	catFR1	4	R1491T
343.342	0.884	387293	WORD_OFF	n/a	n/a	RUM	Beverages	11	1	[0, 0, 0]	n/a	catFR1	4	R1491T
344.226	1.614	388174	WORD	n/a	wordpools/wordpool_categorized_EN.txt	TEA	Beverages	12	1	[0, 0, 0]	n/a	catFR1	4	R1491T
345.84	0.001	389786	WORD_OFF	n/a	n/a	TEA	Beverages	12	1	[0, 0, 0]	n/a	catFR1	4	R1491T
345.841	0.0	389786	ENCODING_END	n/a	n/a	n/a	n/a	-999	1	[0, 0, 0]	n/a	catFR1	4	R1491T
345.841	0.0	389786	DISTRACT_START	n/a	n/a	n/a	n/a	-999	1	[0, 0, 0]	n/a	catFR1	4	R1491T
345.841	0.001	389786	START	n/a	n/a	n/a	n/a	-999	1	[-999, -999, -999]	n/a	catFR1	4	R1491T
345.842	13.884	389787	PROB	13.884	n/a	n/a	n/a	-999	1	[5, 8, 4]	17	catFR1	4	R1491T
359.726	4.533	403670	PROB	4.533	n/a	n/a	n/a	-999	1	[2, 7, 3]	12	catFR1	4	R1491T
364.259	4.9	408203	PROB	4.9	n/a	n/a	n/a	-999	1	[4, 5, 8]	17	catFR1	4	R1491T
369.159	0.0	413098	DISTRACT_END	n/a	n/a	n/a	n/a	-999	1	[0, 0, 0]	n/a	catFR1	4	R1491T
369.159	1.1	413103	STOP	n/a	n/a	n/a	n/a	-999	1	[-999, -999, -999]	n/a	catFR1	4	R1491T
370.259	2.249	414201	REC_START	n/a	n/a	n/a	n/a	-999	1	[0, 0, 0]	n/a	catFR1	4	R1491T
372.508	0.998	416452	REC_WORD	0.998	n/a	SPANDEX	Fabric	1	1	[0, 0, 0]	n/a	catFR1	4	R1491T
373.506	1.708	417450	REC_WORD	1.708	n/a	SPANDEX	Fabric	1	1	[0, 0, 0]	n/a	catFR1	4	R1491T
375.214	4.425	419157	REC_WORD	4.425	n/a	RUM	Beverages	11	1	[0, 0, 0]	n/a	catFR1	4	R1491T
379.639	1.003	423582	REC_WORD_VV	1.003	n/a	<>	n/a	-999	1	[0, 0, 0]	n/a	catFR1	4	R1491T
380.642	1.001	424585	REC_WORD_VV	1.001	n/a	<>	n/a	-999	1	[0, 0, 0]	n/a	catFR1	4	R1491T
381.643	19.828	425586	REC_WORD_VV	19.828	n/a	<>	n/a	-999	1	[0, 0, 0]	n/a	catFR1	4	R1491T
401.471	2.254	445421	REC_END	n/a	n/a	n/a	n/a	-999	1	[0, 0, 0]	n/a	catFR1	4	R1491T
403.725	10.35	447667	COUNTDOWN_START	n/a	n/a	n/a	n/a	-999	1	[0, 0, 0]	n/a	catFR1	4	R1491T
414.075	0.0	458014	COUNTDOWN_END	n/a	n/a	n/a	n/a	-999	1	[0, 0, 0]	n/a	catFR1	4	R1491T
414.075	1.933	458028	ENCODING_START	n/a	n/a	n/a	n/a	-999	2	[0, 0, 0]	n/a	catFR1	4	R1491T
416.008	1.601	459956	WORD	n/a	wordpools/wordpool_categorized_EN.txt	SHRIMP	OceanAnimals	1	2	[0, 0, 0]	n/a	catFR1	4	R1491T
417.609	0.983	461555	WORD_OFF	n/a	n/a	SHRIMP	OceanAnimals	1	2	[0, 0, 0]	n/a	catFR1	4	R1491T
418.592	1.617	462533	WORD	n/a	wordpools/wordpool_categorized_EN.txt	CRAB	OceanAnimals	2	2	[0, 0, 0]	n/a	catFR1	4	R1491T
420.209	0.767	464159	WORD_OFF	n/a	n/a	CRAB	OceanAnimals	2	2	[0, 0, 0]	n/a	catFR1	4	R1491T
420.976	1.617	464916	WORD	n/a	wordpools/wordpool_categorized_EN.txt	WILLOW	Trees	3	2	[0, 0, 0]	n/a	catFR1	4	R1491T
422.593	0.983	466542	WORD_OFF	n/a	n/a	WILLOW	Trees	3	2	[0, 0, 0]	n/a	catFR1	4	R1491T
423.576	1.616	467520	WORD	n/a	wordpools/wordpool_categorized_EN.txt	MAPLE	Trees	4	2	[0, 0, 0]	n/a	catFR1	4	R1491T
425.192	0.899	469132	WORD_OFF	n/a	n/a	MAPLE	Trees	4	2	[0, 0, 0]	n/a	catFR1	4	R1491T
426.091	1.601	470042	WORD	n/a	wordpools/wordpool_categorized_EN.txt	LEG	BodyParts	5	2	[0, 0, 0]	n/a	catFR1	4	R1491T
427.692	0.9	471640	WORD_OFF	n/a	n/a	LEG	BodyParts	5	2	[0, 0, 0]	n/a	catFR1	4	R1491T
428.592	1.6	472536	WORD	n/a	wordpools/wordpool_categorized_EN.txt	FOOT	BodyParts	6	2	[0, 0, 0]	n/a	catFR1	4	R1491T
430.192	0.833	474134	WORD_OFF	n/a	n/a	FOOT	BodyParts	6	2	[0, 0, 0]	n/a	catFR1	4	R1491T
431.025	1.617	474974	WORD	n/a	wordpools/wordpool_categorized_EN.txt	DOLPHIN	OceanAnimals	7	2	[0, 0, 0]	n/a	catFR1	4	R1491T
432.642	0.967	476586	WORD_OFF	n/a	n/a	DOLPHIN	OceanAnimals	7	2	[0, 0, 0]	n/a	catFR1	4	R1491T
433.609	1.6	477551	WORD	n/a	wordpools/wordpool_categorized_EN.txt	JELLYFISH	OceanAnimals	8	2	[0, 0, 0]	n/a	catFR1	4	R1491T
435.209	0.917	479149	WORD_OFF	n/a	n/a	JELLYFISH	OceanAnimals	8	2	[0, 0, 0]	n/a	catFR1	4	R1491T
436.126	1.616	480072	WORD	n/a	wordpools/wordpool_categorized_EN.txt	BIRCH	Trees	9	2	[0, 0, 0]	n/a	catFR1	4	R1491T
437.742	0.833	481684	WORD_OFF	n/a	n/a	BIRCH	Trees	9	2	[0, 0, 0]	n/a	catFR1	4	R1491T
438.575	1.601	482524	WORD	n/a	wordpools/wordpool_categorized_EN.txt	WALNUT	Trees	10	2	[0, 0, 0]	n/a	catFR1	4	R1491T
440.176	0.883	484123	WORD_OFF	n/a	n/a	WALNUT	Trees	10	2	[0, 0, 0]	n/a	catFR1	4	R1491T
441.059	1.6	485004	WORD	n/a	wordpools/wordpool_categorized_EN.txt	NOSE	BodyParts	11	2	[0, 0, 0]	n/a	catFR1	4	R1491T
442.659	0.766	486603	WORD_OFF	n/a	n/a	NOSE	BodyParts	11	2	[0, 0, 0]	n/a	catFR1	4	R1491T
443.425	1.618	487374	WORD	n/a	wordpools/wordpool_categorized_EN.txt	ELBOW	BodyParts	12	2	[0, 0, 0]	n/a	catFR1	4	R1491T
445.043	0.001	488983	PROB	0.001	n/a	n/a	n/a	-999	2	[4, 4, 8]	16	catFR1	4	R1491T
445.044	0.0	488984	START	n/a	n/a	n/a	n/a	-999	2	[-999, -999, -999]	n/a	catFR1	4	R1491T
445.042	0.002	488986	WORD_OFF	n/a	n/a	ELBOW	BodyParts	12	2	[0, 0, 0]	n/a	catFR1	4	R1491T
445.044	0.0	488986	ENCODING_END	n/a	n/a	n/a	n/a	-999	2	[0, 0, 0]	n/a	catFR1	4	R1491T
445.044	6.766	488986	DISTRACT_START	n/a	n/a	n/a	n/a	-999	2	[0, 0, 0]	n/a	catFR1	4	R1491T
451.81	6.816	495750	PROB	6.816	n/a	n/a	n/a	-999	2	[8, 8, 2]	18	catFR1	4	R1491T
458.626	3.967	502565	PROB	3.967	n/a	n/a	n/a	-999	2	[6, 1, 1]	8	catFR1	4	R1491T
462.593	14.933	506532	PROB	14.933	n/a	n/a	n/a	-999	2	[2, 7, 4]	13	catFR1	4	R1491T
477.526	0.0	521460	DISTRACT_END	n/a	n/a	n/a	n/a	-999	2	[0, 0, 0]	n/a	catFR1	4	R1491T
477.526	1.183	521464	STOP	n/a	n/a	n/a	n/a	-999	2	[-999, -999, -999]	n/a	catFR1	4	R1491T
478.709	30.011	522645	REC_START	n/a	n/a	n/a	n/a	-999	2	[0, 0, 0]	n/a	catFR1	4	R1491T
508.72	1.213	552657	REC_WORD_VV	1.213	n/a	<>	n/a	-999	2	[0, 0, 0]	n/a	catFR1	4	R1491T
509.933	2.893	553879	REC_END	n/a	n/a	n/a	n/a	-999	2	[0, 0, 0]	n/a	catFR1	4	R1491T
512.826	10.35	556759	COUNTDOWN_START	n/a	n/a	n/a	n/a	-999	2	[0, 0, 0]	n/a	catFR1	4	R1491T
523.176	0.0	567120	COUNTDOWN_END	n/a	n/a	n/a	n/a	-999	2	[0, 0, 0]	n/a	catFR1	4	R1491T
523.176	2.016	567120	ENCODING_START	n/a	n/a	n/a	n/a	-999	3	[0, 0, 0]	n/a	catFR1	4	R1491T
525.192	1.617	569131	WORD	n/a	wordpools/wordpool_categorized_EN.txt	VIOLET	Flowers	1	3	[0, 0, 0]	n/a	catFR1	4	R1491T
526.809	1.0	570743	WORD_OFF	n/a	n/a	VIOLET	Flowers	1	3	[0, 0, 0]	n/a	catFR1	4	R1491T
527.809	1.6	571749	WORD	n/a	wordpools/wordpool_categorized_EN.txt	LILY	Flowers	2	3	[0, 0, 0]	n/a	catFR1	4	R1491T
529.409	0.9	573347	WORD_OFF	n/a	n/a	LILY	Flowers	2	3	[0, 0, 0]	n/a	catFR1	4	R1491T
530.309	1.6	574243	WORD	n/a	wordpools/wordpool_categorized_EN.txt	ELM	Trees	3	3	[0, 0, 0]	n/a	catFR1	4	R1491T
531.909	0.849	575841	WORD_OFF	n/a	n/a	ELM	Trees	3	3	[0, 0, 0]	n/a	catFR1	4	R1491T
532.758	1.601	576695	WORD	n/a	wordpools/wordpool_categorized_EN.txt	OAK	Trees	4	3	[0, 0, 0]	n/a	catFR1	4	R1491T
534.359	0.882	578294	WORD_OFF	n/a	n/a	OAK	Trees	4	3	[0, 0, 0]	n/a	catFR1	4	R1491T
535.241	1.601	579175	WORD	n/a	wordpools/wordpool_categorized_EN.txt	PEAS	Vegetables	5	3	[0, 0, 0]	n/a	catFR1	4	R1491T
536.842	0.867	580774	WORD_OFF	n/a	n/a	PEAS	Vegetables	5	3	[0, 0, 0]	n/a	catFR1	4	R1491T
537.709	1.6	581642	WORD	n/a	wordpools/wordpool_categorized_EN.txt	CARROT	Vegetables	6	3	[0, 0, 0]	n/a	catFR1	4	R1491T
539.309	0.833	583254	WORD_OFF	n/a	n/a	CARROT	Vegetables	6	3	[0, 0, 0]	n/a	catFR1	4	R1491T
540.142	1.6	584080	WORD	n/a	wordpools/wordpool_categorized_EN.txt	CARNATION	Flowers	7	3	[0, 0, 0]	n/a	catFR1	4	R1491T
541.742	0.834	585679	WORD_OFF	n/a	n/a	CARNATION	Flowers	7	3	[0, 0, 0]	n/a	catFR1	4	R1491T
542.576	1.616	586519	WORD	n/a	wordpools/wordpool_categorized_EN.txt	TULIP	Flowers	8	3	[0, 0, 0]	n/a	catFR1	4	R1491T
544.192	0.867	588131	WORD_OFF	n/a	n/a	TULIP	Flowers	8	3	[0, 0, 0]	n/a	catFR1	4	R1491T
545.059	1.617	588999	WORD	n/a	wordpools/wordpool_categorized_EN.txt	ONION	Vegetables	9	3	[0, 0, 0]	n/a	catFR1	4	R1491T
546.676	0.983	590611	WORD_OFF	n/a	n/a	ONION	Vegetables	9	3	[0, 0, 0]	n/a	catFR1	4	R1491T
547.659	1.6	591603	WORD	n/a	wordpools/wordpool_categorized_EN.txt	CELERY	Vegetables	10	3	[0, 0, 0]	n/a	catFR1	4	R1491T
549.259	0.833	593201	WORD_OFF	n/a	n/a	CELERY	Vegetables	10	3	[0, 0, 0]	n/a	catFR1	4	R1491T
550.092	1.6	594028	WORD	n/a	wordpools/wordpool_categorized_EN.txt	EVERGREEN	Trees	11	3	[0, 0, 0]	n/a	catFR1	4	R1491T
551.692	0.867	595626	WORD_OFF	n/a	n/a	EVERGREEN	Trees	11	3	[0, 0, 0]	n/a	catFR1	4	R1491T
552.559	1.6	596494	WORD	n/a	wordpools/wordpool_categorized_EN.txt	PINE	Trees	12	3	[0, 0, 0]	n/a	catFR1	4	R1491T
554.159	0.001	598092	WORD_OFF	n/a	n/a	PINE	Trees	12	3	[0, 0, 0]	n/a	catFR1	4	R1491T
554.16	0.0	598092	ENCODING_END	n/a	n/a	n/a	n/a	-999	3	[0, 0, 0]	n/a	catFR1	4	R1491T
554.159	0.001	598093	PROB	0.001	n/a	n/a	n/a	-999	3	[6, 3, 3]	12	catFR1	4	R1491T
554.16	0.0	598094	START	n/a	n/a	n/a	n/a	-999	3	[-999, -999, -999]	n/a	catFR1	4	R1491T
554.16	5.916	598106	DISTRACT_START	n/a	n/a	n/a	n/a	-999	3	[0, 0, 0]	n/a	catFR1	4	R1491T
560.076	10.084	604010	PROB	10.084	n/a	n/a	n/a	-999	3	[5, 8, 7]	20	catFR1	4	R1491T
570.16	3.833	614093	PROB	3.833	n/a	n/a	n/a	-999	3	[3, 4, 1]	8	catFR1	4	R1491T
573.993	3.949	617926	PROB	3.949	n/a	n/a	n/a	-999	3	[4, 6, 2]	12	catFR1	4	R1491T
577.942	0.0	621873	DISTRACT_END	n/a	n/a	n/a	n/a	-999	3	[0, 0, 0]	n/a	catFR1	4	R1491T
577.942	1.4	621875	STOP	n/a	n/a	n/a	n/a	-999	3	[-999, -999, -999]	n/a	catFR1	4	R1491T
579.342	30.01	623278	REC_START	n/a	n/a	n/a	n/a	-999	3	[0, 0, 0]	n/a	catFR1	4	R1491T
609.352	1.246	653283	REC_WORD_VV	1.246	n/a	<>	n/a	-999	3	[0, 0, 0]	n/a	catFR1	4	R1491T
610.598	2.195	654526	REC_END	n/a	n/a	n/a	n/a	-999	3	[0, 0, 0]	n/a	catFR1	4	R1491T
612.793	10.35	656731	COUNTDOWN_START	n/a	n/a	n/a	n/a	-999	3	[0, 0, 0]	n/a	catFR1	4	R1491T
623.143	0.0	667078	COUNTDOWN_END	n/a	n/a	n/a	n/a	-999	3	[0, 0, 0]	n/a	catFR1	4	R1491T
623.143	2.266	667078	ENCODING_START	n/a	n/a	n/a	n/a	-999	4	[0, 0, 0]	n/a	catFR1	4	R1491T
625.409	1.616	669337	WORD	n/a	wordpools/wordpool_categorized_EN.txt	SPEAKER	Electronics	1	4	[0, 0, 0]	n/a	catFR1	4	R1491T
627.025	0.917	670963	WORD_OFF	n/a	n/a	SPEAKER	Electronics	1	4	[0, 0, 0]	n/a	catFR1	4	R1491T
627.942	1.617	671872	WORD	n/a	wordpools/wordpool_categorized_EN.txt	MICROWAVE	Electronics	2	4	[0, 0, 0]	n/a	catFR1	4	R1491T
629.559	0.816	673498	WORD_OFF	n/a	n/a	MICROWAVE	Electronics	2	4	[0, 0, 0]	n/a	catFR1	4	R1491T
630.375	1.617	674311	WORD	n/a	wordpools/wordpool_categorized_EN.txt	BUS	Vehicles	3	4	[0, 0, 0]	n/a	catFR1	4	R1491T
631.992	0.783	675923	WORD_OFF	n/a	n/a	BUS	Vehicles	3	4	[0, 0, 0]	n/a	catFR1	4	R1491T
632.775	1.601	676708	WORD	n/a	wordpools/wordpool_categorized_EN.txt	TRUCK	Vehicles	4	4	[0, 0, 0]	n/a	catFR1	4	R1491T
634.376	0.766	678306	WORD_OFF	n/a	n/a	TRUCK	Vehicles	4	4	[0, 0, 0]	n/a	catFR1	4	R1491T
635.142	1.617	679078	WORD	n/a	wordpools/wordpool_categorized_EN.txt	GRAPE	Fruit	5	4	[0, 0, 0]	n/a	catFR1	4	R1491T
636.759	0.8	680690	WORD_OFF	n/a	n/a	GRAPE	Fruit	5	4	[0, 0, 0]	n/a	catFR1	4	R1491T
637.559	1.616	681489	WORD	n/a	wordpools/wordpool_categorized_EN.txt	BANANA	Fruit	6	4	[0, 0, 0]	n/a	catFR1	4	R1491T
639.175	0.851	683101	WORD_OFF	n/a	n/a	BANANA	Fruit	6	4	[0, 0, 0]	n/a	catFR1	4	R1491T
640.026	1.616	683955	WORD	n/a	wordpools/wordpool_categorized_EN.txt	MOPED	Vehicles	7	4	[0, 0, 0]	n/a	catFR1	4	R1491T
641.642	0.917	685581	WORD_OFF	n/a	n/a	MOPED	Vehicles	7	4	[0, 0, 0]	n/a	catFR1	4	R1491T
642.559	1.614	686490	WORD	n/a	wordpools/wordpool_categorized_EN.txt	MOTORCYCLE	Vehicles	8	4	[0, 0, 0]	n/a	catFR1	4	R1491T
644.173	0.802	688102	WORD_OFF	n/a	n/a	MOTORCYCLE	Vehicles	8	4	[0, 0, 0]	n/a	catFR1	4	R1491T
644.975	1.619	688902	WORD	n/a	wordpools/wordpool_categorized_EN.txt	SCANNER	Electronics	9	4	[0, 0, 0]	n/a	catFR1	4	R1491T
646.594	0.847	690527	WORD_OFF	n/a	n/a	SCANNER	Electronics	9	4	[0, 0, 0]	n/a	catFR1	4	R1491T
647.441	1.601	691368	WORD	n/a	wordpools/wordpool_categorized_EN.txt	PHONE	Electronics	10	4	[0, 0, 0]	n/a	catFR1	4	R1491T
649.042	0.782	692980	WORD_OFF	n/a	n/a	PHONE	Electronics	10	4	[0, 0, 0]	n/a	catFR1	4	R1491T
649.824	1.601	693751	WORD	n/a	wordpools/wordpool_categorized_EN.txt	STRAWBERRY	Fruit	11	4	[0, 0, 0]	n/a	catFR1	4	R1491T
651.425	0.799	695363	WORD_OFF	n/a	n/a	STRAWBERRY	Fruit	11	4	[0, 0, 0]	n/a	catFR1	4	R1491T
652.224	1.601	696162	WORD	n/a	wordpools/wordpool_categorized_EN.txt	PEAR	Fruit	12	4	[0, 0, 0]	n/a	catFR1	4	R1491T
653.825	0.002	697754	PROB	0.002	n/a	n/a	n/a	-999	4	[8, 4, 6]	18	catFR1	4	R1491T
653.827	0.0	697756	START	n/a	n/a	n/a	n/a	-999	4	[-999, -999, -999]	n/a	catFR1	4	R1491T
653.825	0.002	697761	WORD_OFF	n/a	n/a	PEAR	Fruit	12	4	[0, 0, 0]	n/a	catFR1	4	R1491T
653.827	0.0	697761	ENCODING_END	n/a	n/a	n/a	n/a	-999	4	[0, 0, 0]	n/a	catFR1	4	R1491T
653.827	7.647	697761	DISTRACT_START	n/a	n/a	n/a	n/a	-999	4	[0, 0, 0]	n/a	catFR1	4	R1491T
661.474	3.518	705403	PROB	3.518	n/a	n/a	n/a	-999	4	[1, 8, 2]	11	catFR1	4	R1491T
664.992	3.518	708921	PROB	3.518	n/a	n/a	n/a	-999	4	[1, 4, 7]	12	catFR1	4	R1491T
668.51	5.915	712438	PROB	5.915	n/a	n/a	n/a	-999	4	[2, 7, 7]	16	catFR1	4	R1491T
674.425	0.0	718353	STOP	n/a	n/a	n/a	n/a	-999	4	[-999, -999, -999]	n/a	catFR1	4	R1491T
674.425	1.4	718358	DISTRACT_END	n/a	n/a	n/a	n/a	-999	4	[0, 0, 0]	n/a	catFR1	4	R1491T
675.825	29.995	719750	REC_START	n/a	n/a	n/a	n/a	-999	4	[0, 0, 0]	n/a	catFR1	4	R1491T
705.82	1.219	749746	REC_WORD_VV	1.219	n/a	<>	n/a	-999	4	[0, 0, 0]	n/a	catFR1	4	R1491T
707.039	1.92	750970	REC_END	n/a	n/a	n/a	n/a	-999	4	[0, 0, 0]	n/a	catFR1	4	R1491T
708.959	10.351	752886	COUNTDOWN_START	n/a	n/a	n/a	n/a	-999	4	[0, 0, 0]	n/a	catFR1	4	R1491T
719.31	0.0	763233	COUNTDOWN_END	n/a	n/a	n/a	n/a	-999	4	[0, 0, 0]	n/a	catFR1	4	R1491T
719.31	2.349	763246	ENCODING_START	n/a	n/a	n/a	n/a	-999	5	[0, 0, 0]	n/a	catFR1	4	R1491T
721.659	1.6	765589	WORD	n/a	wordpools/wordpool_categorized_EN.txt	FLOOR	Building	1	5	[0, 0, 0]	n/a	catFR1	4	R1491T
723.259	0.783	767187	WORD_OFF	n/a	n/a	FLOOR	Building	1	5	[0, 0, 0]	n/a	catFR1	4	R1491T
724.042	1.6	767972	WORD	n/a	wordpools/wordpool_categorized_EN.txt	WALL	Building	2	5	[0, 0, 0]	n/a	catFR1	4	R1491T
725.642	0.9	769570	WORD_OFF	n/a	n/a	WALL	Building	2	5	[0, 0, 0]	n/a	catFR1	4	R1491T
726.542	1.617	770466	WORD	n/a	wordpools/wordpool_categorized_EN.txt	SEAGULL	Birds	3	5	[0, 0, 0]	n/a	catFR1	4	R1491T
728.159	0.817	772092	WORD_OFF	n/a	n/a	SEAGULL	Birds	3	5	[0, 0, 0]	n/a	catFR1	4	R1491T
728.976	1.6	772905	WORD	n/a	wordpools/wordpool_categorized_EN.txt	DUCK	Birds	4	5	[0, 0, 0]	n/a	catFR1	4	R1491T
730.576	0.8	774503	WORD_OFF	n/a	n/a	DUCK	Birds	4	5	[0, 0, 0]	n/a	catFR1	4	R1491T
731.376	1.616	775302	WORD	n/a	wordpools/wordpool_categorized_EN.txt	SPINACH	Vegetables	5	5	[0, 0, 0]	n/a	catFR1	4	R1491T
732.992	0.9	776914	WORD_OFF	n/a	n/a	SPINACH	Vegetables	5	5	[0, 0, 0]	n/a	catFR1	4	R1491T
733.892	1.617	777823	WORD	n/a	wordpools/wordpool_categorized_EN.txt	CORN	Vegetables	6	5	[0, 0, 0]	n/a	catFR1	4	R1491T
735.509	0.933	779435	WORD_OFF	n/a	n/a	CORN	Vegetables	6	5	[0, 0, 0]	n/a	catFR1	4	R1491T
736.442	1.601	780372	WORD	n/a	wordpools/wordpool_categorized_EN.txt	HAWK	Birds	7	5	[0, 0, 0]	n/a	catFR1	4	R1491T
738.043	0.933	781970	WORD_OFF	n/a	n/a	HAWK	Birds	7	5	[0, 0, 0]	n/a	catFR1	4	R1491T
738.976	1.616	782907	WORD	n/a	wordpools/wordpool_categorized_EN.txt	FINCH	Birds	8	5	[0, 0, 0]	n/a	catFR1	4	R1491T
740.592	0.933	784519	WORD_OFF	n/a	n/a	FINCH	Birds	8	5	[0, 0, 0]	n/a	catFR1	4	R1491T
741.525	1.601	785456	WORD	n/a	wordpools/wordpool_categorized_EN.txt	BROCCOLI	Vegetables	9	5	[0, 0, 0]	n/a	catFR1	4	R1491T
743.126	0.983	787054	WORD_OFF	n/a	n/a	BROCCOLI	Vegetables	9	5	[0, 0, 0]	n/a	catFR1	4	R1491T
744.109	1.616	788033	WORD	n/a	wordpools/wordpool_categorized_EN.txt	CUCUMBER	Vegetables	10	5	[0, 0, 0]	n/a	catFR1	4	R1491T
745.725	0.884	789658	WORD_OFF	n/a	n/a	CUCUMBER	Vegetables	10	5	[0, 0, 0]	n/a	catFR1	4	R1491T
746.609	1.6	790540	WORD	n/a	wordpools/wordpool_categorized_EN.txt	ATTIC	Building	11	5	[0, 0, 0]	n/a	catFR1	4	R1491T
748.209	0.766	792138	WORD_OFF	n/a	n/a	ATTIC	Building	11	5	[0, 0, 0]	n/a	catFR1	4	R1491T
748.975	1.601	792896	WORD	n/a	wordpools/wordpool_categorized_EN.txt	DOOR	Building	12	5	[0, 0, 0]	n/a	catFR1	4	R1491T
750.576	0.001	794500	PROB	0.001	n/a	n/a	n/a	-999	5	[1, 6, 6]	13	catFR1	4	R1491T
750.577	0.0	794501	START	n/a	n/a	n/a	n/a	-999	5	[-999, -999, -999]	n/a	catFR1	4	R1491T
750.576	0.001	794508	WORD_OFF	n/a	n/a	DOOR	Building	12	5	[0, 0, 0]	n/a	catFR1	4	R1491T
750.577	0.0	794508	ENCODING_END	n/a	n/a	n/a	n/a	-999	5	[0, 0, 0]	n/a	catFR1	4	R1491T
750.577	14.949	794508	DISTRACT_START	n/a	n/a	n/a	n/a	-999	5	[0, 0, 0]	n/a	catFR1	4	R1491T
765.526	4.067	809449	PROB	4.067	n/a	n/a	n/a	-999	5	[4, 6, 2]	12	catFR1	4	R1491T
769.593	5.632	813516	PROB	5.632	n/a	n/a	n/a	-999	5	[4, 5, 6]	15	catFR1	4	R1491T
775.225	0.0	819148	STOP	n/a	n/a	n/a	n/a	-999	5	[-999, -999, -999]	n/a	catFR1	4	R1491T
775.225	1.217	819157	DISTRACT_END	n/a	n/a	n/a	n/a	-999	5	[0, 0, 0]	n/a	catFR1	4	R1491T
776.442	29.995	820369	REC_START	n/a	n/a	n/a	n/a	-999	5	[0, 0, 0]	n/a	catFR1	4	R1491T
806.437	1.245	850358	REC_WORD_VV	1.245	n/a	<>	n/a	-999	5	[0, 0, 0]	n/a	catFR1	4	R1491T
807.682	2.609	851603	REC_END	n/a	n/a	n/a	n/a	-999	5	[0, 0, 0]	n/a	catFR1	4	R1491T
810.291	10.35	854221	COUNTDOWN_START	n/a	n/a	n/a	n/a	-999	5	[0, 0, 0]	n/a	catFR1	4	R1491T
820.641	0.0	864568	COUNTDOWN_END	n/a	n/a	n/a	n/a	-999	5	[0, 0, 0]	n/a	catFR1	4	R1491T
820.641	1.985	864568	ENCODING_START	n/a	n/a	n/a	n/a	-999	6	[0, 0, 0]	n/a	catFR1	4	R1491T
822.626	1.616	866552	WORD	n/a	wordpools/wordpool_categorized_EN.txt	BASKETBALL	Toys	1	6	[0, 0, 0]	n/a	catFR1	4	R1491T
824.242	0.784	868164	WORD_OFF	n/a	n/a	BASKETBALL	Toys	1	6	[0, 0, 0]	n/a	catFR1	4	R1491T
825.026	1.616	868949	WORD	n/a	wordpools/wordpool_categorized_EN.txt	BARBIE	Toys	2	6	[0, 0, 0]	n/a	catFR1	4	R1491T
826.642	0.866	870561	WORD_OFF	n/a	n/a	BARBIE	Toys	2	6	[0, 0, 0]	n/a	catFR1	4	R1491T
827.508	1.601	871429	WORD	n/a	wordpools/wordpool_categorized_EN.txt	CABINET	Furniture	3	6	[0, 0, 0]	n/a	catFR1	4	R1491T
829.109	1.0	873028	WORD_OFF	n/a	n/a	CABINET	Furniture	3	6	[0, 0, 0]	n/a	catFR1	4	R1491T
830.109	1.6	874033	WORD	n/a	wordpools/wordpool_categorized_EN.txt	RECLINER	Furniture	4	6	[0, 0, 0]	n/a	catFR1	4	R1491T
831.709	0.85	875632	WORD_OFF	n/a	n/a	RECLINER	Furniture	4	6	[0, 0, 0]	n/a	catFR1	4	R1491T
832.559	1.616	876486	WORD	n/a	wordpools/wordpool_categorized_EN.txt	FLUTE	Instruments	5	6	[0, 0, 0]	n/a	catFR1	4	R1491T
834.175	0.934	878098	WORD_OFF	n/a	n/a	FLUTE	Instruments	5	6	[0, 0, 0]	n/a	catFR1	4	R1491T
835.109	1.617	879035	WORD	n/a	wordpools/wordpool_categorized_EN.txt	TROMBONE	Instruments	6	6	[0, 0, 0]	n/a	catFR1	4	R1491T
836.726	1.0	880647	WORD_OFF	n/a	n/a	TROMBONE	Instruments	6	6	[0, 0, 0]	n/a	catFR1	4	R1491T
837.726	1.616	881653	WORD	n/a	wordpools/wordpool_categorized_EN.txt	DESK	Furniture	7	6	[0, 0, 0]	n/a	catFR1	4	R1491T
839.342	0.967	883265	WORD_OFF	n/a	n/a	DESK	Furniture	7	6	[0, 0, 0]	n/a	catFR1	4	R1491T
840.309	1.616	884229	WORD	n/a	wordpools/wordpool_categorized_EN.txt	NIGHTSTAND	Furniture	8	6	[0, 0, 0]	n/a	catFR1	4	R1491T
841.925	0.767	885841	WORD_OFF	n/a	n/a	NIGHTSTAND	Furniture	8	6	[0, 0, 0]	n/a	catFR1	4	R1491T
842.692	1.617	886613	WORD	n/a	wordpools/wordpool_categorized_EN.txt	DOLL	Toys	9	6	[0, 0, 0]	n/a	catFR1	4	R1491T
844.309	0.767	888238	WORD_OFF	n/a	n/a	DOLL	Toys	9	6	[0, 0, 0]	n/a	catFR1	4	R1491T
845.076	1.6	888996	WORD	n/a	wordpools/wordpool_categorized_EN.txt	DOLLHOUSE	Toys	10	6	[0, 0, 0]	n/a	catFR1	4	R1491T
846.676	0.933	890594	WORD_OFF	n/a	n/a	DOLLHOUSE	Toys	10	6	[0, 0, 0]	n/a	catFR1	4	R1491T
847.609	1.6	891531	WORD	n/a	wordpools/wordpool_categorized_EN.txt	TRUMPET	Instruments	11	6	[0, 0, 0]	n/a	catFR1	4	R1491T
849.209	0.949	893129	WORD_OFF	n/a	n/a	TRUMPET	Instruments	11	6	[0, 0, 0]	n/a	catFR1	4	R1491T
850.158	1.601	894080	WORD	n/a	wordpools/wordpool_categorized_EN.txt	ORGAN	Instruments	12	6	[0, 0, 0]	n/a	catFR1	4	R1491T
851.759	0.003	895678	WORD_OFF	n/a	n/a	ORGAN	Instruments	12	6	[0, 0, 0]	n/a	catFR1	4	R1491T
851.762	0.0	895678	ENCODING_END	n/a	n/a	n/a	n/a	-999	6	[0, 0, 0]	n/a	catFR1	4	R1491T
851.759	0.003	895678	PROB	0.003	n/a	n/a	n/a	-999	6	[5, 6, 6]	17	catFR1	4	R1491T
851.762	0.0	895681	START	n/a	n/a	n/a	n/a	-999	6	[-999, -999, -999]	n/a	catFR1	4	R1491T
851.762	5.498	895692	DISTRACT_START	n/a	n/a	n/a	n/a	-999	6	[0, 0, 0]	n/a	catFR1	4	R1491T
857.26	4.532	901179	PROB	4.532	n/a	n/a	n/a	-999	6	[7, 2, 3]	12	catFR1	4	R1491T
861.792	6.734	905710	PROB	6.734	n/a	n/a	n/a	-999	6	[8, 2, 8]	18	catFR1	4	R1491T
868.526	4.002	912444	PROB	4.002	n/a	n/a	n/a	-999	6	[5, 3, 2]	10	catFR1	4	R1491T
872.528	0.0	916446	STOP	n/a	n/a	n/a	n/a	-999	6	[-999, -999, -999]	n/a	catFR1	4	R1491T
872.528	1.281	916455	DISTRACT_END	n/a	n/a	n/a	n/a	-999	6	[0, 0, 0]	n/a	catFR1	4	R1491T
873.809	29.995	917736	REC_START	n/a	n/a	n/a	n/a	-999	6	[0, 0, 0]	n/a	catFR1	4	R1491T
903.804	1.243	947720	REC_WORD_VV	1.243	n/a	<>	n/a	-999	6	[0, 0, 0]	n/a	catFR1	4	R1491T
905.047	2.279	948971	REC_END	n/a	n/a	n/a	n/a	-999	6	[0, 0, 0]	n/a	catFR1	4	R1491T
907.326	10.349	951244	COUNTDOWN_START	n/a	n/a	n/a	n/a	-999	6	[0, 0, 0]	n/a	catFR1	4	R1491T
917.675	0.0	961591	COUNTDOWN_END	n/a	n/a	n/a	n/a	-999	6	[0, 0, 0]	n/a	catFR1	4	R1491T
917.675	2.251	961591	ENCODING_START	n/a	n/a	n/a	n/a	-999	7	[0, 0, 0]	n/a	catFR1	4	R1491T
919.926	1.617	963851	WORD	n/a	wordpools/wordpool_categorized_EN.txt	JELLO	Desserts	1	7	[0, 0, 0]	n/a	catFR1	4	R1491T
921.543	0.899	965463	WORD_OFF	n/a	n/a	JELLO	Desserts	1	7	[0, 0, 0]	n/a	catFR1	4	R1491T
922.442	1.6	966358	WORD	n/a	wordpools/wordpool_categorized_EN.txt	CUPCAKE	Desserts	2	7	[0, 0, 0]	n/a	catFR1	4	R1491T
924.042	0.933	967956	WORD_OFF	n/a	n/a	CUPCAKE	Desserts	2	7	[0, 0, 0]	n/a	catFR1	4	R1491T
924.975	1.601	968893	WORD	n/a	wordpools/wordpool_categorized_EN.txt	SUNFLOWER	Flowers	3	7	[0, 0, 0]	n/a	catFR1	4	R1491T
926.576	0.983	970492	WORD_OFF	n/a	n/a	SUNFLOWER	Flowers	3	7	[0, 0, 0]	n/a	catFR1	4	R1491T
927.559	1.6	971484	WORD	n/a	wordpools/wordpool_categorized_EN.txt	PETUNIA	Flowers	4	7	[0, 0, 0]	n/a	catFR1	4	R1491T
929.159	0.867	973082	WORD_OFF	n/a	n/a	PETUNIA	Flowers	4	7	[0, 0, 0]	n/a	catFR1	4	R1491T
930.026	1.6	973950	WORD	n/a	wordpools/wordpool_categorized_EN.txt	DRUM	Instruments	5	7	[0, 0, 0]	n/a	catFR1	4	R1491T
931.626	0.815	975548	WORD_OFF	n/a	n/a	DRUM	Instruments	5	7	[0, 0, 0]	n/a	catFR1	4	R1491T
932.441	1.601	976361	WORD	n/a	wordpools/wordpool_categorized_EN.txt	BANJO	Instruments	6	7	[0, 0, 0]	n/a	catFR1	4	R1491T
934.042	0.767	977959	WORD_OFF	n/a	n/a	BANJO	Instruments	6	7	[0, 0, 0]	n/a	catFR1	4	R1491T
934.809	1.6	978731	WORD	n/a	wordpools/wordpool_categorized_EN.txt	CHEESECAKE	Desserts	7	7	[0, 0, 0]	n/a	catFR1	4	R1491T
936.409	0.983	980329	WORD_OFF	n/a	n/a	CHEESECAKE	Desserts	7	7	[0, 0, 0]	n/a	catFR1	4	R1491T
937.392	1.6	981307	WORD	n/a	wordpools/wordpool_categorized_EN.txt	PUDDING	Desserts	8	7	[0, 0, 0]	n/a	catFR1	4	R1491T
938.992	0.917	982905	WORD_OFF	n/a	n/a	PUDDING	Desserts	8	7	[0, 0, 0]	n/a	catFR1	4	R1491T
939.909	1.617	983828	WORD	n/a	wordpools/wordpool_categorized_EN.txt	ROSE	Flowers	9	7	[0, 0, 0]	n/a	catFR1	4	R1491T
941.526	0.933	985440	WORD_OFF	n/a	n/a	ROSE	Flowers	9	7	[0, 0, 0]	n/a	catFR1	4	R1491T
942.459	1.6	986377	WORD	n/a	wordpools/wordpool_categorized_EN.txt	DAISY	Flowers	10	7	[0, 0, 0]	n/a	catFR1	4	R1491T
944.059	0.867	987976	WORD_OFF	n/a	n/a	DAISY	Flowers	10	7	[0, 0, 0]	n/a	catFR1	4	R1491T
944.926	1.616	988844	WORD	n/a	wordpools/wordpool_categorized_EN.txt	BASS	Instruments	11	7	[0, 0, 0]	n/a	catFR1	4	R1491T
946.542	0.767	990456	WORD_OFF	n/a	n/a	BASS	Instruments	11	7	[0, 0, 0]	n/a	catFR1	4	R1491T
947.309	1.616	991227	WORD	n/a	wordpools/wordpool_categorized_EN.txt	GUITAR	Instruments	12	7	[0, 0, 0]	n/a	catFR1	4	R1491T
948.925	0.003	992839	WORD_OFF	n/a	n/a	GUITAR	Instruments	12	7	[0, 0, 0]	n/a	catFR1	4	R1491T
948.928	0.0	992839	ENCODING_END	n/a	n/a	n/a	n/a	-999	7	[0, 0, 0]	n/a	catFR1	4	R1491T
948.925	0.003	992839	PROB	0.003	n/a	n/a	n/a	-999	7	[1, 1, 3]	5	catFR1	4	R1491T
948.928	0.0	992842	START	n/a	n/a	n/a	n/a	-999	7	[-999, -999, -999]	n/a	catFR1	4	R1491T
948.928	7.547	992853	DISTRACT_START	n/a	n/a	n/a	n/a	-999	7	[0, 0, 0]	n/a	catFR1	4	R1491T
956.475	5.851	1000389	PROB	5.851	n/a	n/a	n/a	-999	7	[8, 4, 4]	16	catFR1	4	R1491T
962.326	4.466	1006239	PROB	4.466	n/a	n/a	n/a	-999	7	[3, 5, 3]	11	catFR1	4	R1491T
966.792	4.367	1010705	PROB	4.367	n/a	n/a	n/a	-999	7	[8, 6, 3]	17	catFR1	4	R1491T
971.159	0.0	1015072	STOP	n/a	n/a	n/a	n/a	-999	7	[-999, -999, -999]	n/a	catFR1	4	R1491T
971.159	1.183	1015076	DISTRACT_END	n/a	n/a	n/a	n/a	-999	7	[0, 0, 0]	n/a	catFR1	4	R1491T
972.342	2.92	1016261	REC_START	n/a	n/a	n/a	n/a	-999	7	[0, 0, 0]	n/a	catFR1	4	R1491T
975.262	1.0	1019175	REC_WORD_VV	1.0	n/a	<>	n/a	-999	7	[0, 0, 0]	n/a	catFR1	4	R1491T
976.262	16.112	1020175	REC_WORD_VV	16.112	n/a	<>	n/a	-999	7	[0, 0, 0]	n/a	catFR1	4	R1491T
992.374	2.87	1036286	REC_WORD_VV	2.87	n/a	<>	n/a	-999	7	[0, 0, 0]	n/a	catFR1	4	R1491T
995.244	1.0	1039156	REC_WORD_VV	1.0	n/a	<>	n/a	-999	7	[0, 0, 0]	n/a	catFR1	4	R1491T
996.244	7.358	1040156	REC_WORD_VV	7.358	n/a	<>	n/a	-999	7	[0, 0, 0]	n/a	catFR1	4	R1491T
1003.602	27.643	1047509	REC_END	n/a	n/a	n/a	n/a	-999	7	[0, 0, 0]	n/a	catFR1	4	R1491T
1031.245	10.349	1075161	COUNTDOWN_START	n/a	n/a	n/a	n/a	-999	7	[0, 0, 0]	n/a	catFR1	4	R1491T
1041.594	0.001	1085508	COUNTDOWN_END	n/a	n/a	n/a	n/a	-999	7	[0, 0, 0]	n/a	catFR1	4	R1491T
1041.595	2.267	1085508	ENCODING_START	n/a	n/a	n/a	n/a	-999	8	[0, 0, 0]	n/a	catFR1	4	R1491T
1043.862	1.6	1087768	WORD	n/a	wordpools/wordpool_categorized_EN.txt	PEELER	KitchenTools	1	8	[0, 0, 0]	n/a	catFR1	4	R1491T
1045.462	0.883	1089380	WORD_OFF	n/a	n/a	PEELER	KitchenTools	1	8	[0, 0, 0]	n/a	catFR1	4	R1491T
1046.345	1.616	1090262	WORD	n/a	wordpools/wordpool_categorized_EN.txt	SPOON	KitchenTools	2	8	[0, 0, 0]	n/a	catFR1	4	R1491T
1047.961	0.868	1091874	WORD_OFF	n/a	n/a	SPOON	KitchenTools	2	8	[0, 0, 0]	n/a	catFR1	4	R1491T
1048.829	1.616	1092742	WORD	n/a	wordpools/wordpool_categorized_EN.txt	BASEBALL	Toys	3	8	[0, 0, 0]	n/a	catFR1	4	R1491T
1050.445	0.85	1094354	WORD_OFF	n/a	n/a	BASEBALL	Toys	3	8	[0, 0, 0]	n/a	catFR1	4	R1491T
1051.295	1.6	1095208	WORD	n/a	wordpools/wordpool_categorized_EN.txt	PUZZLE	Toys	4	8	[0, 0, 0]	n/a	catFR1	4	R1491T
1052.895	0.8	1096806	WORD_OFF	n/a	n/a	PUZZLE	Toys	4	8	[0, 0, 0]	n/a	catFR1	4	R1491T
1053.695	1.616	1097605	WORD	n/a	wordpools/wordpool_categorized_EN.txt	TURTLE	OceanAnimals	5	8	[0, 0, 0]	n/a	catFR1	4	R1491T
1055.311	0.8	1099217	WORD_OFF	n/a	n/a	TURTLE	OceanAnimals	5	8	[0, 0, 0]	n/a	catFR1	4	R1491T
1056.111	1.617	1100016	WORD	n/a	wordpools/wordpool_categorized_EN.txt	SQUID	OceanAnimals	6	8	[0, 0, 0]	n/a	catFR1	4	R1491T
1057.728	0.966	1101642	WORD_OFF	n/a	n/a	SQUID	OceanAnimals	6	8	[0, 0, 0]	n/a	catFR1	4	R1491T
1058.694	1.6	1102607	WORD	n/a	wordpools/wordpool_categorized_EN.txt	LADLE	KitchenTools	7	8	[0, 0, 0]	n/a	catFR1	4	R1491T
1060.294	0.884	1104205	WORD_OFF	n/a	n/a	LADLE	KitchenTools	7	8	[0, 0, 0]	n/a	catFR1	4	R1491T
1061.178	1.6	1105087	WORD	n/a	wordpools/wordpool_categorized_EN.txt	WHISK	KitchenTools	8	8	[0, 0, 0]	n/a	catFR1	4	R1491T
1062.778	0.934	1106685	WORD_OFF	n/a	n/a	WHISK	KitchenTools	8	8	[0, 0, 0]	n/a	catFR1	4	R1491T
1063.712	1.6	1107622	WORD	n/a	wordpools/wordpool_categorized_EN.txt	BALL	Toys	9	8	[0, 0, 0]	n/a	catFR1	4	R1491T
1065.312	0.95	1109220	WORD_OFF	n/a	n/a	BALL	Toys	9	8	[0, 0, 0]	n/a	catFR1	4	R1491T
1066.262	1.617	1110171	WORD	n/a	wordpools/wordpool_categorized_EN.txt	FRISBEE	Toys	10	8	[0, 0, 0]	n/a	catFR1	4	R1491T
1067.879	0.983	1111796	WORD_OFF	n/a	n/a	FRISBEE	Toys	10	8	[0, 0, 0]	n/a	catFR1	4	R1491T
1068.862	1.616	1112775	WORD	n/a	wordpools/wordpool_categorized_EN.txt	FISH	OceanAnimals	11	8	[0, 0, 0]	n/a	catFR1	4	R1491T
1070.478	1.001	1114387	WORD_OFF	n/a	n/a	FISH	OceanAnimals	11	8	[0, 0, 0]	n/a	catFR1	4	R1491T
1071.479	1.616	1115392	WORD	n/a	wordpools/wordpool_categorized_EN.txt	PLANKTON	OceanAnimals	12	8	[0, 0, 0]	n/a	catFR1	4	R1491T
1073.095	0.002	1117004	WORD_OFF	n/a	n/a	PLANKTON	OceanAnimals	12	8	[0, 0, 0]	n/a	catFR1	4	R1491T
1073.097	0.0	1117004	ENCODING_END	n/a	n/a	n/a	n/a	-999	8	[0, 0, 0]	n/a	catFR1	4	R1491T
1073.097	0.0	1117004	DISTRACT_START	n/a	n/a	n/a	n/a	-999	8	[0, 0, 0]	n/a	catFR1	4	R1491T
1073.096	0.001	1117004	PROB	0.001	n/a	n/a	n/a	-999	8	[1, 7, 7]	15	catFR1	4	R1491T
1073.097	5.332	1117005	START	n/a	n/a	n/a	n/a	-999	8	[-999, -999, -999]	n/a	catFR1	4	R1491T
1078.429	11.351	1122336	PROB	11.351	n/a	n/a	n/a	-999	8	[8, 4, 6]	18	catFR1	4	R1491T
1089.78	4.565	1133687	PROB	4.565	n/a	n/a	n/a	-999	8	[1, 3, 8]	12	catFR1	4	R1491T
1094.345	0.0	1138250	DISTRACT_END	n/a	n/a	n/a	n/a	-999	8	[0, 0, 0]	n/a	catFR1	4	R1491T
1094.345	1.283	1138251	STOP	n/a	n/a	n/a	n/a	-999	8	[-999, -999, -999]	n/a	catFR1	4	R1491T
1095.628	7.935	1139531	REC_START	n/a	n/a	n/a	n/a	-999	8	[0, 0, 0]	n/a	catFR1	4	R1491T
1103.563	2.847	1147469	REC_WORD_VV	2.847	n/a	<>	n/a	-999	8	[0, 0, 0]	n/a	catFR1	4	R1491T
1106.41	20.453	1150316	REC_WORD_VV	20.453	n/a	<>	n/a	-999	8	[0, 0, 0]	n/a	catFR1	4	R1491T
1126.863	2.215	1170765	REC_END	n/a	n/a	n/a	n/a	-999	8	[0, 0, 0]	n/a	catFR1	4	R1491T
1129.078	10.349	1172983	COUNTDOWN_START	n/a	n/a	n/a	n/a	-999	8	[0, 0, 0]	n/a	catFR1	4	R1491T
1139.427	0.0	1183330	COUNTDOWN_END	n/a	n/a	n/a	n/a	-999	8	[0, 0, 0]	n/a	catFR1	4	R1491T
1139.427	2.118	1183344	ENCODING_START	n/a	n/a	n/a	n/a	-999	9	[0, 0, 0]	n/a	catFR1	4	R1491T
1141.545	1.6	1185452	WORD	n/a	wordpools/wordpool_categorized_EN.txt	DOVE	Birds	1	9	[0, 0, 0]	n/a	catFR1	4	R1491T
1143.145	0.9	1187050	WORD_OFF	n/a	n/a	DOVE	Birds	1	9	[0, 0, 0]	n/a	catFR1	4	R1491T
1144.045	1.616	1187946	WORD	n/a	wordpools/wordpool_categorized_EN.txt	CARDINAL	Birds	2	9	[0, 0, 0]	n/a	catFR1	4	R1491T
1145.661	0.783	1189572	WORD_OFF	n/a	n/a	CARDINAL	Birds	2	9	[0, 0, 0]	n/a	catFR1	4	R1491T
1146.444	1.617	1190357	WORD	n/a	wordpools/wordpool_categorized_EN.txt	DRYER	Appliances	3	9	[0, 0, 0]	n/a	catFR1	4	R1491T
1148.061	0.9	1191969	WORD_OFF	n/a	n/a	DRYER	Appliances	3	9	[0, 0, 0]	n/a	catFR1	4	R1491T
1148.961	1.617	1192865	WORD	n/a	wordpools/wordpool_categorized_EN.txt	WASHER	Appliances	4	9	[0, 0, 0]	n/a	catFR1	4	R1491T
1150.578	0.985	1194490	WORD_OFF	n/a	n/a	WASHER	Appliances	4	9	[0, 0, 0]	n/a	catFR1	4	R1491T
1151.563	1.615	1195469	WORD	n/a	wordpools/wordpool_categorized_EN.txt	CORKSCREW	KitchenTools	5	9	[0, 0, 0]	n/a	catFR1	4	R1491T
1153.178	0.8	1197081	WORD_OFF	n/a	n/a	CORKSCREW	KitchenTools	5	9	[0, 0, 0]	n/a	catFR1	4	R1491T
1153.978	1.617	1197880	WORD	n/a	wordpools/wordpool_categorized_EN.txt	GRATER	KitchenTools	6	9	[0, 0, 0]	n/a	catFR1	4	R1491T
1155.595	0.983	1199506	WORD_OFF	n/a	n/a	GRATER	KitchenTools	6	9	[0, 0, 0]	n/a	catFR1	4	R1491T
1156.578	1.617	1200484	WORD	n/a	wordpools/wordpool_categorized_EN.txt	DISHWASHER	Appliances	7	9	[0, 0, 0]	n/a	catFR1	4	R1491T
1158.195	0.833	1202096	WORD_OFF	n/a	n/a	DISHWASHER	Appliances	7	9	[0, 0, 0]	n/a	catFR1	4	R1491T
1159.028	1.617	1202936	WORD	n/a	wordpools/wordpool_categorized_EN.txt	MIXER	Appliances	8	9	[0, 0, 0]	n/a	catFR1	4	R1491T
1160.645	0.833	1204548	WORD_OFF	n/a	n/a	MIXER	Appliances	8	9	[0, 0, 0]	n/a	catFR1	4	R1491T
1161.478	1.601	1205389	WORD	n/a	wordpools/wordpool_categorized_EN.txt	KNIFE	KitchenTools	9	9	[0, 0, 0]	n/a	catFR1	4	R1491T
1163.079	0.799	1206987	WORD_OFF	n/a	n/a	KNIFE	KitchenTools	9	9	[0, 0, 0]	n/a	catFR1	4	R1491T
1163.878	1.6	1207786	WORD	n/a	wordpools/wordpool_categorized_EN.txt	COLANDER	KitchenTools	10	9	[0, 0, 0]	n/a	catFR1	4	R1491T
1165.478	0.9	1209384	WORD_OFF	n/a	n/a	COLANDER	KitchenTools	10	9	[0, 0, 0]	n/a	catFR1	4	R1491T
1166.378	1.617	1210280	WORD	n/a	wordpools/wordpool_categorized_EN.txt	ROBIN	Birds	11	9	[0, 0, 0]	n/a	catFR1	4	R1491T
1167.995	0.916	1211906	WORD_OFF	n/a	n/a	ROBIN	Birds	11	9	[0, 0, 0]	n/a	catFR1	4	R1491T
1168.911	1.601	1212815	WORD	n/a	wordpools/wordpool_categorized_EN.txt	CROW	Birds	12	9	[0, 0, 0]	n/a	catFR1	4	R1491T
1170.512	0.001	1214413	WORD_OFF	n/a	n/a	CROW	Birds	12	9	[0, 0, 0]	n/a	catFR1	4	R1491T
1170.513	0.002	1214416	PROB	0.002	n/a	n/a	n/a	-999	9	[3, 3, 8]	14	catFR1	4	R1491T
1170.515	0.0	1214418	START	n/a	n/a	n/a	n/a	-999	9	[-999, -999, -999]	n/a	catFR1	4	R1491T
1170.515	0.0	1214427	ENCODING_END	n/a	n/a	n/a	n/a	-999	9	[0, 0, 0]	n/a	catFR1	4	R1491T
1170.515	9.447	1214427	DISTRACT_START	n/a	n/a	n/a	n/a	-999	9	[0, 0, 0]	n/a	catFR1	4	R1491T
1179.962	5.5	1223864	PROB	5.5	n/a	n/a	n/a	-999	9	[4, 6, 8]	18	catFR1	4	R1491T
1185.462	4.6	1229364	PROB	4.6	n/a	n/a	n/a	-999	9	[4, 1, 8]	13	catFR1	4	R1491T
1190.062	4.366	1233964	PROB	4.366	n/a	n/a	n/a	-999	9	[6, 7, 2]	15	catFR1	4	R1491T
1194.428	0.0	1238329	STOP	n/a	n/a	n/a	n/a	-999	9	[-999, -999, -999]	n/a	catFR1	4	R1491T
1194.428	1.034	1238331	DISTRACT_END	n/a	n/a	n/a	n/a	-999	9	[0, 0, 0]	n/a	catFR1	4	R1491T
1195.462	29.994	1239365	REC_START	n/a	n/a	n/a	n/a	-999	9	[0, 0, 0]	n/a	catFR1	4	R1491T
1225.456	1.235	1269356	REC_WORD_VV	1.235	n/a	<>	n/a	-999	9	[0, 0, 0]	n/a	catFR1	4	R1491T
1226.691	1.871	1270599	REC_END	n/a	n/a	n/a	n/a	-999	9	[0, 0, 0]	n/a	catFR1	4	R1491T
1228.562	10.349	1272473	COUNTDOWN_START	n/a	n/a	n/a	n/a	-999	9	[0, 0, 0]	n/a	catFR1	4	R1491T
1238.911	0.0	1282820	COUNTDOWN_END	n/a	n/a	n/a	n/a	-999	9	[0, 0, 0]	n/a	catFR1	4	R1491T
1238.911	2.133	1282820	ENCODING_START	n/a	n/a	n/a	n/a	-999	10	[0, 0, 0]	n/a	catFR1	4	R1491T
1241.044	1.601	1284941	WORD	n/a	wordpools/wordpool_categorized_EN.txt	REFRIGERATOR	Appliances	1	10	[0, 0, 0]	n/a	catFR1	4	R1491T
1242.645	0.9	1286553	WORD_OFF	n/a	n/a	REFRIGERATOR	Appliances	1	10	[0, 0, 0]	n/a	catFR1	4	R1491T
1243.545	1.6	1287449	WORD	n/a	wordpools/wordpool_categorized_EN.txt	VACUUM	Appliances	2	10	[0, 0, 0]	n/a	catFR1	4	R1491T
1245.145	0.833	1289047	WORD_OFF	n/a	n/a	VACUUM	Appliances	2	10	[0, 0, 0]	n/a	catFR1	4	R1491T
1245.978	1.601	1289874	WORD	n/a	wordpools/wordpool_categorized_EN.txt	SHELF	Furniture	3	10	[0, 0, 0]	n/a	catFR1	4	R1491T
1247.579	0.916	1291486	WORD_OFF	n/a	n/a	SHELF	Furniture	3	10	[0, 0, 0]	n/a	catFR1	4	R1491T
1248.495	1.6	1292395	WORD	n/a	wordpools/wordpool_categorized_EN.txt	SOFA	Furniture	4	10	[0, 0, 0]	n/a	catFR1	4	R1491T
1250.095	0.766	1293993	WORD_OFF	n/a	n/a	SOFA	Furniture	4	10	[0, 0, 0]	n/a	catFR1	4	R1491T
1250.861	1.601	1294765	WORD	n/a	wordpools/wordpool_categorized_EN.txt	CEDAR	Trees	5	10	[0, 0, 0]	n/a	catFR1	4	R1491T
1252.462	0.849	1296363	WORD_OFF	n/a	n/a	CEDAR	Trees	5	10	[0, 0, 0]	n/a	catFR1	4	R1491T
1253.311	1.618	1297217	WORD	n/a	wordpools/wordpool_categorized_EN.txt	CYPRESS	Trees	6	10	[0, 0, 0]	n/a	catFR1	4	R1491T
1254.929	0.832	1298829	WORD_OFF	n/a	n/a	CYPRESS	Trees	6	10	[0, 0, 0]	n/a	catFR1	4	R1491T
1255.761	1.601	1299656	WORD	n/a	wordpools/wordpool_categorized_EN.txt	CHAIR	Furniture	7	10	[0, 0, 0]	n/a	catFR1	4	R1491T
1257.362	0.867	1301268	WORD_OFF	n/a	n/a	CHAIR	Furniture	7	10	[0, 0, 0]	n/a	catFR1	4	R1491T
1258.229	1.6	1302136	WORD	n/a	wordpools/wordpool_categorized_EN.txt	BED	Furniture	8	10	[0, 0, 0]	n/a	catFR1	4	R1491T
1259.829	0.832	1303734	WORD_OFF	n/a	n/a	BED	Furniture	8	10	[0, 0, 0]	n/a	catFR1	4	R1491T
1260.661	1.601	1304561	WORD	n/a	wordpools/wordpool_categorized_EN.txt	TOASTER	Appliances	9	10	[0, 0, 0]	n/a	catFR1	4	R1491T
1262.262	0.867	1306159	WORD_OFF	n/a	n/a	TOASTER	Appliances	9	10	[0, 0, 0]	n/a	catFR1	4	R1491T
1263.129	1.615	1307027	WORD	n/a	wordpools/wordpool_categorized_EN.txt	FREEZER	Appliances	10	10	[0, 0, 0]	n/a	catFR1	4	R1491T
1264.744	0.784	1308639	WORD_OFF	n/a	n/a	FREEZER	Appliances	10	10	[0, 0, 0]	n/a	catFR1	4	R1491T
1265.528	1.6	1309425	WORD	n/a	wordpools/wordpool_categorized_EN.txt	SPRUCE	Trees	11	10	[0, 0, 0]	n/a	catFR1	4	R1491T
1267.128	0.766	1311023	WORD_OFF	n/a	n/a	SPRUCE	Trees	11	10	[0, 0, 0]	n/a	catFR1	4	R1491T
1267.894	1.601	1311794	WORD	n/a	wordpools/wordpool_categorized_EN.txt	HICKORY	Trees	12	10	[0, 0, 0]	n/a	catFR1	4	R1491T
1269.495	0.004	1313393	WORD_OFF	n/a	n/a	HICKORY	Trees	12	10	[0, 0, 0]	n/a	catFR1	4	R1491T
1269.499	0.0	1313393	ENCODING_END	n/a	n/a	n/a	n/a	-999	10	[0, 0, 0]	n/a	catFR1	4	R1491T
1269.496	0.003	1313393	PROB	0.003	n/a	n/a	n/a	-999	10	[7, 5, 5]	19	catFR1	4	R1491T
1269.499	0.0	1313396	START	n/a	n/a	n/a	n/a	-999	10	[-999, -999, -999]	n/a	catFR1	4	R1491T
1269.499	7.379	1313406	DISTRACT_START	n/a	n/a	n/a	n/a	-999	10	[0, 0, 0]	n/a	catFR1	4	R1491T
1276.878	5.767	1320775	PROB	5.767	n/a	n/a	n/a	-999	10	[3, 7, 8]	18	catFR1	4	R1491T
1282.645	4.651	1326542	PROB	4.651	n/a	n/a	n/a	-999	10	[5, 1, 4]	10	catFR1	4	R1491T
1287.296	4.783	1331193	PROB	4.783	n/a	n/a	n/a	-999	10	[8, 2, 6]	16	catFR1	4	R1491T
1292.079	0.0	1335974	DISTRACT_END	n/a	n/a	n/a	n/a	-999	10	[0, 0, 0]	n/a	catFR1	4	R1491T
1292.079	1.066	1335975	STOP	n/a	n/a	n/a	n/a	-999	10	[-999, -999, -999]	n/a	catFR1	4	R1491T
1293.145	2.532	1337049	REC_START	n/a	n/a	n/a	n/a	-999	10	[0, 0, 0]	n/a	catFR1	4	R1491T
1295.677	1.0	1339573	REC_WORD_VV	1.0	n/a	<>	n/a	-999	10	[0, 0, 0]	n/a	catFR1	4	R1491T
1296.677	4.989	1340573	REC_WORD_VV	4.989	n/a	<>	n/a	-999	10	[0, 0, 0]	n/a	catFR1	4	R1491T
1301.666	1.0	1345562	REC_WORD_VV	1.0	n/a	<>	n/a	-999	10	[0, 0, 0]	n/a	catFR1	4	R1491T
1302.666	21.714	1346562	REC_WORD_VV	21.714	n/a	<>	n/a	-999	10	[0, 0, 0]	n/a	catFR1	4	R1491T
1324.38	2.914	1368283	REC_END	n/a	n/a	n/a	n/a	-999	10	[0, 0, 0]	n/a	catFR1	4	R1491T
1327.294	10.351	1371190	COUNTDOWN_START	n/a	n/a	n/a	n/a	-999	10	[0, 0, 0]	n/a	catFR1	4	R1491T
1337.645	0.0	1381537	COUNTDOWN_END	n/a	n/a	n/a	n/a	-999	10	[0, 0, 0]	n/a	catFR1	4	R1491T
1337.645	1.834	1381551	ENCODING_START	n/a	n/a	n/a	n/a	-999	11	[0, 0, 0]	n/a	catFR1	4	R1491T
1339.479	1.6	1383370	WORD	n/a	wordpools/wordpool_categorized_EN.txt	GNAT	Insects	1	11	[0, 0, 0]	n/a	catFR1	4	R1491T
1341.079	0.883	1384982	WORD_OFF	n/a	n/a	GNAT	Insects	1	11	[0, 0, 0]	n/a	catFR1	4	R1491T
1341.962	1.6	1385864	WORD	n/a	wordpools/wordpool_categorized_EN.txt	BEETLE	Insects	2	11	[0, 0, 0]	n/a	catFR1	4	R1491T
1343.562	0.917	1387462	WORD_OFF	n/a	n/a	BEETLE	Insects	2	11	[0, 0, 0]	n/a	catFR1	4	R1491T
1344.479	1.6	1388371	WORD	n/a	wordpools/wordpool_categorized_EN.txt	DAFFODIL	Flowers	3	11	[0, 0, 0]	n/a	catFR1	4	R1491T
1346.079	0.916	1389969	WORD_OFF	n/a	n/a	DAFFODIL	Flowers	3	11	[0, 0, 0]	n/a	catFR1	4	R1491T
1346.995	1.616	1390892	WORD	n/a	wordpools/wordpool_categorized_EN.txt	MARIGOLD	Flowers	4	11	[0, 0, 0]	n/a	catFR1	4	R1491T
1348.611	0.767	1392504	WORD_OFF	n/a	n/a	MARIGOLD	Flowers	4	11	[0, 0, 0]	n/a	catFR1	4	R1491T
1349.378	1.617	1393276	WORD	n/a	wordpools/wordpool_categorized_EN.txt	BATHROOM	Building	5	11	[0, 0, 0]	n/a	catFR1	4	R1491T
1350.995	0.967	1394888	WORD_OFF	n/a	n/a	BATHROOM	Building	5	11	[0, 0, 0]	n/a	catFR1	4	R1491T
1351.962	1.6	1395852	WORD	n/a	wordpools/wordpool_categorized_EN.txt	HALLWAY	Building	6	11	[0, 0, 0]	n/a	catFR1	4	R1491T
1353.562	0.8	1397464	WORD_OFF	n/a	n/a	HALLWAY	Building	6	11	[0, 0, 0]	n/a	catFR1	4	R1491T
1354.362	1.6	1398264	WORD	n/a	wordpools/wordpool_categorized_EN.txt	LILAC	Flowers	7	11	[0, 0, 0]	n/a	catFR1	4	R1491T
1355.962	0.933	1399862	WORD_OFF	n/a	n/a	LILAC	Flowers	7	11	[0, 0, 0]	n/a	catFR1	4	R1491T
1356.895	1.616	1400785	WORD	n/a	wordpools/wordpool_categorized_EN.txt	ORCHID	Flowers	8	11	[0, 0, 0]	n/a	catFR1	4	R1491T
1358.511	0.951	1402411	WORD_OFF	n/a	n/a	ORCHID	Flowers	8	11	[0, 0, 0]	n/a	catFR1	4	R1491T
1359.462	1.617	1403361	WORD	n/a	wordpools/wordpool_categorized_EN.txt	ROOM	Building	9	11	[0, 0, 0]	n/a	catFR1	4	R1491T
1361.079	0.85	1404973	WORD_OFF	n/a	n/a	ROOM	Building	9	11	[0, 0, 0]	n/a	catFR1	4	R1491T
1361.929	1.615	1405828	WORD	n/a	wordpools/wordpool_categorized_EN.txt	FOUNDATION	Building	10	11	[0, 0, 0]	n/a	catFR1	4	R1491T
1363.544	0.801	1407440	WORD_OFF	n/a	n/a	FOUNDATION	Building	10	11	[0, 0, 0]	n/a	catFR1	4	R1491T
1364.345	1.6	1408239	WORD	n/a	wordpools/wordpool_categorized_EN.txt	ANT	Insects	11	11	[0, 0, 0]	n/a	catFR1	4	R1491T
1365.945	0.817	1409837	WORD_OFF	n/a	n/a	ANT	Insects	11	11	[0, 0, 0]	n/a	catFR1	4	R1491T
1366.762	1.601	1410664	WORD	n/a	wordpools/wordpool_categorized_EN.txt	MOTH	Insects	12	11	[0, 0, 0]	n/a	catFR1	4	R1491T
1368.363	0.0	1412255	START	n/a	n/a	n/a	n/a	-999	11	[-999, -999, -999]	n/a	catFR1	4	R1491T
1368.363	0.0	1412255	PROB	0.0	n/a	n/a	n/a	-999	11	[2, 1, 8]	11	catFR1	4	R1491T
1368.361	0.002	1412262	WORD_OFF	n/a	n/a	MOTH	Insects	12	11	[0, 0, 0]	n/a	catFR1	4	R1491T
1368.363	0.0	1412262	ENCODING_END	n/a	n/a	n/a	n/a	-999	11	[0, 0, 0]	n/a	catFR1	4	R1491T
1368.363	6.266	1412262	DISTRACT_START	n/a	n/a	n/a	n/a	-999	11	[0, 0, 0]	n/a	catFR1	4	R1491T
1374.629	4.55	1418521	PROB	4.55	n/a	n/a	n/a	-999	11	[5, 4, 5]	14	catFR1	4	R1491T
1379.179	3.316	1423071	PROB	3.316	n/a	n/a	n/a	-999	11	[5, 3, 1]	9	catFR1	4	R1491T
1382.495	5.917	1426387	PROB	5.917	n/a	n/a	n/a	-999	11	[4, 3, 6]	13	catFR1	4	R1491T
1388.412	0.0	1432303	STOP	n/a	n/a	n/a	n/a	-999	11	[-999, -999, -999]	n/a	catFR1	4	R1491T
1388.412	1.067	1432308	DISTRACT_END	n/a	n/a	n/a	n/a	-999	11	[0, 0, 0]	n/a	catFR1	4	R1491T
1389.479	0.594	1433369	REC_START	n/a	n/a	n/a	n/a	-999	11	[0, 0, 0]	n/a	catFR1	4	R1491T
1390.073	3.577	1433964	REC_WORD	3.577	n/a	GNAT	Insects	1	11	[0, 0, 0]	n/a	catFR1	4	R1491T
1393.65	1.0	1437541	REC_WORD_VV	1.0	n/a	<>	n/a	-999	11	[0, 0, 0]	n/a	catFR1	4	R1491T
1394.65	0.659	1438541	REC_WORD_VV	0.659	n/a	<>	n/a	-999	11	[0, 0, 0]	n/a	catFR1	4	R1491T
1395.309	25.398	1439200	REC_WORD	25.398	n/a	FLOWER	n/a	-999	11	[0, 0, 0]	n/a	catFR1	4	R1491T
1420.707	2.787	1464604	REC_END	n/a	n/a	n/a	n/a	-999	11	[0, 0, 0]	n/a	catFR1	4	R1491T
1423.494	10.351	1467387	COUNTDOWN_START	n/a	n/a	n/a	n/a	-999	11	[0, 0, 0]	n/a	catFR1	4	R1491T
1433.845	0.001	1477734	COUNTDOWN_END	n/a	n/a	n/a	n/a	-999	11	[0, 0, 0]	n/a	catFR1	4	R1491T
1433.846	2.066	1477734	ENCODING_START	n/a	n/a	n/a	n/a	-999	12	[0, 0, 0]	n/a	catFR1	4	R1491T
1435.912	1.6	1479800	WORD	n/a	wordpools/wordpool_categorized_EN.txt	WINDOW	Building	1	12	[0, 0, 0]	n/a	catFR1	4	R1491T
1437.512	0.833	1481399	WORD_OFF	n/a	n/a	WINDOW	Building	1	12	[0, 0, 0]	n/a	catFR1	4	R1491T
1438.345	1.6	1482239	WORD	n/a	wordpools/wordpool_categorized_EN.txt	CEILING	Building	2	12	[0, 0, 0]	n/a	catFR1	4	R1491T
1439.945	0.8	1483837	WORD_OFF	n/a	n/a	CEILING	Building	2	12	[0, 0, 0]	n/a	catFR1	4	R1491T
1440.745	1.616	1484636	WORD	n/a	wordpools/wordpool_categorized_EN.txt	OVEN	Appliances	3	12	[0, 0, 0]	n/a	catFR1	4	R1491T
1442.361	0.967	1486248	WORD_OFF	n/a	n/a	OVEN	Appliances	3	12	[0, 0, 0]	n/a	catFR1	4	R1491T
1443.328	1.618	1487227	WORD	n/a	wordpools/wordpool_categorized_EN.txt	BLENDER	Appliances	4	12	[0, 0, 0]	n/a	catFR1	4	R1491T
1444.946	0.866	1488839	WORD_OFF	n/a	n/a	BLENDER	Appliances	4	12	[0, 0, 0]	n/a	catFR1	4	R1491T
1445.812	1.617	1489707	WORD	n/a	wordpools/wordpool_categorized_EN.txt	GLUE	OfficeSupplies	5	12	[0, 0, 0]	n/a	catFR1	4	R1491T
1447.429	0.849	1491319	WORD_OFF	n/a	n/a	GLUE	OfficeSupplies	5	12	[0, 0, 0]	n/a	catFR1	4	R1491T
1448.278	1.601	1492173	WORD	n/a	wordpools/wordpool_categorized_EN.txt	PENCIL	OfficeSupplies	6	12	[0, 0, 0]	n/a	catFR1	4	R1491T
1449.879	0.883	1493771	WORD_OFF	n/a	n/a	PENCIL	OfficeSupplies	6	12	[0, 0, 0]	n/a	catFR1	4	R1491T
1450.762	1.616	1494653	WORD	n/a	wordpools/wordpool_categorized_EN.txt	IRON	Appliances	7	12	[0, 0, 0]	n/a	catFR1	4	R1491T
1452.378	0.983	1496265	WORD_OFF	n/a	n/a	IRON	Appliances	7	12	[0, 0, 0]	n/a	catFR1	4	R1491T
1453.361	1.601	1497257	WORD	n/a	wordpools/wordpool_categorized_EN.txt	STOVE	Appliances	8	12	[0, 0, 0]	n/a	catFR1	4	R1491T
1454.962	0.85	1498855	WORD_OFF	n/a	n/a	STOVE	Appliances	8	12	[0, 0, 0]	n/a	catFR1	4	R1491T
1455.812	1.6	1499709	WORD	n/a	wordpools/wordpool_categorized_EN.txt	RULER	OfficeSupplies	9	12	[0, 0, 0]	n/a	catFR1	4	R1491T
1457.412	0.8	1501307	WORD_OFF	n/a	n/a	RULER	OfficeSupplies	9	12	[0, 0, 0]	n/a	catFR1	4	R1491T
1458.212	1.6	1502107	WORD	n/a	wordpools/wordpool_categorized_EN.txt	TAPE	OfficeSupplies	10	12	[0, 0, 0]	n/a	catFR1	4	R1491T
1459.812	0.815	1503705	WORD_OFF	n/a	n/a	TAPE	OfficeSupplies	10	12	[0, 0, 0]	n/a	catFR1	4	R1491T
1460.627	1.601	1504518	WORD	n/a	wordpools/wordpool_categorized_EN.txt	ROOF	Building	11	12	[0, 0, 0]	n/a	catFR1	4	R1491T
1462.228	0.95	1506116	WORD_OFF	n/a	n/a	ROOF	Building	11	12	[0, 0, 0]	n/a	catFR1	4	R1491T
1463.178	1.6	1507067	WORD	n/a	wordpools/wordpool_categorized_EN.txt	STAIRS	Building	12	12	[0, 0, 0]	n/a	catFR1	4	R1491T
1464.778	0.001	1508665	WORD_OFF	n/a	n/a	STAIRS	Building	12	12	[0, 0, 0]	n/a	catFR1	4	R1491T
1464.779	0.003	1508666	PROB	0.003	n/a	n/a	n/a	-999	12	[1, 3, 2]	6	catFR1	4	R1491T
1464.782	0.0	1508669	START	n/a	n/a	n/a	n/a	-999	12	[-999, -999, -999]	n/a	catFR1	4	R1491T
1464.782	0.0	1508679	ENCODING_END	n/a	n/a	n/a	n/a	-999	12	[0, 0, 0]	n/a	catFR1	4	R1491T
1464.782	4.813	1508679	DISTRACT_START	n/a	n/a	n/a	n/a	-999	12	[0, 0, 0]	n/a	catFR1	4	R1491T
1469.595	4.967	1513482	PROB	4.967	n/a	n/a	n/a	-999	12	[7, 7, 5]	19	catFR1	4	R1491T
1474.562	4.5	1518449	PROB	4.5	n/a	n/a	n/a	-999	12	[7, 1, 1]	9	catFR1	4	R1491T
1479.062	4.4	1522949	PROB	4.4	n/a	n/a	n/a	-999	12	[4, 4, 4]	12	catFR1	4	R1491T
1483.462	6.266	1527348	PROB	6.266	n/a	n/a	n/a	-999	12	[4, 1, 6]	11	catFR1	4	R1491T
1489.728	0.0	1533614	STOP	n/a	n/a	n/a	n/a	-999	12	[-999, -999, -999]	n/a	catFR1	4	R1491T
1489.728	1.367	1533616	DISTRACT_END	n/a	n/a	n/a	n/a	-999	12	[0, 0, 0]	n/a	catFR1	4	R1491T
1491.095	5.752	1534980	REC_START	n/a	n/a	n/a	n/a	-999	12	[0, 0, 0]	n/a	catFR1	4	R1491T
1496.847	0.329	1540733	REC_WORD_VV	0.329	n/a	<>	n/a	-999	12	[0, 0, 0]	n/a	catFR1	4	R1491T
1497.176	1.564	1541062	REC_WORD	1.564	n/a	GNAT	Insects	-999	12	[0, 0, 0]	n/a	catFR1	4	R1491T
1498.74	3.151	1542626	REC_WORD_VV	3.151	n/a	<>	n/a	-999	12	[0, 0, 0]	n/a	catFR1	4	R1491T
1501.891	1.0	1545777	REC_WORD_VV	1.0	n/a	<>	n/a	-999	12	[0, 0, 0]	n/a	catFR1	4	R1491T
1502.891	19.421	1546776	REC_WORD_VV	19.421	n/a	<>	n/a	-999	12	[0, 0, 0]	n/a	catFR1	4	R1491T
1522.312	0.0	1566201	REC_END	n/a	n/a	n/a	n/a	-999	12	[0, 0, 0]	n/a	catFR1	4	R1491T
