onset	duration	sample	trial_type	response_time	stim_file	item_name	category	serialpos	list	test	answer	experiment	session	subject
0.0	42.581	1180	INSTRUCT_START	n/a	n/a	n/a	n/a	-999	-999	[0, 0, 0]	n/a	catFR1	0	R1337E
42.581	4.784	43760	INSTRUCT_END	n/a	n/a	n/a	n/a	-999	-999	[0, 0, 0]	n/a	catFR1	0	R1337E
47.365	8.424	48544	MIC TEST_START	n/a	n/a	n/a	n/a	-999	-999	[0, 0, 0]	n/a	catFR1	0	R1337E
55.789	0.013	56967	MIC TEST_END	n/a	n/a	n/a	n/a	-999	-999	[0, 0, 0]	n/a	catFR1	0	R1337E
55.802	0.001	56980	TRIAL_START	n/a	n/a	n/a	n/a	-999	-1	[0, 0, 0]	n/a	catFR1	0	R1337E
55.803	0.0	56981	TRIAL	n/a	n/a	n/a	n/a	-999	-1	[0, 0, 0]	n/a	catFR1	0	R1337E
55.803	7.198	56981	WAITING_START	n/a	n/a	n/a	n/a	-999	-1	[0, 0, 0]	n/a	catFR1	0	R1337E
63.001	0.001	64179	WAITING_END	n/a	n/a	n/a	n/a	-999	-1	[0, 0, 0]	n/a	catFR1	0	R1337E
63.002	10.429	64180	COUNTDOWN_START	n/a	n/a	n/a	n/a	-999	-1	[0, 0, 0]	n/a	catFR1	0	R1337E
73.431	0.001	74609	COUNTDOWN_END	n/a	n/a	n/a	n/a	-999	-1	[0, 0, 0]	n/a	catFR1	0	R1337E
73.432	1.237	74610	ORIENT_START	n/a	n/a	n/a	n/a	-999	-1	[0, 0, 0]	n/a	catFR1	0	R1337E
74.669	0.0	75847	ORIENT_END	n/a	n/a	n/a	n/a	-999	-1	[0, 0, 0]	n/a	catFR1	0	R1337E
74.669	0.933	75847	ENCODING_START	n/a	n/a	n/a	n/a	-999	-1	[0, 0, 0]	n/a	catFR1	0	R1337E
75.602	1.635	76780	WORD	n/a	n/a	TEACHER	n/a	1	-1	[0, 0, 0]	n/a	catFR1	0	R1337E
77.237	1.151	78414	WORD_OFF	n/a	n/a	TEACHER	n/a	1	-1	[0, 0, 0]	n/a	catFR1	0	R1337E
78.388	1.633	79565	WORD	n/a	n/a	PLUMBER	n/a	2	-1	[0, 0, 0]	n/a	catFR1	0	R1337E
80.021	1.03	81198	WORD_OFF	n/a	n/a	PLUMBER	n/a	2	-1	[0, 0, 0]	n/a	catFR1	0	R1337E
81.051	1.636	82228	WORD	n/a	n/a	SILK	n/a	3	-1	[0, 0, 0]	n/a	catFR1	0	R1337E
82.687	0.953	83864	WORD_OFF	n/a	n/a	SILK	n/a	3	-1	[0, 0, 0]	n/a	catFR1	0	R1337E
83.64	1.631	84817	WORD	n/a	n/a	FIREMAN	n/a	4	-1	[0, 0, 0]	n/a	catFR1	0	R1337E
85.271	0.832	86448	WORD_OFF	n/a	n/a	FIREMAN	n/a	4	-1	[0, 0, 0]	n/a	catFR1	0	R1337E
86.103	1.635	87280	WORD	n/a	n/a	HOUR	n/a	5	-1	[0, 0, 0]	n/a	catFR1	0	R1337E
87.738	0.944	88915	WORD_OFF	n/a	n/a	HOUR	n/a	5	-1	[0, 0, 0]	n/a	catFR1	0	R1337E
88.682	1.624	89859	WORD	n/a	n/a	FARMER	n/a	6	-1	[0, 0, 0]	n/a	catFR1	0	R1337E
90.306	0.985	91483	WORD_OFF	n/a	n/a	FARMER	n/a	6	-1	[0, 0, 0]	n/a	catFR1	0	R1337E
91.291	1.632	92468	WORD	n/a	n/a	DENIM	n/a	7	-1	[0, 0, 0]	n/a	catFR1	0	R1337E
92.923	1.086	94100	WORD_OFF	n/a	n/a	DENIM	n/a	7	-1	[0, 0, 0]	n/a	catFR1	0	R1337E
94.009	1.63	95186	WORD	n/a	n/a	LEATHER	n/a	8	-1	[0, 0, 0]	n/a	catFR1	0	R1337E
95.639	1.108	96816	WORD_OFF	n/a	n/a	LEATHER	n/a	8	-1	[0, 0, 0]	n/a	catFR1	0	R1337E
96.747	1.627	97924	WORD	n/a	n/a	SECOND	n/a	9	-1	[0, 0, 0]	n/a	catFR1	0	R1337E
98.374	1.089	99551	WORD_OFF	n/a	n/a	SECOND	n/a	9	-1	[0, 0, 0]	n/a	catFR1	0	R1337E
99.463	1.611	100640	WORD	n/a	n/a	DAY	n/a	10	-1	[0, 0, 0]	n/a	catFR1	0	R1337E
101.074	1.032	102251	WORD_OFF	n/a	n/a	DAY	n/a	10	-1	[0, 0, 0]	n/a	catFR1	0	R1337E
102.106	1.634	103283	WORD	n/a	n/a	MINUTE	n/a	11	-1	[0, 0, 0]	n/a	catFR1	0	R1337E
103.74	1.054	104917	WORD_OFF	n/a	n/a	MINUTE	n/a	11	-1	[0, 0, 0]	n/a	catFR1	0	R1337E
104.794	1.631	105970	WORD	n/a	n/a	WOOL	n/a	12	-1	[0, 0, 0]	n/a	catFR1	0	R1337E
106.425	0.001	107601	WORD_OFF	n/a	n/a	WOOL	n/a	12	-1	[0, 0, 0]	n/a	catFR1	0	R1337E
106.426	0.0	107602	ENCODING_END	n/a	n/a	n/a	n/a	-999	-1	[0, 0, 0]	n/a	catFR1	0	R1337E
106.426	0.0	107602	DISTRACT_START	n/a	n/a	n/a	n/a	-999	-1	[0, 0, 0]	n/a	catFR1	0	R1337E
106.426	0.015	107602	START	n/a	n/a	n/a	n/a	-999	-1	[-999, -999, -999]	n/a	catFR1	0	R1337E
106.441	6.067	107617	PROB	6.035	n/a	n/a	n/a	-999	-1	[3, 2, 7]	12.0	catFR1	0	R1337E
112.508	4.302	113684	PROB	4.272	n/a	n/a	n/a	-999	-1	[2, 1, 2]	5.0	catFR1	0	R1337E
116.81	7.501	117986	PROB	7.476	n/a	n/a	n/a	-999	-1	[7, 9, 6]	22.0	catFR1	0	R1337E
124.311	3.487	125487	PROB	3.487	n/a	n/a	n/a	-999	-1	[6, 2, 6]	14.0	catFR1	0	R1337E
127.798	0.014	128974	STOP	n/a	n/a	n/a	n/a	-999	-1	[-999, -999, -999]	n/a	catFR1	0	R1337E
127.812	0.607	128988	DISTRACT_END	n/a	n/a	n/a	n/a	-999	-1	[0, 0, 0]	n/a	catFR1	0	R1337E
128.419	1.694	129595	RETRIEVAL_ORIENT_START	n/a	n/a	n/a	n/a	-999	-1	[0, 0, 0]	n/a	catFR1	0	R1337E
130.113	0.0	131289	RETRIEVAL_ORIENT_END	n/a	n/a	n/a	n/a	-999	-1	[0, 0, 0]	n/a	catFR1	0	R1337E
130.113	1.674	131289	REC_START	n/a	n/a	n/a	n/a	-999	-1	[0, 0, 0]	n/a	catFR1	0	R1337E
131.787	0.762	132963	REC_WORD	1.674	n/a	TEACHER	n/a	1	-1	[0, 0, 0]	n/a	catFR1	0	R1337E
132.549	0.697	133724	REC_WORD	2.436	n/a	PLUMBER	n/a	2	-1	[0, 0, 0]	n/a	catFR1	0	R1337E
133.246	1.64	134421	REC_WORD	3.133	n/a	SILK	n/a	3	-1	[0, 0, 0]	n/a	catFR1	0	R1337E
134.886	25.24	136061	REC_WORD	4.773	n/a	FIREMAN	n/a	4	-1	[0, 0, 0]	n/a	catFR1	0	R1337E
160.126	0.001	161300	REC_END	n/a	n/a	n/a	n/a	-999	-1	[0, 0, 0]	n/a	catFR1	0	R1337E
160.127	15.261	161301	PRACTICE_POST_INSTRUCT_START	n/a	n/a	n/a	n/a	-999	-1	[0, 0, 0]	n/a	catFR1	0	R1337E
175.388	0.0	176562	PRACTICE_POST_INSTRUCT_END	n/a	n/a	n/a	n/a	-999	-1	[0, 0, 0]	n/a	catFR1	0	R1337E
175.388	0.026	176562	TRIAL_END	n/a	n/a	n/a	n/a	-999	-1	[0, 0, 0]	n/a	catFR1	0	R1337E
175.414	0.0	176588	TRIAL_START	n/a	n/a	n/a	n/a	-999	1	[0, 0, 0]	n/a	catFR1	0	R1337E
175.414	0.001	176588	TRIAL	n/a	n/a	n/a	n/a	-999	1	[0, 0, 0]	n/a	catFR1	0	R1337E
175.415	2.023	176589	WAITING_START	n/a	n/a	n/a	n/a	-999	1	[0, 0, 0]	n/a	catFR1	0	R1337E
177.438	0.0	178612	COUNTDOWN_START	n/a	n/a	n/a	n/a	-999	1	[0, 0, 0]	n/a	catFR1	0	R1337E
177.438	10.429	178612	WAITING_END	n/a	n/a	n/a	n/a	-999	1	[0, 0, 0]	n/a	catFR1	0	R1337E
187.867	0.001	189041	COUNTDOWN_END	n/a	n/a	n/a	n/a	-999	1	[0, 0, 0]	n/a	catFR1	0	R1337E
187.868	1.105	189042	ORIENT_START	n/a	n/a	n/a	n/a	-999	1	[0, 0, 0]	n/a	catFR1	0	R1337E
188.973	0.0	190146	ORIENT_END	n/a	n/a	n/a	n/a	-999	1	[0, 0, 0]	n/a	catFR1	0	R1337E
188.973	1.022	190146	ENCODING_START	n/a	n/a	n/a	n/a	-999	1	[0, 0, 0]	n/a	catFR1	0	R1337E
189.995	1.627	191168	WORD	n/a	wordpools/wordpool_categorized_EN.txt	JEANS	Clothing	1	1	[0, 0, 0]	n/a	catFR1	0	R1337E
191.622	1.091	192795	WORD_OFF	n/a	n/a	JEANS	Clothing	1	1	[0, 0, 0]	n/a	catFR1	0	R1337E
192.713	1.627	193886	WORD	n/a	wordpools/wordpool_categorized_EN.txt	UNDERWEAR	Clothing	2	1	[0, 0, 0]	n/a	catFR1	0	R1337E
194.34	0.812	195513	WORD_OFF	n/a	n/a	UNDERWEAR	Clothing	2	1	[0, 0, 0]	n/a	catFR1	0	R1337E
195.152	1.621	196325	WORD	n/a	wordpools/wordpool_categorized_EN.txt	LIME	Fruit	3	1	[0, 0, 0]	n/a	catFR1	0	R1337E
196.773	0.879	197946	WORD_OFF	n/a	n/a	LIME	Fruit	3	1	[0, 0, 0]	n/a	catFR1	0	R1337E
197.652	1.606	198825	WORD	n/a	wordpools/wordpool_categorized_EN.txt	ORANGE	Fruit	4	1	[0, 0, 0]	n/a	catFR1	0	R1337E
199.258	0.816	200431	WORD_OFF	n/a	n/a	ORANGE	Fruit	4	1	[0, 0, 0]	n/a	catFR1	0	R1337E
200.074	1.633	201247	WORD	n/a	wordpools/wordpool_categorized_EN.txt	TROMBONE	Instruments	5	1	[0, 0, 0]	n/a	catFR1	0	R1337E
201.707	0.811	202880	WORD_OFF	n/a	n/a	TROMBONE	Instruments	5	1	[0, 0, 0]	n/a	catFR1	0	R1337E
202.518	1.624	203691	WORD	n/a	wordpools/wordpool_categorized_EN.txt	GUITAR	Instruments	6	1	[0, 0, 0]	n/a	catFR1	0	R1337E
204.142	0.873	205315	WORD_OFF	n/a	n/a	GUITAR	Instruments	6	1	[0, 0, 0]	n/a	catFR1	0	R1337E
205.015	1.626	206188	WORD	n/a	wordpools/wordpool_categorized_EN.txt	PANTS	Clothing	7	1	[0, 0, 0]	n/a	catFR1	0	R1337E
206.641	0.886	207814	WORD_OFF	n/a	n/a	PANTS	Clothing	7	1	[0, 0, 0]	n/a	catFR1	0	R1337E
207.527	1.633	208700	WORD	n/a	wordpools/wordpool_categorized_EN.txt	SOCKS	Clothing	8	1	[0, 0, 0]	n/a	catFR1	0	R1337E
209.16	0.765	210333	WORD_OFF	n/a	n/a	SOCKS	Clothing	8	1	[0, 0, 0]	n/a	catFR1	0	R1337E
209.925	1.634	211098	WORD	n/a	wordpools/wordpool_categorized_EN.txt	CELLO	Instruments	9	1	[0, 0, 0]	n/a	catFR1	0	R1337E
211.559	1.111	212732	WORD_OFF	n/a	n/a	CELLO	Instruments	9	1	[0, 0, 0]	n/a	catFR1	0	R1337E
212.67	1.624	213843	WORD	n/a	wordpools/wordpool_categorized_EN.txt	VIOLIN	Instruments	10	1	[0, 0, 0]	n/a	catFR1	0	R1337E
214.294	1.093	215467	WORD_OFF	n/a	n/a	VIOLIN	Instruments	10	1	[0, 0, 0]	n/a	catFR1	0	R1337E
215.387	1.624	216560	WORD	n/a	wordpools/wordpool_categorized_EN.txt	BLUEBERRY	Fruit	11	1	[0, 0, 0]	n/a	catFR1	0	R1337E
217.011	0.868	218183	WORD_OFF	n/a	n/a	BLUEBERRY	Fruit	11	1	[0, 0, 0]	n/a	catFR1	0	R1337E
217.879	1.631	219051	WORD	n/a	wordpools/wordpool_categorized_EN.txt	APPLE	Fruit	12	1	[0, 0, 0]	n/a	catFR1	0	R1337E
219.51	0.001	220682	WORD_OFF	n/a	n/a	APPLE	Fruit	12	1	[0, 0, 0]	n/a	catFR1	0	R1337E
219.511	0.0	220683	ENCODING_END	n/a	n/a	n/a	n/a	-999	1	[0, 0, 0]	n/a	catFR1	0	R1337E
219.511	0.0	220683	DISTRACT_START	n/a	n/a	n/a	n/a	-999	1	[0, 0, 0]	n/a	catFR1	0	R1337E
219.511	0.016	220683	START	n/a	n/a	n/a	n/a	-999	1	[-999, -999, -999]	n/a	catFR1	0	R1337E
219.527	9.853	220699	PROB	9.817	n/a	n/a	n/a	-999	1	[9, 4, 4]	17.0	catFR1	0	R1337E
229.38	4.05	230552	PROB	4.012	n/a	n/a	n/a	-999	1	[1, 2, 8]	11.0	catFR1	0	R1337E
233.43	13.841	234602	PROB	13.841	n/a	n/a	n/a	-999	1	[7, 1, 8]	16.0	catFR1	0	R1337E
247.271	0.012	248442	STOP	n/a	n/a	n/a	n/a	-999	1	[-999, -999, -999]	n/a	catFR1	0	R1337E
247.283	0.578	248454	DISTRACT_END	n/a	n/a	n/a	n/a	-999	1	[0, 0, 0]	n/a	catFR1	0	R1337E
247.861	1.556	249032	RETRIEVAL_ORIENT_START	n/a	n/a	n/a	n/a	-999	1	[0, 0, 0]	n/a	catFR1	0	R1337E
249.417	0.0	250588	RETRIEVAL_ORIENT_END	n/a	n/a	n/a	n/a	-999	1	[0, 0, 0]	n/a	catFR1	0	R1337E
249.417	2.037	250588	REC_START	n/a	n/a	n/a	n/a	-999	1	[0, 0, 0]	n/a	catFR1	0	R1337E
251.454	2.139	252625	REC_WORD	2.037	n/a	CELLO	Instruments	9	1	[0, 0, 0]	n/a	catFR1	0	R1337E
253.593	2.319	254764	REC_WORD	4.176	n/a	VIOLIN	Instruments	10	1	[0, 0, 0]	n/a	catFR1	0	R1337E
255.912	23.517	257083	REC_WORD	6.495	n/a	BLUEBERRY	Fruit	11	1	[0, 0, 0]	n/a	catFR1	0	R1337E
279.429	0.0	280599	REC_END	n/a	n/a	n/a	n/a	-999	1	[0, 0, 0]	n/a	catFR1	0	R1337E
279.429	0.025	280599	TRIAL_END	n/a	n/a	n/a	n/a	-999	1	[0, 0, 0]	n/a	catFR1	0	R1337E
279.454	0.001	280624	TRIAL_START	n/a	n/a	n/a	n/a	-999	2	[0, 0, 0]	n/a	catFR1	0	R1337E
279.455	0.0	280625	TRIAL	n/a	n/a	n/a	n/a	-999	2	[0, 0, 0]	n/a	catFR1	0	R1337E
279.455	4.15	280625	WAITING_START	n/a	n/a	n/a	n/a	-999	2	[0, 0, 0]	n/a	catFR1	0	R1337E
283.605	0.0	284775	WAITING_END	n/a	n/a	n/a	n/a	-999	2	[0, 0, 0]	n/a	catFR1	0	R1337E
283.605	10.428	284775	COUNTDOWN_START	n/a	n/a	n/a	n/a	-999	2	[0, 0, 0]	n/a	catFR1	0	R1337E
294.033	0.001	295203	COUNTDOWN_END	n/a	n/a	n/a	n/a	-999	2	[0, 0, 0]	n/a	catFR1	0	R1337E
294.034	1.04	295204	ORIENT_START	n/a	n/a	n/a	n/a	-999	2	[0, 0, 0]	n/a	catFR1	0	R1337E
295.074	0.001	296244	ORIENT_END	n/a	n/a	n/a	n/a	-999	2	[0, 0, 0]	n/a	catFR1	0	R1337E
295.075	0.895	296245	ENCODING_START	n/a	n/a	n/a	n/a	-999	2	[0, 0, 0]	n/a	catFR1	0	R1337E
295.97	1.621	297140	WORD	n/a	wordpools/wordpool_categorized_EN.txt	FLUTE	Instruments	1	2	[0, 0, 0]	n/a	catFR1	0	R1337E
297.591	1.051	298761	WORD_OFF	n/a	n/a	FLUTE	Instruments	1	2	[0, 0, 0]	n/a	catFR1	0	R1337E
298.642	1.633	299812	WORD	n/a	wordpools/wordpool_categorized_EN.txt	DRUM	Instruments	2	2	[0, 0, 0]	n/a	catFR1	0	R1337E
300.275	0.828	301445	WORD_OFF	n/a	n/a	DRUM	Instruments	2	2	[0, 0, 0]	n/a	catFR1	0	R1337E
301.103	1.622	302272	WORD	n/a	wordpools/wordpool_categorized_EN.txt	VALLEY	Landscapes	3	2	[0, 0, 0]	n/a	catFR1	0	R1337E
302.725	0.823	303894	WORD_OFF	n/a	n/a	VALLEY	Landscapes	3	2	[0, 0, 0]	n/a	catFR1	0	R1337E
303.548	1.628	304717	WORD	n/a	wordpools/wordpool_categorized_EN.txt	WOODS	Landscapes	4	2	[0, 0, 0]	n/a	catFR1	0	R1337E
305.176	0.859	306345	WORD_OFF	n/a	n/a	WOODS	Landscapes	4	2	[0, 0, 0]	n/a	catFR1	0	R1337E
306.035	1.624	307204	WORD	n/a	wordpools/wordpool_categorized_EN.txt	PLIERS	Tools	5	2	[0, 0, 0]	n/a	catFR1	0	R1337E
307.659	1.044	308828	WORD_OFF	n/a	n/a	PLIERS	Tools	5	2	[0, 0, 0]	n/a	catFR1	0	R1337E
308.703	1.624	309872	WORD	n/a	wordpools/wordpool_categorized_EN.txt	DRILL	Tools	6	2	[0, 0, 0]	n/a	catFR1	0	R1337E
310.327	0.904	311496	WORD_OFF	n/a	n/a	DRILL	Tools	6	2	[0, 0, 0]	n/a	catFR1	0	R1337E
311.231	1.63	312400	WORD	n/a	wordpools/wordpool_categorized_EN.txt	TUBA	Instruments	7	2	[0, 0, 0]	n/a	catFR1	0	R1337E
312.861	0.934	314030	WORD_OFF	n/a	n/a	TUBA	Instruments	7	2	[0, 0, 0]	n/a	catFR1	0	R1337E
313.795	1.633	314964	WORD	n/a	wordpools/wordpool_categorized_EN.txt	BANJO	Instruments	8	2	[0, 0, 0]	n/a	catFR1	0	R1337E
315.428	0.774	316597	WORD_OFF	n/a	n/a	BANJO	Instruments	8	2	[0, 0, 0]	n/a	catFR1	0	R1337E
316.202	1.627	317371	WORD	n/a	wordpools/wordpool_categorized_EN.txt	SAW	Tools	9	2	[0, 0, 0]	n/a	catFR1	0	R1337E
317.829	0.922	318998	WORD_OFF	n/a	n/a	SAW	Tools	9	2	[0, 0, 0]	n/a	catFR1	0	R1337E
318.751	1.628	319920	WORD	n/a	wordpools/wordpool_categorized_EN.txt	WRENCH	Tools	10	2	[0, 0, 0]	n/a	catFR1	0	R1337E
320.379	0.833	321548	WORD_OFF	n/a	n/a	WRENCH	Tools	10	2	[0, 0, 0]	n/a	catFR1	0	R1337E
321.212	1.634	322381	WORD	n/a	wordpools/wordpool_categorized_EN.txt	HILLS	Landscapes	11	2	[0, 0, 0]	n/a	catFR1	0	R1337E
322.846	1.015	324015	WORD_OFF	n/a	n/a	HILLS	Landscapes	11	2	[0, 0, 0]	n/a	catFR1	0	R1337E
323.861	1.634	325030	WORD	n/a	wordpools/wordpool_categorized_EN.txt	CREEK	Landscapes	12	2	[0, 0, 0]	n/a	catFR1	0	R1337E
325.495	0.001	326664	WORD_OFF	n/a	n/a	CREEK	Landscapes	12	2	[0, 0, 0]	n/a	catFR1	0	R1337E
325.496	0.0	326665	DISTRACT_START	n/a	n/a	n/a	n/a	-999	2	[0, 0, 0]	n/a	catFR1	0	R1337E
325.496	0.0	326665	ENCODING_END	n/a	n/a	n/a	n/a	-999	2	[0, 0, 0]	n/a	catFR1	0	R1337E
325.496	0.016	326665	START	n/a	n/a	n/a	n/a	-999	2	[-999, -999, -999]	n/a	catFR1	0	R1337E
325.512	13.002	326681	PROB	12.972	n/a	n/a	n/a	-999	2	[3, 3, 2]	8.0	catFR1	0	R1337E
338.514	6.369	339682	PROB	6.341	n/a	n/a	n/a	-999	2	[5, 6, 7]	18.0	catFR1	0	R1337E
344.883	10.43	346051	PROB	10.43	n/a	n/a	n/a	-999	2	[3, 8, 2]	13.0	catFR1	0	R1337E
355.313	0.022	356481	STOP	n/a	n/a	n/a	n/a	-999	2	[-999, -999, -999]	n/a	catFR1	0	R1337E
355.335	0.514	356503	DISTRACT_END	n/a	n/a	n/a	n/a	-999	2	[0, 0, 0]	n/a	catFR1	0	R1337E
355.849	1.669	357017	RETRIEVAL_ORIENT_START	n/a	n/a	n/a	n/a	-999	2	[0, 0, 0]	n/a	catFR1	0	R1337E
357.518	0.0	358685	RETRIEVAL_ORIENT_END	n/a	n/a	n/a	n/a	-999	2	[0, 0, 0]	n/a	catFR1	0	R1337E
357.518	1.311	358685	REC_START	n/a	n/a	n/a	n/a	-999	2	[0, 0, 0]	n/a	catFR1	0	R1337E
358.829	1.132	359996	REC_WORD	1.311	n/a	FLUTE	Instruments	1	2	[0, 0, 0]	n/a	catFR1	0	R1337E
359.961	1.839	361128	REC_WORD	2.443	n/a	DRUM	Instruments	2	2	[0, 0, 0]	n/a	catFR1	0	R1337E
361.8	1.267	362967	REC_WORD	4.282	n/a	VALLEY	Landscapes	3	2	[0, 0, 0]	n/a	catFR1	0	R1337E
363.067	2.173	364234	REC_WORD	5.549	n/a	WOODS	Landscapes	4	2	[0, 0, 0]	n/a	catFR1	0	R1337E
365.24	22.29	366407	REC_WORD	7.722	n/a	BANJO	Instruments	8	2	[0, 0, 0]	n/a	catFR1	0	R1337E
387.53	0.001	388696	REC_END	n/a	n/a	n/a	n/a	-999	2	[0, 0, 0]	n/a	catFR1	0	R1337E
387.531	0.025	388697	TRIAL_END	n/a	n/a	n/a	n/a	-999	2	[0, 0, 0]	n/a	catFR1	0	R1337E
387.556	0.0	388722	TRIAL_START	n/a	n/a	n/a	n/a	-999	3	[0, 0, 0]	n/a	catFR1	0	R1337E
387.556	0.0	388722	TRIAL	n/a	n/a	n/a	n/a	-999	3	[0, 0, 0]	n/a	catFR1	0	R1337E
387.556	2.835	388722	WAITING_START	n/a	n/a	n/a	n/a	-999	3	[0, 0, 0]	n/a	catFR1	0	R1337E
390.391	0.0	391557	WAITING_END	n/a	n/a	n/a	n/a	-999	3	[0, 0, 0]	n/a	catFR1	0	R1337E
390.391	10.429	391557	COUNTDOWN_START	n/a	n/a	n/a	n/a	-999	3	[0, 0, 0]	n/a	catFR1	0	R1337E
400.82	0.001	401986	COUNTDOWN_END	n/a	n/a	n/a	n/a	-999	3	[0, 0, 0]	n/a	catFR1	0	R1337E
400.821	1.139	401987	ORIENT_START	n/a	n/a	n/a	n/a	-999	3	[0, 0, 0]	n/a	catFR1	0	R1337E
401.96	0.0	403126	ORIENT_END	n/a	n/a	n/a	n/a	-999	3	[0, 0, 0]	n/a	catFR1	0	R1337E
401.96	0.79	403126	ENCODING_START	n/a	n/a	n/a	n/a	-999	3	[0, 0, 0]	n/a	catFR1	0	R1337E
402.75	1.627	403916	WORD	n/a	wordpools/wordpool_categorized_EN.txt	ARM	BodyParts	1	3	[0, 0, 0]	n/a	catFR1	0	R1337E
404.377	1.108	405543	WORD_OFF	n/a	n/a	ARM	BodyParts	1	3	[0, 0, 0]	n/a	catFR1	0	R1337E
405.485	1.609	406651	WORD	n/a	wordpools/wordpool_categorized_EN.txt	TOE	BodyParts	2	3	[0, 0, 0]	n/a	catFR1	0	R1337E
407.094	0.789	408260	WORD_OFF	n/a	n/a	TOE	BodyParts	2	3	[0, 0, 0]	n/a	catFR1	0	R1337E
407.883	1.627	409049	WORD	n/a	wordpools/wordpool_categorized_EN.txt	LEMON	Fruit	3	3	[0, 0, 0]	n/a	catFR1	0	R1337E
409.51	0.965	410676	WORD_OFF	n/a	n/a	LEMON	Fruit	3	3	[0, 0, 0]	n/a	catFR1	0	R1337E
410.475	1.637	411641	WORD	n/a	wordpools/wordpool_categorized_EN.txt	PEAR	Fruit	4	3	[0, 0, 0]	n/a	catFR1	0	R1337E
412.112	0.976	413278	WORD_OFF	n/a	n/a	PEAR	Fruit	4	3	[0, 0, 0]	n/a	catFR1	0	R1337E
413.088	1.623	414253	WORD	n/a	wordpools/wordpool_categorized_EN.txt	THUNDER	Weather	5	3	[0, 0, 0]	n/a	catFR1	0	R1337E
414.711	1.011	415876	WORD_OFF	n/a	n/a	THUNDER	Weather	5	3	[0, 0, 0]	n/a	catFR1	0	R1337E
415.722	1.624	416887	WORD	n/a	wordpools/wordpool_categorized_EN.txt	DRIZZLE	Weather	6	3	[0, 0, 0]	n/a	catFR1	0	R1337E
417.346	0.915	418511	WORD_OFF	n/a	n/a	DRIZZLE	Weather	6	3	[0, 0, 0]	n/a	catFR1	0	R1337E
418.261	1.635	419426	WORD	n/a	wordpools/wordpool_categorized_EN.txt	ELBOW	BodyParts	7	3	[0, 0, 0]	n/a	catFR1	0	R1337E
419.896	0.803	421061	WORD_OFF	n/a	n/a	ELBOW	BodyParts	7	3	[0, 0, 0]	n/a	catFR1	0	R1337E
420.699	1.614	421864	WORD	n/a	wordpools/wordpool_categorized_EN.txt	KNEE	BodyParts	8	3	[0, 0, 0]	n/a	catFR1	0	R1337E
422.313	1.08	423478	WORD_OFF	n/a	n/a	KNEE	BodyParts	8	3	[0, 0, 0]	n/a	catFR1	0	R1337E
423.393	1.637	424558	WORD	n/a	wordpools/wordpool_categorized_EN.txt	THUNDERSTORM	Weather	9	3	[0, 0, 0]	n/a	catFR1	0	R1337E
425.03	1.033	426195	WORD_OFF	n/a	n/a	THUNDERSTORM	Weather	9	3	[0, 0, 0]	n/a	catFR1	0	R1337E
426.063	1.634	427228	WORD	n/a	wordpools/wordpool_categorized_EN.txt	CLOUD	Weather	10	3	[0, 0, 0]	n/a	catFR1	0	R1337E
427.697	0.833	428862	WORD_OFF	n/a	n/a	CLOUD	Weather	10	3	[0, 0, 0]	n/a	catFR1	0	R1337E
428.53	1.635	429695	WORD	n/a	wordpools/wordpool_categorized_EN.txt	CHERRY	Fruit	11	3	[0, 0, 0]	n/a	catFR1	0	R1337E
430.165	1.131	431330	WORD_OFF	n/a	n/a	CHERRY	Fruit	11	3	[0, 0, 0]	n/a	catFR1	0	R1337E
431.296	1.636	432461	WORD	n/a	wordpools/wordpool_categorized_EN.txt	BANANA	Fruit	12	3	[0, 0, 0]	n/a	catFR1	0	R1337E
432.932	0.0	434097	ENCODING_END	n/a	n/a	n/a	n/a	-999	3	[0, 0, 0]	n/a	catFR1	0	R1337E
432.932	0.0	434097	DISTRACT_START	n/a	n/a	n/a	n/a	-999	3	[0, 0, 0]	n/a	catFR1	0	R1337E
432.932	0.001	434097	WORD_OFF	n/a	n/a	BANANA	Fruit	12	3	[0, 0, 0]	n/a	catFR1	0	R1337E
432.933	0.015	434098	START	n/a	n/a	n/a	n/a	-999	3	[-999, -999, -999]	n/a	catFR1	0	R1337E
432.948	9.085	434113	PROB	9.057	n/a	n/a	n/a	-999	3	[2, 6, 4]	12.0	catFR1	0	R1337E
442.033	5.818	443197	PROB	5.786	n/a	n/a	n/a	-999	3	[7, 8, 2]	17.0	catFR1	0	R1337E
447.851	4.517	449015	PROB	4.488	n/a	n/a	n/a	-999	3	[7, 9, 6]	22.0	catFR1	0	R1337E
452.368	4.515	453532	PROB	4.515	n/a	n/a	n/a	-999	3	[3, 9, 2]	14.0	catFR1	0	R1337E
456.883	0.02	458047	STOP	n/a	n/a	n/a	n/a	-999	3	[-999, -999, -999]	n/a	catFR1	0	R1337E
456.903	0.527	458067	DISTRACT_END	n/a	n/a	n/a	n/a	-999	3	[0, 0, 0]	n/a	catFR1	0	R1337E
457.43	1.623	458594	RETRIEVAL_ORIENT_START	n/a	n/a	n/a	n/a	-999	3	[0, 0, 0]	n/a	catFR1	0	R1337E
459.053	0.0	460217	RETRIEVAL_ORIENT_END	n/a	n/a	n/a	n/a	-999	3	[0, 0, 0]	n/a	catFR1	0	R1337E
459.053	1.245	460217	REC_START	n/a	n/a	n/a	n/a	-999	3	[0, 0, 0]	n/a	catFR1	0	R1337E
460.298	1.053	461462	REC_WORD	1.245	n/a	ARM	BodyParts	1	3	[0, 0, 0]	n/a	catFR1	0	R1337E
461.351	0.968	462515	REC_WORD	2.298	n/a	TOE	BodyParts	2	3	[0, 0, 0]	n/a	catFR1	0	R1337E
462.319	0.837	463483	REC_WORD	3.266	n/a	KNEE	BodyParts	8	3	[0, 0, 0]	n/a	catFR1	0	R1337E
463.156	25.91	464320	REC_WORD	4.103	n/a	CHERRY	Fruit	11	3	[0, 0, 0]	n/a	catFR1	0	R1337E
489.066	0.0	490229	TRIAL_END	n/a	n/a	n/a	n/a	-999	3	[0, 0, 0]	n/a	catFR1	0	R1337E
489.066	0.025	490229	REC_END	n/a	n/a	n/a	n/a	-999	3	[0, 0, 0]	n/a	catFR1	0	R1337E
489.091	0.0	490254	TRIAL_START	n/a	n/a	n/a	n/a	-999	4	[0, 0, 0]	n/a	catFR1	0	R1337E
489.091	0.001	490254	TRIAL	n/a	n/a	n/a	n/a	-999	4	[0, 0, 0]	n/a	catFR1	0	R1337E
489.092	6.817	490255	WAITING_START	n/a	n/a	n/a	n/a	-999	4	[0, 0, 0]	n/a	catFR1	0	R1337E
495.909	0.001	497072	WAITING_END	n/a	n/a	n/a	n/a	-999	4	[0, 0, 0]	n/a	catFR1	0	R1337E
495.91	10.429	497073	COUNTDOWN_START	n/a	n/a	n/a	n/a	-999	4	[0, 0, 0]	n/a	catFR1	0	R1337E
506.339	0.0	507501	COUNTDOWN_END	n/a	n/a	n/a	n/a	-999	4	[0, 0, 0]	n/a	catFR1	0	R1337E
506.339	1.238	507501	ORIENT_START	n/a	n/a	n/a	n/a	-999	4	[0, 0, 0]	n/a	catFR1	0	R1337E
507.577	0.0	508739	ENCODING_START	n/a	n/a	n/a	n/a	-999	4	[0, 0, 0]	n/a	catFR1	0	R1337E
507.577	1.133	508739	ORIENT_END	n/a	n/a	n/a	n/a	-999	4	[0, 0, 0]	n/a	catFR1	0	R1337E
508.71	1.619	509872	WORD	n/a	wordpools/wordpool_categorized_EN.txt	HALLWAY	Building	1	4	[0, 0, 0]	n/a	catFR1	0	R1337E
510.329	1.028	511491	WORD_OFF	n/a	n/a	HALLWAY	Building	1	4	[0, 0, 0]	n/a	catFR1	0	R1337E
511.357	1.622	512519	WORD	n/a	wordpools/wordpool_categorized_EN.txt	DOOR	Building	2	4	[0, 0, 0]	n/a	catFR1	0	R1337E
512.979	1.127	514141	WORD_OFF	n/a	n/a	DOOR	Building	2	4	[0, 0, 0]	n/a	catFR1	0	R1337E
514.106	1.622	515268	WORD	n/a	wordpools/wordpool_categorized_EN.txt	SPEAKER	Electronics	3	4	[0, 0, 0]	n/a	catFR1	0	R1337E
515.728	0.822	516890	WORD_OFF	n/a	n/a	SPEAKER	Electronics	3	4	[0, 0, 0]	n/a	catFR1	0	R1337E
516.55	1.63	517712	WORD	n/a	wordpools/wordpool_categorized_EN.txt	TELEVISION	Electronics	4	4	[0, 0, 0]	n/a	catFR1	0	R1337E
518.18	0.775	519342	WORD_OFF	n/a	n/a	TELEVISION	Electronics	4	4	[0, 0, 0]	n/a	catFR1	0	R1337E
518.955	1.624	520117	WORD	n/a	wordpools/wordpool_categorized_EN.txt	ONION	Vegetables	5	4	[0, 0, 0]	n/a	catFR1	0	R1337E
520.579	1.141	521741	WORD_OFF	n/a	n/a	ONION	Vegetables	5	4	[0, 0, 0]	n/a	catFR1	0	R1337E
521.72	1.611	522882	WORD	n/a	wordpools/wordpool_categorized_EN.txt	CORN	Vegetables	6	4	[0, 0, 0]	n/a	catFR1	0	R1337E
523.331	0.765	524493	WORD_OFF	n/a	n/a	CORN	Vegetables	6	4	[0, 0, 0]	n/a	catFR1	0	R1337E
524.096	1.634	525258	WORD	n/a	wordpools/wordpool_categorized_EN.txt	CALCULATOR	Electronics	7	4	[0, 0, 0]	n/a	catFR1	0	R1337E
525.73	0.862	526891	WORD_OFF	n/a	n/a	CALCULATOR	Electronics	7	4	[0, 0, 0]	n/a	catFR1	0	R1337E
526.592	1.606	527753	WORD	n/a	wordpools/wordpool_categorized_EN.txt	MICROWAVE	Electronics	8	4	[0, 0, 0]	n/a	catFR1	0	R1337E
528.198	1.126	529359	WORD_OFF	n/a	n/a	MICROWAVE	Electronics	8	4	[0, 0, 0]	n/a	catFR1	0	R1337E
529.324	1.625	530485	WORD	n/a	wordpools/wordpool_categorized_EN.txt	ATTIC	Building	9	4	[0, 0, 0]	n/a	catFR1	0	R1337E
530.949	1.116	532110	WORD_OFF	n/a	n/a	ATTIC	Building	9	4	[0, 0, 0]	n/a	catFR1	0	R1337E
532.065	1.633	533226	WORD	n/a	wordpools/wordpool_categorized_EN.txt	WALL	Building	10	4	[0, 0, 0]	n/a	catFR1	0	R1337E
533.698	0.809	534859	WORD_OFF	n/a	n/a	WALL	Building	10	4	[0, 0, 0]	n/a	catFR1	0	R1337E
534.507	1.626	535668	WORD	n/a	wordpools/wordpool_categorized_EN.txt	BROCCOLI	Vegetables	11	4	[0, 0, 0]	n/a	catFR1	0	R1337E
536.133	0.806	537294	WORD_OFF	n/a	n/a	BROCCOLI	Vegetables	11	4	[0, 0, 0]	n/a	catFR1	0	R1337E
536.939	1.627	538100	WORD	n/a	wordpools/wordpool_categorized_EN.txt	POTATO	Vegetables	12	4	[0, 0, 0]	n/a	catFR1	0	R1337E
538.566	0.0	539727	WORD_OFF	n/a	n/a	POTATO	Vegetables	12	4	[0, 0, 0]	n/a	catFR1	0	R1337E
538.566	0.0	539727	ENCODING_END	n/a	n/a	n/a	n/a	-999	4	[0, 0, 0]	n/a	catFR1	0	R1337E
538.566	0.001	539727	DISTRACT_START	n/a	n/a	n/a	n/a	-999	4	[0, 0, 0]	n/a	catFR1	0	R1337E
538.567	0.015	539728	START	n/a	n/a	n/a	n/a	-999	4	[-999, -999, -999]	n/a	catFR1	0	R1337E
538.582	11.119	539743	PROB	11.082	n/a	n/a	n/a	-999	4	[8, 2, 6]	16.0	catFR1	0	R1337E
549.701	5.602	550862	PROB	5.57	n/a	n/a	n/a	-999	4	[2, 4, 6]	12.0	catFR1	0	R1337E
555.303	2.667	556463	PROB	2.64	n/a	n/a	n/a	-999	4	[2, 1, 8]	11.0	catFR1	0	R1337E
557.97	5.585	559130	PROB	5.585	n/a	n/a	n/a	-999	4	[7, 8, 1]	18.0	catFR1	0	R1337E
563.555	0.015	564715	STOP	n/a	n/a	n/a	n/a	-999	4	[-999, -999, -999]	n/a	catFR1	0	R1337E
563.57	0.633	564730	DISTRACT_END	n/a	n/a	n/a	n/a	-999	4	[0, 0, 0]	n/a	catFR1	0	R1337E
564.203	1.602	565363	RETRIEVAL_ORIENT_START	n/a	n/a	n/a	n/a	-999	4	[0, 0, 0]	n/a	catFR1	0	R1337E
565.805	0.0	566965	RETRIEVAL_ORIENT_END	n/a	n/a	n/a	n/a	-999	4	[0, 0, 0]	n/a	catFR1	0	R1337E
565.805	2.062	566965	REC_START	n/a	n/a	n/a	n/a	-999	4	[0, 0, 0]	n/a	catFR1	0	R1337E
567.867	0.893	569027	REC_WORD	2.062	n/a	WALL	Building	10	4	[0, 0, 0]	n/a	catFR1	0	R1337E
568.76	1.018	569920	REC_WORD	2.955	n/a	ATTIC	Building	9	4	[0, 0, 0]	n/a	catFR1	0	R1337E
569.778	1.593	570938	REC_WORD	3.973	n/a	BROCCOLI	Vegetables	11	4	[0, 0, 0]	n/a	catFR1	0	R1337E
571.371	24.447	572531	REC_WORD	5.566	n/a	POTATO	Vegetables	12	4	[0, 0, 0]	n/a	catFR1	0	R1337E
595.818	0.0	596977	TRIAL_END	n/a	n/a	n/a	n/a	-999	4	[0, 0, 0]	n/a	catFR1	0	R1337E
595.818	0.025	596977	REC_END	n/a	n/a	n/a	n/a	-999	4	[0, 0, 0]	n/a	catFR1	0	R1337E
595.843	0.0	597002	TRIAL_START	n/a	n/a	n/a	n/a	-999	5	[0, 0, 0]	n/a	catFR1	0	R1337E
595.843	0.001	597002	TRIAL	n/a	n/a	n/a	n/a	-999	5	[0, 0, 0]	n/a	catFR1	0	R1337E
595.844	6.151	597003	WAITING_START	n/a	n/a	n/a	n/a	-999	5	[0, 0, 0]	n/a	catFR1	0	R1337E
601.995	0.0	603154	WAITING_END	n/a	n/a	n/a	n/a	-999	5	[0, 0, 0]	n/a	catFR1	0	R1337E
601.995	10.429	603154	COUNTDOWN_START	n/a	n/a	n/a	n/a	-999	5	[0, 0, 0]	n/a	catFR1	0	R1337E
612.424	0.0	613582	ORIENT_START	n/a	n/a	n/a	n/a	-999	5	[0, 0, 0]	n/a	catFR1	0	R1337E
612.424	1.038	613582	COUNTDOWN_END	n/a	n/a	n/a	n/a	-999	5	[0, 0, 0]	n/a	catFR1	0	R1337E
613.462	0.001	614620	ORIENT_END	n/a	n/a	n/a	n/a	-999	5	[0, 0, 0]	n/a	catFR1	0	R1337E
613.463	0.847	614621	ENCODING_START	n/a	n/a	n/a	n/a	-999	5	[0, 0, 0]	n/a	catFR1	0	R1337E
614.31	1.637	615468	WORD	n/a	wordpools/wordpool_categorized_EN.txt	SCANNER	Electronics	1	5	[0, 0, 0]	n/a	catFR1	0	R1337E
615.947	0.876	617105	WORD_OFF	n/a	n/a	SCANNER	Electronics	1	5	[0, 0, 0]	n/a	catFR1	0	R1337E
616.823	1.623	617981	WORD	n/a	wordpools/wordpool_categorized_EN.txt	TABLET	Electronics	2	5	[0, 0, 0]	n/a	catFR1	0	R1337E
618.446	1.105	619604	WORD_OFF	n/a	n/a	TABLET	Electronics	2	5	[0, 0, 0]	n/a	catFR1	0	R1337E
619.551	1.63	620709	WORD	n/a	wordpools/wordpool_categorized_EN.txt	PEACH	Fruit	3	5	[0, 0, 0]	n/a	catFR1	0	R1337E
621.181	1.098	622339	WORD_OFF	n/a	n/a	PEACH	Fruit	3	5	[0, 0, 0]	n/a	catFR1	0	R1337E
622.279	1.636	623437	WORD	n/a	wordpools/wordpool_categorized_EN.txt	GRAPE	Fruit	4	5	[0, 0, 0]	n/a	catFR1	0	R1337E
623.915	0.803	625073	WORD_OFF	n/a	n/a	GRAPE	Fruit	4	5	[0, 0, 0]	n/a	catFR1	0	R1337E
624.718	1.631	625876	WORD	n/a	wordpools/wordpool_categorized_EN.txt	GNAT	Insects	5	5	[0, 0, 0]	n/a	catFR1	0	R1337E
626.349	1.133	627507	WORD_OFF	n/a	n/a	GNAT	Insects	5	5	[0, 0, 0]	n/a	catFR1	0	R1337E
627.482	1.634	628640	WORD	n/a	wordpools/wordpool_categorized_EN.txt	MOTH	Insects	6	5	[0, 0, 0]	n/a	catFR1	0	R1337E
629.116	0.813	630274	WORD_OFF	n/a	n/a	MOTH	Insects	6	5	[0, 0, 0]	n/a	catFR1	0	R1337E
629.929	1.636	631087	WORD	n/a	wordpools/wordpool_categorized_EN.txt	PLUM	Fruit	7	5	[0, 0, 0]	n/a	catFR1	0	R1337E
631.565	1.031	632723	WORD_OFF	n/a	n/a	PLUM	Fruit	7	5	[0, 0, 0]	n/a	catFR1	0	R1337E
632.596	1.621	633754	WORD	n/a	wordpools/wordpool_categorized_EN.txt	STRAWBERRY	Fruit	8	5	[0, 0, 0]	n/a	catFR1	0	R1337E
634.217	0.993	635375	WORD_OFF	n/a	n/a	STRAWBERRY	Fruit	8	5	[0, 0, 0]	n/a	catFR1	0	R1337E
635.21	1.624	636368	WORD	n/a	wordpools/wordpool_categorized_EN.txt	SPIDER	Insects	9	5	[0, 0, 0]	n/a	catFR1	0	R1337E
636.834	1.006	637992	WORD_OFF	n/a	n/a	SPIDER	Insects	9	5	[0, 0, 0]	n/a	catFR1	0	R1337E
637.84	1.627	638997	WORD	n/a	wordpools/wordpool_categorized_EN.txt	CRICKET	Insects	10	5	[0, 0, 0]	n/a	catFR1	0	R1337E
639.467	0.806	640624	WORD_OFF	n/a	n/a	CRICKET	Insects	10	5	[0, 0, 0]	n/a	catFR1	0	R1337E
640.273	1.629	641430	WORD	n/a	wordpools/wordpool_categorized_EN.txt	HEADPHONES	Electronics	11	5	[0, 0, 0]	n/a	catFR1	0	R1337E
641.902	1.077	643059	WORD_OFF	n/a	n/a	HEADPHONES	Electronics	11	5	[0, 0, 0]	n/a	catFR1	0	R1337E
642.979	1.622	644136	WORD	n/a	wordpools/wordpool_categorized_EN.txt	PRINTER	Electronics	12	5	[0, 0, 0]	n/a	catFR1	0	R1337E
644.601	0.0	645758	WORD_OFF	n/a	n/a	PRINTER	Electronics	12	5	[0, 0, 0]	n/a	catFR1	0	R1337E
644.601	0.001	645758	ENCODING_END	n/a	n/a	n/a	n/a	-999	5	[0, 0, 0]	n/a	catFR1	0	R1337E
644.602	0.0	645759	DISTRACT_START	n/a	n/a	n/a	n/a	-999	5	[0, 0, 0]	n/a	catFR1	0	R1337E
644.602	0.015	645759	START	n/a	n/a	n/a	n/a	-999	5	[-999, -999, -999]	n/a	catFR1	0	R1337E
644.617	4.719	645774	PROB	4.683	n/a	n/a	n/a	-999	5	[5, 2, 5]	12.0	catFR1	0	R1337E
649.336	4.25	650493	PROB	4.219	n/a	n/a	n/a	-999	5	[9, 5, 7]	23.0	catFR1	0	R1337E
653.586	4.05	654743	PROB	4.025	n/a	n/a	n/a	-999	5	[4, 7, 1]	12.0	catFR1	0	R1337E
657.636	3.252	658793	PROB	3.217	n/a	n/a	n/a	-999	5	[1, 1, 8]	10.0	catFR1	0	R1337E
660.888	4.037	662045	PROB	4.037	n/a	n/a	n/a	-999	5	[1, 8, 2]	11.0	catFR1	0	R1337E
664.925	0.014	666081	STOP	n/a	n/a	n/a	n/a	-999	5	[-999, -999, -999]	n/a	catFR1	0	R1337E
664.939	0.553	666095	DISTRACT_END	n/a	n/a	n/a	n/a	-999	5	[0, 0, 0]	n/a	catFR1	0	R1337E
665.492	1.68	666648	RETRIEVAL_ORIENT_START	n/a	n/a	n/a	n/a	-999	5	[0, 0, 0]	n/a	catFR1	0	R1337E
667.172	0.001	668328	RETRIEVAL_ORIENT_END	n/a	n/a	n/a	n/a	-999	5	[0, 0, 0]	n/a	catFR1	0	R1337E
667.173	0.792	668329	REC_START	n/a	n/a	n/a	n/a	-999	5	[0, 0, 0]	n/a	catFR1	0	R1337E
667.965	0.736	669121	REC_WORD	0.792	n/a	PEACH	Fruit	3	5	[0, 0, 0]	n/a	catFR1	0	R1337E
668.701	0.822	669857	REC_WORD	1.528	n/a	GRAPE	Fruit	4	5	[0, 0, 0]	n/a	catFR1	0	R1337E
669.523	0.697	670679	REC_WORD	2.35	n/a	PLUM	Fruit	7	5	[0, 0, 0]	n/a	catFR1	0	R1337E
670.22	26.964	671376	REC_WORD	3.047	n/a	STRAWBERRY	Fruit	8	5	[0, 0, 0]	n/a	catFR1	0	R1337E
697.184	0.0	698339	REC_END	n/a	n/a	n/a	n/a	-999	5	[0, 0, 0]	n/a	catFR1	0	R1337E
697.184	0.026	698339	TRIAL_END	n/a	n/a	n/a	n/a	-999	5	[0, 0, 0]	n/a	catFR1	0	R1337E
697.21	0.0	698365	TRIAL	n/a	n/a	n/a	n/a	-999	6	[0, 0, 0]	n/a	catFR1	0	R1337E
697.21	0.001	698365	TRIAL_START	n/a	n/a	n/a	n/a	-999	6	[0, 0, 0]	n/a	catFR1	0	R1337E
697.211	4.701	698366	WAITING_START	n/a	n/a	n/a	n/a	-999	6	[0, 0, 0]	n/a	catFR1	0	R1337E
701.912	0.0	703067	WAITING_END	n/a	n/a	n/a	n/a	-999	6	[0, 0, 0]	n/a	catFR1	0	R1337E
701.912	10.428	703067	COUNTDOWN_START	n/a	n/a	n/a	n/a	-999	6	[0, 0, 0]	n/a	catFR1	0	R1337E
712.34	0.0	713495	COUNTDOWN_END	n/a	n/a	n/a	n/a	-999	6	[0, 0, 0]	n/a	catFR1	0	R1337E
712.34	1.123	713495	ORIENT_START	n/a	n/a	n/a	n/a	-999	6	[0, 0, 0]	n/a	catFR1	0	R1337E
713.463	0.0	714618	ORIENT_END	n/a	n/a	n/a	n/a	-999	6	[0, 0, 0]	n/a	catFR1	0	R1337E
713.463	0.891	714618	ENCODING_START	n/a	n/a	n/a	n/a	-999	6	[0, 0, 0]	n/a	catFR1	0	R1337E
714.354	1.627	715509	WORD	n/a	wordpools/wordpool_categorized_EN.txt	WATER	Beverages	1	6	[0, 0, 0]	n/a	catFR1	0	R1337E
715.981	0.85	717136	WORD_OFF	n/a	n/a	WATER	Beverages	1	6	[0, 0, 0]	n/a	catFR1	0	R1337E
716.831	1.633	717986	WORD	n/a	wordpools/wordpool_categorized_EN.txt	BEER	Beverages	2	6	[0, 0, 0]	n/a	catFR1	0	R1337E
718.464	0.843	719619	WORD_OFF	n/a	n/a	BEER	Beverages	2	6	[0, 0, 0]	n/a	catFR1	0	R1337E
719.307	1.625	720462	WORD	n/a	wordpools/wordpool_categorized_EN.txt	BEACH	Landscapes	3	6	[0, 0, 0]	n/a	catFR1	0	R1337E
720.932	0.777	722087	WORD_OFF	n/a	n/a	BEACH	Landscapes	3	6	[0, 0, 0]	n/a	catFR1	0	R1337E
721.709	1.606	722863	WORD	n/a	wordpools/wordpool_categorized_EN.txt	LAKE	Landscapes	4	6	[0, 0, 0]	n/a	catFR1	0	R1337E
723.315	1.045	724469	WORD_OFF	n/a	n/a	LAKE	Landscapes	4	6	[0, 0, 0]	n/a	catFR1	0	R1337E
724.36	1.623	725514	WORD	n/a	wordpools/wordpool_categorized_EN.txt	LETTUCE	Vegetables	5	6	[0, 0, 0]	n/a	catFR1	0	R1337E
725.983	0.804	727137	WORD_OFF	n/a	n/a	LETTUCE	Vegetables	5	6	[0, 0, 0]	n/a	catFR1	0	R1337E
726.787	1.613	727941	WORD	n/a	wordpools/wordpool_categorized_EN.txt	CUCUMBER	Vegetables	6	6	[0, 0, 0]	n/a	catFR1	0	R1337E
728.4	1.078	729554	WORD_OFF	n/a	n/a	CUCUMBER	Vegetables	6	6	[0, 0, 0]	n/a	catFR1	0	R1337E
729.478	1.605	730632	WORD	n/a	wordpools/wordpool_categorized_EN.txt	WINE	Beverages	7	6	[0, 0, 0]	n/a	catFR1	0	R1337E
731.083	0.774	732237	WORD_OFF	n/a	n/a	WINE	Beverages	7	6	[0, 0, 0]	n/a	catFR1	0	R1337E
731.857	1.626	733011	WORD	n/a	wordpools/wordpool_categorized_EN.txt	JUICE	Beverages	8	6	[0, 0, 0]	n/a	catFR1	0	R1337E
733.483	1.075	734637	WORD_OFF	n/a	n/a	JUICE	Beverages	8	6	[0, 0, 0]	n/a	catFR1	0	R1337E
734.558	1.626	735712	WORD	n/a	wordpools/wordpool_categorized_EN.txt	STREAM	Landscapes	9	6	[0, 0, 0]	n/a	catFR1	0	R1337E
736.184	0.752	737338	WORD_OFF	n/a	n/a	STREAM	Landscapes	9	6	[0, 0, 0]	n/a	catFR1	0	R1337E
736.936	1.631	738090	WORD	n/a	wordpools/wordpool_categorized_EN.txt	RIVER	Landscapes	10	6	[0, 0, 0]	n/a	catFR1	0	R1337E
738.567	1.117	739721	WORD_OFF	n/a	n/a	RIVER	Landscapes	10	6	[0, 0, 0]	n/a	catFR1	0	R1337E
739.684	1.635	740838	WORD	n/a	wordpools/wordpool_categorized_EN.txt	CABBAGE	Vegetables	11	6	[0, 0, 0]	n/a	catFR1	0	R1337E
741.319	0.85	742473	WORD_OFF	n/a	n/a	CABBAGE	Vegetables	11	6	[0, 0, 0]	n/a	catFR1	0	R1337E
742.169	1.634	743323	WORD	n/a	wordpools/wordpool_categorized_EN.txt	CARROT	Vegetables	12	6	[0, 0, 0]	n/a	catFR1	0	R1337E
743.803	0.0	744957	WORD_OFF	n/a	n/a	CARROT	Vegetables	12	6	[0, 0, 0]	n/a	catFR1	0	R1337E
743.803	0.0	744957	ENCODING_END	n/a	n/a	n/a	n/a	-999	6	[0, 0, 0]	n/a	catFR1	0	R1337E
743.803	0.0	744957	DISTRACT_START	n/a	n/a	n/a	n/a	-999	6	[0, 0, 0]	n/a	catFR1	0	R1337E
743.803	0.016	744957	START	n/a	n/a	n/a	n/a	-999	6	[-999, -999, -999]	n/a	catFR1	0	R1337E
743.819	8.684	744973	PROB	8.645	n/a	n/a	n/a	-999	6	[2, 2, 4]	8.0	catFR1	0	R1337E
752.503	10.052	753656	PROB	10.021	n/a	n/a	n/a	-999	6	[3, 7, 6]	16.0	catFR1	0	R1337E
762.555	5.442	763708	PROB	5.442	n/a	n/a	n/a	-999	6	[1, 4, 5]	10.0	catFR1	0	R1337E
767.997	0.01	769150	STOP	n/a	n/a	n/a	n/a	-999	6	[-999, -999, -999]	n/a	catFR1	0	R1337E
768.007	0.631	769160	DISTRACT_END	n/a	n/a	n/a	n/a	-999	6	[0, 0, 0]	n/a	catFR1	0	R1337E
768.638	1.619	769791	RETRIEVAL_ORIENT_START	n/a	n/a	n/a	n/a	-999	6	[0, 0, 0]	n/a	catFR1	0	R1337E
770.257	0.0	771410	REC_START	n/a	n/a	n/a	n/a	-999	6	[0, 0, 0]	n/a	catFR1	0	R1337E
770.257	0.182	771410	RETRIEVAL_ORIENT_END	n/a	n/a	n/a	n/a	-999	6	[0, 0, 0]	n/a	catFR1	0	R1337E
770.439	0.495	771592	REC_WORD	0.182	n/a	BEER	Beverages	2	6	[0, 0, 0]	n/a	catFR1	0	R1337E
770.934	0.485	772087	REC_WORD	0.677	n/a	WINE	Beverages	7	6	[0, 0, 0]	n/a	catFR1	0	R1337E
771.419	0.385	772572	REC_WORD	1.162	n/a	JUICE	Beverages	8	6	[0, 0, 0]	n/a	catFR1	0	R1337E
771.804	0.548	772957	REC_WORD	1.547	n/a	RIVER	Landscapes	10	6	[0, 0, 0]	n/a	catFR1	0	R1337E
772.352	1.037	773505	REC_WORD	2.095	n/a	STREAM	Landscapes	9	6	[0, 0, 0]	n/a	catFR1	0	R1337E
773.389	26.881	774542	REC_WORD	3.132	n/a	BEACH	Landscapes	3	6	[0, 0, 0]	n/a	catFR1	0	R1337E
800.27	0.0	801422	TRIAL_END	n/a	n/a	n/a	n/a	-999	6	[0, 0, 0]	n/a	catFR1	0	R1337E
800.27	0.026	801422	REC_END	n/a	n/a	n/a	n/a	-999	6	[0, 0, 0]	n/a	catFR1	0	R1337E
800.296	0.0	801448	TRIAL_START	n/a	n/a	n/a	n/a	-999	7	[0, 0, 0]	n/a	catFR1	0	R1337E
800.296	0.0	801448	TRIAL	n/a	n/a	n/a	n/a	-999	7	[0, 0, 0]	n/a	catFR1	0	R1337E
800.296	12.384	801448	WAITING_START	n/a	n/a	n/a	n/a	-999	7	[0, 0, 0]	n/a	catFR1	0	R1337E
812.68	0.0	813831	WAITING_END	n/a	n/a	n/a	n/a	-999	7	[0, 0, 0]	n/a	catFR1	0	R1337E
812.68	10.43	813831	COUNTDOWN_START	n/a	n/a	n/a	n/a	-999	7	[0, 0, 0]	n/a	catFR1	0	R1337E
823.11	0.001	824261	COUNTDOWN_END	n/a	n/a	n/a	n/a	-999	7	[0, 0, 0]	n/a	catFR1	0	R1337E
823.111	1.256	824262	ORIENT_START	n/a	n/a	n/a	n/a	-999	7	[0, 0, 0]	n/a	catFR1	0	R1337E
824.367	0.0	825518	ORIENT_END	n/a	n/a	n/a	n/a	-999	7	[0, 0, 0]	n/a	catFR1	0	R1337E
824.367	1.107	825518	ENCODING_START	n/a	n/a	n/a	n/a	-999	7	[0, 0, 0]	n/a	catFR1	0	R1337E
825.474	1.626	826625	WORD	n/a	wordpools/wordpool_categorized_EN.txt	FUDGE	Desserts	1	7	[0, 0, 0]	n/a	catFR1	0	R1337E
827.1	0.946	828251	WORD_OFF	n/a	n/a	FUDGE	Desserts	1	7	[0, 0, 0]	n/a	catFR1	0	R1337E
828.046	1.62	829197	WORD	n/a	wordpools/wordpool_categorized_EN.txt	CAKE	Desserts	2	7	[0, 0, 0]	n/a	catFR1	0	R1337E
829.666	0.951	830817	WORD_OFF	n/a	n/a	CAKE	Desserts	2	7	[0, 0, 0]	n/a	catFR1	0	R1337E
830.617	1.634	831768	WORD	n/a	wordpools/wordpool_categorized_EN.txt	OCTOPUS	OceanAnimals	3	7	[0, 0, 0]	n/a	catFR1	0	R1337E
832.251	0.847	833402	WORD_OFF	n/a	n/a	OCTOPUS	OceanAnimals	3	7	[0, 0, 0]	n/a	catFR1	0	R1337E
833.098	1.636	834249	WORD	n/a	wordpools/wordpool_categorized_EN.txt	WHALE	OceanAnimals	4	7	[0, 0, 0]	n/a	catFR1	0	R1337E
834.734	0.755	835884	WORD_OFF	n/a	n/a	WHALE	OceanAnimals	4	7	[0, 0, 0]	n/a	catFR1	0	R1337E
835.489	1.63	836639	WORD	n/a	wordpools/wordpool_categorized_EN.txt	CAULIFLOWER	Vegetables	5	7	[0, 0, 0]	n/a	catFR1	0	R1337E
837.119	0.974	838269	WORD_OFF	n/a	n/a	CAULIFLOWER	Vegetables	5	7	[0, 0, 0]	n/a	catFR1	0	R1337E
838.093	1.625	839243	WORD	n/a	wordpools/wordpool_categorized_EN.txt	PEAS	Vegetables	6	7	[0, 0, 0]	n/a	catFR1	0	R1337E
839.718	0.963	840868	WORD_OFF	n/a	n/a	PEAS	Vegetables	6	7	[0, 0, 0]	n/a	catFR1	0	R1337E
840.681	1.622	841831	WORD	n/a	wordpools/wordpool_categorized_EN.txt	BROWNIES	Desserts	7	7	[0, 0, 0]	n/a	catFR1	0	R1337E
842.303	0.827	843453	WORD_OFF	n/a	n/a	BROWNIES	Desserts	7	7	[0, 0, 0]	n/a	catFR1	0	R1337E
843.13	1.622	844280	WORD	n/a	wordpools/wordpool_categorized_EN.txt	PIE	Desserts	8	7	[0, 0, 0]	n/a	catFR1	0	R1337E
844.752	1.117	845902	WORD_OFF	n/a	n/a	PIE	Desserts	8	7	[0, 0, 0]	n/a	catFR1	0	R1337E
845.869	1.634	847019	WORD	n/a	wordpools/wordpool_categorized_EN.txt	SPINACH	Vegetables	9	7	[0, 0, 0]	n/a	catFR1	0	R1337E
847.503	0.959	848653	WORD_OFF	n/a	n/a	SPINACH	Vegetables	9	7	[0, 0, 0]	n/a	catFR1	0	R1337E
848.462	1.626	849612	WORD	n/a	wordpools/wordpool_categorized_EN.txt	CELERY	Vegetables	10	7	[0, 0, 0]	n/a	catFR1	0	R1337E
850.088	1.063	851238	WORD_OFF	n/a	n/a	CELERY	Vegetables	10	7	[0, 0, 0]	n/a	catFR1	0	R1337E
851.151	1.636	852301	WORD	n/a	wordpools/wordpool_categorized_EN.txt	OYSTER	OceanAnimals	11	7	[0, 0, 0]	n/a	catFR1	0	R1337E
852.787	0.816	853937	WORD_OFF	n/a	n/a	OYSTER	OceanAnimals	11	7	[0, 0, 0]	n/a	catFR1	0	R1337E
853.603	1.619	854753	WORD	n/a	wordpools/wordpool_categorized_EN.txt	CRAB	OceanAnimals	12	7	[0, 0, 0]	n/a	catFR1	0	R1337E
855.222	0.0	856372	WORD_OFF	n/a	n/a	CRAB	OceanAnimals	12	7	[0, 0, 0]	n/a	catFR1	0	R1337E
855.222	0.001	856372	ENCODING_END	n/a	n/a	n/a	n/a	-999	7	[0, 0, 0]	n/a	catFR1	0	R1337E
855.223	0.0	856373	DISTRACT_START	n/a	n/a	n/a	n/a	-999	7	[0, 0, 0]	n/a	catFR1	0	R1337E
855.223	0.015	856373	START	n/a	n/a	n/a	n/a	-999	7	[-999, -999, -999]	n/a	catFR1	0	R1337E
855.238	6.3	856388	PROB	6.271	n/a	n/a	n/a	-999	7	[1, 2, 1]	4.0	catFR1	0	R1337E
861.538	3.469	862687	PROB	3.436	n/a	n/a	n/a	-999	7	[1, 8, 5]	14.0	catFR1	0	R1337E
865.007	7.55	866156	PROB	7.511	n/a	n/a	n/a	-999	7	[9, 4, 5]	18.0	catFR1	0	R1337E
872.557	4.323	873706	PROB	4.323	n/a	n/a	n/a	-999	7	[7, 4, 4]	15.0	catFR1	0	R1337E
876.88	0.012	878029	STOP	n/a	n/a	n/a	n/a	-999	7	[-999, -999, -999]	n/a	catFR1	0	R1337E
876.892	0.617	878041	DISTRACT_END	n/a	n/a	n/a	n/a	-999	7	[0, 0, 0]	n/a	catFR1	0	R1337E
877.509	1.7	878658	RETRIEVAL_ORIENT_START	n/a	n/a	n/a	n/a	-999	7	[0, 0, 0]	n/a	catFR1	0	R1337E
879.209	0.001	880358	RETRIEVAL_ORIENT_END	n/a	n/a	n/a	n/a	-999	7	[0, 0, 0]	n/a	catFR1	0	R1337E
879.21	0.655	880359	REC_START	n/a	n/a	n/a	n/a	-999	7	[0, 0, 0]	n/a	catFR1	0	R1337E
879.865	0.588	881014	REC_WORD	0.655	n/a	PIE	Desserts	8	7	[0, 0, 0]	n/a	catFR1	0	R1337E
880.453	0.963	881602	REC_WORD	1.243	n/a	SPINACH	Vegetables	9	7	[0, 0, 0]	n/a	catFR1	0	R1337E
881.416	0.823	882565	REC_WORD	2.206	n/a	CELERY	Vegetables	10	7	[0, 0, 0]	n/a	catFR1	0	R1337E
882.239	26.983	883388	REC_WORD	3.029	n/a	CRAB	OceanAnimals	12	7	[0, 0, 0]	n/a	catFR1	0	R1337E
909.222	0.0	910370	REC_END	n/a	n/a	n/a	n/a	-999	7	[0, 0, 0]	n/a	catFR1	0	R1337E
909.222	0.026	910370	TRIAL_END	n/a	n/a	n/a	n/a	-999	7	[0, 0, 0]	n/a	catFR1	0	R1337E
909.248	0.0	910396	TRIAL	n/a	n/a	n/a	n/a	-999	8	[0, 0, 0]	n/a	catFR1	0	R1337E
909.248	0.0	910396	WAITING_START	n/a	n/a	n/a	n/a	-999	8	[0, 0, 0]	n/a	catFR1	0	R1337E
909.248	3.051	910396	TRIAL_START	n/a	n/a	n/a	n/a	-999	8	[0, 0, 0]	n/a	catFR1	0	R1337E
912.299	0.0	913447	WAITING_END	n/a	n/a	n/a	n/a	-999	8	[0, 0, 0]	n/a	catFR1	0	R1337E
912.299	10.429	913447	COUNTDOWN_START	n/a	n/a	n/a	n/a	-999	8	[0, 0, 0]	n/a	catFR1	0	R1337E
922.728	0.0	923875	COUNTDOWN_END	n/a	n/a	n/a	n/a	-999	8	[0, 0, 0]	n/a	catFR1	0	R1337E
922.728	1.139	923875	ORIENT_START	n/a	n/a	n/a	n/a	-999	8	[0, 0, 0]	n/a	catFR1	0	R1337E
923.867	0.001	925014	ORIENT_END	n/a	n/a	n/a	n/a	-999	8	[0, 0, 0]	n/a	catFR1	0	R1337E
923.868	1.037	925015	ENCODING_START	n/a	n/a	n/a	n/a	-999	8	[0, 0, 0]	n/a	catFR1	0	R1337E
924.905	1.628	926052	WORD	n/a	wordpools/wordpool_categorized_EN.txt	TONGS	KitchenTools	1	8	[0, 0, 0]	n/a	catFR1	0	R1337E
926.533	1.089	927680	WORD_OFF	n/a	n/a	TONGS	KitchenTools	1	8	[0, 0, 0]	n/a	catFR1	0	R1337E
927.622	1.612	928769	WORD	n/a	wordpools/wordpool_categorized_EN.txt	LADLE	KitchenTools	2	8	[0, 0, 0]	n/a	catFR1	0	R1337E
929.234	0.994	930381	WORD_OFF	n/a	n/a	LADLE	KitchenTools	2	8	[0, 0, 0]	n/a	catFR1	0	R1337E
930.228	1.624	931375	WORD	n/a	wordpools/wordpool_categorized_EN.txt	HAMMER	Tools	3	8	[0, 0, 0]	n/a	catFR1	0	R1337E
931.852	1.071	932999	WORD_OFF	n/a	n/a	HAMMER	Tools	3	8	[0, 0, 0]	n/a	catFR1	0	R1337E
932.923	1.628	934070	WORD	n/a	wordpools/wordpool_categorized_EN.txt	CROWBAR	Tools	4	8	[0, 0, 0]	n/a	catFR1	0	R1337E
934.551	1.049	935698	WORD_OFF	n/a	n/a	CROWBAR	Tools	4	8	[0, 0, 0]	n/a	catFR1	0	R1337E
935.6	1.619	936747	WORD	n/a	wordpools/wordpool_categorized_EN.txt	GIRAFFE	Zoo	5	8	[0, 0, 0]	n/a	catFR1	0	R1337E
937.219	0.783	938366	WORD_OFF	n/a	n/a	GIRAFFE	Zoo	5	8	[0, 0, 0]	n/a	catFR1	0	R1337E
938.002	1.634	939149	WORD	n/a	wordpools/wordpool_categorized_EN.txt	LION	Zoo	6	8	[0, 0, 0]	n/a	catFR1	0	R1337E
939.636	1.078	940783	WORD_OFF	n/a	n/a	LION	Zoo	6	8	[0, 0, 0]	n/a	catFR1	0	R1337E
940.714	1.623	941861	WORD	n/a	wordpools/wordpool_categorized_EN.txt	SPATULA	KitchenTools	7	8	[0, 0, 0]	n/a	catFR1	0	R1337E
942.337	1.058	943484	WORD_OFF	n/a	n/a	SPATULA	KitchenTools	7	8	[0, 0, 0]	n/a	catFR1	0	R1337E
943.395	1.626	944542	WORD	n/a	wordpools/wordpool_categorized_EN.txt	KNIFE	KitchenTools	8	8	[0, 0, 0]	n/a	catFR1	0	R1337E
945.021	0.765	946168	WORD_OFF	n/a	n/a	KNIFE	KitchenTools	8	8	[0, 0, 0]	n/a	catFR1	0	R1337E
945.786	1.635	946932	WORD	n/a	wordpools/wordpool_categorized_EN.txt	ORANGUTAN	Zoo	9	8	[0, 0, 0]	n/a	catFR1	0	R1337E
947.421	1.059	948567	WORD_OFF	n/a	n/a	ORANGUTAN	Zoo	9	8	[0, 0, 0]	n/a	catFR1	0	R1337E
948.48	1.625	949626	WORD	n/a	wordpools/wordpool_categorized_EN.txt	ZEBRA	Zoo	10	8	[0, 0, 0]	n/a	catFR1	0	R1337E
950.105	0.911	951251	WORD_OFF	n/a	n/a	ZEBRA	Zoo	10	8	[0, 0, 0]	n/a	catFR1	0	R1337E
951.016	1.622	952162	WORD	n/a	wordpools/wordpool_categorized_EN.txt	LEVEL	Tools	11	8	[0, 0, 0]	n/a	catFR1	0	R1337E
952.638	0.915	953784	WORD_OFF	n/a	n/a	LEVEL	Tools	11	8	[0, 0, 0]	n/a	catFR1	0	R1337E
953.553	1.636	954699	WORD	n/a	wordpools/wordpool_categorized_EN.txt	RATCHET	Tools	12	8	[0, 0, 0]	n/a	catFR1	0	R1337E
955.189	0.001	956335	WORD_OFF	n/a	n/a	RATCHET	Tools	12	8	[0, 0, 0]	n/a	catFR1	0	R1337E
955.19	0.0	956336	ENCODING_END	n/a	n/a	n/a	n/a	-999	8	[0, 0, 0]	n/a	catFR1	0	R1337E
955.19	0.0	956336	DISTRACT_START	n/a	n/a	n/a	n/a	-999	8	[0, 0, 0]	n/a	catFR1	0	R1337E
955.19	0.016	956336	START	n/a	n/a	n/a	n/a	-999	8	[-999, -999, -999]	n/a	catFR1	0	R1337E
955.206	13.584	956352	PROB	13.559	n/a	n/a	n/a	-999	8	[6, 8, 4]	18.0	catFR1	0	R1337E
968.79	5.619	969936	PROB	5.596	n/a	n/a	n/a	-999	8	[5, 1, 4]	10.0	catFR1	0	R1337E
974.409	4.369	975554	PROB	4.369	n/a	n/a	n/a	-999	8	[3, 4, 8]	15.0	catFR1	0	R1337E
978.778	0.014	979923	STOP	n/a	n/a	n/a	n/a	-999	8	[-999, -999, -999]	n/a	catFR1	0	R1337E
978.792	0.508	979937	DISTRACT_END	n/a	n/a	n/a	n/a	-999	8	[0, 0, 0]	n/a	catFR1	0	R1337E
979.3	1.61	980445	RETRIEVAL_ORIENT_START	n/a	n/a	n/a	n/a	-999	8	[0, 0, 0]	n/a	catFR1	0	R1337E
980.91	0.001	982055	RETRIEVAL_ORIENT_END	n/a	n/a	n/a	n/a	-999	8	[0, 0, 0]	n/a	catFR1	0	R1337E
980.911	2.712	982056	REC_START	n/a	n/a	n/a	n/a	-999	8	[0, 0, 0]	n/a	catFR1	0	R1337E
983.623	2.178	984768	REC_WORD	2.712	n/a	TONGS	KitchenTools	1	8	[0, 0, 0]	n/a	catFR1	0	R1337E
985.801	2.104	986946	REC_WORD	4.89	n/a	LADLE	KitchenTools	2	8	[0, 0, 0]	n/a	catFR1	0	R1337E
987.905	8.027	989050	REC_WORD	6.994	n/a	HAMMER	Tools	3	8	[0, 0, 0]	n/a	catFR1	0	R1337E
995.932	14.991	997077	REC_WORD_VV	15.021	n/a	<>	n/a	-999	8	[0, 0, 0]	n/a	catFR1	0	R1337E
1010.923	0.0	1012067	REC_END	n/a	n/a	n/a	n/a	-999	8	[0, 0, 0]	n/a	catFR1	0	R1337E
1010.923	0.026	1012067	TRIAL_END	n/a	n/a	n/a	n/a	-999	8	[0, 0, 0]	n/a	catFR1	0	R1337E
1010.949	0.0	1012093	TRIAL	n/a	n/a	n/a	n/a	-999	9	[0, 0, 0]	n/a	catFR1	0	R1337E
1010.949	0.0	1012093	WAITING_START	n/a	n/a	n/a	n/a	-999	9	[0, 0, 0]	n/a	catFR1	0	R1337E
1010.949	4.55	1012093	TRIAL_START	n/a	n/a	n/a	n/a	-999	9	[0, 0, 0]	n/a	catFR1	0	R1337E
1015.499	0.0	1016643	WAITING_END	n/a	n/a	n/a	n/a	-999	9	[0, 0, 0]	n/a	catFR1	0	R1337E
1015.499	10.428	1016643	COUNTDOWN_START	n/a	n/a	n/a	n/a	-999	9	[0, 0, 0]	n/a	catFR1	0	R1337E
1025.927	0.001	1027071	COUNTDOWN_END	n/a	n/a	n/a	n/a	-999	9	[0, 0, 0]	n/a	catFR1	0	R1337E
1025.928	1.107	1027072	ORIENT_START	n/a	n/a	n/a	n/a	-999	9	[0, 0, 0]	n/a	catFR1	0	R1337E
1027.035	0.0	1028179	ORIENT_END	n/a	n/a	n/a	n/a	-999	9	[0, 0, 0]	n/a	catFR1	0	R1337E
1027.035	1.049	1028179	ENCODING_START	n/a	n/a	n/a	n/a	-999	9	[0, 0, 0]	n/a	catFR1	0	R1337E
1028.084	1.634	1029228	WORD	n/a	wordpools/wordpool_categorized_EN.txt	STOVE	Appliances	1	9	[0, 0, 0]	n/a	catFR1	0	R1337E
1029.718	0.984	1030861	WORD_OFF	n/a	n/a	STOVE	Appliances	1	9	[0, 0, 0]	n/a	catFR1	0	R1337E
1030.702	1.617	1031845	WORD	n/a	wordpools/wordpool_categorized_EN.txt	FREEZER	Appliances	2	9	[0, 0, 0]	n/a	catFR1	0	R1337E
1032.319	1.105	1033462	WORD_OFF	n/a	n/a	FREEZER	Appliances	2	9	[0, 0, 0]	n/a	catFR1	0	R1337E
1033.424	1.629	1034567	WORD	n/a	wordpools/wordpool_categorized_EN.txt	MOUNTAIN	Landscapes	3	9	[0, 0, 0]	n/a	catFR1	0	R1337E
1035.053	1.049	1036196	WORD_OFF	n/a	n/a	MOUNTAIN	Landscapes	3	9	[0, 0, 0]	n/a	catFR1	0	R1337E
1036.102	1.634	1037245	WORD	n/a	wordpools/wordpool_categorized_EN.txt	FOREST	Landscapes	4	9	[0, 0, 0]	n/a	catFR1	0	R1337E
1037.736	1.106	1038879	WORD_OFF	n/a	n/a	FOREST	Landscapes	4	9	[0, 0, 0]	n/a	catFR1	0	R1337E
1038.842	1.628	1039985	WORD	n/a	wordpools/wordpool_categorized_EN.txt	CHEETAH	Zoo	5	9	[0, 0, 0]	n/a	catFR1	0	R1337E
1040.47	0.875	1041613	WORD_OFF	n/a	n/a	CHEETAH	Zoo	5	9	[0, 0, 0]	n/a	catFR1	0	R1337E
1041.345	1.626	1042488	WORD	n/a	wordpools/wordpool_categorized_EN.txt	CHIMPANZEE	Zoo	6	9	[0, 0, 0]	n/a	catFR1	0	R1337E
1042.971	0.953	1044114	WORD_OFF	n/a	n/a	CHIMPANZEE	Zoo	6	9	[0, 0, 0]	n/a	catFR1	0	R1337E
1043.924	1.63	1045067	WORD	n/a	wordpools/wordpool_categorized_EN.txt	REFRIGERATOR	Appliances	7	9	[0, 0, 0]	n/a	catFR1	0	R1337E
1045.554	1.005	1046697	WORD_OFF	n/a	n/a	REFRIGERATOR	Appliances	7	9	[0, 0, 0]	n/a	catFR1	0	R1337E
1046.559	1.63	1047702	WORD	n/a	wordpools/wordpool_categorized_EN.txt	OVEN	Appliances	8	9	[0, 0, 0]	n/a	catFR1	0	R1337E
1048.189	1.132	1049332	WORD_OFF	n/a	n/a	OVEN	Appliances	8	9	[0, 0, 0]	n/a	catFR1	0	R1337E
1049.321	1.635	1050464	WORD	n/a	wordpools/wordpool_categorized_EN.txt	OCEAN	Landscapes	9	9	[0, 0, 0]	n/a	catFR1	0	R1337E
1050.956	0.827	1052099	WORD_OFF	n/a	n/a	OCEAN	Landscapes	9	9	[0, 0, 0]	n/a	catFR1	0	R1337E
1051.783	1.606	1052926	WORD	n/a	wordpools/wordpool_categorized_EN.txt	ISLAND	Landscapes	10	9	[0, 0, 0]	n/a	catFR1	0	R1337E
1053.389	0.862	1054532	WORD_OFF	n/a	n/a	ISLAND	Landscapes	10	9	[0, 0, 0]	n/a	catFR1	0	R1337E
1054.251	1.622	1055394	WORD	n/a	wordpools/wordpool_categorized_EN.txt	GORILLA	Zoo	11	9	[0, 0, 0]	n/a	catFR1	0	R1337E
1055.873	1.131	1057016	WORD_OFF	n/a	n/a	GORILLA	Zoo	11	9	[0, 0, 0]	n/a	catFR1	0	R1337E
1057.004	1.636	1058147	WORD	n/a	wordpools/wordpool_categorized_EN.txt	TIGER	Zoo	12	9	[0, 0, 0]	n/a	catFR1	0	R1337E
1058.64	0.0	1059782	WORD_OFF	n/a	n/a	TIGER	Zoo	12	9	[0, 0, 0]	n/a	catFR1	0	R1337E
1058.64	0.0	1059782	ENCODING_END	n/a	n/a	n/a	n/a	-999	9	[0, 0, 0]	n/a	catFR1	0	R1337E
1058.64	0.0	1059782	DISTRACT_START	n/a	n/a	n/a	n/a	-999	9	[0, 0, 0]	n/a	catFR1	0	R1337E
1058.64	0.016	1059782	START	n/a	n/a	n/a	n/a	-999	9	[-999, -999, -999]	n/a	catFR1	0	R1337E
1058.656	6.068	1059798	PROB	6.037	n/a	n/a	n/a	-999	9	[6, 6, 4]	14.0	catFR1	0	R1337E
1064.724	4.385	1065866	PROB	4.354	n/a	n/a	n/a	-999	9	[5, 6, 3]	14.0	catFR1	0	R1337E
1069.109	7.383	1070251	PROB	7.351	n/a	n/a	n/a	-999	9	[8, 1, 5]	14.0	catFR1	0	R1337E
1076.492	5.547	1077634	PROB	5.547	n/a	n/a	n/a	-999	9	[7, 1, 9]	17.0	catFR1	0	R1337E
1082.039	0.005	1083181	STOP	n/a	n/a	n/a	n/a	-999	9	[-999, -999, -999]	n/a	catFR1	0	R1337E
1082.044	0.609	1083186	DISTRACT_END	n/a	n/a	n/a	n/a	-999	9	[0, 0, 0]	n/a	catFR1	0	R1337E
1082.653	1.709	1083795	RETRIEVAL_ORIENT_START	n/a	n/a	n/a	n/a	-999	9	[0, 0, 0]	n/a	catFR1	0	R1337E
1084.362	0.0	1085504	RETRIEVAL_ORIENT_END	n/a	n/a	n/a	n/a	-999	9	[0, 0, 0]	n/a	catFR1	0	R1337E
1084.362	0.507	1085504	REC_START	n/a	n/a	n/a	n/a	-999	9	[0, 0, 0]	n/a	catFR1	0	R1337E
1084.869	0.596	1086011	REC_WORD	0.507	n/a	OCEAN	Landscapes	9	9	[0, 0, 0]	n/a	catFR1	0	R1337E
1085.465	1.045	1086607	REC_WORD	1.103	n/a	ISLAND	Landscapes	10	9	[0, 0, 0]	n/a	catFR1	0	R1337E
1086.51	4.426	1087651	REC_WORD	2.148	n/a	TIGER	Zoo	12	9	[0, 0, 0]	n/a	catFR1	0	R1337E
1090.936	23.439	1092077	REC_WORD	6.574	n/a	GORILLA	Zoo	11	9	[0, 0, 0]	n/a	catFR1	0	R1337E
1114.375	0.0	1115515	REC_END	n/a	n/a	n/a	n/a	-999	9	[0, 0, 0]	n/a	catFR1	0	R1337E
1114.375	0.026	1115515	TRIAL_END	n/a	n/a	n/a	n/a	-999	9	[0, 0, 0]	n/a	catFR1	0	R1337E
1114.401	0.0	1115541	TRIAL_START	n/a	n/a	n/a	n/a	-999	10	[0, 0, 0]	n/a	catFR1	0	R1337E
1114.401	0.0	1115541	TRIAL	n/a	n/a	n/a	n/a	-999	10	[0, 0, 0]	n/a	catFR1	0	R1337E
1114.401	2.232	1115541	WAITING_START	n/a	n/a	n/a	n/a	-999	10	[0, 0, 0]	n/a	catFR1	0	R1337E
1116.633	0.0	1117773	COUNTDOWN_START	n/a	n/a	n/a	n/a	-999	10	[0, 0, 0]	n/a	catFR1	0	R1337E
1116.633	10.43	1117773	WAITING_END	n/a	n/a	n/a	n/a	-999	10	[0, 0, 0]	n/a	catFR1	0	R1337E
1127.063	0.0	1128203	COUNTDOWN_END	n/a	n/a	n/a	n/a	-999	10	[0, 0, 0]	n/a	catFR1	0	R1337E
1127.063	1.223	1128203	ORIENT_START	n/a	n/a	n/a	n/a	-999	10	[0, 0, 0]	n/a	catFR1	0	R1337E
1128.286	0.0	1129426	ORIENT_END	n/a	n/a	n/a	n/a	-999	10	[0, 0, 0]	n/a	catFR1	0	R1337E
1128.286	0.933	1129426	ENCODING_START	n/a	n/a	n/a	n/a	-999	10	[0, 0, 0]	n/a	catFR1	0	R1337E
1129.219	1.634	1130359	WORD	n/a	wordpools/wordpool_categorized_EN.txt	STEREO	Electronics	1	10	[0, 0, 0]	n/a	catFR1	0	R1337E
1130.853	1.003	1131993	WORD_OFF	n/a	n/a	STEREO	Electronics	1	10	[0, 0, 0]	n/a	catFR1	0	R1337E
1131.856	1.63	1132996	WORD	n/a	wordpools/wordpool_categorized_EN.txt	COMPUTER	Electronics	2	10	[0, 0, 0]	n/a	catFR1	0	R1337E
1133.486	0.908	1134626	WORD_OFF	n/a	n/a	COMPUTER	Electronics	2	10	[0, 0, 0]	n/a	catFR1	0	R1337E
1134.394	1.627	1135534	WORD	n/a	wordpools/wordpool_categorized_EN.txt	MAPLE	Trees	3	10	[0, 0, 0]	n/a	catFR1	0	R1337E
1136.021	1.055	1137161	WORD_OFF	n/a	n/a	MAPLE	Trees	3	10	[0, 0, 0]	n/a	catFR1	0	R1337E
1137.076	1.628	1138216	WORD	n/a	wordpools/wordpool_categorized_EN.txt	SPRUCE	Trees	4	10	[0, 0, 0]	n/a	catFR1	0	R1337E
1138.704	0.773	1139844	WORD_OFF	n/a	n/a	SPRUCE	Trees	4	10	[0, 0, 0]	n/a	catFR1	0	R1337E
1139.477	1.628	1140617	WORD	n/a	wordpools/wordpool_categorized_EN.txt	PANDA	Zoo	5	10	[0, 0, 0]	n/a	catFR1	0	R1337E
1141.105	0.803	1142245	WORD_OFF	n/a	n/a	PANDA	Zoo	5	10	[0, 0, 0]	n/a	catFR1	0	R1337E
1141.908	1.63	1143047	WORD	n/a	wordpools/wordpool_categorized_EN.txt	MONKEY	Zoo	6	10	[0, 0, 0]	n/a	catFR1	0	R1337E
1143.538	0.768	1144677	WORD_OFF	n/a	n/a	MONKEY	Zoo	6	10	[0, 0, 0]	n/a	catFR1	0	R1337E
1144.306	1.633	1145445	WORD	n/a	wordpools/wordpool_categorized_EN.txt	PHONE	Electronics	7	10	[0, 0, 0]	n/a	catFR1	0	R1337E
1145.939	1.091	1147078	WORD_OFF	n/a	n/a	PHONE	Electronics	7	10	[0, 0, 0]	n/a	catFR1	0	R1337E
1147.03	1.625	1148169	WORD	n/a	wordpools/wordpool_categorized_EN.txt	RADIO	Electronics	8	10	[0, 0, 0]	n/a	catFR1	0	R1337E
1148.655	1.087	1149794	WORD_OFF	n/a	n/a	RADIO	Electronics	8	10	[0, 0, 0]	n/a	catFR1	0	R1337E
1149.742	1.615	1150881	WORD	n/a	wordpools/wordpool_categorized_EN.txt	BEAR	Zoo	9	10	[0, 0, 0]	n/a	catFR1	0	R1337E
1151.357	0.859	1152496	WORD_OFF	n/a	n/a	BEAR	Zoo	9	10	[0, 0, 0]	n/a	catFR1	0	R1337E
1152.216	1.625	1153355	WORD	n/a	wordpools/wordpool_categorized_EN.txt	ELEPHANT	Zoo	10	10	[0, 0, 0]	n/a	catFR1	0	R1337E
1153.841	0.876	1154980	WORD_OFF	n/a	n/a	ELEPHANT	Zoo	10	10	[0, 0, 0]	n/a	catFR1	0	R1337E
1154.717	1.624	1155856	WORD	n/a	wordpools/wordpool_categorized_EN.txt	PINE	Trees	11	10	[0, 0, 0]	n/a	catFR1	0	R1337E
1156.341	1.083	1157480	WORD_OFF	n/a	n/a	PINE	Trees	11	10	[0, 0, 0]	n/a	catFR1	0	R1337E
1157.424	1.634	1158563	WORD	n/a	wordpools/wordpool_categorized_EN.txt	ELM	Trees	12	10	[0, 0, 0]	n/a	catFR1	0	R1337E
1159.058	0.0	1160197	ENCODING_END	n/a	n/a	n/a	n/a	-999	10	[0, 0, 0]	n/a	catFR1	0	R1337E
1159.058	0.001	1160197	WORD_OFF	n/a	n/a	ELM	Trees	12	10	[0, 0, 0]	n/a	catFR1	0	R1337E
1159.059	0.0	1160198	DISTRACT_START	n/a	n/a	n/a	n/a	-999	10	[0, 0, 0]	n/a	catFR1	0	R1337E
1159.059	0.016	1160198	START	n/a	n/a	n/a	n/a	-999	10	[-999, -999, -999]	n/a	catFR1	0	R1337E
1159.075	8.533	1160214	PROB	8.509	n/a	n/a	n/a	-999	10	[1, 3, 9]	13.0	catFR1	0	R1337E
1167.608	3.669	1168747	PROB	3.632	n/a	n/a	n/a	-999	10	[4, 5, 7]	16.0	catFR1	0	R1337E
1171.277	3.449	1172415	PROB	3.427	n/a	n/a	n/a	-999	10	[2, 7, 1]	10.0	catFR1	0	R1337E
1174.726	4.741	1175864	PROB	4.741	n/a	n/a	n/a	-999	10	[5, 1, 3]	9.0	catFR1	0	R1337E
1179.467	0.01	1180605	STOP	n/a	n/a	n/a	n/a	-999	10	[-999, -999, -999]	n/a	catFR1	0	R1337E
1179.477	0.575	1180615	DISTRACT_END	n/a	n/a	n/a	n/a	-999	10	[0, 0, 0]	n/a	catFR1	0	R1337E
1180.052	1.659	1181190	RETRIEVAL_ORIENT_START	n/a	n/a	n/a	n/a	-999	10	[0, 0, 0]	n/a	catFR1	0	R1337E
1181.711	0.0	1182849	RETRIEVAL_ORIENT_END	n/a	n/a	n/a	n/a	-999	10	[0, 0, 0]	n/a	catFR1	0	R1337E
1181.711	0.678	1182849	REC_START	n/a	n/a	n/a	n/a	-999	10	[0, 0, 0]	n/a	catFR1	0	R1337E
1182.389	0.86	1183527	REC_WORD	0.678	n/a	PHONE	Electronics	7	10	[0, 0, 0]	n/a	catFR1	0	R1337E
1183.249	1.245	1184387	REC_WORD	1.538	n/a	RADIO	Electronics	8	10	[0, 0, 0]	n/a	catFR1	0	R1337E
1184.494	1.007	1185632	REC_WORD	2.783	n/a	PANDA	Zoo	5	10	[0, 0, 0]	n/a	catFR1	0	R1337E
1185.501	4.369	1186639	REC_WORD	3.79	n/a	BEAR	Zoo	9	10	[0, 0, 0]	n/a	catFR1	0	R1337E
1189.87	21.854	1191008	REC_WORD	8.159	n/a	ELEPHANT	Zoo	10	10	[0, 0, 0]	n/a	catFR1	0	R1337E
1211.724	0.0	1212861	REC_END	n/a	n/a	n/a	n/a	-999	10	[0, 0, 0]	n/a	catFR1	0	R1337E
1211.724	0.025	1212861	TRIAL_END	n/a	n/a	n/a	n/a	-999	10	[0, 0, 0]	n/a	catFR1	0	R1337E
1211.749	0.001	1212886	TRIAL_START	n/a	n/a	n/a	n/a	-999	11	[0, 0, 0]	n/a	catFR1	0	R1337E
1211.75	0.0	1212887	TRIAL	n/a	n/a	n/a	n/a	-999	11	[0, 0, 0]	n/a	catFR1	0	R1337E
1211.75	18.87	1212887	WAITING_START	n/a	n/a	n/a	n/a	-999	11	[0, 0, 0]	n/a	catFR1	0	R1337E
1230.62	0.0	1231756	COUNTDOWN_START	n/a	n/a	n/a	n/a	-999	11	[0, 0, 0]	n/a	catFR1	0	R1337E
1230.62	10.429	1231756	WAITING_END	n/a	n/a	n/a	n/a	-999	11	[0, 0, 0]	n/a	catFR1	0	R1337E
1241.049	0.0	1242185	COUNTDOWN_END	n/a	n/a	n/a	n/a	-999	11	[0, 0, 0]	n/a	catFR1	0	R1337E
1241.049	1.057	1242185	ORIENT_START	n/a	n/a	n/a	n/a	-999	11	[0, 0, 0]	n/a	catFR1	0	R1337E
1242.106	0.0	1243242	ORIENT_END	n/a	n/a	n/a	n/a	-999	11	[0, 0, 0]	n/a	catFR1	0	R1337E
1242.106	1.101	1243242	ENCODING_START	n/a	n/a	n/a	n/a	-999	11	[0, 0, 0]	n/a	catFR1	0	R1337E
1243.207	1.633	1244343	WORD	n/a	wordpools/wordpool_categorized_EN.txt	COAT	Clothing	1	11	[0, 0, 0]	n/a	catFR1	0	R1337E
1244.84	0.9	1245976	WORD_OFF	n/a	n/a	COAT	Clothing	1	11	[0, 0, 0]	n/a	catFR1	0	R1337E
1245.74	1.633	1246876	WORD	n/a	wordpools/wordpool_categorized_EN.txt	BLOUSE	Clothing	2	11	[0, 0, 0]	n/a	catFR1	0	R1337E
1247.373	1.025	1248509	WORD_OFF	n/a	n/a	BLOUSE	Clothing	2	11	[0, 0, 0]	n/a	catFR1	0	R1337E
1248.398	1.626	1249534	WORD	n/a	wordpools/wordpool_categorized_EN.txt	ROACH	Insects	3	11	[0, 0, 0]	n/a	catFR1	0	R1337E
1250.024	0.843	1251160	WORD_OFF	n/a	n/a	ROACH	Insects	3	11	[0, 0, 0]	n/a	catFR1	0	R1337E
1250.867	1.623	1252003	WORD	n/a	wordpools/wordpool_categorized_EN.txt	BEETLE	Insects	4	11	[0, 0, 0]	n/a	catFR1	0	R1337E
1252.49	1.055	1253626	WORD_OFF	n/a	n/a	BEETLE	Insects	4	11	[0, 0, 0]	n/a	catFR1	0	R1337E
1253.545	1.63	1254681	WORD	n/a	wordpools/wordpool_categorized_EN.txt	HURRICANE	Weather	5	11	[0, 0, 0]	n/a	catFR1	0	R1337E
1255.175	1.114	1256310	WORD_OFF	n/a	n/a	HURRICANE	Weather	5	11	[0, 0, 0]	n/a	catFR1	0	R1337E
1256.289	1.636	1257424	WORD	n/a	wordpools/wordpool_categorized_EN.txt	LIGHTNING	Weather	6	11	[0, 0, 0]	n/a	catFR1	0	R1337E
1257.925	1.061	1259060	WORD_OFF	n/a	n/a	LIGHTNING	Weather	6	11	[0, 0, 0]	n/a	catFR1	0	R1337E
1258.986	1.622	1260121	WORD	n/a	wordpools/wordpool_categorized_EN.txt	BEE	Insects	7	11	[0, 0, 0]	n/a	catFR1	0	R1337E
1260.608	0.84	1261743	WORD_OFF	n/a	n/a	BEE	Insects	7	11	[0, 0, 0]	n/a	catFR1	0	R1337E
1261.448	1.611	1262583	WORD	n/a	wordpools/wordpool_categorized_EN.txt	FLY	Insects	8	11	[0, 0, 0]	n/a	catFR1	0	R1337E
1263.059	0.907	1264194	WORD_OFF	n/a	n/a	FLY	Insects	8	11	[0, 0, 0]	n/a	catFR1	0	R1337E
1263.966	1.626	1265101	WORD	n/a	wordpools/wordpool_categorized_EN.txt	SHORTS	Clothing	9	11	[0, 0, 0]	n/a	catFR1	0	R1337E
1265.592	1.067	1266727	WORD_OFF	n/a	n/a	SHORTS	Clothing	9	11	[0, 0, 0]	n/a	catFR1	0	R1337E
1266.659	1.635	1267794	WORD	n/a	wordpools/wordpool_categorized_EN.txt	SKIRT	Clothing	10	11	[0, 0, 0]	n/a	catFR1	0	R1337E
1268.294	1.004	1269429	WORD_OFF	n/a	n/a	SKIRT	Clothing	10	11	[0, 0, 0]	n/a	catFR1	0	R1337E
1269.298	1.629	1270433	WORD	n/a	wordpools/wordpool_categorized_EN.txt	WIND	Weather	11	11	[0, 0, 0]	n/a	catFR1	0	R1337E
1270.927	0.877	1272062	WORD_OFF	n/a	n/a	WIND	Weather	11	11	[0, 0, 0]	n/a	catFR1	0	R1337E
1271.804	1.624	1272939	WORD	n/a	wordpools/wordpool_categorized_EN.txt	FOG	Weather	12	11	[0, 0, 0]	n/a	catFR1	0	R1337E
1273.428	0.0	1274563	ENCODING_END	n/a	n/a	n/a	n/a	-999	11	[0, 0, 0]	n/a	catFR1	0	R1337E
1273.428	0.001	1274563	WORD_OFF	n/a	n/a	FOG	Weather	12	11	[0, 0, 0]	n/a	catFR1	0	R1337E
1273.429	0.0	1274564	DISTRACT_START	n/a	n/a	n/a	n/a	-999	11	[0, 0, 0]	n/a	catFR1	0	R1337E
1273.429	0.015	1274564	START	n/a	n/a	n/a	n/a	-999	11	[-999, -999, -999]	n/a	catFR1	0	R1337E
1273.444	11.702	1274579	PROB	11.67	n/a	n/a	n/a	-999	11	[6, 1, 2]	9.0	catFR1	0	R1337E
1285.146	4.785	1286280	PROB	4.759	n/a	n/a	n/a	-999	11	[2, 9, 7]	18.0	catFR1	0	R1337E
1289.931	3.59	1291065	PROB	3.59	n/a	n/a	n/a	-999	11	[8, 4, 1]	13.0	catFR1	0	R1337E
1293.521	0.01	1294655	STOP	n/a	n/a	n/a	n/a	-999	11	[-999, -999, -999]	n/a	catFR1	0	R1337E
1293.531	0.646	1294665	DISTRACT_END	n/a	n/a	n/a	n/a	-999	11	[0, 0, 0]	n/a	catFR1	0	R1337E
1294.177	1.672	1295311	RETRIEVAL_ORIENT_START	n/a	n/a	n/a	n/a	-999	11	[0, 0, 0]	n/a	catFR1	0	R1337E
1295.849	0.0	1296983	RETRIEVAL_ORIENT_END	n/a	n/a	n/a	n/a	-999	11	[0, 0, 0]	n/a	catFR1	0	R1337E
1295.849	1.306	1296983	REC_START	n/a	n/a	n/a	n/a	-999	11	[0, 0, 0]	n/a	catFR1	0	R1337E
1297.155	1.093	1298289	REC_WORD	1.306	n/a	BEETLE	Insects	4	11	[0, 0, 0]	n/a	catFR1	0	R1337E
1298.248	1.981	1299382	REC_WORD	2.399	n/a	WIND	Weather	11	11	[0, 0, 0]	n/a	catFR1	0	R1337E
1300.229	2.564	1301363	REC_WORD	4.38	n/a	FOG	Weather	12	11	[0, 0, 0]	n/a	catFR1	0	R1337E
1302.793	3.595	1303927	REC_WORD	6.944	n/a	PLANTS	n/a	-999	11	[0, 0, 0]	n/a	catFR1	0	R1337E
1306.388	19.472	1307522	REC_WORD	10.539	n/a	LIGHTNING	Weather	6	11	[0, 0, 0]	n/a	catFR1	0	R1337E
1325.86	0.001	1326993	REC_END	n/a	n/a	n/a	n/a	-999	11	[0, 0, 0]	n/a	catFR1	0	R1337E
1325.861	0.025	1326994	TRIAL_END	n/a	n/a	n/a	n/a	-999	11	[0, 0, 0]	n/a	catFR1	0	R1337E
1325.886	0.001	1327019	TRIAL_START	n/a	n/a	n/a	n/a	-999	12	[0, 0, 0]	n/a	catFR1	0	R1337E
1325.887	0.0	1327020	TRIAL	n/a	n/a	n/a	n/a	-999	12	[0, 0, 0]	n/a	catFR1	0	R1337E
1325.887	2.633	1327020	WAITING_START	n/a	n/a	n/a	n/a	-999	12	[0, 0, 0]	n/a	catFR1	0	R1337E
1328.52	0.0	1329653	COUNTDOWN_START	n/a	n/a	n/a	n/a	-999	12	[0, 0, 0]	n/a	catFR1	0	R1337E
1328.52	10.429	1329653	WAITING_END	n/a	n/a	n/a	n/a	-999	12	[0, 0, 0]	n/a	catFR1	0	R1337E
1338.949	0.0	1340081	ORIENT_START	n/a	n/a	n/a	n/a	-999	12	[0, 0, 0]	n/a	catFR1	0	R1337E
1338.949	1.257	1340081	COUNTDOWN_END	n/a	n/a	n/a	n/a	-999	12	[0, 0, 0]	n/a	catFR1	0	R1337E
1340.206	0.001	1341338	ORIENT_END	n/a	n/a	n/a	n/a	-999	12	[0, 0, 0]	n/a	catFR1	0	R1337E
1340.207	1.137	1341339	ENCODING_START	n/a	n/a	n/a	n/a	-999	12	[0, 0, 0]	n/a	catFR1	0	R1337E
1341.344	1.629	1342476	WORD	n/a	wordpools/wordpool_categorized_EN.txt	COBBLER	Desserts	1	12	[0, 0, 0]	n/a	catFR1	0	R1337E
1342.973	0.814	1344105	WORD_OFF	n/a	n/a	COBBLER	Desserts	1	12	[0, 0, 0]	n/a	catFR1	0	R1337E
1343.787	1.637	1344919	WORD	n/a	wordpools/wordpool_categorized_EN.txt	MOUSSE	Desserts	2	12	[0, 0, 0]	n/a	catFR1	0	R1337E
1345.424	0.918	1346556	WORD_OFF	n/a	n/a	MOUSSE	Desserts	2	12	[0, 0, 0]	n/a	catFR1	0	R1337E
1346.342	1.632	1347474	WORD	n/a	wordpools/wordpool_categorized_EN.txt	SHEEP	FarmAnimals	3	12	[0, 0, 0]	n/a	catFR1	0	R1337E
1347.974	1.017	1349106	WORD_OFF	n/a	n/a	SHEEP	FarmAnimals	3	12	[0, 0, 0]	n/a	catFR1	0	R1337E
1348.991	1.633	1350123	WORD	n/a	wordpools/wordpool_categorized_EN.txt	HORSE	FarmAnimals	4	12	[0, 0, 0]	n/a	catFR1	0	R1337E
1350.624	1.079	1351756	WORD_OFF	n/a	n/a	HORSE	FarmAnimals	4	12	[0, 0, 0]	n/a	catFR1	0	R1337E
1351.703	1.639	1352835	WORD	n/a	wordpools/wordpool_categorized_EN.txt	COLANDER	KitchenTools	5	12	[0, 0, 0]	n/a	catFR1	0	R1337E
1353.342	1.021	1354474	WORD_OFF	n/a	n/a	COLANDER	KitchenTools	5	12	[0, 0, 0]	n/a	catFR1	0	R1337E
1354.363	1.629	1355495	WORD	n/a	wordpools/wordpool_categorized_EN.txt	WHISK	KitchenTools	6	12	[0, 0, 0]	n/a	catFR1	0	R1337E
1355.992	0.861	1357124	WORD_OFF	n/a	n/a	WHISK	KitchenTools	6	12	[0, 0, 0]	n/a	catFR1	0	R1337E
1356.853	1.622	1357985	WORD	n/a	wordpools/wordpool_categorized_EN.txt	JELLO	Desserts	7	12	[0, 0, 0]	n/a	catFR1	0	R1337E
1358.475	0.756	1359607	WORD_OFF	n/a	n/a	JELLO	Desserts	7	12	[0, 0, 0]	n/a	catFR1	0	R1337E
1359.231	1.629	1360363	WORD	n/a	wordpools/wordpool_categorized_EN.txt	COOKIE	Desserts	8	12	[0, 0, 0]	n/a	catFR1	0	R1337E
1360.86	1.148	1361992	WORD_OFF	n/a	n/a	COOKIE	Desserts	8	12	[0, 0, 0]	n/a	catFR1	0	R1337E
1362.008	1.635	1363140	WORD	n/a	wordpools/wordpool_categorized_EN.txt	SPOON	KitchenTools	9	12	[0, 0, 0]	n/a	catFR1	0	R1337E
1363.643	1.132	1364775	WORD_OFF	n/a	n/a	SPOON	KitchenTools	9	12	[0, 0, 0]	n/a	catFR1	0	R1337E
1364.775	1.619	1365907	WORD	n/a	wordpools/wordpool_categorized_EN.txt	STRAINER	KitchenTools	10	12	[0, 0, 0]	n/a	catFR1	0	R1337E
1366.394	0.999	1367525	WORD_OFF	n/a	n/a	STRAINER	KitchenTools	10	12	[0, 0, 0]	n/a	catFR1	0	R1337E
1367.393	1.635	1368524	WORD	n/a	wordpools/wordpool_categorized_EN.txt	BULL	FarmAnimals	11	12	[0, 0, 0]	n/a	catFR1	0	R1337E
1369.028	0.945	1370159	WORD_OFF	n/a	n/a	BULL	FarmAnimals	11	12	[0, 0, 0]	n/a	catFR1	0	R1337E
1369.973	1.621	1371104	WORD	n/a	wordpools/wordpool_categorized_EN.txt	CALF	FarmAnimals	12	12	[0, 0, 0]	n/a	catFR1	0	R1337E
1371.594	0.001	1372725	WORD_OFF	n/a	n/a	CALF	FarmAnimals	12	12	[0, 0, 0]	n/a	catFR1	0	R1337E
1371.595	0.0	1372726	DISTRACT_START	n/a	n/a	n/a	n/a	-999	12	[0, 0, 0]	n/a	catFR1	0	R1337E
1371.595	0.0	1372726	ENCODING_END	n/a	n/a	n/a	n/a	-999	12	[0, 0, 0]	n/a	catFR1	0	R1337E
1371.595	0.016	1372726	START	n/a	n/a	n/a	n/a	-999	12	[-999, -999, -999]	n/a	catFR1	0	R1337E
1371.611	7.469	1372742	PROB	7.443	n/a	n/a	n/a	-999	12	[6, 4, 5]	15.0	catFR1	0	R1337E
1379.08	4.683	1380211	PROB	4.653	n/a	n/a	n/a	-999	12	[3, 7, 7]	17.0	catFR1	0	R1337E
1383.763	3.95	1384894	PROB	3.922	n/a	n/a	n/a	-999	12	[6, 1, 5]	12.0	catFR1	0	R1337E
1387.713	4.189	1388844	PROB	4.189	n/a	n/a	n/a	-999	12	[1, 5, 7]	13.0	catFR1	0	R1337E
1391.902	0.013	1393033	STOP	n/a	n/a	n/a	n/a	-999	12	[-999, -999, -999]	n/a	catFR1	0	R1337E
1391.915	0.571	1393046	DISTRACT_END	n/a	n/a	n/a	n/a	-999	12	[0, 0, 0]	n/a	catFR1	0	R1337E
1392.486	1.68	1393617	RETRIEVAL_ORIENT_START	n/a	n/a	n/a	n/a	-999	12	[0, 0, 0]	n/a	catFR1	0	R1337E
1394.166	0.0	1395297	RETRIEVAL_ORIENT_END	n/a	n/a	n/a	n/a	-999	12	[0, 0, 0]	n/a	catFR1	0	R1337E
1394.166	0.366	1395297	REC_START	n/a	n/a	n/a	n/a	-999	12	[0, 0, 0]	n/a	catFR1	0	R1337E
1394.532	0.615	1395662	REC_WORD	0.366	n/a	WHISK	KitchenTools	6	12	[0, 0, 0]	n/a	catFR1	0	R1337E
1395.147	0.9	1396277	REC_WORD	0.981	n/a	JELLO	Desserts	7	12	[0, 0, 0]	n/a	catFR1	0	R1337E
1396.047	0.583	1397177	REC_WORD	1.881	n/a	COOKIE	Desserts	8	12	[0, 0, 0]	n/a	catFR1	0	R1337E
1396.63	27.548	1397760	REC_WORD	2.464	n/a	SPOON	KitchenTools	9	12	[0, 0, 0]	n/a	catFR1	0	R1337E
1424.178	0.001	1425307	REC_END	n/a	n/a	n/a	n/a	-999	12	[0, 0, 0]	n/a	catFR1	0	R1337E
1424.179	0.025	1425308	TRIAL_END	n/a	n/a	n/a	n/a	-999	12	[0, 0, 0]	n/a	catFR1	0	R1337E
1424.204	0.0	1425333	TRIAL_START	n/a	n/a	n/a	n/a	-999	13	[0, 0, 0]	n/a	catFR1	0	R1337E
1424.204	0.0	1425333	TRIAL	n/a	n/a	n/a	n/a	-999	13	[0, 0, 0]	n/a	catFR1	0	R1337E
1424.204	2.751	1425333	WAITING_START	n/a	n/a	n/a	n/a	-999	13	[0, 0, 0]	n/a	catFR1	0	R1337E
1426.955	0.0	1428084	WAITING_END	n/a	n/a	n/a	n/a	-999	13	[0, 0, 0]	n/a	catFR1	0	R1337E
1426.955	10.43	1428084	COUNTDOWN_START	n/a	n/a	n/a	n/a	-999	13	[0, 0, 0]	n/a	catFR1	0	R1337E
1437.385	0.0	1438514	COUNTDOWN_END	n/a	n/a	n/a	n/a	-999	13	[0, 0, 0]	n/a	catFR1	0	R1337E
1437.385	1.104	1438514	ORIENT_START	n/a	n/a	n/a	n/a	-999	13	[0, 0, 0]	n/a	catFR1	0	R1337E
1438.489	0.001	1439618	ORIENT_END	n/a	n/a	n/a	n/a	-999	13	[0, 0, 0]	n/a	catFR1	0	R1337E
1438.49	1.084	1439619	ENCODING_START	n/a	n/a	n/a	n/a	-999	13	[0, 0, 0]	n/a	catFR1	0	R1337E
1439.574	1.633	1440703	WORD	n/a	wordpools/wordpool_categorized_EN.txt	LEMONADE	Beverages	1	13	[0, 0, 0]	n/a	catFR1	0	R1337E
1441.207	1.001	1442336	WORD_OFF	n/a	n/a	LEMONADE	Beverages	1	13	[0, 0, 0]	n/a	catFR1	0	R1337E
1442.208	1.633	1443337	WORD	n/a	wordpools/wordpool_categorized_EN.txt	RUM	Beverages	2	13	[0, 0, 0]	n/a	catFR1	0	R1337E
1443.841	0.968	1444970	WORD_OFF	n/a	n/a	RUM	Beverages	2	13	[0, 0, 0]	n/a	catFR1	0	R1337E
1444.809	1.632	1445938	WORD	n/a	wordpools/wordpool_categorized_EN.txt	EVERGREEN	Trees	3	13	[0, 0, 0]	n/a	catFR1	0	R1337E
1446.441	1.005	1447570	WORD_OFF	n/a	n/a	EVERGREEN	Trees	3	13	[0, 0, 0]	n/a	catFR1	0	R1337E
1447.446	1.629	1448575	WORD	n/a	wordpools/wordpool_categorized_EN.txt	HICKORY	Trees	4	13	[0, 0, 0]	n/a	catFR1	0	R1337E
1449.075	0.964	1450204	WORD_OFF	n/a	n/a	HICKORY	Trees	4	13	[0, 0, 0]	n/a	catFR1	0	R1337E
1450.039	1.636	1451168	WORD	n/a	wordpools/wordpool_categorized_EN.txt	HUMIDITY	Weather	5	13	[0, 0, 0]	n/a	catFR1	0	R1337E
1451.675	1.133	1452803	WORD_OFF	n/a	n/a	HUMIDITY	Weather	5	13	[0, 0, 0]	n/a	catFR1	0	R1337E
1452.808	1.634	1453936	WORD	n/a	wordpools/wordpool_categorized_EN.txt	TORNADO	Weather	6	13	[0, 0, 0]	n/a	catFR1	0	R1337E
1454.442	0.93	1455570	WORD_OFF	n/a	n/a	TORNADO	Weather	6	13	[0, 0, 0]	n/a	catFR1	0	R1337E
1455.372	1.621	1456500	WORD	n/a	wordpools/wordpool_categorized_EN.txt	COFFEE	Beverages	7	13	[0, 0, 0]	n/a	catFR1	0	R1337E
1456.993	0.915	1458121	WORD_OFF	n/a	n/a	COFFEE	Beverages	7	13	[0, 0, 0]	n/a	catFR1	0	R1337E
1457.908	1.635	1459036	WORD	n/a	wordpools/wordpool_categorized_EN.txt	COLA	Beverages	8	13	[0, 0, 0]	n/a	catFR1	0	R1337E
1459.543	1.059	1460671	WORD_OFF	n/a	n/a	COLA	Beverages	8	13	[0, 0, 0]	n/a	catFR1	0	R1337E
1460.602	1.626	1461730	WORD	n/a	wordpools/wordpool_categorized_EN.txt	OAK	Trees	9	13	[0, 0, 0]	n/a	catFR1	0	R1337E
1462.228	0.997	1463356	WORD_OFF	n/a	n/a	OAK	Trees	9	13	[0, 0, 0]	n/a	catFR1	0	R1337E
1463.225	1.636	1464353	WORD	n/a	wordpools/wordpool_categorized_EN.txt	BIRCH	Trees	10	13	[0, 0, 0]	n/a	catFR1	0	R1337E
1464.861	1.092	1465989	WORD_OFF	n/a	n/a	BIRCH	Trees	10	13	[0, 0, 0]	n/a	catFR1	0	R1337E
1465.953	1.625	1467081	WORD	n/a	wordpools/wordpool_categorized_EN.txt	SNOW	Weather	11	13	[0, 0, 0]	n/a	catFR1	0	R1337E
1467.578	0.839	1468706	WORD_OFF	n/a	n/a	SNOW	Weather	11	13	[0, 0, 0]	n/a	catFR1	0	R1337E
1468.417	1.629	1469545	WORD	n/a	wordpools/wordpool_categorized_EN.txt	RAIN	Weather	12	13	[0, 0, 0]	n/a	catFR1	0	R1337E
1470.046	0.0	1471174	ENCODING_END	n/a	n/a	n/a	n/a	-999	13	[0, 0, 0]	n/a	catFR1	0	R1337E
1470.046	0.0	1471174	DISTRACT_START	n/a	n/a	n/a	n/a	-999	13	[0, 0, 0]	n/a	catFR1	0	R1337E
1470.046	0.0	1471174	WORD_OFF	n/a	n/a	RAIN	Weather	12	13	[0, 0, 0]	n/a	catFR1	0	R1337E
1470.046	0.016	1471174	START	n/a	n/a	n/a	n/a	-999	13	[-999, -999, -999]	n/a	catFR1	0	R1337E
1470.062	9.484	1471190	PROB	9.448	n/a	n/a	n/a	-999	13	[8, 4, 4]	16.0	catFR1	0	R1337E
1479.546	7.101	1480673	PROB	7.078	n/a	n/a	n/a	-999	13	[2, 9, 4]	14.0	catFR1	0	R1337E
1486.647	6.546	1487774	PROB	6.546	n/a	n/a	n/a	-999	13	[3, 2, 4]	9.0	catFR1	0	R1337E
1493.193	0.007	1494320	STOP	n/a	n/a	n/a	n/a	-999	13	[-999, -999, -999]	n/a	catFR1	0	R1337E
1493.2	0.638	1494327	DISTRACT_END	n/a	n/a	n/a	n/a	-999	13	[0, 0, 0]	n/a	catFR1	0	R1337E
1493.838	1.661	1494965	RETRIEVAL_ORIENT_START	n/a	n/a	n/a	n/a	-999	13	[0, 0, 0]	n/a	catFR1	0	R1337E
1495.499	0.0	1496626	RETRIEVAL_ORIENT_END	n/a	n/a	n/a	n/a	-999	13	[0, 0, 0]	n/a	catFR1	0	R1337E
1495.499	4.309	1496626	REC_START	n/a	n/a	n/a	n/a	-999	13	[0, 0, 0]	n/a	catFR1	0	R1337E
1499.808	1.635	1500935	REC_WORD	4.309	n/a	COFFEE	Beverages	7	13	[0, 0, 0]	n/a	catFR1	0	R1337E
1501.443	2.038	1502570	REC_WORD	5.944	n/a	BIRCH	Trees	10	13	[0, 0, 0]	n/a	catFR1	0	R1337E
1503.481	2.777	1504608	REC_WORD	7.982	n/a	RAIN	Weather	12	13	[0, 0, 0]	n/a	catFR1	0	R1337E
1506.258	1.814	1507385	REC_WORD	10.759	n/a	OAK	Trees	9	13	[0, 0, 0]	n/a	catFR1	0	R1337E
1508.072	17.44	1509198	REC_WORD	12.573	n/a	SNOW	Weather	11	13	[0, 0, 0]	n/a	catFR1	0	R1337E
1525.512	0.0	1526638	REC_END	n/a	n/a	n/a	n/a	-999	13	[0, 0, 0]	n/a	catFR1	0	R1337E
1525.512	0.026	1526638	TRIAL_END	n/a	n/a	n/a	n/a	-999	13	[0, 0, 0]	n/a	catFR1	0	R1337E
1525.538	0.0	1526664	TRIAL_START	n/a	n/a	n/a	n/a	-999	14	[0, 0, 0]	n/a	catFR1	0	R1337E
1525.538	0.001	1526664	TRIAL	n/a	n/a	n/a	n/a	-999	14	[0, 0, 0]	n/a	catFR1	0	R1337E
1525.539	6.933	1526665	WAITING_START	n/a	n/a	n/a	n/a	-999	14	[0, 0, 0]	n/a	catFR1	0	R1337E
1532.472	0.001	1533598	WAITING_END	n/a	n/a	n/a	n/a	-999	14	[0, 0, 0]	n/a	catFR1	0	R1337E
1532.473	10.429	1533599	COUNTDOWN_START	n/a	n/a	n/a	n/a	-999	14	[0, 0, 0]	n/a	catFR1	0	R1337E
1542.902	0.0	1544027	ORIENT_START	n/a	n/a	n/a	n/a	-999	14	[0, 0, 0]	n/a	catFR1	0	R1337E
1542.902	1.04	1544027	COUNTDOWN_END	n/a	n/a	n/a	n/a	-999	14	[0, 0, 0]	n/a	catFR1	0	R1337E
1543.942	0.0	1545067	ORIENT_END	n/a	n/a	n/a	n/a	-999	14	[0, 0, 0]	n/a	catFR1	0	R1337E
1543.942	1.014	1545067	ENCODING_START	n/a	n/a	n/a	n/a	-999	14	[0, 0, 0]	n/a	catFR1	0	R1337E
1544.956	1.636	1546081	WORD	n/a	wordpools/wordpool_categorized_EN.txt	GOAT	FarmAnimals	1	14	[0, 0, 0]	n/a	catFR1	0	R1337E
1546.592	0.994	1547717	WORD_OFF	n/a	n/a	GOAT	FarmAnimals	1	14	[0, 0, 0]	n/a	catFR1	0	R1337E
1547.586	1.624	1548711	WORD	n/a	wordpools/wordpool_categorized_EN.txt	COW	FarmAnimals	2	14	[0, 0, 0]	n/a	catFR1	0	R1337E
1549.21	0.923	1550335	WORD_OFF	n/a	n/a	COW	FarmAnimals	2	14	[0, 0, 0]	n/a	catFR1	0	R1337E
1550.133	1.626	1551258	WORD	n/a	wordpools/wordpool_categorized_EN.txt	BUTTERFLY	Insects	3	14	[0, 0, 0]	n/a	catFR1	0	R1337E
1551.759	1.046	1552884	WORD_OFF	n/a	n/a	BUTTERFLY	Insects	3	14	[0, 0, 0]	n/a	catFR1	0	R1337E
1552.805	1.622	1553930	WORD	n/a	wordpools/wordpool_categorized_EN.txt	LADYBUG	Insects	4	14	[0, 0, 0]	n/a	catFR1	0	R1337E
1554.427	0.932	1555552	WORD_OFF	n/a	n/a	LADYBUG	Insects	4	14	[0, 0, 0]	n/a	catFR1	0	R1337E
1555.359	1.635	1556484	WORD	n/a	wordpools/wordpool_categorized_EN.txt	DOLL	Toys	5	14	[0, 0, 0]	n/a	catFR1	0	R1337E
1556.994	1.15	1558119	WORD_OFF	n/a	n/a	DOLL	Toys	5	14	[0, 0, 0]	n/a	catFR1	0	R1337E
1558.144	1.633	1559269	WORD	n/a	wordpools/wordpool_categorized_EN.txt	BALL	Toys	6	14	[0, 0, 0]	n/a	catFR1	0	R1337E
1559.777	0.888	1560902	WORD_OFF	n/a	n/a	BALL	Toys	6	14	[0, 0, 0]	n/a	catFR1	0	R1337E
1560.665	1.63	1561790	WORD	n/a	wordpools/wordpool_categorized_EN.txt	MOSQUITO	Insects	7	14	[0, 0, 0]	n/a	catFR1	0	R1337E
1562.295	0.824	1563420	WORD_OFF	n/a	n/a	MOSQUITO	Insects	7	14	[0, 0, 0]	n/a	catFR1	0	R1337E
1563.119	1.625	1564243	WORD	n/a	wordpools/wordpool_categorized_EN.txt	ANT	Insects	8	14	[0, 0, 0]	n/a	catFR1	0	R1337E
1564.744	1.031	1565868	WORD_OFF	n/a	n/a	ANT	Insects	8	14	[0, 0, 0]	n/a	catFR1	0	R1337E
1565.775	1.621	1566899	WORD	n/a	wordpools/wordpool_categorized_EN.txt	FRISBEE	Toys	9	14	[0, 0, 0]	n/a	catFR1	0	R1337E
1567.396	1.084	1568520	WORD_OFF	n/a	n/a	FRISBEE	Toys	9	14	[0, 0, 0]	n/a	catFR1	0	R1337E
1568.48	1.616	1569604	WORD	n/a	wordpools/wordpool_categorized_EN.txt	PUZZLE	Toys	10	14	[0, 0, 0]	n/a	catFR1	0	R1337E
1570.096	1.02	1571220	WORD_OFF	n/a	n/a	PUZZLE	Toys	10	14	[0, 0, 0]	n/a	catFR1	0	R1337E
1571.116	1.63	1572240	WORD	n/a	wordpools/wordpool_categorized_EN.txt	LAMB	FarmAnimals	11	14	[0, 0, 0]	n/a	catFR1	0	R1337E
1572.746	1.097	1573870	WORD_OFF	n/a	n/a	LAMB	FarmAnimals	11	14	[0, 0, 0]	n/a	catFR1	0	R1337E
1573.843	1.637	1574967	WORD	n/a	wordpools/wordpool_categorized_EN.txt	ROOSTER	FarmAnimals	12	14	[0, 0, 0]	n/a	catFR1	0	R1337E
1575.48	0.0	1576604	ENCODING_END	n/a	n/a	n/a	n/a	-999	14	[0, 0, 0]	n/a	catFR1	0	R1337E
1575.48	0.0	1576604	DISTRACT_START	n/a	n/a	n/a	n/a	-999	14	[0, 0, 0]	n/a	catFR1	0	R1337E
1575.48	0.0	1576604	WORD_OFF	n/a	n/a	ROOSTER	FarmAnimals	12	14	[0, 0, 0]	n/a	catFR1	0	R1337E
1575.48	0.016	1576604	START	n/a	n/a	n/a	n/a	-999	14	[-999, -999, -999]	n/a	catFR1	0	R1337E
1575.496	11.403	1576620	PROB	11.365	n/a	n/a	n/a	-999	14	[7, 7, 3]	17.0	catFR1	0	R1337E
1586.899	4.234	1588023	PROB	4.21	n/a	n/a	n/a	-999	14	[8, 7, 3]	18.0	catFR1	0	R1337E
1591.133	6.091	1592256	PROB	6.091	n/a	n/a	n/a	-999	14	[2, 5, 6]	13.0	catFR1	0	R1337E
1597.224	0.011	1598347	STOP	n/a	n/a	n/a	n/a	-999	14	[-999, -999, -999]	n/a	catFR1	0	R1337E
1597.235	0.539	1598358	DISTRACT_END	n/a	n/a	n/a	n/a	-999	14	[0, 0, 0]	n/a	catFR1	0	R1337E
1597.774	1.71	1598897	RETRIEVAL_ORIENT_START	n/a	n/a	n/a	n/a	-999	14	[0, 0, 0]	n/a	catFR1	0	R1337E
1599.484	0.0	1600607	RETRIEVAL_ORIENT_END	n/a	n/a	n/a	n/a	-999	14	[0, 0, 0]	n/a	catFR1	0	R1337E
1599.484	0.48	1600607	REC_START	n/a	n/a	n/a	n/a	-999	14	[0, 0, 0]	n/a	catFR1	0	R1337E
1599.964	0.58	1601087	REC_WORD	0.48	n/a	GOAT	FarmAnimals	1	14	[0, 0, 0]	n/a	catFR1	0	R1337E
1600.544	0.592	1601667	REC_WORD	1.06	n/a	COW	FarmAnimals	2	14	[0, 0, 0]	n/a	catFR1	0	R1337E
1601.136	1.249	1602259	REC_WORD	1.652	n/a	BUTTERFLY	Insects	3	14	[0, 0, 0]	n/a	catFR1	0	R1337E
1602.385	5.292	1603508	REC_WORD	2.901	n/a	ANT	Insects	8	14	[0, 0, 0]	n/a	catFR1	0	R1337E
1607.677	21.82	1608800	REC_WORD	8.193	n/a	DROPPED	n/a	-999	14	[0, 0, 0]	n/a	catFR1	0	R1337E
1629.497	0.0	1630619	REC_END	n/a	n/a	n/a	n/a	-999	14	[0, 0, 0]	n/a	catFR1	0	R1337E
1629.497	0.029	1630619	TRIAL_END	n/a	n/a	n/a	n/a	-999	14	[0, 0, 0]	n/a	catFR1	0	R1337E
1629.526	0.0	1630648	TRIAL_START	n/a	n/a	n/a	n/a	-999	15	[0, 0, 0]	n/a	catFR1	0	R1337E
1629.526	0.001	1630648	TRIAL	n/a	n/a	n/a	n/a	-999	15	[0, 0, 0]	n/a	catFR1	0	R1337E
1629.527	5.898	1630649	WAITING_START	n/a	n/a	n/a	n/a	-999	15	[0, 0, 0]	n/a	catFR1	0	R1337E
1635.425	0.0	1636547	WAITING_END	n/a	n/a	n/a	n/a	-999	15	[0, 0, 0]	n/a	catFR1	0	R1337E
1635.425	10.429	1636547	COUNTDOWN_START	n/a	n/a	n/a	n/a	-999	15	[0, 0, 0]	n/a	catFR1	0	R1337E
1645.854	0.0	1646976	ORIENT_START	n/a	n/a	n/a	n/a	-999	15	[0, 0, 0]	n/a	catFR1	0	R1337E
1645.854	1.156	1646976	COUNTDOWN_END	n/a	n/a	n/a	n/a	-999	15	[0, 0, 0]	n/a	catFR1	0	R1337E
1647.01	0.0	1648131	ORIENT_END	n/a	n/a	n/a	n/a	-999	15	[0, 0, 0]	n/a	catFR1	0	R1337E
1647.01	0.918	1648131	ENCODING_START	n/a	n/a	n/a	n/a	-999	15	[0, 0, 0]	n/a	catFR1	0	R1337E
1647.928	1.631	1649049	WORD	n/a	wordpools/wordpool_categorized_EN.txt	PIGEON	Birds	1	15	[0, 0, 0]	n/a	catFR1	0	R1337E
1649.559	1.088	1650680	WORD_OFF	n/a	n/a	PIGEON	Birds	1	15	[0, 0, 0]	n/a	catFR1	0	R1337E
1650.647	1.63	1651768	WORD	n/a	wordpools/wordpool_categorized_EN.txt	DUCK	Birds	2	15	[0, 0, 0]	n/a	catFR1	0	R1337E
1652.277	0.753	1653398	WORD_OFF	n/a	n/a	DUCK	Birds	2	15	[0, 0, 0]	n/a	catFR1	0	R1337E
1653.03	1.63	1654151	WORD	n/a	wordpools/wordpool_categorized_EN.txt	LILY	Flowers	3	15	[0, 0, 0]	n/a	catFR1	0	R1337E
1654.66	1.032	1655781	WORD_OFF	n/a	n/a	LILY	Flowers	3	15	[0, 0, 0]	n/a	catFR1	0	R1337E
1655.692	1.636	1656813	WORD	n/a	wordpools/wordpool_categorized_EN.txt	DAISY	Flowers	4	15	[0, 0, 0]	n/a	catFR1	0	R1337E
1657.328	1.132	1658449	WORD_OFF	n/a	n/a	DAISY	Flowers	4	15	[0, 0, 0]	n/a	catFR1	0	R1337E
1658.46	1.619	1659581	WORD	n/a	wordpools/wordpool_categorized_EN.txt	SLINKY	Toys	5	15	[0, 0, 0]	n/a	catFR1	0	R1337E
1660.079	1.123	1661200	WORD_OFF	n/a	n/a	SLINKY	Toys	5	15	[0, 0, 0]	n/a	catFR1	0	R1337E
1661.202	1.627	1662323	WORD	n/a	wordpools/wordpool_categorized_EN.txt	BASKETBALL	Toys	6	15	[0, 0, 0]	n/a	catFR1	0	R1337E
1662.829	1.044	1663950	WORD_OFF	n/a	n/a	BASKETBALL	Toys	6	15	[0, 0, 0]	n/a	catFR1	0	R1337E
1663.873	1.623	1664994	WORD	n/a	wordpools/wordpool_categorized_EN.txt	DOVE	Birds	7	15	[0, 0, 0]	n/a	catFR1	0	R1337E
1665.496	0.916	1666617	WORD_OFF	n/a	n/a	DOVE	Birds	7	15	[0, 0, 0]	n/a	catFR1	0	R1337E
1666.412	1.635	1667533	WORD	n/a	wordpools/wordpool_categorized_EN.txt	CARDINAL	Birds	8	15	[0, 0, 0]	n/a	catFR1	0	R1337E
1668.047	0.888	1669168	WORD_OFF	n/a	n/a	CARDINAL	Birds	8	15	[0, 0, 0]	n/a	catFR1	0	R1337E
1668.935	1.628	1670056	WORD	n/a	wordpools/wordpool_categorized_EN.txt	FOOTBALL	Toys	9	15	[0, 0, 0]	n/a	catFR1	0	R1337E
1670.563	0.937	1671684	WORD_OFF	n/a	n/a	FOOTBALL	Toys	9	15	[0, 0, 0]	n/a	catFR1	0	R1337E
1671.5	1.631	1672621	WORD	n/a	wordpools/wordpool_categorized_EN.txt	BARBIE	Toys	10	15	[0, 0, 0]	n/a	catFR1	0	R1337E
1673.131	1.119	1674252	WORD_OFF	n/a	n/a	BARBIE	Toys	10	15	[0, 0, 0]	n/a	catFR1	0	R1337E
1674.25	1.632	1675371	WORD	n/a	wordpools/wordpool_categorized_EN.txt	SUNFLOWER	Flowers	11	15	[0, 0, 0]	n/a	catFR1	0	R1337E
1675.882	0.786	1677002	WORD_OFF	n/a	n/a	SUNFLOWER	Flowers	11	15	[0, 0, 0]	n/a	catFR1	0	R1337E
1676.668	1.631	1677788	WORD	n/a	wordpools/wordpool_categorized_EN.txt	MARIGOLD	Flowers	12	15	[0, 0, 0]	n/a	catFR1	0	R1337E
1678.299	0.0	1679419	ENCODING_END	n/a	n/a	n/a	n/a	-999	15	[0, 0, 0]	n/a	catFR1	0	R1337E
1678.299	0.0	1679419	DISTRACT_START	n/a	n/a	n/a	n/a	-999	15	[0, 0, 0]	n/a	catFR1	0	R1337E
1678.299	0.0	1679419	WORD_OFF	n/a	n/a	MARIGOLD	Flowers	12	15	[0, 0, 0]	n/a	catFR1	0	R1337E
1678.299	0.016	1679419	START	n/a	n/a	n/a	n/a	-999	15	[-999, -999, -999]	n/a	catFR1	0	R1337E
1678.315	8.702	1679435	PROB	8.665	n/a	n/a	n/a	-999	15	[4, 4, 5]	13.0	catFR1	0	R1337E
1687.017	3.217	1688137	PROB	3.18	n/a	n/a	n/a	-999	15	[1, 6, 7]	14.0	catFR1	0	R1337E
1690.234	5.584	1691354	PROB	5.555	n/a	n/a	n/a	-999	15	[6, 2, 7]	15.0	catFR1	0	R1337E
1695.818	5.65	1696938	PROB	5.65	n/a	n/a	n/a	-999	15	[4, 9, 2]	15.0	catFR1	0	R1337E
1701.468	0.017	1702588	STOP	n/a	n/a	n/a	n/a	-999	15	[-999, -999, -999]	n/a	catFR1	0	R1337E
1701.485	0.577	1702605	DISTRACT_END	n/a	n/a	n/a	n/a	-999	15	[0, 0, 0]	n/a	catFR1	0	R1337E
1702.062	1.623	1703182	RETRIEVAL_ORIENT_START	n/a	n/a	n/a	n/a	-999	15	[0, 0, 0]	n/a	catFR1	0	R1337E
1703.685	0.001	1704804	RETRIEVAL_ORIENT_END	n/a	n/a	n/a	n/a	-999	15	[0, 0, 0]	n/a	catFR1	0	R1337E
1703.686	1.873	1704805	REC_START	n/a	n/a	n/a	n/a	-999	15	[0, 0, 0]	n/a	catFR1	0	R1337E
1705.559	0.977	1706678	REC_WORD	1.873	n/a	CARDINAL	Birds	8	15	[0, 0, 0]	n/a	catFR1	0	R1337E
1706.536	1.149	1707655	REC_WORD	2.85	n/a	LILY	Flowers	3	15	[0, 0, 0]	n/a	catFR1	0	R1337E
1707.685	1.182	1708804	REC_WORD	3.999	n/a	GOLD	n/a	-999	15	[0, 0, 0]	n/a	catFR1	0	R1337E
1708.867	3.852	1709986	REC_WORD	5.181	n/a	FOOTBALL	Toys	9	15	[0, 0, 0]	n/a	catFR1	0	R1337E
1712.719	4.417	1713838	REC_WORD	9.033	n/a	DRAFT	n/a	-999	15	[0, 0, 0]	n/a	catFR1	0	R1337E
1717.136	1.742	1718255	REC_WORD	13.45	n/a	GOLD	n/a	-999	15	[0, 0, 0]	n/a	catFR1	0	R1337E
1718.878	14.82	1719997	REC_WORD	15.192	n/a	LILY	Flowers	3	15	[0, 0, 0]	n/a	catFR1	0	R1337E
1733.698	0.0	1734816	REC_END	n/a	n/a	n/a	n/a	-999	15	[0, 0, 0]	n/a	catFR1	0	R1337E
1733.698	0.026	1734816	TRIAL_END	n/a	n/a	n/a	n/a	-999	15	[0, 0, 0]	n/a	catFR1	0	R1337E
1733.724	0.0	1734842	TRIAL_START	n/a	n/a	n/a	n/a	-999	16	[0, 0, 0]	n/a	catFR1	0	R1337E
1733.724	0.0	1734842	TRIAL	n/a	n/a	n/a	n/a	-999	16	[0, 0, 0]	n/a	catFR1	0	R1337E
1733.724	2.934	1734842	WAITING_START	n/a	n/a	n/a	n/a	-999	16	[0, 0, 0]	n/a	catFR1	0	R1337E
1736.658	0.0	1737776	WAITING_END	n/a	n/a	n/a	n/a	-999	16	[0, 0, 0]	n/a	catFR1	0	R1337E
1736.658	10.429	1737776	COUNTDOWN_START	n/a	n/a	n/a	n/a	-999	16	[0, 0, 0]	n/a	catFR1	0	R1337E
1747.087	0.0	1748205	ORIENT_START	n/a	n/a	n/a	n/a	-999	16	[0, 0, 0]	n/a	catFR1	0	R1337E
1747.087	1.224	1748205	COUNTDOWN_END	n/a	n/a	n/a	n/a	-999	16	[0, 0, 0]	n/a	catFR1	0	R1337E
1748.311	0.0	1749429	ORIENT_END	n/a	n/a	n/a	n/a	-999	16	[0, 0, 0]	n/a	catFR1	0	R1337E
1748.311	1.088	1749429	ENCODING_START	n/a	n/a	n/a	n/a	-999	16	[0, 0, 0]	n/a	catFR1	0	R1337E
1749.399	1.629	1750517	WORD	n/a	wordpools/wordpool_categorized_EN.txt	CHICKEN	FarmAnimals	1	16	[0, 0, 0]	n/a	catFR1	0	R1337E
1751.028	1.085	1752146	WORD_OFF	n/a	n/a	CHICKEN	FarmAnimals	1	16	[0, 0, 0]	n/a	catFR1	0	R1337E
1752.113	1.631	1753231	WORD	n/a	wordpools/wordpool_categorized_EN.txt	PIG	FarmAnimals	2	16	[0, 0, 0]	n/a	catFR1	0	R1337E
1753.744	0.763	1754862	WORD_OFF	n/a	n/a	PIG	FarmAnimals	2	16	[0, 0, 0]	n/a	catFR1	0	R1337E
1754.507	1.605	1755625	WORD	n/a	wordpools/wordpool_categorized_EN.txt	PAPER	OfficeSupplies	3	16	[0, 0, 0]	n/a	catFR1	0	R1337E
1756.112	0.817	1757230	WORD_OFF	n/a	n/a	PAPER	OfficeSupplies	3	16	[0, 0, 0]	n/a	catFR1	0	R1337E
1756.929	1.633	1758047	WORD	n/a	wordpools/wordpool_categorized_EN.txt	STAPLER	OfficeSupplies	4	16	[0, 0, 0]	n/a	catFR1	0	R1337E
1758.562	0.879	1759680	WORD_OFF	n/a	n/a	STAPLER	OfficeSupplies	4	16	[0, 0, 0]	n/a	catFR1	0	R1337E
1759.441	1.605	1760558	WORD	n/a	wordpools/wordpool_categorized_EN.txt	WALNUT	Trees	5	16	[0, 0, 0]	n/a	catFR1	0	R1337E
1761.046	0.972	1762163	WORD_OFF	n/a	n/a	WALNUT	Trees	5	16	[0, 0, 0]	n/a	catFR1	0	R1337E
1762.018	1.628	1763135	WORD	n/a	wordpools/wordpool_categorized_EN.txt	CEDAR	Trees	6	16	[0, 0, 0]	n/a	catFR1	0	R1337E
1763.646	1.111	1764763	WORD_OFF	n/a	n/a	CEDAR	Trees	6	16	[0, 0, 0]	n/a	catFR1	0	R1337E
1764.757	1.624	1765874	WORD	n/a	wordpools/wordpool_categorized_EN.txt	HEN	FarmAnimals	7	16	[0, 0, 0]	n/a	catFR1	0	R1337E
1766.381	0.977	1767498	WORD_OFF	n/a	n/a	HEN	FarmAnimals	7	16	[0, 0, 0]	n/a	catFR1	0	R1337E
1767.358	1.623	1768475	WORD	n/a	wordpools/wordpool_categorized_EN.txt	TURKEY	FarmAnimals	8	16	[0, 0, 0]	n/a	catFR1	0	R1337E
1768.981	1.121	1770098	WORD_OFF	n/a	n/a	TURKEY	FarmAnimals	8	16	[0, 0, 0]	n/a	catFR1	0	R1337E
1770.102	1.629	1771219	WORD	n/a	wordpools/wordpool_categorized_EN.txt	CYPRESS	Trees	9	16	[0, 0, 0]	n/a	catFR1	0	R1337E
1771.731	0.779	1772848	WORD_OFF	n/a	n/a	CYPRESS	Trees	9	16	[0, 0, 0]	n/a	catFR1	0	R1337E
1772.51	1.639	1773627	WORD	n/a	wordpools/wordpool_categorized_EN.txt	WILLOW	Trees	10	16	[0, 0, 0]	n/a	catFR1	0	R1337E
1774.149	1.003	1775266	WORD_OFF	n/a	n/a	WILLOW	Trees	10	16	[0, 0, 0]	n/a	catFR1	0	R1337E
1775.152	1.63	1776269	WORD	n/a	wordpools/wordpool_categorized_EN.txt	TAPE	OfficeSupplies	11	16	[0, 0, 0]	n/a	catFR1	0	R1337E
1776.782	1.14	1777899	WORD_OFF	n/a	n/a	TAPE	OfficeSupplies	11	16	[0, 0, 0]	n/a	catFR1	0	R1337E
1777.922	1.627	1779039	WORD	n/a	wordpools/wordpool_categorized_EN.txt	RULER	OfficeSupplies	12	16	[0, 0, 0]	n/a	catFR1	0	R1337E
1779.549	0.0	1780666	DISTRACT_START	n/a	n/a	n/a	n/a	-999	16	[0, 0, 0]	n/a	catFR1	0	R1337E
1779.549	0.0	1780666	WORD_OFF	n/a	n/a	RULER	OfficeSupplies	12	16	[0, 0, 0]	n/a	catFR1	0	R1337E
1779.549	0.0	1780666	ENCODING_END	n/a	n/a	n/a	n/a	-999	16	[0, 0, 0]	n/a	catFR1	0	R1337E
1779.549	0.016	1780666	START	n/a	n/a	n/a	n/a	-999	16	[-999, -999, -999]	n/a	catFR1	0	R1337E
1779.565	9.202	1780682	PROB	9.174	n/a	n/a	n/a	-999	16	[9, 1, 3]	13.0	catFR1	0	R1337E
1788.767	3.568	1789883	PROB	3.533	n/a	n/a	n/a	-999	16	[2, 9, 1]	12.0	catFR1	0	R1337E
1792.335	4.416	1793451	PROB	4.38	n/a	n/a	n/a	-999	16	[7, 4, 5]	16.0	catFR1	0	R1337E
1796.751	5.493	1797867	PROB	5.493	n/a	n/a	n/a	-999	16	[8, 6, 5]	19.0	catFR1	0	R1337E
1802.244	0.01	1803360	STOP	n/a	n/a	n/a	n/a	-999	16	[-999, -999, -999]	n/a	catFR1	0	R1337E
1802.254	0.638	1803370	DISTRACT_END	n/a	n/a	n/a	n/a	-999	16	[0, 0, 0]	n/a	catFR1	0	R1337E
1802.892	1.611	1804008	RETRIEVAL_ORIENT_START	n/a	n/a	n/a	n/a	-999	16	[0, 0, 0]	n/a	catFR1	0	R1337E
1804.503	0.0	1805619	RETRIEVAL_ORIENT_END	n/a	n/a	n/a	n/a	-999	16	[0, 0, 0]	n/a	catFR1	0	R1337E
1804.503	0.208	1805619	REC_START	n/a	n/a	n/a	n/a	-999	16	[0, 0, 0]	n/a	catFR1	0	R1337E
1804.711	1.68	1805827	REC_WORD	0.208	n/a	CYPRESS	Trees	9	16	[0, 0, 0]	n/a	catFR1	0	R1337E
1806.391	1.013	1807507	REC_WORD	1.888	n/a	WILLOW	Trees	10	16	[0, 0, 0]	n/a	catFR1	0	R1337E
1807.404	27.112	1808520	REC_WORD	2.901	n/a	TAPE	OfficeSupplies	11	16	[0, 0, 0]	n/a	catFR1	0	R1337E
1834.516	0.001	1835631	REC_END	n/a	n/a	n/a	n/a	-999	16	[0, 0, 0]	n/a	catFR1	0	R1337E
1834.517	0.025	1835632	TRIAL_END	n/a	n/a	n/a	n/a	-999	16	[0, 0, 0]	n/a	catFR1	0	R1337E
1834.542	0.0	1835657	TRIAL_START	n/a	n/a	n/a	n/a	-999	17	[0, 0, 0]	n/a	catFR1	0	R1337E
1834.542	0.001	1835657	TRIAL	n/a	n/a	n/a	n/a	-999	17	[0, 0, 0]	n/a	catFR1	0	R1337E
1834.543	3.899	1835658	WAITING_START	n/a	n/a	n/a	n/a	-999	17	[0, 0, 0]	n/a	catFR1	0	R1337E
1838.442	0.001	1839557	WAITING_END	n/a	n/a	n/a	n/a	-999	17	[0, 0, 0]	n/a	catFR1	0	R1337E
1838.443	10.429	1839558	COUNTDOWN_START	n/a	n/a	n/a	n/a	-999	17	[0, 0, 0]	n/a	catFR1	0	R1337E
1848.872	0.0	1849986	COUNTDOWN_END	n/a	n/a	n/a	n/a	-999	17	[0, 0, 0]	n/a	catFR1	0	R1337E
1848.872	1.123	1849986	ORIENT_START	n/a	n/a	n/a	n/a	-999	17	[0, 0, 0]	n/a	catFR1	0	R1337E
1849.995	0.001	1851109	ORIENT_END	n/a	n/a	n/a	n/a	-999	17	[0, 0, 0]	n/a	catFR1	0	R1337E
1849.996	0.751	1851110	ENCODING_START	n/a	n/a	n/a	n/a	-999	17	[0, 0, 0]	n/a	catFR1	0	R1337E
1850.747	1.632	1851861	WORD	n/a	wordpools/wordpool_categorized_EN.txt	DRYER	Appliances	1	17	[0, 0, 0]	n/a	catFR1	0	R1337E
1852.379	1.098	1853493	WORD_OFF	n/a	n/a	DRYER	Appliances	1	17	[0, 0, 0]	n/a	catFR1	0	R1337E
1853.477	1.619	1854591	WORD	n/a	wordpools/wordpool_categorized_EN.txt	VACUUM	Appliances	2	17	[0, 0, 0]	n/a	catFR1	0	R1337E
1855.096	0.765	1856210	WORD_OFF	n/a	n/a	VACUUM	Appliances	2	17	[0, 0, 0]	n/a	catFR1	0	R1337E
1855.861	1.634	1856975	WORD	n/a	wordpools/wordpool_categorized_EN.txt	DOLPHIN	OceanAnimals	3	17	[0, 0, 0]	n/a	catFR1	0	R1337E
1857.495	1.125	1858609	WORD_OFF	n/a	n/a	DOLPHIN	OceanAnimals	3	17	[0, 0, 0]	n/a	catFR1	0	R1337E
1858.62	1.627	1859734	WORD	n/a	wordpools/wordpool_categorized_EN.txt	JELLYFISH	OceanAnimals	4	17	[0, 0, 0]	n/a	catFR1	0	R1337E
1860.247	0.896	1861361	WORD_OFF	n/a	n/a	JELLYFISH	OceanAnimals	4	17	[0, 0, 0]	n/a	catFR1	0	R1337E
1861.143	1.637	1862257	WORD	n/a	wordpools/wordpool_categorized_EN.txt	NOTEBOOK	OfficeSupplies	5	17	[0, 0, 0]	n/a	catFR1	0	R1337E
1862.78	1.138	1863894	WORD_OFF	n/a	n/a	NOTEBOOK	OfficeSupplies	5	17	[0, 0, 0]	n/a	catFR1	0	R1337E
1863.918	1.629	1865032	WORD	n/a	wordpools/wordpool_categorized_EN.txt	PEN	OfficeSupplies	6	17	[0, 0, 0]	n/a	catFR1	0	R1337E
1865.547	1.07	1866661	WORD_OFF	n/a	n/a	PEN	OfficeSupplies	6	17	[0, 0, 0]	n/a	catFR1	0	R1337E
1866.617	1.632	1867731	WORD	n/a	wordpools/wordpool_categorized_EN.txt	SHRIMP	OceanAnimals	7	17	[0, 0, 0]	n/a	catFR1	0	R1337E
1868.249	0.963	1869363	WORD_OFF	n/a	n/a	SHRIMP	OceanAnimals	7	17	[0, 0, 0]	n/a	catFR1	0	R1337E
1869.212	1.637	1870326	WORD	n/a	wordpools/wordpool_categorized_EN.txt	TURTLE	OceanAnimals	8	17	[0, 0, 0]	n/a	catFR1	0	R1337E
1870.849	0.894	1871963	WORD_OFF	n/a	n/a	TURTLE	OceanAnimals	8	17	[0, 0, 0]	n/a	catFR1	0	R1337E
1871.743	1.623	1872856	WORD	n/a	wordpools/wordpool_categorized_EN.txt	MARKER	OfficeSupplies	9	17	[0, 0, 0]	n/a	catFR1	0	R1337E
1873.366	0.787	1874479	WORD_OFF	n/a	n/a	MARKER	OfficeSupplies	9	17	[0, 0, 0]	n/a	catFR1	0	R1337E
1874.153	1.629	1875266	WORD	n/a	wordpools/wordpool_categorized_EN.txt	FOLDER	OfficeSupplies	10	17	[0, 0, 0]	n/a	catFR1	0	R1337E
1875.782	0.852	1876895	WORD_OFF	n/a	n/a	FOLDER	OfficeSupplies	10	17	[0, 0, 0]	n/a	catFR1	0	R1337E
1876.634	1.633	1877747	WORD	n/a	wordpools/wordpool_categorized_EN.txt	WASHER	Appliances	11	17	[0, 0, 0]	n/a	catFR1	0	R1337E
1878.267	0.898	1879380	WORD_OFF	n/a	n/a	WASHER	Appliances	11	17	[0, 0, 0]	n/a	catFR1	0	R1337E
1879.165	1.635	1880278	WORD	n/a	wordpools/wordpool_categorized_EN.txt	MIXER	Appliances	12	17	[0, 0, 0]	n/a	catFR1	0	R1337E
1880.8	0.001	1881913	WORD_OFF	n/a	n/a	MIXER	Appliances	12	17	[0, 0, 0]	n/a	catFR1	0	R1337E
1880.801	0.0	1881914	ENCODING_END	n/a	n/a	n/a	n/a	-999	17	[0, 0, 0]	n/a	catFR1	0	R1337E
1880.801	0.0	1881914	DISTRACT_START	n/a	n/a	n/a	n/a	-999	17	[0, 0, 0]	n/a	catFR1	0	R1337E
1880.801	0.016	1881914	START	n/a	n/a	n/a	n/a	-999	17	[-999, -999, -999]	n/a	catFR1	0	R1337E
1880.817	10.235	1881930	PROB	10.212	n/a	n/a	n/a	-999	17	[4, 7, 4]	15.0	catFR1	0	R1337E
1891.052	3.483	1892165	PROB	3.456	n/a	n/a	n/a	-999	17	[5, 2, 9]	16.0	catFR1	0	R1337E
1894.535	10.998	1895648	PROB	10.998	n/a	n/a	n/a	-999	17	[6, 8, 6]	20.0	catFR1	0	R1337E
1905.533	0.021	1906645	STOP	n/a	n/a	n/a	n/a	-999	17	[-999, -999, -999]	n/a	catFR1	0	R1337E
1905.554	0.674	1906666	DISTRACT_END	n/a	n/a	n/a	n/a	-999	17	[0, 0, 0]	n/a	catFR1	0	R1337E
1906.228	1.526	1907340	RETRIEVAL_ORIENT_START	n/a	n/a	n/a	n/a	-999	17	[0, 0, 0]	n/a	catFR1	0	R1337E
1907.754	0.001	1908866	RETRIEVAL_ORIENT_END	n/a	n/a	n/a	n/a	-999	17	[0, 0, 0]	n/a	catFR1	0	R1337E
1907.755	0.88	1908867	REC_START	n/a	n/a	n/a	n/a	-999	17	[0, 0, 0]	n/a	catFR1	0	R1337E
1908.635	0.913	1909747	REC_WORD	0.88	n/a	VACUUM	Appliances	2	17	[0, 0, 0]	n/a	catFR1	0	R1337E
1909.548	0.881	1910660	REC_WORD	1.793	n/a	PEN	OfficeSupplies	6	17	[0, 0, 0]	n/a	catFR1	0	R1337E
1910.429	0.78	1911541	REC_WORD	2.674	n/a	MARKER	OfficeSupplies	9	17	[0, 0, 0]	n/a	catFR1	0	R1337E
1911.209	26.558	1912321	REC_WORD	3.454	n/a	FOLDER	OfficeSupplies	10	17	[0, 0, 0]	n/a	catFR1	0	R1337E
1937.767	0.0	1938878	REC_END	n/a	n/a	n/a	n/a	-999	17	[0, 0, 0]	n/a	catFR1	0	R1337E
1937.767	0.026	1938878	TRIAL_END	n/a	n/a	n/a	n/a	-999	17	[0, 0, 0]	n/a	catFR1	0	R1337E
1937.793	0.0	1938904	WAITING_START	n/a	n/a	n/a	n/a	-999	18	[0, 0, 0]	n/a	catFR1	0	R1337E
1937.793	0.0	1938904	TRIAL_START	n/a	n/a	n/a	n/a	-999	18	[0, 0, 0]	n/a	catFR1	0	R1337E
1937.793	3.152	1938904	TRIAL	n/a	n/a	n/a	n/a	-999	18	[0, 0, 0]	n/a	catFR1	0	R1337E
1940.945	0.0	1942056	WAITING_END	n/a	n/a	n/a	n/a	-999	18	[0, 0, 0]	n/a	catFR1	0	R1337E
1940.945	10.429	1942056	COUNTDOWN_START	n/a	n/a	n/a	n/a	-999	18	[0, 0, 0]	n/a	catFR1	0	R1337E
1951.374	0.0	1952485	COUNTDOWN_END	n/a	n/a	n/a	n/a	-999	18	[0, 0, 0]	n/a	catFR1	0	R1337E
1951.374	1.172	1952485	ORIENT_START	n/a	n/a	n/a	n/a	-999	18	[0, 0, 0]	n/a	catFR1	0	R1337E
1952.546	0.0	1953657	ORIENT_END	n/a	n/a	n/a	n/a	-999	18	[0, 0, 0]	n/a	catFR1	0	R1337E
1952.546	0.951	1953657	ENCODING_START	n/a	n/a	n/a	n/a	-999	18	[0, 0, 0]	n/a	catFR1	0	R1337E
1953.497	1.633	1954608	WORD	n/a	wordpools/wordpool_categorized_EN.txt	IRON	Appliances	1	18	[0, 0, 0]	n/a	catFR1	0	R1337E
1955.13	1.011	1956240	WORD_OFF	n/a	n/a	IRON	Appliances	1	18	[0, 0, 0]	n/a	catFR1	0	R1337E
1956.141	1.622	1957251	WORD	n/a	wordpools/wordpool_categorized_EN.txt	BLENDER	Appliances	2	18	[0, 0, 0]	n/a	catFR1	0	R1337E
1957.763	0.937	1958873	WORD_OFF	n/a	n/a	BLENDER	Appliances	2	18	[0, 0, 0]	n/a	catFR1	0	R1337E
1958.7	1.631	1959810	WORD	n/a	wordpools/wordpool_categorized_EN.txt	TRUMPET	Instruments	3	18	[0, 0, 0]	n/a	catFR1	0	R1337E
1960.331	0.91	1961441	WORD_OFF	n/a	n/a	TRUMPET	Instruments	3	18	[0, 0, 0]	n/a	catFR1	0	R1337E
1961.241	1.624	1962351	WORD	n/a	wordpools/wordpool_categorized_EN.txt	ORGAN	Instruments	4	18	[0, 0, 0]	n/a	catFR1	0	R1337E
1962.865	1.126	1963975	WORD_OFF	n/a	n/a	ORGAN	Instruments	4	18	[0, 0, 0]	n/a	catFR1	0	R1337E
1963.991	1.623	1965101	WORD	n/a	wordpools/wordpool_categorized_EN.txt	PLANKTON	OceanAnimals	5	18	[0, 0, 0]	n/a	catFR1	0	R1337E
1965.614	0.89	1966724	WORD_OFF	n/a	n/a	PLANKTON	OceanAnimals	5	18	[0, 0, 0]	n/a	catFR1	0	R1337E
1966.504	1.612	1967614	WORD	n/a	wordpools/wordpool_categorized_EN.txt	LOBSTER	OceanAnimals	6	18	[0, 0, 0]	n/a	catFR1	0	R1337E
1968.116	1.0	1969226	WORD_OFF	n/a	n/a	LOBSTER	OceanAnimals	6	18	[0, 0, 0]	n/a	catFR1	0	R1337E
1969.116	1.633	1970226	WORD	n/a	wordpools/wordpool_categorized_EN.txt	BASS	Instruments	7	18	[0, 0, 0]	n/a	catFR1	0	R1337E
1970.749	1.091	1971859	WORD_OFF	n/a	n/a	BASS	Instruments	7	18	[0, 0, 0]	n/a	catFR1	0	R1337E
1971.84	1.626	1972950	WORD	n/a	wordpools/wordpool_categorized_EN.txt	PIANO	Instruments	8	18	[0, 0, 0]	n/a	catFR1	0	R1337E
1973.466	1.079	1974576	WORD_OFF	n/a	n/a	PIANO	Instruments	8	18	[0, 0, 0]	n/a	catFR1	0	R1337E
1974.545	1.639	1975655	WORD	n/a	wordpools/wordpool_categorized_EN.txt	DISHWASHER	Appliances	9	18	[0, 0, 0]	n/a	catFR1	0	R1337E
1976.184	1.148	1977294	WORD_OFF	n/a	n/a	DISHWASHER	Appliances	9	18	[0, 0, 0]	n/a	catFR1	0	R1337E
1977.332	1.636	1978442	WORD	n/a	wordpools/wordpool_categorized_EN.txt	TOASTER	Appliances	10	18	[0, 0, 0]	n/a	catFR1	0	R1337E
1978.968	0.95	1980078	WORD_OFF	n/a	n/a	TOASTER	Appliances	10	18	[0, 0, 0]	n/a	catFR1	0	R1337E
1979.918	1.633	1981028	WORD	n/a	wordpools/wordpool_categorized_EN.txt	FISH	OceanAnimals	11	18	[0, 0, 0]	n/a	catFR1	0	R1337E
1981.551	0.871	1982661	WORD_OFF	n/a	n/a	FISH	OceanAnimals	11	18	[0, 0, 0]	n/a	catFR1	0	R1337E
1982.422	1.63	1983532	WORD	n/a	wordpools/wordpool_categorized_EN.txt	SQUID	OceanAnimals	12	18	[0, 0, 0]	n/a	catFR1	0	R1337E
1984.052	0.0	1985161	WORD_OFF	n/a	n/a	SQUID	OceanAnimals	12	18	[0, 0, 0]	n/a	catFR1	0	R1337E
1984.052	0.001	1985161	ENCODING_END	n/a	n/a	n/a	n/a	-999	18	[0, 0, 0]	n/a	catFR1	0	R1337E
1984.053	0.0	1985162	DISTRACT_START	n/a	n/a	n/a	n/a	-999	18	[0, 0, 0]	n/a	catFR1	0	R1337E
1984.053	0.015	1985162	START	n/a	n/a	n/a	n/a	-999	18	[-999, -999, -999]	n/a	catFR1	0	R1337E
1984.068	9.584	1985177	PROB	9.552	n/a	n/a	n/a	-999	18	[9, 7, 1]	17.0	catFR1	0	R1337E
1993.652	3.619	1994761	PROB	3.592	n/a	n/a	n/a	-999	18	[1, 2, 7]	10.0	catFR1	0	R1337E
1997.271	4.183	1998380	PROB	4.157	n/a	n/a	n/a	-999	18	[9, 6, 3]	18.0	catFR1	0	R1337E
2001.454	4.631	2002563	PROB	4.631	n/a	n/a	n/a	-999	18	[3, 6, 6]	15.0	catFR1	0	R1337E
2006.085	0.021	2007194	STOP	n/a	n/a	n/a	n/a	-999	18	[-999, -999, -999]	n/a	catFR1	0	R1337E
2006.106	0.562	2007215	DISTRACT_END	n/a	n/a	n/a	n/a	-999	18	[0, 0, 0]	n/a	catFR1	0	R1337E
2006.668	1.705	2007777	RETRIEVAL_ORIENT_START	n/a	n/a	n/a	n/a	-999	18	[0, 0, 0]	n/a	catFR1	0	R1337E
2008.373	0.0	2009482	RETRIEVAL_ORIENT_END	n/a	n/a	n/a	n/a	-999	18	[0, 0, 0]	n/a	catFR1	0	R1337E
2008.373	0.527	2009482	REC_START	n/a	n/a	n/a	n/a	-999	18	[0, 0, 0]	n/a	catFR1	0	R1337E
2008.9	0.748	2010009	REC_WORD	0.527	n/a	BASS	Instruments	7	18	[0, 0, 0]	n/a	catFR1	0	R1337E
2009.648	0.764	2010757	REC_WORD	1.275	n/a	PIANO	Instruments	8	18	[0, 0, 0]	n/a	catFR1	0	R1337E
2010.412	2.48	2011521	REC_WORD	2.039	n/a	FISH	OceanAnimals	11	18	[0, 0, 0]	n/a	catFR1	0	R1337E
2012.892	25.494	2014000	REC_WORD	4.519	n/a	WELDER	n/a	-999	18	[0, 0, 0]	n/a	catFR1	0	R1337E
2038.386	0.0	2039494	REC_END	n/a	n/a	n/a	n/a	-999	18	[0, 0, 0]	n/a	catFR1	0	R1337E
2038.386	0.026	2039494	TRIAL_END	n/a	n/a	n/a	n/a	-999	18	[0, 0, 0]	n/a	catFR1	0	R1337E
2038.412	0.0	2039520	WAITING_START	n/a	n/a	n/a	n/a	-999	19	[0, 0, 0]	n/a	catFR1	0	R1337E
2038.412	0.0	2039520	TRIAL_START	n/a	n/a	n/a	n/a	-999	19	[0, 0, 0]	n/a	catFR1	0	R1337E
2038.412	14.519	2039520	TRIAL	n/a	n/a	n/a	n/a	-999	19	[0, 0, 0]	n/a	catFR1	0	R1337E
2052.931	0.0	2054038	WAITING_END	n/a	n/a	n/a	n/a	-999	19	[0, 0, 0]	n/a	catFR1	0	R1337E
2052.931	10.429	2054038	COUNTDOWN_START	n/a	n/a	n/a	n/a	-999	19	[0, 0, 0]	n/a	catFR1	0	R1337E
2063.36	0.0	2064467	COUNTDOWN_END	n/a	n/a	n/a	n/a	-999	19	[0, 0, 0]	n/a	catFR1	0	R1337E
2063.36	1.056	2064467	ORIENT_START	n/a	n/a	n/a	n/a	-999	19	[0, 0, 0]	n/a	catFR1	0	R1337E
2064.416	0.0	2065523	ORIENT_END	n/a	n/a	n/a	n/a	-999	19	[0, 0, 0]	n/a	catFR1	0	R1337E
2064.416	0.892	2065523	ENCODING_START	n/a	n/a	n/a	n/a	-999	19	[0, 0, 0]	n/a	catFR1	0	R1337E
2065.308	1.625	2066415	WORD	n/a	wordpools/wordpool_categorized_EN.txt	BLUEBIRD	Birds	1	19	[0, 0, 0]	n/a	catFR1	0	R1337E
2066.933	1.003	2068040	WORD_OFF	n/a	n/a	BLUEBIRD	Birds	1	19	[0, 0, 0]	n/a	catFR1	0	R1337E
2067.936	1.63	2069042	WORD	n/a	wordpools/wordpool_categorized_EN.txt	GOOSE	Birds	2	19	[0, 0, 0]	n/a	catFR1	0	R1337E
2069.566	0.946	2070672	WORD_OFF	n/a	n/a	GOOSE	Birds	2	19	[0, 0, 0]	n/a	catFR1	0	R1337E
2070.512	1.622	2071618	WORD	n/a	wordpools/wordpool_categorized_EN.txt	TULIP	Flowers	3	19	[0, 0, 0]	n/a	catFR1	0	R1337E
2072.134	0.791	2073240	WORD_OFF	n/a	n/a	TULIP	Flowers	3	19	[0, 0, 0]	n/a	catFR1	0	R1337E
2072.925	1.625	2074031	WORD	n/a	wordpools/wordpool_categorized_EN.txt	DAFFODIL	Flowers	4	19	[0, 0, 0]	n/a	catFR1	0	R1337E
2074.55	0.936	2075656	WORD_OFF	n/a	n/a	DAFFODIL	Flowers	4	19	[0, 0, 0]	n/a	catFR1	0	R1337E
2075.486	1.632	2076592	WORD	n/a	wordpools/wordpool_categorized_EN.txt	RECLINER	Furniture	5	19	[0, 0, 0]	n/a	catFR1	0	R1337E
2077.118	1.075	2078224	WORD_OFF	n/a	n/a	RECLINER	Furniture	5	19	[0, 0, 0]	n/a	catFR1	0	R1337E
2078.193	1.626	2079299	WORD	n/a	wordpools/wordpool_categorized_EN.txt	SHELF	Furniture	6	19	[0, 0, 0]	n/a	catFR1	0	R1337E
2079.819	0.991	2080925	WORD_OFF	n/a	n/a	SHELF	Furniture	6	19	[0, 0, 0]	n/a	catFR1	0	R1337E
2080.81	1.626	2081916	WORD	n/a	wordpools/wordpool_categorized_EN.txt	ROSE	Flowers	7	19	[0, 0, 0]	n/a	catFR1	0	R1337E
2082.436	0.887	2083542	WORD_OFF	n/a	n/a	ROSE	Flowers	7	19	[0, 0, 0]	n/a	catFR1	0	R1337E
2083.323	1.63	2084429	WORD	n/a	wordpools/wordpool_categorized_EN.txt	PETUNIA	Flowers	8	19	[0, 0, 0]	n/a	catFR1	0	R1337E
2084.953	0.981	2086059	WORD_OFF	n/a	n/a	PETUNIA	Flowers	8	19	[0, 0, 0]	n/a	catFR1	0	R1337E
2085.934	1.635	2087040	WORD	n/a	wordpools/wordpool_categorized_EN.txt	BED	Furniture	9	19	[0, 0, 0]	n/a	catFR1	0	R1337E
2087.569	1.082	2088675	WORD_OFF	n/a	n/a	BED	Furniture	9	19	[0, 0, 0]	n/a	catFR1	0	R1337E
2088.651	1.619	2089757	WORD	n/a	wordpools/wordpool_categorized_EN.txt	TABLE	Furniture	10	19	[0, 0, 0]	n/a	catFR1	0	R1337E
2090.27	1.089	2091376	WORD_OFF	n/a	n/a	TABLE	Furniture	10	19	[0, 0, 0]	n/a	catFR1	0	R1337E
2091.359	1.629	2092465	WORD	n/a	wordpools/wordpool_categorized_EN.txt	HAWK	Birds	11	19	[0, 0, 0]	n/a	catFR1	0	R1337E
2092.988	0.845	2094094	WORD_OFF	n/a	n/a	HAWK	Birds	11	19	[0, 0, 0]	n/a	catFR1	0	R1337E
2093.833	1.621	2094939	WORD	n/a	wordpools/wordpool_categorized_EN.txt	SEAGULL	Birds	12	19	[0, 0, 0]	n/a	catFR1	0	R1337E
2095.454	0.0	2096559	WORD_OFF	n/a	n/a	SEAGULL	Birds	12	19	[0, 0, 0]	n/a	catFR1	0	R1337E
2095.454	0.0	2096559	ENCODING_END	n/a	n/a	n/a	n/a	-999	19	[0, 0, 0]	n/a	catFR1	0	R1337E
2095.454	0.001	2096559	DISTRACT_START	n/a	n/a	n/a	n/a	-999	19	[0, 0, 0]	n/a	catFR1	0	R1337E
2095.455	0.015	2096560	START	n/a	n/a	n/a	n/a	-999	19	[-999, -999, -999]	n/a	catFR1	0	R1337E
2095.47	13.337	2096575	PROB	13.309	n/a	n/a	n/a	-999	19	[8, 6, 8]	22.0	catFR1	0	R1337E
2108.807	4.451	2109912	PROB	4.429	n/a	n/a	n/a	-999	19	[6, 9, 7]	22.0	catFR1	0	R1337E
2113.258	3.681	2114363	PROB	3.681	n/a	n/a	n/a	-999	19	[1, 1, 5]	7.0	catFR1	0	R1337E
2116.939	0.02	2118044	STOP	n/a	n/a	n/a	n/a	-999	19	[-999, -999, -999]	n/a	catFR1	0	R1337E
2116.959	0.691	2118064	DISTRACT_END	n/a	n/a	n/a	n/a	-999	19	[0, 0, 0]	n/a	catFR1	0	R1337E
2117.65	1.692	2118755	RETRIEVAL_ORIENT_START	n/a	n/a	n/a	n/a	-999	19	[0, 0, 0]	n/a	catFR1	0	R1337E
2119.342	0.001	2120447	RETRIEVAL_ORIENT_END	n/a	n/a	n/a	n/a	-999	19	[0, 0, 0]	n/a	catFR1	0	R1337E
2119.343	1.631	2120448	REC_START	n/a	n/a	n/a	n/a	-999	19	[0, 0, 0]	n/a	catFR1	0	R1337E
2120.974	0.941	2122079	REC_WORD	1.631	n/a	SHELF	Furniture	6	19	[0, 0, 0]	n/a	catFR1	0	R1337E
2121.915	0.847	2123020	REC_WORD	2.572	n/a	ROSE	Flowers	7	19	[0, 0, 0]	n/a	catFR1	0	R1337E
2122.762	0.951	2123867	REC_WORD	3.419	n/a	BED	Furniture	9	19	[0, 0, 0]	n/a	catFR1	0	R1337E
2123.713	0.58	2124817	REC_WORD	4.37	n/a	TABLE	Furniture	10	19	[0, 0, 0]	n/a	catFR1	0	R1337E
2124.293	25.062	2125397	REC_WORD	4.95	n/a	HAWK	Birds	11	19	[0, 0, 0]	n/a	catFR1	0	R1337E
2149.355	0.0	2150459	REC_END	n/a	n/a	n/a	n/a	-999	19	[0, 0, 0]	n/a	catFR1	0	R1337E
2149.355	0.026	2150459	TRIAL_END	n/a	n/a	n/a	n/a	-999	19	[0, 0, 0]	n/a	catFR1	0	R1337E
2149.381	0.0	2150485	TRIAL	n/a	n/a	n/a	n/a	-999	20	[0, 0, 0]	n/a	catFR1	0	R1337E
2149.381	0.0	2150485	WAITING_START	n/a	n/a	n/a	n/a	-999	20	[0, 0, 0]	n/a	catFR1	0	R1337E
2149.381	2.617	2150485	TRIAL_START	n/a	n/a	n/a	n/a	-999	20	[0, 0, 0]	n/a	catFR1	0	R1337E
2151.998	0.001	2153101	WAITING_END	n/a	n/a	n/a	n/a	-999	20	[0, 0, 0]	n/a	catFR1	0	R1337E
2151.999	10.428	2153102	COUNTDOWN_START	n/a	n/a	n/a	n/a	-999	20	[0, 0, 0]	n/a	catFR1	0	R1337E
2162.427	0.001	2163530	COUNTDOWN_END	n/a	n/a	n/a	n/a	-999	20	[0, 0, 0]	n/a	catFR1	0	R1337E
2162.428	1.171	2163531	ORIENT_START	n/a	n/a	n/a	n/a	-999	20	[0, 0, 0]	n/a	catFR1	0	R1337E
2163.599	0.0	2164702	ORIENT_END	n/a	n/a	n/a	n/a	-999	20	[0, 0, 0]	n/a	catFR1	0	R1337E
2163.599	1.146	2164702	ENCODING_START	n/a	n/a	n/a	n/a	-999	20	[0, 0, 0]	n/a	catFR1	0	R1337E
2164.745	1.622	2165848	WORD	n/a	wordpools/wordpool_categorized_EN.txt	TEA	Beverages	1	20	[0, 0, 0]	n/a	catFR1	0	R1337E
2166.367	0.912	2167470	WORD_OFF	n/a	n/a	TEA	Beverages	1	20	[0, 0, 0]	n/a	catFR1	0	R1337E
2167.279	1.622	2168382	WORD	n/a	wordpools/wordpool_categorized_EN.txt	SODA	Beverages	2	20	[0, 0, 0]	n/a	catFR1	0	R1337E
2168.901	0.829	2170004	WORD_OFF	n/a	n/a	SODA	Beverages	2	20	[0, 0, 0]	n/a	catFR1	0	R1337E
2169.73	1.621	2170833	WORD	n/a	wordpools/wordpool_categorized_EN.txt	EYE	BodyParts	3	20	[0, 0, 0]	n/a	catFR1	0	R1337E
2171.351	0.993	2172454	WORD_OFF	n/a	n/a	EYE	BodyParts	3	20	[0, 0, 0]	n/a	catFR1	0	R1337E
2172.344	1.624	2173447	WORD	n/a	wordpools/wordpool_categorized_EN.txt	FINGERS	BodyParts	4	20	[0, 0, 0]	n/a	catFR1	0	R1337E
2173.968	0.846	2175071	WORD_OFF	n/a	n/a	FINGERS	BodyParts	4	20	[0, 0, 0]	n/a	catFR1	0	R1337E
2174.814	1.622	2175917	WORD	n/a	wordpools/wordpool_categorized_EN.txt	BLOCKS	Toys	5	20	[0, 0, 0]	n/a	catFR1	0	R1337E
2176.436	0.987	2177539	WORD_OFF	n/a	n/a	BLOCKS	Toys	5	20	[0, 0, 0]	n/a	catFR1	0	R1337E
