onset	duration	sample	trial_type	response_time	stim_file	item_name	category	serialpos	list	test	answer	experiment	session	subject
0.0	161.717	23868	INSTRUCT_START	n/a	n/a	n/a	n/a	-999	-999	[0, 0, 0]	n/a	catFR1	0	R1389J
161.717	53.165	185576	INSTRUCT_END	n/a	n/a	n/a	n/a	-999	-999	[0, 0, 0]	n/a	catFR1	0	R1389J
214.882	10.0	238733	COUNTDOWN_START	n/a	n/a	n/a	n/a	-999	-999	[0, 0, 0]	n/a	catFR1	0	R1389J
225.244	0.0	249100	COUNTDOWN_END	n/a	n/a	n/a	n/a	-999	-999	[0, 0, 0]	n/a	catFR1	0	R1389J
225.244	2.305	249100	ENCODING_START	n/a	n/a	n/a	n/a	-999	-1	[0, 0, 0]	n/a	catFR1	0	R1389J
227.549	1.6	251399	WORD	n/a	n/a	ROACH	Insects	1	-1	[0, 0, 0]	n/a	catFR1	0	R1389J
229.149	0.8	252996	WORD_OFF	n/a	n/a	ROACH	Insects	1	-1	[0, 0, 0]	n/a	catFR1	0	R1389J
229.949	1.6	253794	WORD	n/a	n/a	BEETLE	Insects	2	-1	[0, 0, 0]	n/a	catFR1	0	R1389J
231.549	0.95	255403	WORD_OFF	n/a	n/a	BEETLE	Insects	2	-1	[0, 0, 0]	n/a	catFR1	0	R1389J
232.499	1.6	256347	WORD	n/a	n/a	RADIO	Electronics	3	-1	[0, 0, 0]	n/a	catFR1	0	R1389J
234.099	0.767	257956	WORD_OFF	n/a	n/a	RADIO	Electronics	3	-1	[0, 0, 0]	n/a	catFR1	0	R1389J
234.866	1.6	258718	WORD	n/a	n/a	STEREO	Electronics	4	-1	[0, 0, 0]	n/a	catFR1	0	R1389J
236.466	0.95	260315	WORD_OFF	n/a	n/a	STEREO	Electronics	4	-1	[0, 0, 0]	n/a	catFR1	0	R1389J
237.416	1.6	261270	WORD	n/a	n/a	SHORTS	Clothing	5	-1	[0, 0, 0]	n/a	catFR1	0	R1389J
239.033	0.799	262879	WORD_OFF	n/a	n/a	SHORTS	Clothing	5	-1	[0, 0, 0]	n/a	catFR1	0	R1389J
239.832	1.6	263678	WORD	n/a	n/a	PANTS	Clothing	6	-1	[0, 0, 0]	n/a	catFR1	0	R1389J
241.45	0.783	265299	WORD_OFF	n/a	n/a	PANTS	Clothing	6	-1	[0, 0, 0]	n/a	catFR1	0	R1389J
242.233	1.6	266085	WORD	n/a	n/a	MOTH	Insects	7	-1	[0, 0, 0]	n/a	catFR1	0	R1389J
243.849	0.866	267694	WORD_OFF	n/a	n/a	MOTH	Insects	7	-1	[0, 0, 0]	n/a	catFR1	0	R1389J
244.715	1.6	268565	WORD	n/a	n/a	SPIDER	Insects	8	-1	[0, 0, 0]	n/a	catFR1	0	R1389J
246.315	0.784	270162	WORD_OFF	n/a	n/a	SPIDER	Insects	8	-1	[0, 0, 0]	n/a	catFR1	0	R1389J
247.099	1.6	270948	WORD	n/a	n/a	MICROWAVE	Electronics	9	-1	[0, 0, 0]	n/a	catFR1	0	R1389J
248.7	0.8	272545	WORD_OFF	n/a	n/a	MICROWAVE	Electronics	9	-1	[0, 0, 0]	n/a	catFR1	0	R1389J
249.5	1.6	273356	WORD	n/a	n/a	PRINTER	Electronics	10	-1	[0, 0, 0]	n/a	catFR1	0	R1389J
251.115	0.901	274965	WORD_OFF	n/a	n/a	PRINTER	Electronics	10	-1	[0, 0, 0]	n/a	catFR1	0	R1389J
252.016	1.6	275872	WORD	n/a	n/a	BLOUSE	Clothing	11	-1	[0, 0, 0]	n/a	catFR1	0	R1389J
253.632	0.769	277481	WORD_OFF	n/a	n/a	BLOUSE	Clothing	11	-1	[0, 0, 0]	n/a	catFR1	0	R1389J
254.401	1.6	278255	WORD	n/a	n/a	SOCKS	Clothing	12	-1	[0, 0, 0]	n/a	catFR1	0	R1389J
256.015	0.001	279864	WORD_OFF	n/a	n/a	SOCKS	Clothing	12	-1	[0, 0, 0]	n/a	catFR1	0	R1389J
256.016	0.0	279864	ENCODING_END	n/a	n/a	n/a	n/a	-999	-1	[0, 0, 0]	n/a	catFR1	0	R1389J
256.016	0.0	279864	DISTRACT_START	n/a	n/a	n/a	n/a	-999	-1	[0, 0, 0]	n/a	catFR1	0	R1389J
256.016	0.0	279865	START	n/a	n/a	n/a	n/a	-999	-1	[-999, -999, -999]	n/a	catFR1	0	R1389J
256.016	12.617	279865	PROB	12.601	n/a	n/a	n/a	-999	-1	[3, 7, 1]	11.0	catFR1	0	R1389J
268.633	8.767	292482	PROB	8.749	n/a	n/a	n/a	-999	-1	[8, 1, 2]	11.0	catFR1	0	R1389J
277.4	0.0	301248	STOP	n/a	n/a	n/a	n/a	-999	-1	[-999, -999, -999]	n/a	catFR1	0	R1389J
277.4	2.099	301253	DISTRACT_END	n/a	n/a	n/a	n/a	-999	-1	[0, 0, 0]	n/a	catFR1	0	R1389J
279.499	20.041	303354	REC_START	n/a	n/a	n/a	n/a	-999	-1	[0, 0, 0]	n/a	catFR1	0	R1389J
299.54	1.715	323388	REC_WORD_VV	20.041	n/a	<>	n/a	-999	-1	[0, 0, 0]	n/a	catFR1	0	R1389J
301.255	1.709	325103	REC_WORD_VV	21.756	n/a	<>	n/a	-999	-1	[0, 0, 0]	n/a	catFR1	0	R1389J
302.964	2.09	326811	REC_WORD	23.465	n/a	ROACH	Insects	1	-1	[0, 0, 0]	n/a	catFR1	0	R1389J
305.054	1.231	328901	REC_WORD	25.555	n/a	MOTH	Insects	7	-1	[0, 0, 0]	n/a	catFR1	0	R1389J
306.285	1.68	330132	REC_WORD	26.786	n/a	SPIDER	Insects	8	-1	[0, 0, 0]	n/a	catFR1	0	R1389J
307.965	1.782	331812	REC_WORD	28.466	n/a	BLOUSE	Clothing	11	-1	[0, 0, 0]	n/a	catFR1	0	R1389J
309.747	23.869	333590	REC_END	n/a	n/a	n/a	n/a	-999	-1	[0, 0, 0]	n/a	catFR1	0	R1389J
333.616	10.0	357470	COUNTDOWN_START	n/a	n/a	n/a	n/a	-999	1	[0, 0, 0]	n/a	catFR1	0	R1389J
343.981	0.0	367826	COUNTDOWN_END	n/a	n/a	n/a	n/a	-999	1	[0, 0, 0]	n/a	catFR1	0	R1389J
343.981	2.119	367826	ENCODING_START	n/a	n/a	n/a	n/a	-999	1	[0, 0, 0]	n/a	catFR1	0	R1389J
346.1	1.6	369943	WORD	n/a	wordpools/wordpool_categorized_EN.txt	CELERY	Vegetables	1	1	[0, 0, 0]	n/a	catFR1	0	R1389J
347.717	0.833	371564	WORD_OFF	n/a	n/a	CELERY	Vegetables	1	1	[0, 0, 0]	n/a	catFR1	0	R1389J
348.55	1.6	372398	WORD	n/a	wordpools/wordpool_categorized_EN.txt	POTATO	Vegetables	2	1	[0, 0, 0]	n/a	catFR1	0	R1389J
350.167	0.95	374007	WORD_OFF	n/a	n/a	POTATO	Vegetables	2	1	[0, 0, 0]	n/a	catFR1	0	R1389J
351.117	1.6	374963	WORD	n/a	wordpools/wordpool_categorized_EN.txt	NYLON	Fabric	3	1	[0, 0, 0]	n/a	catFR1	0	R1389J
352.733	0.849	376584	WORD_OFF	n/a	n/a	NYLON	Fabric	3	1	[0, 0, 0]	n/a	catFR1	0	R1389J
353.582	1.6	377431	WORD	n/a	wordpools/wordpool_categorized_EN.txt	COTTON	Fabric	4	1	[0, 0, 0]	n/a	catFR1	0	R1389J
355.183	0.95	379028	WORD_OFF	n/a	n/a	COTTON	Fabric	4	1	[0, 0, 0]	n/a	catFR1	0	R1389J
356.133	1.6	379984	WORD	n/a	wordpools/wordpool_categorized_EN.txt	CROWBAR	Tools	5	1	[0, 0, 0]	n/a	catFR1	0	R1389J
357.749	0.934	381593	WORD_OFF	n/a	n/a	CROWBAR	Tools	5	1	[0, 0, 0]	n/a	catFR1	0	R1389J
358.683	1.6	382524	WORD	n/a	wordpools/wordpool_categorized_EN.txt	RATCHET	Tools	6	1	[0, 0, 0]	n/a	catFR1	0	R1389J
360.283	0.917	384133	WORD_OFF	n/a	n/a	RATCHET	Tools	6	1	[0, 0, 0]	n/a	catFR1	0	R1389J
361.2	1.6	385040	WORD	n/a	wordpools/wordpool_categorized_EN.txt	LEATHER	Fabric	7	1	[0, 0, 0]	n/a	catFR1	0	R1389J
362.8	0.933	386649	WORD_OFF	n/a	n/a	LEATHER	Fabric	7	1	[0, 0, 0]	n/a	catFR1	0	R1389J
363.733	1.6	387581	WORD	n/a	wordpools/wordpool_categorized_EN.txt	DENIM	Fabric	8	1	[0, 0, 0]	n/a	catFR1	0	R1389J
365.333	0.95	389178	WORD_OFF	n/a	n/a	DENIM	Fabric	8	1	[0, 0, 0]	n/a	catFR1	0	R1389J
366.283	1.6	390133	WORD	n/a	wordpools/wordpool_categorized_EN.txt	CUCUMBER	Vegetables	9	1	[0, 0, 0]	n/a	catFR1	0	R1389J
367.9	0.9	391742	WORD_OFF	n/a	n/a	CUCUMBER	Vegetables	9	1	[0, 0, 0]	n/a	catFR1	0	R1389J
368.8	1.6	392650	WORD	n/a	wordpools/wordpool_categorized_EN.txt	PEAS	Vegetables	10	1	[0, 0, 0]	n/a	catFR1	0	R1389J
370.4	0.8	394247	WORD_OFF	n/a	n/a	PEAS	Vegetables	10	1	[0, 0, 0]	n/a	catFR1	0	R1389J
371.2	1.6	395045	WORD	n/a	wordpools/wordpool_categorized_EN.txt	SANDER	Tools	11	1	[0, 0, 0]	n/a	catFR1	0	R1389J
372.8	0.9	396642	WORD_OFF	n/a	n/a	SANDER	Tools	11	1	[0, 0, 0]	n/a	catFR1	0	R1389J
373.7	1.6	397549	WORD	n/a	wordpools/wordpool_categorized_EN.txt	LEVEL	Tools	12	1	[0, 0, 0]	n/a	catFR1	0	R1389J
375.316	0.001	399158	WORD_OFF	n/a	n/a	LEVEL	Tools	12	1	[0, 0, 0]	n/a	catFR1	0	R1389J
375.317	0.0	399158	ENCODING_END	n/a	n/a	n/a	n/a	-999	1	[0, 0, 0]	n/a	catFR1	0	R1389J
375.317	0.0	399161	START	n/a	n/a	n/a	n/a	-999	1	[-999, -999, -999]	n/a	catFR1	0	R1389J
375.317	0.0	399161	PROB	12.516	n/a	n/a	n/a	-999	1	[8, 4, 8]	20.0	catFR1	0	R1389J
375.317	12.532	399170	DISTRACT_START	n/a	n/a	n/a	n/a	-999	1	[0, 0, 0]	n/a	catFR1	0	R1389J
387.849	5.217	411693	PROB	5.2	n/a	n/a	n/a	-999	1	[3, 5, 1]	9.0	catFR1	0	R1389J
393.066	10.2	416910	PROB	10.183	n/a	n/a	n/a	-999	1	[3, 7, 5]	16.0	catFR1	0	R1389J
403.266	0.0	427104	DISTRACT_END	n/a	n/a	n/a	n/a	-999	1	[0, 0, 0]	n/a	catFR1	0	R1389J
403.266	2.333	427109	STOP	n/a	n/a	n/a	n/a	-999	1	[-999, -999, -999]	n/a	catFR1	0	R1389J
405.599	2.524	429446	REC_START	n/a	n/a	n/a	n/a	-999	1	[0, 0, 0]	n/a	catFR1	0	R1389J
408.123	3.13	431966	REC_WORD_VV	2.524	n/a	<>	n/a	-999	1	[0, 0, 0]	n/a	catFR1	0	R1389J
411.253	2.646	435096	REC_WORD	5.654	n/a	COTTON	Fabric	4	1	[0, 0, 0]	n/a	catFR1	0	R1389J
413.899	1.0	437742	REC_WORD_VV	8.3	n/a	<>	n/a	-999	1	[0, 0, 0]	n/a	catFR1	0	R1389J
414.899	2.425	438742	REC_WORD_VV	9.3	n/a	<>	n/a	-999	1	[0, 0, 0]	n/a	catFR1	0	R1389J
417.324	1.315	441167	REC_WORD	11.725	n/a	LEATHER	Fabric	7	1	[0, 0, 0]	n/a	catFR1	0	R1389J
418.639	2.585	442482	REC_WORD_VV	13.04	n/a	<>	n/a	-999	1	[0, 0, 0]	n/a	catFR1	0	R1389J
421.224	2.485	445067	REC_WORD	15.625	n/a	NYLON	Fabric	3	1	[0, 0, 0]	n/a	catFR1	0	R1389J
423.709	2.74	447552	REC_WORD	18.11	n/a	RATCHET	Tools	6	1	[0, 0, 0]	n/a	catFR1	0	R1389J
426.449	7.89	450291	REC_WORD_VV	20.85	n/a	<>	n/a	-999	1	[0, 0, 0]	n/a	catFR1	0	R1389J
434.339	1.485	458181	REC_WORD	28.74	n/a	PEAS	Vegetables	10	1	[0, 0, 0]	n/a	catFR1	0	R1389J
435.824	8.026	459670	REC_END	n/a	n/a	n/a	n/a	-999	1	[0, 0, 0]	n/a	catFR1	0	R1389J
443.85	10.0	467691	COUNTDOWN_START	n/a	n/a	n/a	n/a	-999	2	[0, 0, 0]	n/a	catFR1	0	R1389J
454.218	0.0	478058	COUNTDOWN_END	n/a	n/a	n/a	n/a	-999	2	[0, 0, 0]	n/a	catFR1	0	R1389J
454.218	2.182	478058	ENCODING_START	n/a	n/a	n/a	n/a	-999	2	[0, 0, 0]	n/a	catFR1	0	R1389J
456.4	1.6	480237	WORD	n/a	wordpools/wordpool_categorized_EN.txt	CIDER	Beverages	1	2	[0, 0, 0]	n/a	catFR1	0	R1389J
458.016	0.767	481857	WORD_OFF	n/a	n/a	CIDER	Beverages	1	2	[0, 0, 0]	n/a	catFR1	0	R1389J
458.783	1.6	482619	WORD	n/a	wordpools/wordpool_categorized_EN.txt	LEMONADE	Beverages	2	2	[0, 0, 0]	n/a	catFR1	0	R1389J
460.383	0.834	484228	WORD_OFF	n/a	n/a	LEMONADE	Beverages	2	2	[0, 0, 0]	n/a	catFR1	0	R1389J
461.217	1.6	485063	WORD	n/a	wordpools/wordpool_categorized_EN.txt	WOODS	Landscapes	3	2	[0, 0, 0]	n/a	catFR1	0	R1389J
462.833	0.868	486672	WORD_OFF	n/a	n/a	WOODS	Landscapes	3	2	[0, 0, 0]	n/a	catFR1	0	R1389J
463.701	1.6	487543	WORD	n/a	wordpools/wordpool_categorized_EN.txt	CREEK	Landscapes	4	2	[0, 0, 0]	n/a	catFR1	0	R1389J
465.316	0.8	489152	WORD_OFF	n/a	n/a	CREEK	Landscapes	4	2	[0, 0, 0]	n/a	catFR1	0	R1389J
466.116	1.6	489962	WORD	n/a	wordpools/wordpool_categorized_EN.txt	CALF	FarmAnimals	5	2	[0, 0, 0]	n/a	catFR1	0	R1389J
467.732	0.984	491571	WORD_OFF	n/a	n/a	CALF	FarmAnimals	5	2	[0, 0, 0]	n/a	catFR1	0	R1389J
468.716	1.6	492563	WORD	n/a	wordpools/wordpool_categorized_EN.txt	SHEEP	FarmAnimals	6	2	[0, 0, 0]	n/a	catFR1	0	R1389J
470.316	0.85	494160	WORD_OFF	n/a	n/a	SHEEP	FarmAnimals	6	2	[0, 0, 0]	n/a	catFR1	0	R1389J
471.166	1.6	495007	WORD	n/a	wordpools/wordpool_categorized_EN.txt	STREAM	Landscapes	7	2	[0, 0, 0]	n/a	catFR1	0	R1389J
472.766	0.95	496604	WORD_OFF	n/a	n/a	STREAM	Landscapes	7	2	[0, 0, 0]	n/a	catFR1	0	R1389J
473.716	1.6	497560	WORD	n/a	wordpools/wordpool_categorized_EN.txt	BEACH	Landscapes	8	2	[0, 0, 0]	n/a	catFR1	0	R1389J
475.333	0.933	499169	WORD_OFF	n/a	n/a	BEACH	Landscapes	8	2	[0, 0, 0]	n/a	catFR1	0	R1389J
476.266	1.6	500112	WORD	n/a	wordpools/wordpool_categorized_EN.txt	COLA	Beverages	9	2	[0, 0, 0]	n/a	catFR1	0	R1389J
477.883	0.933	501721	WORD_OFF	n/a	n/a	COLA	Beverages	9	2	[0, 0, 0]	n/a	catFR1	0	R1389J
478.816	1.6	502653	WORD	n/a	wordpools/wordpool_categorized_EN.txt	RUM	Beverages	10	2	[0, 0, 0]	n/a	catFR1	0	R1389J
480.416	0.833	504262	WORD_OFF	n/a	n/a	RUM	Beverages	10	2	[0, 0, 0]	n/a	catFR1	0	R1389J
481.249	1.6	505084	WORD	n/a	wordpools/wordpool_categorized_EN.txt	LAMB	FarmAnimals	11	2	[0, 0, 0]	n/a	catFR1	0	R1389J
482.85	0.816	506693	WORD_OFF	n/a	n/a	LAMB	FarmAnimals	11	2	[0, 0, 0]	n/a	catFR1	0	R1389J
483.666	1.6	507504	WORD	n/a	wordpools/wordpool_categorized_EN.txt	CHICKEN	FarmAnimals	12	2	[0, 0, 0]	n/a	catFR1	0	R1389J
485.283	0.001	509123	PROB	14.282	n/a	n/a	n/a	-999	2	[3, 2, 4]	9.0	catFR1	0	R1389J
485.284	0.001	509125	WORD_OFF	n/a	n/a	CHICKEN	FarmAnimals	12	2	[0, 0, 0]	n/a	catFR1	0	R1389J
485.285	0.0	509125	ENCODING_END	n/a	n/a	n/a	n/a	-999	2	[0, 0, 0]	n/a	catFR1	0	R1389J
485.285	0.0	509125	DISTRACT_START	n/a	n/a	n/a	n/a	-999	2	[0, 0, 0]	n/a	catFR1	0	R1389J
485.285	14.298	509125	START	n/a	n/a	n/a	n/a	-999	2	[-999, -999, -999]	n/a	catFR1	0	R1389J
499.583	20.949	523422	PROB	20.932	n/a	n/a	n/a	-999	2	[1, 5, 3]	9.0	catFR1	0	R1389J
520.532	0.0	544371	STOP	n/a	n/a	n/a	n/a	-999	2	[-999, -999, -999]	n/a	catFR1	0	R1389J
520.532	2.3	544377	DISTRACT_END	n/a	n/a	n/a	n/a	-999	2	[0, 0, 0]	n/a	catFR1	0	R1389J
522.832	2.099	546672	REC_START	n/a	n/a	n/a	n/a	-999	2	[0, 0, 0]	n/a	catFR1	0	R1389J
524.931	12.13	548769	REC_WORD_VV	2.099	n/a	<>	n/a	-999	2	[0, 0, 0]	n/a	catFR1	0	R1389J
537.061	4.371	560899	REC_WORD	14.229	n/a	PLUS	n/a	-999	2	[0, 0, 0]	n/a	catFR1	0	R1389J
541.432	2.675	565270	REC_WORD_VV	18.6	n/a	<>	n/a	-999	2	[0, 0, 0]	n/a	catFR1	0	R1389J
544.107	2.345	567945	REC_WORD_VV	21.275	n/a	<>	n/a	-999	2	[0, 0, 0]	n/a	catFR1	0	R1389J
546.452	5.355	570290	REC_WORD	23.62	n/a	BEACH	Landscapes	8	2	[0, 0, 0]	n/a	catFR1	0	R1389J
551.807	1.251	575644	REC_WORD	28.975	n/a	COLA	Beverages	9	2	[0, 0, 0]	n/a	catFR1	0	R1389J
553.058	8.542	576895	REC_END	n/a	n/a	n/a	n/a	-999	2	[0, 0, 0]	n/a	catFR1	0	R1389J
561.6	10.0	585436	COUNTDOWN_START	n/a	n/a	n/a	n/a	-999	3	[0, 0, 0]	n/a	catFR1	0	R1389J
571.961	0.0	595792	COUNTDOWN_END	n/a	n/a	n/a	n/a	-999	3	[0, 0, 0]	n/a	catFR1	0	R1389J
571.961	2.089	595804	ENCODING_START	n/a	n/a	n/a	n/a	-999	3	[0, 0, 0]	n/a	catFR1	0	R1389J
574.05	1.6	597885	WORD	n/a	wordpools/wordpool_categorized_EN.txt	CARROT	Vegetables	1	3	[0, 0, 0]	n/a	catFR1	0	R1389J
575.65	0.8	599482	WORD_OFF	n/a	n/a	CARROT	Vegetables	1	3	[0, 0, 0]	n/a	catFR1	0	R1389J
576.45	1.6	600292	WORD	n/a	wordpools/wordpool_categorized_EN.txt	SPINACH	Vegetables	2	3	[0, 0, 0]	n/a	catFR1	0	R1389J
578.066	0.8	601901	WORD_OFF	n/a	n/a	SPINACH	Vegetables	2	3	[0, 0, 0]	n/a	catFR1	0	R1389J
578.866	1.6	602700	WORD	n/a	wordpools/wordpool_categorized_EN.txt	FLUTE	Instruments	3	3	[0, 0, 0]	n/a	catFR1	0	R1389J
580.483	0.782	604321	WORD_OFF	n/a	n/a	FLUTE	Instruments	3	3	[0, 0, 0]	n/a	catFR1	0	R1389J
581.265	1.6	605107	WORD	n/a	wordpools/wordpool_categorized_EN.txt	CELLO	Instruments	4	3	[0, 0, 0]	n/a	catFR1	0	R1389J
582.866	0.834	606704	WORD_OFF	n/a	n/a	CELLO	Instruments	4	3	[0, 0, 0]	n/a	catFR1	0	R1389J
583.7	1.6	607539	WORD	n/a	wordpools/wordpool_categorized_EN.txt	BLUEBERRY	Fruit	5	3	[0, 0, 0]	n/a	catFR1	0	R1389J
585.316	0.85	609148	WORD_OFF	n/a	n/a	BLUEBERRY	Fruit	5	3	[0, 0, 0]	n/a	catFR1	0	R1389J
586.166	1.6	610006	WORD	n/a	wordpools/wordpool_categorized_EN.txt	LEMON	Fruit	6	3	[0, 0, 0]	n/a	catFR1	0	R1389J
587.782	0.801	611615	WORD_OFF	n/a	n/a	LEMON	Fruit	6	3	[0, 0, 0]	n/a	catFR1	0	R1389J
588.583	1.6	612414	WORD	n/a	wordpools/wordpool_categorized_EN.txt	BASS	Instruments	7	3	[0, 0, 0]	n/a	catFR1	0	R1389J
590.199	0.95	614035	WORD_OFF	n/a	n/a	BASS	Instruments	7	3	[0, 0, 0]	n/a	catFR1	0	R1389J
591.149	1.6	614991	WORD	n/a	wordpools/wordpool_categorized_EN.txt	TUBA	Instruments	8	3	[0, 0, 0]	n/a	catFR1	0	R1389J
592.749	0.767	616588	WORD_OFF	n/a	n/a	TUBA	Instruments	8	3	[0, 0, 0]	n/a	catFR1	0	R1389J
593.516	1.6	617350	WORD	n/a	wordpools/wordpool_categorized_EN.txt	CORN	Vegetables	9	3	[0, 0, 0]	n/a	catFR1	0	R1389J
595.116	0.983	618947	WORD_OFF	n/a	n/a	CORN	Vegetables	9	3	[0, 0, 0]	n/a	catFR1	0	R1389J
596.099	1.6	619939	WORD	n/a	wordpools/wordpool_categorized_EN.txt	CAULIFLOWER	Vegetables	10	3	[0, 0, 0]	n/a	catFR1	0	R1389J
597.716	1.0	621548	WORD_OFF	n/a	n/a	CAULIFLOWER	Vegetables	10	3	[0, 0, 0]	n/a	catFR1	0	R1389J
598.716	1.6	622552	WORD	n/a	wordpools/wordpool_categorized_EN.txt	PEAR	Fruit	11	3	[0, 0, 0]	n/a	catFR1	0	R1389J
600.333	0.916	624173	WORD_OFF	n/a	n/a	PEAR	Fruit	11	3	[0, 0, 0]	n/a	catFR1	0	R1389J
601.249	1.6	625080	WORD	n/a	wordpools/wordpool_categorized_EN.txt	LIME	Fruit	12	3	[0, 0, 0]	n/a	catFR1	0	R1389J
602.85	0.001	626685	PROB	11.716	n/a	n/a	n/a	-999	3	[5, 7, 1]	14.0	catFR1	0	R1389J
602.851	0.0	626686	START	n/a	n/a	n/a	n/a	-999	3	[-999, -999, -999]	n/a	catFR1	0	R1389J
602.849	0.002	626689	WORD_OFF	n/a	n/a	LIME	Fruit	12	3	[0, 0, 0]	n/a	catFR1	0	R1389J
602.851	0.0	626689	ENCODING_END	n/a	n/a	n/a	n/a	-999	3	[0, 0, 0]	n/a	catFR1	0	R1389J
602.851	11.731	626689	DISTRACT_START	n/a	n/a	n/a	n/a	-999	3	[0, 0, 0]	n/a	catFR1	0	R1389J
614.582	8.9	638417	PROB	8.883	n/a	n/a	n/a	-999	3	[1, 2, 1]	4.0	catFR1	0	R1389J
623.482	0.0	647315	DISTRACT_END	n/a	n/a	n/a	n/a	-999	3	[0, 0, 0]	n/a	catFR1	0	R1389J
623.482	2.034	647316	STOP	n/a	n/a	n/a	n/a	-999	3	[-999, -999, -999]	n/a	catFR1	0	R1389J
625.516	3.305	649356	REC_START	n/a	n/a	n/a	n/a	-999	3	[0, 0, 0]	n/a	catFR1	0	R1389J
628.821	1.47	652655	REC_WORD	3.305	n/a	CARROT	Vegetables	1	3	[0, 0, 0]	n/a	catFR1	0	R1389J
630.291	2.055	654125	REC_WORD	4.775	n/a	CAULIFLOWER	Vegetables	10	3	[0, 0, 0]	n/a	catFR1	0	R1389J
632.346	2.455	656180	REC_WORD	6.83	n/a	PEAR	Fruit	11	3	[0, 0, 0]	n/a	catFR1	0	R1389J
634.801	5.231	658635	REC_WORD_VV	9.285	n/a	<>	n/a	-999	3	[0, 0, 0]	n/a	catFR1	0	R1389J
640.032	0.58	663866	REC_WORD_VV	14.516	n/a	<>	n/a	-999	3	[0, 0, 0]	n/a	catFR1	0	R1389J
640.612	4.835	664446	REC_WORD	15.096	n/a	LETTUCE	n/a	-999	3	[0, 0, 0]	n/a	catFR1	0	R1389J
645.447	10.305	669280	REC_WORD_VV	19.931	n/a	<>	n/a	-999	3	[0, 0, 0]	n/a	catFR1	0	R1389J
655.752	3.314	679592	REC_END	n/a	n/a	n/a	n/a	-999	3	[0, 0, 0]	n/a	catFR1	0	R1389J
659.066	10.0	682906	COUNTDOWN_START	n/a	n/a	n/a	n/a	-999	4	[0, 0, 0]	n/a	catFR1	0	R1389J
669.427	0.0	693262	COUNTDOWN_END	n/a	n/a	n/a	n/a	-999	4	[0, 0, 0]	n/a	catFR1	0	R1389J
669.427	2.173	693262	ENCODING_START	n/a	n/a	n/a	n/a	-999	4	[0, 0, 0]	n/a	catFR1	0	R1389J
671.6	1.6	695427	WORD	n/a	wordpools/wordpool_categorized_EN.txt	BIRCH	Trees	1	4	[0, 0, 0]	n/a	catFR1	0	R1389J
673.2	0.932	697036	WORD_OFF	n/a	n/a	BIRCH	Trees	1	4	[0, 0, 0]	n/a	catFR1	0	R1389J
674.132	1.6	697968	WORD	n/a	wordpools/wordpool_categorized_EN.txt	MAPLE	Trees	2	4	[0, 0, 0]	n/a	catFR1	0	R1389J
675.733	0.783	699565	WORD_OFF	n/a	n/a	MAPLE	Trees	2	4	[0, 0, 0]	n/a	catFR1	0	R1389J
676.516	1.6	700351	WORD	n/a	wordpools/wordpool_categorized_EN.txt	PUZZLE	Toys	3	4	[0, 0, 0]	n/a	catFR1	0	R1389J
678.116	0.817	701948	WORD_OFF	n/a	n/a	PUZZLE	Toys	3	4	[0, 0, 0]	n/a	catFR1	0	R1389J
678.933	1.6	702770	WORD	n/a	wordpools/wordpool_categorized_EN.txt	MARBLES	Toys	4	4	[0, 0, 0]	n/a	catFR1	0	R1389J
680.533	0.767	704367	WORD_OFF	n/a	n/a	MARBLES	Toys	4	4	[0, 0, 0]	n/a	catFR1	0	R1389J
681.3	1.6	705130	WORD	n/a	wordpools/wordpool_categorized_EN.txt	WOOL	Fabric	5	4	[0, 0, 0]	n/a	catFR1	0	R1389J
682.916	0.883	706751	WORD_OFF	n/a	n/a	WOOL	Fabric	5	4	[0, 0, 0]	n/a	catFR1	0	R1389J
683.799	1.6	707634	WORD	n/a	wordpools/wordpool_categorized_EN.txt	SILK	Fabric	6	4	[0, 0, 0]	n/a	catFR1	0	R1389J
685.4	0.933	709231	WORD_OFF	n/a	n/a	SILK	Fabric	6	4	[0, 0, 0]	n/a	catFR1	0	R1389J
686.333	1.6	710162	WORD	n/a	wordpools/wordpool_categorized_EN.txt	SLINKY	Toys	7	4	[0, 0, 0]	n/a	catFR1	0	R1389J
687.95	0.883	711783	WORD_OFF	n/a	n/a	SLINKY	Toys	7	4	[0, 0, 0]	n/a	catFR1	0	R1389J
688.833	1.6	712666	WORD	n/a	wordpools/wordpool_categorized_EN.txt	BALL	Toys	8	4	[0, 0, 0]	n/a	catFR1	0	R1389J
690.433	0.983	714263	WORD_OFF	n/a	n/a	BALL	Toys	8	4	[0, 0, 0]	n/a	catFR1	0	R1389J
691.416	1.6	715243	WORD	n/a	wordpools/wordpool_categorized_EN.txt	OAK	Trees	9	4	[0, 0, 0]	n/a	catFR1	0	R1389J
693.016	0.833	716852	WORD_OFF	n/a	n/a	OAK	Trees	9	4	[0, 0, 0]	n/a	catFR1	0	R1389J
693.849	1.6	717687	WORD	n/a	wordpools/wordpool_categorized_EN.txt	ELM	Trees	10	4	[0, 0, 0]	n/a	catFR1	0	R1389J
695.466	0.949	719296	WORD_OFF	n/a	n/a	ELM	Trees	10	4	[0, 0, 0]	n/a	catFR1	0	R1389J
696.415	1.6	720251	WORD	n/a	wordpools/wordpool_categorized_EN.txt	FLEECE	Fabric	11	4	[0, 0, 0]	n/a	catFR1	0	R1389J
698.016	0.8	721848	WORD_OFF	n/a	n/a	FLEECE	Fabric	11	4	[0, 0, 0]	n/a	catFR1	0	R1389J
698.816	1.6	722647	WORD	n/a	wordpools/wordpool_categorized_EN.txt	SUEDE	Fabric	12	4	[0, 0, 0]	n/a	catFR1	0	R1389J
700.416	0.002	724244	WORD_OFF	n/a	n/a	SUEDE	Fabric	12	4	[0, 0, 0]	n/a	catFR1	0	R1389J
700.418	0.0	724244	ENCODING_END	n/a	n/a	n/a	n/a	-999	4	[0, 0, 0]	n/a	catFR1	0	R1389J
700.417	0.001	724248	PROB	13.282	n/a	n/a	n/a	-999	4	[2, 6, 8]	16.0	catFR1	0	R1389J
700.418	0.0	724249	START	n/a	n/a	n/a	n/a	-999	4	[-999, -999, -999]	n/a	catFR1	0	R1389J
700.418	13.298	724256	DISTRACT_START	n/a	n/a	n/a	n/a	-999	4	[0, 0, 0]	n/a	catFR1	0	R1389J
713.716	9.051	737547	PROB	9.033	n/a	n/a	n/a	-999	4	[5, 8, 3]	16.0	catFR1	0	R1389J
722.767	0.0	746597	STOP	n/a	n/a	n/a	n/a	-999	4	[-999, -999, -999]	n/a	catFR1	0	R1389J
722.767	2.116	746600	DISTRACT_END	n/a	n/a	n/a	n/a	-999	4	[0, 0, 0]	n/a	catFR1	0	R1389J
724.883	2.39	748713	REC_START	n/a	n/a	n/a	n/a	-999	4	[0, 0, 0]	n/a	catFR1	0	R1389J
727.273	1.705	751103	REC_WORD_VV	2.39	n/a	<>	n/a	-999	4	[0, 0, 0]	n/a	catFR1	0	R1389J
728.978	1.64	752808	REC_WORD	4.095	n/a	WOOL	Fabric	5	4	[0, 0, 0]	n/a	catFR1	0	R1389J
730.618	2.8	754448	REC_WORD	5.735	n/a	ELM	Trees	10	4	[0, 0, 0]	n/a	catFR1	0	R1389J
733.418	10.31	757248	REC_WORD_VV	8.535	n/a	<>	n/a	-999	4	[0, 0, 0]	n/a	catFR1	0	R1389J
743.728	11.377	767557	REC_WORD_VV	18.845	n/a	<>	n/a	-999	4	[0, 0, 0]	n/a	catFR1	0	R1389J
755.105	29.327	778937	REC_END	n/a	n/a	n/a	n/a	-999	4	[0, 0, 0]	n/a	catFR1	0	R1389J
784.432	10.0	808261	COUNTDOWN_START	n/a	n/a	n/a	n/a	-999	5	[0, 0, 0]	n/a	catFR1	0	R1389J
794.792	0.0	818617	COUNTDOWN_END	n/a	n/a	n/a	n/a	-999	5	[0, 0, 0]	n/a	catFR1	0	R1389J
794.792	1.824	818617	ENCODING_START	n/a	n/a	n/a	n/a	-999	5	[0, 0, 0]	n/a	catFR1	0	R1389J
796.616	1.6	820443	WORD	n/a	wordpools/wordpool_categorized_EN.txt	RAIN	Weather	1	5	[0, 0, 0]	n/a	catFR1	0	R1389J
798.216	0.916	822040	WORD_OFF	n/a	n/a	RAIN	Weather	1	5	[0, 0, 0]	n/a	catFR1	0	R1389J
799.132	1.6	822960	WORD	n/a	wordpools/wordpool_categorized_EN.txt	FOG	Weather	2	5	[0, 0, 0]	n/a	catFR1	0	R1389J
800.732	0.917	824557	WORD_OFF	n/a	n/a	FOG	Weather	2	5	[0, 0, 0]	n/a	catFR1	0	R1389J
801.649	1.6	825476	WORD	n/a	wordpools/wordpool_categorized_EN.txt	OVEN	Appliances	3	5	[0, 0, 0]	n/a	catFR1	0	R1389J
803.249	0.8	827073	WORD_OFF	n/a	n/a	OVEN	Appliances	3	5	[0, 0, 0]	n/a	catFR1	0	R1389J
804.049	1.6	827871	WORD	n/a	wordpools/wordpool_categorized_EN.txt	DISHWASHER	Appliances	4	5	[0, 0, 0]	n/a	catFR1	0	R1389J
805.649	0.783	829480	WORD_OFF	n/a	n/a	DISHWASHER	Appliances	4	5	[0, 0, 0]	n/a	catFR1	0	R1389J
806.432	1.6	830254	WORD	n/a	wordpools/wordpool_categorized_EN.txt	GRAPE	Fruit	5	5	[0, 0, 0]	n/a	catFR1	0	R1389J
808.032	0.967	831863	WORD_OFF	n/a	n/a	GRAPE	Fruit	5	5	[0, 0, 0]	n/a	catFR1	0	R1389J
808.999	1.6	832831	WORD	n/a	wordpools/wordpool_categorized_EN.txt	PEACH	Fruit	6	5	[0, 0, 0]	n/a	catFR1	0	R1389J
810.615	0.983	834440	WORD_OFF	n/a	n/a	PEACH	Fruit	6	5	[0, 0, 0]	n/a	catFR1	0	R1389J
811.598	1.6	835420	WORD	n/a	wordpools/wordpool_categorized_EN.txt	SNOW	Weather	7	5	[0, 0, 0]	n/a	catFR1	0	R1389J
813.199	0.967	837029	WORD_OFF	n/a	n/a	SNOW	Weather	7	5	[0, 0, 0]	n/a	catFR1	0	R1389J
814.166	1.6	837997	WORD	n/a	wordpools/wordpool_categorized_EN.txt	CLOUD	Weather	8	5	[0, 0, 0]	n/a	catFR1	0	R1389J
815.765	0.967	839594	WORD_OFF	n/a	n/a	CLOUD	Weather	8	5	[0, 0, 0]	n/a	catFR1	0	R1389J
816.732	1.6	840562	WORD	n/a	wordpools/wordpool_categorized_EN.txt	TOASTER	Appliances	9	5	[0, 0, 0]	n/a	catFR1	0	R1389J
818.333	0.967	842158	WORD_OFF	n/a	n/a	TOASTER	Appliances	9	5	[0, 0, 0]	n/a	catFR1	0	R1389J
819.3	1.6	843126	WORD	n/a	wordpools/wordpool_categorized_EN.txt	FREEZER	Appliances	10	5	[0, 0, 0]	n/a	catFR1	0	R1389J
820.9	0.966	844723	WORD_OFF	n/a	n/a	FREEZER	Appliances	10	5	[0, 0, 0]	n/a	catFR1	0	R1389J
821.866	1.6	845691	WORD	n/a	wordpools/wordpool_categorized_EN.txt	BANANA	Fruit	11	5	[0, 0, 0]	n/a	catFR1	0	R1389J
823.466	0.833	847288	WORD_OFF	n/a	n/a	BANANA	Fruit	11	5	[0, 0, 0]	n/a	catFR1	0	R1389J
824.299	1.6	848123	WORD	n/a	wordpools/wordpool_categorized_EN.txt	CHERRY	Fruit	12	5	[0, 0, 0]	n/a	catFR1	0	R1389J
825.917	0.0	849743	START	n/a	n/a	n/a	n/a	-999	5	[-999, -999, -999]	n/a	catFR1	0	R1389J
825.917	0.0	849743	PROB	7.316	n/a	n/a	n/a	-999	5	[1, 3, 6]	10.0	catFR1	0	R1389J
825.916	0.001	849744	WORD_OFF	n/a	n/a	CHERRY	Fruit	12	5	[0, 0, 0]	n/a	catFR1	0	R1389J
825.917	0.0	849744	ENCODING_END	n/a	n/a	n/a	n/a	-999	5	[0, 0, 0]	n/a	catFR1	0	R1389J
825.917	7.332	849744	DISTRACT_START	n/a	n/a	n/a	n/a	-999	5	[0, 0, 0]	n/a	catFR1	0	R1389J
833.249	13.816	857075	PROB	13.8	n/a	n/a	n/a	-999	5	[7, 6, 6]	19.0	catFR1	0	R1389J
847.065	0.0	870890	DISTRACT_END	n/a	n/a	n/a	n/a	-999	5	[0, 0, 0]	n/a	catFR1	0	R1389J
847.065	2.135	870890	STOP	n/a	n/a	n/a	n/a	-999	5	[-999, -999, -999]	n/a	catFR1	0	R1389J
849.2	1.29	873027	REC_START	n/a	n/a	n/a	n/a	-999	5	[0, 0, 0]	n/a	catFR1	0	R1389J
850.49	2.12	874315	REC_WORD	1.29	n/a	RAIN	Weather	1	5	[0, 0, 0]	n/a	catFR1	0	R1389J
852.61	2.105	876435	REC_WORD	3.41	n/a	FOG	Weather	2	5	[0, 0, 0]	n/a	catFR1	0	R1389J
854.715	2.14	878540	REC_WORD	5.515	n/a	SNOW	Weather	7	5	[0, 0, 0]	n/a	catFR1	0	R1389J
856.855	2.625	880680	REC_WORD	7.655	n/a	PEACH	Fruit	6	5	[0, 0, 0]	n/a	catFR1	0	R1389J
859.48	3.375	883305	REC_WORD_VV	10.28	n/a	<>	n/a	-999	5	[0, 0, 0]	n/a	catFR1	0	R1389J
862.855	12.5	886680	REC_WORD_VV	13.655	n/a	<>	n/a	-999	5	[0, 0, 0]	n/a	catFR1	0	R1389J
875.355	4.07	899179	REC_WORD	26.155	n/a	GRAPE	Fruit	5	5	[0, 0, 0]	n/a	catFR1	0	R1389J
879.425	6.508	903251	REC_END	n/a	n/a	n/a	n/a	-999	5	[0, 0, 0]	n/a	catFR1	0	R1389J
885.933	10.0	909760	COUNTDOWN_START	n/a	n/a	n/a	n/a	-999	6	[0, 0, 0]	n/a	catFR1	0	R1389J
896.293	0.0	920115	COUNTDOWN_END	n/a	n/a	n/a	n/a	-999	6	[0, 0, 0]	n/a	catFR1	0	R1389J
896.293	2.189	920115	ENCODING_START	n/a	n/a	n/a	n/a	-999	6	[0, 0, 0]	n/a	catFR1	0	R1389J
898.482	1.6	922305	WORD	n/a	wordpools/wordpool_categorized_EN.txt	HALLWAY	Building	1	6	[0, 0, 0]	n/a	catFR1	0	R1389J
900.082	0.767	923902	WORD_OFF	n/a	n/a	HALLWAY	Building	1	6	[0, 0, 0]	n/a	catFR1	0	R1389J
900.849	1.6	924676	WORD	n/a	wordpools/wordpool_categorized_EN.txt	ATTIC	Building	2	6	[0, 0, 0]	n/a	catFR1	0	R1389J
902.449	0.783	926273	WORD_OFF	n/a	n/a	ATTIC	Building	2	6	[0, 0, 0]	n/a	catFR1	0	R1389J
903.232	1.6	927059	WORD	n/a	wordpools/wordpool_categorized_EN.txt	CARNATION	Flowers	3	6	[0, 0, 0]	n/a	catFR1	0	R1389J
904.849	0.95	928668	WORD_OFF	n/a	n/a	CARNATION	Flowers	3	6	[0, 0, 0]	n/a	catFR1	0	R1389J
905.799	1.6	929624	WORD	n/a	wordpools/wordpool_categorized_EN.txt	MARIGOLD	Flowers	4	6	[0, 0, 0]	n/a	catFR1	0	R1389J
907.416	0.833	931233	WORD_OFF	n/a	n/a	MARIGOLD	Flowers	4	6	[0, 0, 0]	n/a	catFR1	0	R1389J
908.249	1.6	932067	WORD	n/a	wordpools/wordpool_categorized_EN.txt	BULL	FarmAnimals	5	6	[0, 0, 0]	n/a	catFR1	0	R1389J
909.849	0.85	933676	WORD_OFF	n/a	n/a	BULL	FarmAnimals	5	6	[0, 0, 0]	n/a	catFR1	0	R1389J
910.699	1.6	934523	WORD	n/a	wordpools/wordpool_categorized_EN.txt	GOAT	FarmAnimals	6	6	[0, 0, 0]	n/a	catFR1	0	R1389J
912.299	0.95	936120	WORD_OFF	n/a	n/a	GOAT	FarmAnimals	6	6	[0, 0, 0]	n/a	catFR1	0	R1389J
913.249	1.6	937076	WORD	n/a	wordpools/wordpool_categorized_EN.txt	DAFFODIL	Flowers	7	6	[0, 0, 0]	n/a	catFR1	0	R1389J
914.849	0.85	938673	WORD_OFF	n/a	n/a	DAFFODIL	Flowers	7	6	[0, 0, 0]	n/a	catFR1	0	R1389J
915.699	1.6	939520	WORD	n/a	wordpools/wordpool_categorized_EN.txt	VIOLET	Flowers	8	6	[0, 0, 0]	n/a	catFR1	0	R1389J
917.316	0.934	941141	WORD_OFF	n/a	n/a	VIOLET	Flowers	8	6	[0, 0, 0]	n/a	catFR1	0	R1389J
918.25	1.6	942072	WORD	n/a	wordpools/wordpool_categorized_EN.txt	TURKEY	FarmAnimals	9	6	[0, 0, 0]	n/a	catFR1	0	R1389J
919.866	0.951	943693	WORD_OFF	n/a	n/a	TURKEY	FarmAnimals	9	6	[0, 0, 0]	n/a	catFR1	0	R1389J
920.817	1.6	944637	WORD	n/a	wordpools/wordpool_categorized_EN.txt	COW	FarmAnimals	10	6	[0, 0, 0]	n/a	catFR1	0	R1389J
922.432	0.917	946258	WORD_OFF	n/a	n/a	COW	FarmAnimals	10	6	[0, 0, 0]	n/a	catFR1	0	R1389J
923.349	1.6	947165	WORD	n/a	wordpools/wordpool_categorized_EN.txt	WALL	Building	11	6	[0, 0, 0]	n/a	catFR1	0	R1389J
924.949	0.8	948774	WORD_OFF	n/a	n/a	WALL	Building	11	6	[0, 0, 0]	n/a	catFR1	0	R1389J
925.749	1.6	949573	WORD	n/a	wordpools/wordpool_categorized_EN.txt	DOOR	Building	12	6	[0, 0, 0]	n/a	catFR1	0	R1389J
927.35	0.001	951170	WORD_OFF	n/a	n/a	DOOR	Building	12	6	[0, 0, 0]	n/a	catFR1	0	R1389J
927.351	0.0	951170	ENCODING_END	n/a	n/a	n/a	n/a	-999	6	[0, 0, 0]	n/a	catFR1	0	R1389J
927.351	0.0	951173	START	n/a	n/a	n/a	n/a	-999	6	[-999, -999, -999]	n/a	catFR1	0	R1389J
927.351	0.0	951173	PROB	7.298	n/a	n/a	n/a	-999	6	[3, 3, 6]	12.0	catFR1	0	R1389J
927.351	7.316	951182	DISTRACT_START	n/a	n/a	n/a	n/a	-999	6	[0, 0, 0]	n/a	catFR1	0	R1389J
934.667	18.932	958489	PROB	18.915	n/a	n/a	n/a	-999	6	[5, 7, 3]	16.0	catFR1	0	R1389J
953.599	0.0	977420	STOP	n/a	n/a	n/a	n/a	-999	6	[-999, -999, -999]	n/a	catFR1	0	R1389J
953.599	2.2	977421	DISTRACT_END	n/a	n/a	n/a	n/a	-999	6	[0, 0, 0]	n/a	catFR1	0	R1389J
955.799	1.404	979619	REC_START	n/a	n/a	n/a	n/a	-999	6	[0, 0, 0]	n/a	catFR1	0	R1389J
957.203	9.481	981024	REC_WORD_VV	1.404	n/a	<>	n/a	-999	6	[0, 0, 0]	n/a	catFR1	0	R1389J
966.684	0.485	990504	REC_WORD_VV	10.885	n/a	<>	n/a	-999	6	[0, 0, 0]	n/a	catFR1	0	R1389J
967.169	14.121	990989	REC_WORD	11.37	n/a	DOOR	Building	12	6	[0, 0, 0]	n/a	catFR1	0	R1389J
981.29	4.714	1005110	REC_WORD_VV	25.491	n/a	<>	n/a	-999	6	[0, 0, 0]	n/a	catFR1	0	R1389J
986.004	3.479	1009818	REC_END	n/a	n/a	n/a	n/a	-999	6	[0, 0, 0]	n/a	catFR1	0	R1389J
989.483	10.0	1013303	COUNTDOWN_START	n/a	n/a	n/a	n/a	-999	7	[0, 0, 0]	n/a	catFR1	0	R1389J
999.844	0.0	1023658	COUNTDOWN_END	n/a	n/a	n/a	n/a	-999	7	[0, 0, 0]	n/a	catFR1	0	R1389J
999.844	2.006	1023670	ENCODING_START	n/a	n/a	n/a	n/a	-999	7	[0, 0, 0]	n/a	catFR1	0	R1389J
1001.85	1.6	1025666	WORD	n/a	wordpools/wordpool_categorized_EN.txt	DRILL	Tools	1	7	[0, 0, 0]	n/a	catFR1	0	R1389J
1003.466	0.867	1027287	WORD_OFF	n/a	n/a	DRILL	Tools	1	7	[0, 0, 0]	n/a	catFR1	0	R1389J
1004.333	1.6	1028146	WORD	n/a	wordpools/wordpool_categorized_EN.txt	PLIERS	Tools	2	7	[0, 0, 0]	n/a	catFR1	0	R1389J
1005.949	0.967	1029767	WORD_OFF	n/a	n/a	PLIERS	Tools	2	7	[0, 0, 0]	n/a	catFR1	0	R1389J
1006.916	1.6	1030735	WORD	n/a	wordpools/wordpool_categorized_EN.txt	LETTUCE	Vegetables	3	7	[0, 0, 0]	n/a	catFR1	0	R1389J
1008.516	0.817	1032332	WORD_OFF	n/a	n/a	LETTUCE	Vegetables	3	7	[0, 0, 0]	n/a	catFR1	0	R1389J
1009.333	1.6	1033155	WORD	n/a	wordpools/wordpool_categorized_EN.txt	ONION	Vegetables	4	7	[0, 0, 0]	n/a	catFR1	0	R1389J
1010.933	0.983	1034751	WORD_OFF	n/a	n/a	ONION	Vegetables	4	7	[0, 0, 0]	n/a	catFR1	0	R1389J
1011.916	1.6	1035731	WORD	n/a	wordpools/wordpool_categorized_EN.txt	BEER	Beverages	5	7	[0, 0, 0]	n/a	catFR1	0	R1389J
1013.516	0.884	1037340	WORD_OFF	n/a	n/a	BEER	Beverages	5	7	[0, 0, 0]	n/a	catFR1	0	R1389J
1014.4	1.6	1038223	WORD	n/a	wordpools/wordpool_categorized_EN.txt	TEA	Beverages	6	7	[0, 0, 0]	n/a	catFR1	0	R1389J
1015.999	0.834	1039820	WORD_OFF	n/a	n/a	TEA	Beverages	6	7	[0, 0, 0]	n/a	catFR1	0	R1389J
1016.833	1.6	1040655	WORD	n/a	wordpools/wordpool_categorized_EN.txt	AXE	Tools	7	7	[0, 0, 0]	n/a	catFR1	0	R1389J
1018.433	0.782	1042252	WORD_OFF	n/a	n/a	AXE	Tools	7	7	[0, 0, 0]	n/a	catFR1	0	R1389J
1019.215	1.6	1043038	WORD	n/a	wordpools/wordpool_categorized_EN.txt	WRENCH	Tools	8	7	[0, 0, 0]	n/a	catFR1	0	R1389J
1020.816	0.783	1044635	WORD_OFF	n/a	n/a	WRENCH	Tools	8	7	[0, 0, 0]	n/a	catFR1	0	R1389J
1021.599	1.6	1045422	WORD	n/a	wordpools/wordpool_categorized_EN.txt	MILK	Beverages	9	7	[0, 0, 0]	n/a	catFR1	0	R1389J
1023.2	0.783	1047018	WORD_OFF	n/a	n/a	MILK	Beverages	9	7	[0, 0, 0]	n/a	catFR1	0	R1389J
1023.983	1.6	1047805	WORD	n/a	wordpools/wordpool_categorized_EN.txt	WATER	Beverages	10	7	[0, 0, 0]	n/a	catFR1	0	R1389J
1025.583	0.899	1049402	WORD_OFF	n/a	n/a	WATER	Beverages	10	7	[0, 0, 0]	n/a	catFR1	0	R1389J
1026.482	1.6	1050297	WORD	n/a	wordpools/wordpool_categorized_EN.txt	CABBAGE	Vegetables	11	7	[0, 0, 0]	n/a	catFR1	0	R1389J
1028.099	0.934	1051918	WORD_OFF	n/a	n/a	CABBAGE	Vegetables	11	7	[0, 0, 0]	n/a	catFR1	0	R1389J
1029.033	1.6	1052849	WORD	n/a	wordpools/wordpool_categorized_EN.txt	BROCCOLI	Vegetables	12	7	[0, 0, 0]	n/a	catFR1	0	R1389J
1030.65	0.001	1054468	PROB	10.199	n/a	n/a	n/a	-999	7	[8, 5, 6]	19.0	catFR1	0	R1389J
1030.651	0.0	1054469	START	n/a	n/a	n/a	n/a	-999	7	[-999, -999, -999]	n/a	catFR1	0	R1389J
1030.65	0.001	1054470	WORD_OFF	n/a	n/a	BROCCOLI	Vegetables	12	7	[0, 0, 0]	n/a	catFR1	0	R1389J
1030.651	0.0	1054470	ENCODING_END	n/a	n/a	n/a	n/a	-999	7	[0, 0, 0]	n/a	catFR1	0	R1389J
1030.651	10.218	1054470	DISTRACT_START	n/a	n/a	n/a	n/a	-999	7	[0, 0, 0]	n/a	catFR1	0	R1389J
1040.869	11.463	1064686	PROB	11.448	n/a	n/a	n/a	-999	7	[1, 5, 6]	12.0	catFR1	0	R1389J
1052.332	0.0	1076149	DISTRACT_END	n/a	n/a	n/a	n/a	-999	7	[0, 0, 0]	n/a	catFR1	0	R1389J
1052.332	2.05	1076149	STOP	n/a	n/a	n/a	n/a	-999	7	[-999, -999, -999]	n/a	catFR1	0	R1389J
1054.382	7.48	1078202	REC_START	n/a	n/a	n/a	n/a	-999	7	[0, 0, 0]	n/a	catFR1	0	R1389J
1061.862	1.0	1085678	REC_WORD	7.48	n/a	MILK	Beverages	9	7	[0, 0, 0]	n/a	catFR1	0	R1389J
1062.862	1.0	1086678	REC_WORD_VV	8.48	n/a	<>	n/a	-999	7	[0, 0, 0]	n/a	catFR1	0	R1389J
1063.862	0.86	1087678	REC_WORD_VV	9.48	n/a	<>	n/a	-999	7	[0, 0, 0]	n/a	catFR1	0	R1389J
1064.722	2.363	1088538	REC_WORD	10.34	n/a	WATER	Beverages	10	7	[0, 0, 0]	n/a	catFR1	0	R1389J
1067.085	4.562	1090901	REC_WORD	12.703	n/a	BEER	Beverages	5	7	[0, 0, 0]	n/a	catFR1	0	R1389J
1071.647	1.603	1095463	REC_WORD_VV	17.265	n/a	<>	n/a	-999	7	[0, 0, 0]	n/a	catFR1	0	R1389J
1073.25	4.893	1097066	REC_WORD	18.868	n/a	CABBAGE	Vegetables	11	7	[0, 0, 0]	n/a	catFR1	0	R1389J
1078.143	6.452	1101959	REC_WORD_VV	23.761	n/a	<>	n/a	-999	7	[0, 0, 0]	n/a	catFR1	0	R1389J
1084.595	4.338	1108413	REC_END	n/a	n/a	n/a	n/a	-999	7	[0, 0, 0]	n/a	catFR1	0	R1389J
1088.933	10.0	1112744	COUNTDOWN_START	n/a	n/a	n/a	n/a	-999	8	[0, 0, 0]	n/a	catFR1	0	R1389J
1099.294	0.001	1123112	COUNTDOWN_END	n/a	n/a	n/a	n/a	-999	8	[0, 0, 0]	n/a	catFR1	0	R1389J
1099.295	2.137	1123112	ENCODING_START	n/a	n/a	n/a	n/a	-999	8	[0, 0, 0]	n/a	catFR1	0	R1389J
1101.432	1.6	1125253	WORD	n/a	wordpools/wordpool_categorized_EN.txt	WINE	Beverages	1	8	[0, 0, 0]	n/a	catFR1	0	R1389J
1103.032	0.783	1126850	WORD_OFF	n/a	n/a	WINE	Beverages	1	8	[0, 0, 0]	n/a	catFR1	0	R1389J
1103.815	1.6	1127636	WORD	n/a	wordpools/wordpool_categorized_EN.txt	JUICE	Beverages	2	8	[0, 0, 0]	n/a	catFR1	0	R1389J
1105.416	0.983	1129233	WORD_OFF	n/a	n/a	JUICE	Beverages	2	8	[0, 0, 0]	n/a	catFR1	0	R1389J
1106.399	1.6	1130213	WORD	n/a	wordpools/wordpool_categorized_EN.txt	HEN	FarmAnimals	3	8	[0, 0, 0]	n/a	catFR1	0	R1389J
1107.999	0.9	1131810	WORD_OFF	n/a	n/a	HEN	FarmAnimals	3	8	[0, 0, 0]	n/a	catFR1	0	R1389J
1108.899	1.6	1132717	WORD	n/a	wordpools/wordpool_categorized_EN.txt	PIG	FarmAnimals	4	8	[0, 0, 0]	n/a	catFR1	0	R1389J
1110.5	0.799	1134314	WORD_OFF	n/a	n/a	PIG	FarmAnimals	4	8	[0, 0, 0]	n/a	catFR1	0	R1389J
1111.299	1.6	1135113	WORD	n/a	wordpools/wordpool_categorized_EN.txt	SCREWDRIVER	Tools	5	8	[0, 0, 0]	n/a	catFR1	0	R1389J
1112.9	0.983	1136710	WORD_OFF	n/a	n/a	SCREWDRIVER	Tools	5	8	[0, 0, 0]	n/a	catFR1	0	R1389J
1113.883	1.6	1137702	WORD	n/a	wordpools/wordpool_categorized_EN.txt	HAMMER	Tools	6	8	[0, 0, 0]	n/a	catFR1	0	R1389J
1115.499	1.001	1139311	WORD_OFF	n/a	n/a	HAMMER	Tools	6	8	[0, 0, 0]	n/a	catFR1	0	R1389J
1116.5	1.6	1140315	WORD	n/a	wordpools/wordpool_categorized_EN.txt	SODA	Beverages	7	8	[0, 0, 0]	n/a	catFR1	0	R1389J
1118.1	0.765	1141912	WORD_OFF	n/a	n/a	SODA	Beverages	7	8	[0, 0, 0]	n/a	catFR1	0	R1389J
1118.865	1.6	1142674	WORD	n/a	wordpools/wordpool_categorized_EN.txt	COFFEE	Beverages	8	8	[0, 0, 0]	n/a	catFR1	0	R1389J
1120.466	0.9	1144283	WORD_OFF	n/a	n/a	COFFEE	Beverages	8	8	[0, 0, 0]	n/a	catFR1	0	R1389J
1121.366	1.6	1145178	WORD	n/a	wordpools/wordpool_categorized_EN.txt	SAW	Tools	9	8	[0, 0, 0]	n/a	catFR1	0	R1389J
1122.983	0.833	1146799	WORD_OFF	n/a	n/a	SAW	Tools	9	8	[0, 0, 0]	n/a	catFR1	0	R1389J
1123.816	1.6	1147634	WORD	n/a	wordpools/wordpool_categorized_EN.txt	SHOVEL	Tools	10	8	[0, 0, 0]	n/a	catFR1	0	R1389J
1125.432	0.834	1149243	WORD_OFF	n/a	n/a	SHOVEL	Tools	10	8	[0, 0, 0]	n/a	catFR1	0	R1389J
1126.266	1.6	1150077	WORD	n/a	wordpools/wordpool_categorized_EN.txt	HORSE	FarmAnimals	11	8	[0, 0, 0]	n/a	catFR1	0	R1389J
1127.866	0.95	1151686	WORD_OFF	n/a	n/a	HORSE	FarmAnimals	11	8	[0, 0, 0]	n/a	catFR1	0	R1389J
1128.816	1.6	1152630	WORD	n/a	wordpools/wordpool_categorized_EN.txt	ROOSTER	FarmAnimals	12	8	[0, 0, 0]	n/a	catFR1	0	R1389J
1130.434	0.001	1154248	PROB	13.966	n/a	n/a	n/a	-999	8	[4, 7, 5]	16.0	catFR1	0	R1389J
1130.435	0.0	1154249	START	n/a	n/a	n/a	n/a	-999	8	[-999, -999, -999]	n/a	catFR1	0	R1389J
1130.433	0.002	1154251	WORD_OFF	n/a	n/a	ROOSTER	FarmAnimals	12	8	[0, 0, 0]	n/a	catFR1	0	R1389J
1130.435	0.0	1154251	ENCODING_END	n/a	n/a	n/a	n/a	-999	8	[0, 0, 0]	n/a	catFR1	0	R1389J
1130.435	13.982	1154251	DISTRACT_START	n/a	n/a	n/a	n/a	-999	8	[0, 0, 0]	n/a	catFR1	0	R1389J
1144.417	12.233	1168230	PROB	12.215	n/a	n/a	n/a	-999	8	[7, 6, 2]	15.0	catFR1	0	R1389J
1156.65	0.0	1180462	STOP	n/a	n/a	n/a	n/a	-999	8	[-999, -999, -999]	n/a	catFR1	0	R1389J
1156.65	2.082	1180466	DISTRACT_END	n/a	n/a	n/a	n/a	-999	8	[0, 0, 0]	n/a	catFR1	0	R1389J
1158.732	4.37	1182543	REC_START	n/a	n/a	n/a	n/a	-999	8	[0, 0, 0]	n/a	catFR1	0	R1389J
1163.102	0.617	1186914	REC_WORD_VV	4.37	n/a	<>	n/a	-999	8	[0, 0, 0]	n/a	catFR1	0	R1389J
1163.719	5.084	1187531	REC_WORD	4.987	n/a	SODA	Beverages	7	8	[0, 0, 0]	n/a	catFR1	0	R1389J
1168.803	9.884	1192615	REC_WORD	10.071	n/a	HAMMER	Tools	6	8	[0, 0, 0]	n/a	catFR1	0	R1389J
1178.687	10.25	1202499	REC_WORD	19.955	n/a	HEN	FarmAnimals	3	8	[0, 0, 0]	n/a	catFR1	0	R1389J
1188.937	8.329	1212743	REC_END	n/a	n/a	n/a	n/a	-999	8	[0, 0, 0]	n/a	catFR1	0	R1389J
1197.266	10.0	1221078	COUNTDOWN_START	n/a	n/a	n/a	n/a	-999	9	[0, 0, 0]	n/a	catFR1	0	R1389J
1207.63	0.0	1231446	COUNTDOWN_END	n/a	n/a	n/a	n/a	-999	9	[0, 0, 0]	n/a	catFR1	0	R1389J
1207.63	2.152	1231446	ENCODING_START	n/a	n/a	n/a	n/a	-999	9	[0, 0, 0]	n/a	catFR1	0	R1389J
1209.782	1.6	1233587	WORD	n/a	wordpools/wordpool_categorized_EN.txt	STRAWBERRY	Fruit	1	9	[0, 0, 0]	n/a	catFR1	0	R1389J
1211.4	0.999	1235208	WORD_OFF	n/a	n/a	STRAWBERRY	Fruit	1	9	[0, 0, 0]	n/a	catFR1	0	R1389J
1212.399	1.6	1236212	WORD	n/a	wordpools/wordpool_categorized_EN.txt	PLUM	Fruit	2	9	[0, 0, 0]	n/a	catFR1	0	R1389J
1213.999	0.934	1237809	WORD_OFF	n/a	n/a	PLUM	Fruit	2	9	[0, 0, 0]	n/a	catFR1	0	R1389J
1214.933	1.6	1238740	WORD	n/a	wordpools/wordpool_categorized_EN.txt	COUCH	Furniture	3	9	[0, 0, 0]	n/a	catFR1	0	R1389J
1216.533	0.767	1240337	WORD_OFF	n/a	n/a	COUCH	Furniture	3	9	[0, 0, 0]	n/a	catFR1	0	R1389J
1217.3	1.6	1241112	WORD	n/a	wordpools/wordpool_categorized_EN.txt	DESK	Furniture	4	9	[0, 0, 0]	n/a	catFR1	0	R1389J
1218.9	0.899	1242708	WORD_OFF	n/a	n/a	DESK	Furniture	4	9	[0, 0, 0]	n/a	catFR1	0	R1389J
1219.799	1.6	1243604	WORD	n/a	wordpools/wordpool_categorized_EN.txt	DRIZZLE	Weather	5	9	[0, 0, 0]	n/a	catFR1	0	R1389J
1221.4	0.983	1245213	WORD_OFF	n/a	n/a	DRIZZLE	Weather	5	9	[0, 0, 0]	n/a	catFR1	0	R1389J
1222.383	1.6	1246192	WORD	n/a	wordpools/wordpool_categorized_EN.txt	THUNDERSTORM	Weather	6	9	[0, 0, 0]	n/a	catFR1	0	R1389J
1224.0	0.865	1247814	WORD_OFF	n/a	n/a	THUNDERSTORM	Weather	6	9	[0, 0, 0]	n/a	catFR1	0	R1389J
1224.865	1.6	1248672	WORD	n/a	wordpools/wordpool_categorized_EN.txt	TABLE	Furniture	7	9	[0, 0, 0]	n/a	catFR1	0	R1389J
1226.466	0.967	1250281	WORD_OFF	n/a	n/a	TABLE	Furniture	7	9	[0, 0, 0]	n/a	catFR1	0	R1389J
1227.433	1.6	1251237	WORD	n/a	wordpools/wordpool_categorized_EN.txt	RECLINER	Furniture	8	9	[0, 0, 0]	n/a	catFR1	0	R1389J
1229.049	0.95	1252858	WORD_OFF	n/a	n/a	RECLINER	Furniture	8	9	[0, 0, 0]	n/a	catFR1	0	R1389J
1229.999	1.6	1253814	WORD	n/a	wordpools/wordpool_categorized_EN.txt	HURRICANE	Weather	9	9	[0, 0, 0]	n/a	catFR1	0	R1389J
1231.599	0.784	1255411	WORD_OFF	n/a	n/a	HURRICANE	Weather	9	9	[0, 0, 0]	n/a	catFR1	0	R1389J
1232.383	1.6	1256197	WORD	n/a	wordpools/wordpool_categorized_EN.txt	THUNDER	Weather	10	9	[0, 0, 0]	n/a	catFR1	0	R1389J
1233.983	0.817	1257794	WORD_OFF	n/a	n/a	THUNDER	Weather	10	9	[0, 0, 0]	n/a	catFR1	0	R1389J
1234.8	1.6	1258605	WORD	n/a	wordpools/wordpool_categorized_EN.txt	ORANGE	Fruit	11	9	[0, 0, 0]	n/a	catFR1	0	R1389J
1236.4	0.833	1260214	WORD_OFF	n/a	n/a	ORANGE	Fruit	11	9	[0, 0, 0]	n/a	catFR1	0	R1389J
1237.233	1.6	1261048	WORD	n/a	wordpools/wordpool_categorized_EN.txt	APPLE	Fruit	12	9	[0, 0, 0]	n/a	catFR1	0	R1389J
1238.849	0.001	1262657	WORD_OFF	n/a	n/a	APPLE	Fruit	12	9	[0, 0, 0]	n/a	catFR1	0	R1389J
1238.85	0.001	1262657	ENCODING_END	n/a	n/a	n/a	n/a	-999	9	[0, 0, 0]	n/a	catFR1	0	R1389J
1238.851	0.0	1262657	DISTRACT_START	n/a	n/a	n/a	n/a	-999	9	[0, 0, 0]	n/a	catFR1	0	R1389J
1238.85	0.001	1262659	PROB	8.266	n/a	n/a	n/a	-999	9	[3, 3, 8]	16.0	catFR1	0	R1389J
1238.851	8.283	1262660	START	n/a	n/a	n/a	n/a	-999	9	[-999, -999, -999]	n/a	catFR1	0	R1389J
1247.134	6.782	1270943	PROB	6.765	n/a	n/a	n/a	-999	9	[3, 2, 2]	7.0	catFR1	0	R1389J
1253.916	5.549	1277725	PROB	5.534	n/a	n/a	n/a	-999	9	[3, 1, 5]	9.0	catFR1	0	R1389J
1259.465	0.0	1283271	DISTRACT_END	n/a	n/a	n/a	n/a	-999	9	[0, 0, 0]	n/a	catFR1	0	R1389J
1259.465	2.118	1283273	STOP	n/a	n/a	n/a	n/a	-999	9	[-999, -999, -999]	n/a	catFR1	0	R1389J
1261.583	12.605	1285397	REC_START	n/a	n/a	n/a	n/a	-999	9	[0, 0, 0]	n/a	catFR1	0	R1389J
1274.188	5.274	1297996	REC_WORD	12.605	n/a	PLUM	Fruit	2	9	[0, 0, 0]	n/a	catFR1	0	R1389J
1279.462	4.165	1303270	REC_WORD	17.879	n/a	ORANGE	Fruit	11	9	[0, 0, 0]	n/a	catFR1	0	R1389J
1283.627	8.176	1307434	REC_WORD	22.044	n/a	APPLE	Fruit	12	9	[0, 0, 0]	n/a	catFR1	0	R1389J
1291.803	3.347	1315608	REC_END	n/a	n/a	n/a	n/a	-999	9	[0, 0, 0]	n/a	catFR1	0	R1389J
1295.15	10.0	1318959	COUNTDOWN_START	n/a	n/a	n/a	n/a	-999	10	[0, 0, 0]	n/a	catFR1	0	R1389J
1305.513	0.0	1329315	COUNTDOWN_END	n/a	n/a	n/a	n/a	-999	10	[0, 0, 0]	n/a	catFR1	0	R1389J
1305.513	2.137	1329317	ENCODING_START	n/a	n/a	n/a	n/a	-999	10	[0, 0, 0]	n/a	catFR1	0	R1389J
1307.65	1.6	1331456	WORD	n/a	wordpools/wordpool_categorized_EN.txt	EYE	BodyParts	1	10	[0, 0, 0]	n/a	catFR1	0	R1389J
1309.25	0.833	1333053	WORD_OFF	n/a	n/a	EYE	BodyParts	1	10	[0, 0, 0]	n/a	catFR1	0	R1389J
1310.083	1.6	1333900	WORD	n/a	wordpools/wordpool_categorized_EN.txt	KNEE	BodyParts	2	10	[0, 0, 0]	n/a	catFR1	0	R1389J
1311.7	0.782	1335509	WORD_OFF	n/a	n/a	KNEE	BodyParts	2	10	[0, 0, 0]	n/a	catFR1	0	R1389J
1312.482	1.6	1336283	WORD	n/a	wordpools/wordpool_categorized_EN.txt	FUDGE	Desserts	3	10	[0, 0, 0]	n/a	catFR1	0	R1389J
1314.083	0.9	1337892	WORD_OFF	n/a	n/a	FUDGE	Desserts	3	10	[0, 0, 0]	n/a	catFR1	0	R1389J
1314.983	1.6	1338787	WORD	n/a	wordpools/wordpool_categorized_EN.txt	COBBLER	Desserts	4	10	[0, 0, 0]	n/a	catFR1	0	R1389J
1316.583	0.884	1340384	WORD_OFF	n/a	n/a	COBBLER	Desserts	4	10	[0, 0, 0]	n/a	catFR1	0	R1389J
1317.467	1.6	1341279	WORD	n/a	wordpools/wordpool_categorized_EN.txt	JEEP	Vehicles	5	10	[0, 0, 0]	n/a	catFR1	0	R1389J
1319.066	0.816	1342876	WORD_OFF	n/a	n/a	JEEP	Vehicles	5	10	[0, 0, 0]	n/a	catFR1	0	R1389J
1319.882	1.6	1343687	WORD	n/a	wordpools/wordpool_categorized_EN.txt	BOAT	Vehicles	6	10	[0, 0, 0]	n/a	catFR1	0	R1389J
1321.5	0.799	1345308	WORD_OFF	n/a	n/a	BOAT	Vehicles	6	10	[0, 0, 0]	n/a	catFR1	0	R1389J
1322.299	1.6	1346106	WORD	n/a	wordpools/wordpool_categorized_EN.txt	MOUSSE	Desserts	7	10	[0, 0, 0]	n/a	catFR1	0	R1389J
1323.9	0.982	1347703	WORD_OFF	n/a	n/a	MOUSSE	Desserts	7	10	[0, 0, 0]	n/a	catFR1	0	R1389J
1324.882	1.6	1348683	WORD	n/a	wordpools/wordpool_categorized_EN.txt	BROWNIES	Desserts	8	10	[0, 0, 0]	n/a	catFR1	0	R1389J
1326.482	0.768	1350292	WORD_OFF	n/a	n/a	BROWNIES	Desserts	8	10	[0, 0, 0]	n/a	catFR1	0	R1389J
1327.25	1.6	1351054	WORD	n/a	wordpools/wordpool_categorized_EN.txt	NOSE	BodyParts	9	10	[0, 0, 0]	n/a	catFR1	0	R1389J
1328.85	0.932	1352651	WORD_OFF	n/a	n/a	NOSE	BodyParts	9	10	[0, 0, 0]	n/a	catFR1	0	R1389J
1329.782	1.6	1353582	WORD	n/a	wordpools/wordpool_categorized_EN.txt	HEAD	BodyParts	10	10	[0, 0, 0]	n/a	catFR1	0	R1389J
1331.383	0.849	1355191	WORD_OFF	n/a	n/a	HEAD	BodyParts	10	10	[0, 0, 0]	n/a	catFR1	0	R1389J
1332.232	1.6	1356038	WORD	n/a	wordpools/wordpool_categorized_EN.txt	BUS	Vehicles	11	10	[0, 0, 0]	n/a	catFR1	0	R1389J
1333.832	0.918	1357635	WORD_OFF	n/a	n/a	BUS	Vehicles	11	10	[0, 0, 0]	n/a	catFR1	0	R1389J
1334.75	1.6	1358555	WORD	n/a	wordpools/wordpool_categorized_EN.txt	TRAIN	Vehicles	12	10	[0, 0, 0]	n/a	catFR1	0	R1389J
1336.365	0.001	1360170	PROB	5.25	n/a	n/a	n/a	-999	10	[3, 1, 5]	9.0	catFR1	0	R1389J
1336.366	0.0	1360171	START	n/a	n/a	n/a	n/a	-999	10	[-999, -999, -999]	n/a	catFR1	0	R1389J
1336.365	0.001	1360176	WORD_OFF	n/a	n/a	TRAIN	Vehicles	12	10	[0, 0, 0]	n/a	catFR1	0	R1389J
1336.366	0.0	1360176	ENCODING_END	n/a	n/a	n/a	n/a	-999	10	[0, 0, 0]	n/a	catFR1	0	R1389J
1336.366	5.267	1360176	DISTRACT_START	n/a	n/a	n/a	n/a	-999	10	[0, 0, 0]	n/a	catFR1	0	R1389J
1341.633	6.767	1365438	PROB	6.75	n/a	n/a	n/a	-999	10	[1, 6, 7]	14.0	catFR1	0	R1389J
1348.4	6.034	1372205	PROB	6.016	n/a	n/a	n/a	-999	10	[4, 6, 8]	14.0	catFR1	0	R1389J
1354.434	7.182	1378238	PROB	7.166	n/a	n/a	n/a	-999	10	[6, 1, 7]	14.0	catFR1	0	R1389J
1361.616	0.0	1385420	STOP	n/a	n/a	n/a	n/a	-999	10	[-999, -999, -999]	n/a	catFR1	0	R1389J
1361.616	2.233	1385423	DISTRACT_END	n/a	n/a	n/a	n/a	-999	10	[0, 0, 0]	n/a	catFR1	0	R1389J
1363.849	1.85	1387657	REC_START	n/a	n/a	n/a	n/a	-999	10	[0, 0, 0]	n/a	catFR1	0	R1389J
1365.699	0.47	1389503	REC_WORD_VV	1.85	n/a	<>	n/a	-999	10	[0, 0, 0]	n/a	catFR1	0	R1389J
1366.169	1.0	1389973	REC_WORD	2.32	n/a	EYE	BodyParts	1	10	[0, 0, 0]	n/a	catFR1	0	R1389J
1367.169	1.505	1390973	REC_WORD_VV	3.32	n/a	<>	n/a	-999	10	[0, 0, 0]	n/a	catFR1	0	R1389J
1368.674	2.215	1392478	REC_WORD	4.825	n/a	HEAD	BodyParts	10	10	[0, 0, 0]	n/a	catFR1	0	R1389J
1370.889	1.0	1394693	REC_WORD	7.04	n/a	NOSE	BodyParts	9	10	[0, 0, 0]	n/a	catFR1	0	R1389J
1371.889	3.94	1395693	REC_WORD_VV	8.04	n/a	<>	n/a	-999	10	[0, 0, 0]	n/a	catFR1	0	R1389J
1375.829	6.274	1399633	REC_WORD	11.98	n/a	BROWNIES	Desserts	8	10	[0, 0, 0]	n/a	catFR1	0	R1389J
1382.103	1.0	1405906	REC_WORD	18.254	n/a	KNEE	BodyParts	2	10	[0, 0, 0]	n/a	catFR1	0	R1389J
1383.103	10.935	1406906	REC_WORD_VV	19.254	n/a	<>	n/a	-999	10	[0, 0, 0]	n/a	catFR1	0	R1389J
1394.038	3.495	1417845	REC_END	n/a	n/a	n/a	n/a	-999	10	[0, 0, 0]	n/a	catFR1	0	R1389J
1397.533	10.0	1421341	COUNTDOWN_START	n/a	n/a	n/a	n/a	-999	11	[0, 0, 0]	n/a	catFR1	0	R1389J
1407.897	0.0	1431696	COUNTDOWN_END	n/a	n/a	n/a	n/a	-999	11	[0, 0, 0]	n/a	catFR1	0	R1389J
1407.897	2.169	1431696	ENCODING_START	n/a	n/a	n/a	n/a	-999	11	[0, 0, 0]	n/a	catFR1	0	R1389J
1410.066	1.6	1433874	WORD	n/a	wordpools/wordpool_categorized_EN.txt	PASTRY	Desserts	1	11	[0, 0, 0]	n/a	catFR1	0	R1389J
1411.666	0.833	1435471	WORD_OFF	n/a	n/a	PASTRY	Desserts	1	11	[0, 0, 0]	n/a	catFR1	0	R1389J
1412.499	1.6	1436306	WORD	n/a	wordpools/wordpool_categorized_EN.txt	COOKIE	Desserts	2	11	[0, 0, 0]	n/a	catFR1	0	R1389J
1414.1	1.0	1437902	WORD_OFF	n/a	n/a	COOKIE	Desserts	2	11	[0, 0, 0]	n/a	catFR1	0	R1389J
1415.1	1.6	1438906	WORD	n/a	wordpools/wordpool_categorized_EN.txt	DOLL	Toys	3	11	[0, 0, 0]	n/a	catFR1	0	R1389J
1416.7	0.999	1440503	WORD_OFF	n/a	n/a	DOLL	Toys	3	11	[0, 0, 0]	n/a	catFR1	0	R1389J
1417.699	1.6	1441495	WORD	n/a	wordpools/wordpool_categorized_EN.txt	BLOCKS	Toys	4	11	[0, 0, 0]	n/a	catFR1	0	R1389J
1419.3	0.849	1443104	WORD_OFF	n/a	n/a	BLOCKS	Toys	4	11	[0, 0, 0]	n/a	catFR1	0	R1389J
1420.149	1.6	1443951	WORD	n/a	wordpools/wordpool_categorized_EN.txt	SQUID	OceanAnimals	5	11	[0, 0, 0]	n/a	catFR1	0	R1389J
1421.749	0.983	1445548	WORD_OFF	n/a	n/a	SQUID	OceanAnimals	5	11	[0, 0, 0]	n/a	catFR1	0	R1389J
1422.732	1.6	1446540	WORD	n/a	wordpools/wordpool_categorized_EN.txt	SHRIMP	OceanAnimals	6	11	[0, 0, 0]	n/a	catFR1	0	R1389J
1424.333	0.766	1448137	WORD_OFF	n/a	n/a	SHRIMP	OceanAnimals	6	11	[0, 0, 0]	n/a	catFR1	0	R1389J
1425.099	1.6	1448899	WORD	n/a	wordpools/wordpool_categorized_EN.txt	FRISBEE	Toys	7	11	[0, 0, 0]	n/a	catFR1	0	R1389J
1426.7	0.783	1450496	WORD_OFF	n/a	n/a	FRISBEE	Toys	7	11	[0, 0, 0]	n/a	catFR1	0	R1389J
1427.483	1.6	1451282	WORD	n/a	wordpools/wordpool_categorized_EN.txt	FOOTBALL	Toys	8	11	[0, 0, 0]	n/a	catFR1	0	R1389J
1429.083	0.833	1452879	WORD_OFF	n/a	n/a	FOOTBALL	Toys	8	11	[0, 0, 0]	n/a	catFR1	0	R1389J
1429.916	1.6	1453714	WORD	n/a	wordpools/wordpool_categorized_EN.txt	CUPCAKE	Desserts	9	11	[0, 0, 0]	n/a	catFR1	0	R1389J
1431.532	0.867	1455335	WORD_OFF	n/a	n/a	CUPCAKE	Desserts	9	11	[0, 0, 0]	n/a	catFR1	0	R1389J
1432.399	1.6	1456194	WORD	n/a	wordpools/wordpool_categorized_EN.txt	PIE	Desserts	10	11	[0, 0, 0]	n/a	catFR1	0	R1389J
1434.0	0.799	1457803	WORD_OFF	n/a	n/a	PIE	Desserts	10	11	[0, 0, 0]	n/a	catFR1	0	R1389J
1434.799	1.6	1458601	WORD	n/a	wordpools/wordpool_categorized_EN.txt	OCTOPUS	OceanAnimals	11	11	[0, 0, 0]	n/a	catFR1	0	R1389J
1436.415	1.0	1460222	WORD_OFF	n/a	n/a	OCTOPUS	OceanAnimals	11	11	[0, 0, 0]	n/a	catFR1	0	R1389J
1437.415	1.6	1461214	WORD	n/a	wordpools/wordpool_categorized_EN.txt	TURTLE	OceanAnimals	12	11	[0, 0, 0]	n/a	catFR1	0	R1389J
1439.016	0.0	1462811	WORD_OFF	n/a	n/a	TURTLE	OceanAnimals	12	11	[0, 0, 0]	n/a	catFR1	0	R1389J
1439.016	0.001	1462817	PROB	6.016	n/a	n/a	n/a	-999	11	[6, 2, 4]	12.0	catFR1	0	R1389J
1439.017	0.0	1462818	START	n/a	n/a	n/a	n/a	-999	11	[-999, -999, -999]	n/a	catFR1	0	R1389J
1439.017	0.0	1462823	ENCODING_END	n/a	n/a	n/a	n/a	-999	11	[0, 0, 0]	n/a	catFR1	0	R1389J
1439.017	6.033	1462823	DISTRACT_START	n/a	n/a	n/a	n/a	-999	11	[0, 0, 0]	n/a	catFR1	0	R1389J
1445.05	5.3	1468851	PROB	5.282	n/a	n/a	n/a	-999	11	[6, 1, 6]	13.0	catFR1	0	R1389J
1450.35	4.0	1474150	PROB	3.983	n/a	n/a	n/a	-999	11	[2, 2, 4]	8.0	catFR1	0	R1389J
1454.35	13.233	1478150	PROB	13.215	n/a	n/a	n/a	-999	11	[6, 6, 3]	15.0	catFR1	0	R1389J
1467.583	0.0	1491383	STOP	n/a	n/a	n/a	n/a	-999	11	[-999, -999, -999]	n/a	catFR1	0	R1389J
1467.583	2.266	1491386	DISTRACT_END	n/a	n/a	n/a	n/a	-999	11	[0, 0, 0]	n/a	catFR1	0	R1389J
1469.849	7.234	1493644	REC_START	n/a	n/a	n/a	n/a	-999	11	[0, 0, 0]	n/a	catFR1	0	R1389J
1477.083	2.628	1500882	REC_WORD	7.234	n/a	SHRIMP	OceanAnimals	6	11	[0, 0, 0]	n/a	catFR1	0	R1389J
1479.711	20.342	1503510	REC_WORD	9.862	n/a	SQUID	OceanAnimals	5	11	[0, 0, 0]	n/a	catFR1	0	R1389J
1500.053	3.33	1523855	REC_END	n/a	n/a	n/a	n/a	-999	11	[0, 0, 0]	n/a	catFR1	0	R1389J
1503.383	10.0	1527182	COUNTDOWN_START	n/a	n/a	n/a	n/a	-999	12	[0, 0, 0]	n/a	catFR1	0	R1389J
1513.744	0.0	1537538	COUNTDOWN_END	n/a	n/a	n/a	n/a	-999	12	[0, 0, 0]	n/a	catFR1	0	R1389J
1513.744	1.973	1537538	ENCODING_START	n/a	n/a	n/a	n/a	-999	12	[0, 0, 0]	n/a	catFR1	0	R1389J
1515.717	1.6	1539510	WORD	n/a	wordpools/wordpool_categorized_EN.txt	LOBSTER	OceanAnimals	1	12	[0, 0, 0]	n/a	catFR1	0	R1389J
1517.333	0.817	1541131	WORD_OFF	n/a	n/a	LOBSTER	OceanAnimals	1	12	[0, 0, 0]	n/a	catFR1	0	R1389J
1518.15	1.6	1541953	WORD	n/a	wordpools/wordpool_categorized_EN.txt	JELLYFISH	OceanAnimals	2	12	[0, 0, 0]	n/a	catFR1	0	R1389J
1519.765	0.918	1543562	WORD_OFF	n/a	n/a	JELLYFISH	OceanAnimals	2	12	[0, 0, 0]	n/a	catFR1	0	R1389J
1520.683	1.6	1544482	WORD	n/a	wordpools/wordpool_categorized_EN.txt	SHELF	Furniture	3	12	[0, 0, 0]	n/a	catFR1	0	R1389J
1522.299	0.817	1546091	WORD_OFF	n/a	n/a	SHELF	Furniture	3	12	[0, 0, 0]	n/a	catFR1	0	R1389J
1523.116	1.6	1546913	WORD	n/a	wordpools/wordpool_categorized_EN.txt	SOFA	Furniture	4	12	[0, 0, 0]	n/a	catFR1	0	R1389J
1524.716	0.8	1548510	WORD_OFF	n/a	n/a	SOFA	Furniture	4	12	[0, 0, 0]	n/a	catFR1	0	R1389J
1525.516	1.6	1549309	WORD	n/a	wordpools/wordpool_categorized_EN.txt	BIKE	Vehicles	5	12	[0, 0, 0]	n/a	catFR1	0	R1389J
1527.132	0.95	1550930	WORD_OFF	n/a	n/a	BIKE	Vehicles	5	12	[0, 0, 0]	n/a	catFR1	0	R1389J
1528.082	1.6	1551873	WORD	n/a	wordpools/wordpool_categorized_EN.txt	MOPED	Vehicles	6	12	[0, 0, 0]	n/a	catFR1	0	R1389J
1529.683	0.982	1553482	WORD_OFF	n/a	n/a	MOPED	Vehicles	6	12	[0, 0, 0]	n/a	catFR1	0	R1389J
1530.665	1.6	1554462	WORD	n/a	wordpools/wordpool_categorized_EN.txt	CHAIR	Furniture	7	12	[0, 0, 0]	n/a	catFR1	0	R1389J
1532.265	0.817	1556059	WORD_OFF	n/a	n/a	CHAIR	Furniture	7	12	[0, 0, 0]	n/a	catFR1	0	R1389J
1533.082	1.6	1556882	WORD	n/a	wordpools/wordpool_categorized_EN.txt	DRESSER	Furniture	8	12	[0, 0, 0]	n/a	catFR1	0	R1389J
1534.683	0.767	1558479	WORD_OFF	n/a	n/a	DRESSER	Furniture	8	12	[0, 0, 0]	n/a	catFR1	0	R1389J
1535.45	1.6	1559241	WORD	n/a	wordpools/wordpool_categorized_EN.txt	FISH	OceanAnimals	9	12	[0, 0, 0]	n/a	catFR1	0	R1389J
1537.066	0.9	1560862	WORD_OFF	n/a	n/a	FISH	OceanAnimals	9	12	[0, 0, 0]	n/a	catFR1	0	R1389J
1537.966	1.6	1561757	WORD	n/a	wordpools/wordpool_categorized_EN.txt	WHALE	OceanAnimals	10	12	[0, 0, 0]	n/a	catFR1	0	R1389J
1539.566	0.817	1563366	WORD_OFF	n/a	n/a	WHALE	OceanAnimals	10	12	[0, 0, 0]	n/a	catFR1	0	R1389J
1540.383	1.6	1564177	WORD	n/a	wordpools/wordpool_categorized_EN.txt	VAN	Vehicles	11	12	[0, 0, 0]	n/a	catFR1	0	R1389J
1542.0	0.899	1565798	WORD_OFF	n/a	n/a	VAN	Vehicles	11	12	[0, 0, 0]	n/a	catFR1	0	R1389J
1542.899	1.6	1566693	WORD	n/a	wordpools/wordpool_categorized_EN.txt	TRUCK	Vehicles	12	12	[0, 0, 0]	n/a	catFR1	0	R1389J
1544.5	0.001	1568297	PROB	8.083	n/a	n/a	n/a	-999	12	[2, 4, 3]	10.0	catFR1	0	R1389J
1544.501	0.0	1568298	START	n/a	n/a	n/a	n/a	-999	12	[-999, -999, -999]	n/a	catFR1	0	R1389J
1544.499	0.002	1568302	WORD_OFF	n/a	n/a	TRUCK	Vehicles	12	12	[0, 0, 0]	n/a	catFR1	0	R1389J
1544.501	0.0	1568302	ENCODING_END	n/a	n/a	n/a	n/a	-999	12	[0, 0, 0]	n/a	catFR1	0	R1389J
1544.501	8.099	1568302	DISTRACT_START	n/a	n/a	n/a	n/a	-999	12	[0, 0, 0]	n/a	catFR1	0	R1389J
1552.6	5.467	1576396	PROB	5.449	n/a	n/a	n/a	-999	12	[3, 1, 2]	6.0	catFR1	0	R1389J
1558.067	10.982	1581863	PROB	10.965	n/a	n/a	n/a	-999	12	[3, 3, 5]	11.0	catFR1	0	R1389J
1569.049	0.0	1592845	STOP	n/a	n/a	n/a	n/a	-999	12	[-999, -999, -999]	n/a	catFR1	0	R1389J
1569.049	2.333	1592848	DISTRACT_END	n/a	n/a	n/a	n/a	-999	12	[0, 0, 0]	n/a	catFR1	0	R1389J
1571.382	3.414	1595179	REC_START	n/a	n/a	n/a	n/a	-999	12	[0, 0, 0]	n/a	catFR1	0	R1389J
1574.796	3.881	1598591	REC_WORD_VV	3.414	n/a	<>	n/a	-999	12	[0, 0, 0]	n/a	catFR1	0	R1389J
1578.677	2.61	1602472	REC_WORD	7.295	n/a	LOBSTER	OceanAnimals	1	12	[0, 0, 0]	n/a	catFR1	0	R1389J
1581.287	3.29	1605082	REC_WORD	9.905	n/a	FISH	OceanAnimals	9	12	[0, 0, 0]	n/a	catFR1	0	R1389J
1584.577	3.232	1608372	REC_WORD	13.195	n/a	JELLYFISH	OceanAnimals	2	12	[0, 0, 0]	n/a	catFR1	0	R1389J
1587.809	13.78	1611604	REC_WORD	16.427	n/a	WHALE	OceanAnimals	10	12	[0, 0, 0]	n/a	catFR1	0	R1389J
1601.589	0.0	1625378	REC_END	n/a	n/a	n/a	n/a	-999	12	[0, 0, 0]	n/a	catFR1	0	R1389J
