onset	duration	sample	trial_type	response_time	stim_file	item_name	category	serialpos	list	test	answer	experiment	session	subject
0.0	9.382	45604	INSTRUCT_START	n/a	n/a	n/a	n/a	-999	-999	[0, 0, 0]	n/a	catFR1	0	R1374T
9.382	99.882	54981	INSTRUCT_END	n/a	n/a	n/a	n/a	-999	-999	[0, 0, 0]	n/a	catFR1	0	R1374T
109.264	10.35	154863	COUNTDOWN_START	n/a	n/a	n/a	n/a	-999	-999	[0, 0, 0]	n/a	catFR1	0	R1374T
119.614	0.001	165216	COUNTDOWN_END	n/a	n/a	n/a	n/a	-999	-999	[0, 0, 0]	n/a	catFR1	0	R1374T
119.615	2.199	165216	ENCODING_START	n/a	n/a	n/a	n/a	-999	-1	[0, 0, 0]	n/a	catFR1	0	R1374T
121.814	1.6	167410	WORD	n/a	n/a	FARMER	Professions	1	-1	[0, 0, 0]	n/a	catFR1	0	R1374T
123.414	0.849	169017	WORD_OFF	n/a	n/a	FARMER	Professions	1	-1	[0, 0, 0]	n/a	catFR1	0	R1374T
124.263	1.601	169855	WORD	n/a	n/a	FIREMAN	Professions	2	-1	[0, 0, 0]	n/a	catFR1	0	R1374T
125.864	0.783	171462	WORD_OFF	n/a	n/a	FIREMAN	Professions	2	-1	[0, 0, 0]	n/a	catFR1	0	R1374T
126.647	1.6	172244	WORD	n/a	n/a	WOOL	Materials	3	-1	[0, 0, 0]	n/a	catFR1	0	R1374T
128.247	0.916	173851	WORD_OFF	n/a	n/a	WOOL	Materials	3	-1	[0, 0, 0]	n/a	catFR1	0	R1374T
129.163	1.601	174759	WORD	n/a	n/a	DENIM	Materials	4	-1	[0, 0, 0]	n/a	catFR1	0	R1374T
130.764	0.784	176366	WORD_OFF	n/a	n/a	DENIM	Materials	4	-1	[0, 0, 0]	n/a	catFR1	0	R1374T
131.548	1.616	177148	WORD	n/a	n/a	DAY	Times	5	-1	[0, 0, 0]	n/a	catFR1	0	R1374T
133.164	0.934	178755	WORD_OFF	n/a	n/a	DAY	Times	5	-1	[0, 0, 0]	n/a	catFR1	0	R1374T
134.098	1.617	179691	WORD	n/a	n/a	MINUTE	Times	6	-1	[0, 0, 0]	n/a	catFR1	0	R1374T
135.715	0.8	181312	WORD_OFF	n/a	n/a	MINUTE	Times	6	-1	[0, 0, 0]	n/a	catFR1	0	R1374T
136.515	1.616	182108	WORD	n/a	n/a	PLUMBER	Professions	7	-1	[0, 0, 0]	n/a	catFR1	0	R1374T
138.131	0.899	183729	WORD_OFF	n/a	n/a	PLUMBER	Professions	7	-1	[0, 0, 0]	n/a	catFR1	0	R1374T
139.03	1.601	184623	WORD	n/a	n/a	TEACHER	Professions	8	-1	[0, 0, 0]	n/a	catFR1	0	R1374T
140.631	0.817	186230	WORD_OFF	n/a	n/a	TEACHER	Professions	8	-1	[0, 0, 0]	n/a	catFR1	0	R1374T
141.448	1.616	187040	WORD	n/a	n/a	SECOND	Times	9	-1	[0, 0, 0]	n/a	catFR1	0	R1374T
143.064	0.984	188661	WORD_OFF	n/a	n/a	SECOND	Times	9	-1	[0, 0, 0]	n/a	catFR1	0	R1374T
144.048	1.6	189639	WORD	n/a	n/a	HOUR	Times	10	-1	[0, 0, 0]	n/a	catFR1	0	R1374T
145.648	0.766	191246	WORD_OFF	n/a	n/a	HOUR	Times	10	-1	[0, 0, 0]	n/a	catFR1	0	R1374T
146.414	1.6	192014	WORD	n/a	n/a	LEATHER	Materials	11	-1	[0, 0, 0]	n/a	catFR1	0	R1374T
148.014	0.884	193607	WORD_OFF	n/a	n/a	LEATHER	Materials	11	-1	[0, 0, 0]	n/a	catFR1	0	R1374T
148.898	1.616	194487	WORD	n/a	n/a	SILK	Materials	12	-1	[0, 0, 0]	n/a	catFR1	0	R1374T
150.514	0.002	196108	WORD_OFF	n/a	n/a	SILK	Materials	12	-1	[0, 0, 0]	n/a	catFR1	0	R1374T
150.516	0.001	196108	ENCODING_END	n/a	n/a	n/a	n/a	-999	-1	[0, 0, 0]	n/a	catFR1	0	R1374T
150.517	0.0	196108	DISTRACT_START	n/a	n/a	n/a	n/a	-999	-1	[0, 0, 0]	n/a	catFR1	0	R1374T
150.516	0.001	196111	PROB	8.966	n/a	n/a	n/a	-999	-1	[5, 1, 3]	9.0	catFR1	0	R1374T
150.517	8.981	196112	START	n/a	n/a	n/a	n/a	-999	-1	[-999, -999, -999]	n/a	catFR1	0	R1374T
159.498	9.233	205093	PROB	9.216	n/a	n/a	n/a	-999	-1	[6, 8, 1]	15.0	catFR1	0	R1374T
168.731	11.9	214325	PROB	11.882	n/a	n/a	n/a	-999	-1	[5, 7, 2]	14.0	catFR1	0	R1374T
180.631	0.0	226224	STOP	n/a	n/a	n/a	n/a	-999	-1	[-999, -999, -999]	n/a	catFR1	0	R1374T
180.631	1.317	226231	DISTRACT_END	n/a	n/a	n/a	n/a	-999	-1	[0, 0, 0]	n/a	catFR1	0	R1374T
181.948	7.325	227545	REC_START	n/a	n/a	n/a	n/a	-999	-1	[0, 0, 0]	n/a	catFR1	0	R1374T
189.273	1.0	234866	REC_WORD_VV	7.325	n/a	<>	n/a	-999	-1	[0, 0, 0]	n/a	catFR1	0	R1374T
190.273	1.774	235866	REC_WORD_VV	8.325	n/a	<>	n/a	-999	-1	[0, 0, 0]	n/a	catFR1	0	R1374T
192.047	0.896	237640	REC_WORD	10.099	n/a	FARMER	Professions	1	-1	[0, 0, 0]	n/a	catFR1	0	R1374T
192.943	1.728	238536	REC_WORD_VV	10.995	n/a	<>	n/a	-999	-1	[0, 0, 0]	n/a	catFR1	0	R1374T
194.671	1.283	240264	REC_WORD	12.723	n/a	FOWLER	n/a	-999	-1	[0, 0, 0]	n/a	catFR1	0	R1374T
195.954	1.729	241547	REC_WORD	14.006	n/a	WOOD	n/a	-999	-1	[0, 0, 0]	n/a	catFR1	0	R1374T
197.683	3.157	243276	REC_WORD_VV	15.735	n/a	<>	n/a	-999	-1	[0, 0, 0]	n/a	catFR1	0	R1374T
200.84	0.492	246432	REC_WORD	18.892	n/a	GRAIN	n/a	-999	-1	[0, 0, 0]	n/a	catFR1	0	R1374T
201.332	10.905	246924	REC_WORD	19.384	n/a	OXYGEN	n/a	-999	-1	[0, 0, 0]	n/a	catFR1	0	R1374T
212.237	50.394	257836	REC_END	n/a	n/a	n/a	n/a	-999	-1	[0, 0, 0]	n/a	catFR1	0	R1374T
262.631	10.351	308218	COUNTDOWN_START	n/a	n/a	n/a	n/a	-999	1	[0, 0, 0]	n/a	catFR1	0	R1374T
272.982	0.0	318571	COUNTDOWN_END	n/a	n/a	n/a	n/a	-999	1	[0, 0, 0]	n/a	catFR1	0	R1374T
272.982	2.132	318571	ENCODING_START	n/a	n/a	n/a	n/a	-999	1	[0, 0, 0]	n/a	catFR1	0	R1374T
275.114	1.617	320709	WORD	n/a	wordpools/wordpool_categorized_EN.txt	COW	Farmanimals	1	1	[0, 0, 0]	n/a	catFR1	0	R1374T
276.731	0.832	322316	WORD_OFF	n/a	n/a	COW	Farmanimals	1	1	[0, 0, 0]	n/a	catFR1	0	R1374T
277.563	1.601	323154	WORD	n/a	wordpools/wordpool_categorized_EN.txt	HORSE	Farmanimals	2	1	[0, 0, 0]	n/a	catFR1	0	R1374T
279.164	0.9	324747	WORD_OFF	n/a	n/a	HORSE	Farmanimals	2	1	[0, 0, 0]	n/a	catFR1	0	R1374T
280.064	1.617	325655	WORD	n/a	wordpools/wordpool_categorized_EN.txt	SPINACH	Vegetables	3	1	[0, 0, 0]	n/a	catFR1	0	R1374T
281.681	0.833	327276	WORD_OFF	n/a	n/a	SPINACH	Vegetables	3	1	[0, 0, 0]	n/a	catFR1	0	R1374T
282.514	1.6	328100	WORD	n/a	wordpools/wordpool_categorized_EN.txt	CAULIFLOWER	Vegetables	4	1	[0, 0, 0]	n/a	catFR1	0	R1374T
284.114	0.983	329707	WORD_OFF	n/a	n/a	CAULIFLOWER	Vegetables	4	1	[0, 0, 0]	n/a	catFR1	0	R1374T
285.097	1.617	330685	WORD	n/a	wordpools/wordpool_categorized_EN.txt	PAPER	Officesupplies	5	1	[0, 0, 0]	n/a	catFR1	0	R1374T
286.714	0.917	332305	WORD_OFF	n/a	n/a	PAPER	Officesupplies	5	1	[0, 0, 0]	n/a	catFR1	0	R1374T
287.631	1.616	333214	WORD	n/a	wordpools/wordpool_categorized_EN.txt	ERASER	Officesupplies	6	1	[0, 0, 0]	n/a	catFR1	0	R1374T
289.247	0.85	334834	WORD_OFF	n/a	n/a	ERASER	Officesupplies	6	1	[0, 0, 0]	n/a	catFR1	0	R1374T
290.097	1.6	335687	WORD	n/a	wordpools/wordpool_categorized_EN.txt	CUCUMBER	Vegetables	7	1	[0, 0, 0]	n/a	catFR1	0	R1374T
291.697	0.817	337279	WORD_OFF	n/a	n/a	CUCUMBER	Vegetables	7	1	[0, 0, 0]	n/a	catFR1	0	R1374T
292.514	1.616	338104	WORD	n/a	wordpools/wordpool_categorized_EN.txt	CARROT	Vegetables	8	1	[0, 0, 0]	n/a	catFR1	0	R1374T
294.13	0.917	339724	WORD_OFF	n/a	n/a	CARROT	Vegetables	8	1	[0, 0, 0]	n/a	catFR1	0	R1374T
295.047	1.616	340633	WORD	n/a	wordpools/wordpool_categorized_EN.txt	PENCIL	Officesupplies	9	1	[0, 0, 0]	n/a	catFR1	0	R1374T
296.663	0.817	342253	WORD_OFF	n/a	n/a	PENCIL	Officesupplies	9	1	[0, 0, 0]	n/a	catFR1	0	R1374T
297.48	1.6	343064	WORD	n/a	wordpools/wordpool_categorized_EN.txt	NOTEBOOK	Officesupplies	10	1	[0, 0, 0]	n/a	catFR1	0	R1374T
299.08	0.8	344671	WORD_OFF	n/a	n/a	NOTEBOOK	Officesupplies	10	1	[0, 0, 0]	n/a	catFR1	0	R1374T
299.88	1.6	345467	WORD	n/a	wordpools/wordpool_categorized_EN.txt	SHEEP	Farmanimals	11	1	[0, 0, 0]	n/a	catFR1	0	R1374T
301.48	0.917	347074	WORD_OFF	n/a	n/a	SHEEP	Farmanimals	11	1	[0, 0, 0]	n/a	catFR1	0	R1374T
302.397	1.6	347982	WORD	n/a	wordpools/wordpool_categorized_EN.txt	GOAT	Farmanimals	12	1	[0, 0, 0]	n/a	catFR1	0	R1374T
303.997	0.001	349584	PROB	11.034	n/a	n/a	n/a	-999	1	[1, 2, 4]	7.0	catFR1	0	R1374T
303.998	0.0	349585	START	n/a	n/a	n/a	n/a	-999	1	[-999, -999, -999]	n/a	catFR1	0	R1374T
303.997	0.001	349589	WORD_OFF	n/a	n/a	GOAT	Farmanimals	12	1	[0, 0, 0]	n/a	catFR1	0	R1374T
303.998	0.0	349589	ENCODING_END	n/a	n/a	n/a	n/a	-999	1	[0, 0, 0]	n/a	catFR1	0	R1374T
303.998	11.051	349589	DISTRACT_START	n/a	n/a	n/a	n/a	-999	1	[0, 0, 0]	n/a	catFR1	0	R1374T
315.049	5.682	360636	PROB	5.665	n/a	n/a	n/a	-999	1	[3, 7, 1]	11.0	catFR1	0	R1374T
320.731	9.967	366317	PROB	9.949	n/a	n/a	n/a	-999	1	[4, 6, 6]	16.0	catFR1	0	R1374T
330.698	0.0	376284	STOP	n/a	n/a	n/a	n/a	-999	1	[-999, -999, -999]	n/a	catFR1	0	R1374T
330.698	1.133	376289	DISTRACT_END	n/a	n/a	n/a	n/a	-999	1	[0, 0, 0]	n/a	catFR1	0	R1374T
331.831	2.825	377420	REC_START	n/a	n/a	n/a	n/a	-999	1	[0, 0, 0]	n/a	catFR1	0	R1374T
334.656	1.0	380242	REC_WORD_VV	2.825	n/a	<>	n/a	-999	1	[0, 0, 0]	n/a	catFR1	0	R1374T
335.656	1.801	381242	REC_WORD_VV	3.825	n/a	<>	n/a	-999	1	[0, 0, 0]	n/a	catFR1	0	R1374T
337.457	1.0	383043	REC_WORD_VV	5.626	n/a	<>	n/a	-999	1	[0, 0, 0]	n/a	catFR1	0	R1374T
338.457	2.267	384043	REC_WORD_VV	6.626	n/a	<>	n/a	-999	1	[0, 0, 0]	n/a	catFR1	0	R1374T
340.724	0.442	386309	REC_WORD	8.893	n/a	COW	Farmanimals	1	1	[0, 0, 0]	n/a	catFR1	0	R1374T
341.166	1.414	386751	REC_WORD	9.335	n/a	HORSE	Farmanimals	2	1	[0, 0, 0]	n/a	catFR1	0	R1374T
342.58	0.945	388165	REC_WORD	10.749	n/a	SPINACH	Vegetables	3	1	[0, 0, 0]	n/a	catFR1	0	R1374T
343.525	3.769	389110	REC_WORD	11.694	n/a	CARROT	Vegetables	8	1	[0, 0, 0]	n/a	catFR1	0	R1374T
347.294	14.812	392879	REC_WORD	15.463	n/a	OXYGEN	n/a	-999	1	[0, 0, 0]	n/a	catFR1	0	R1374T
362.106	6.892	407697	REC_END	n/a	n/a	n/a	n/a	-999	1	[0, 0, 0]	n/a	catFR1	0	R1374T
368.998	10.35	414586	COUNTDOWN_START	n/a	n/a	n/a	n/a	-999	2	[0, 0, 0]	n/a	catFR1	0	R1374T
379.348	0.0	424926	COUNTDOWN_END	n/a	n/a	n/a	n/a	-999	2	[0, 0, 0]	n/a	catFR1	0	R1374T
379.348	2.066	424939	ENCODING_START	n/a	n/a	n/a	n/a	-999	2	[0, 0, 0]	n/a	catFR1	0	R1374T
381.414	1.616	426992	WORD	n/a	wordpools/wordpool_categorized_EN.txt	FOOT	Bodyparts	1	2	[0, 0, 0]	n/a	catFR1	0	R1374T
383.03	0.917	428613	WORD_OFF	n/a	n/a	FOOT	Bodyparts	1	2	[0, 0, 0]	n/a	catFR1	0	R1374T
383.947	1.6	429535	WORD	n/a	wordpools/wordpool_categorized_EN.txt	EAR	Bodyparts	2	2	[0, 0, 0]	n/a	catFR1	0	R1374T
385.547	0.966	431128	WORD_OFF	n/a	n/a	EAR	Bodyparts	2	2	[0, 0, 0]	n/a	catFR1	0	R1374T
386.513	1.601	432092	WORD	n/a	wordpools/wordpool_categorized_EN.txt	MARBLES	Toys	3	2	[0, 0, 0]	n/a	catFR1	0	R1374T
388.114	0.833	433699	WORD_OFF	n/a	n/a	MARBLES	Toys	3	2	[0, 0, 0]	n/a	catFR1	0	R1374T
388.947	1.6	434537	WORD	n/a	wordpools/wordpool_categorized_EN.txt	FRISBEE	Toys	4	2	[0, 0, 0]	n/a	catFR1	0	R1374T
390.547	0.866	436130	WORD_OFF	n/a	n/a	FRISBEE	Toys	4	2	[0, 0, 0]	n/a	catFR1	0	R1374T
391.413	1.601	436996	WORD	n/a	wordpools/wordpool_categorized_EN.txt	GUITAR	Instruments	5	2	[0, 0, 0]	n/a	catFR1	0	R1374T
393.014	0.966	438603	WORD_OFF	n/a	n/a	GUITAR	Instruments	5	2	[0, 0, 0]	n/a	catFR1	0	R1374T
393.98	1.617	439567	WORD	n/a	wordpools/wordpool_categorized_EN.txt	FLUTE	Instruments	6	2	[0, 0, 0]	n/a	catFR1	0	R1374T
395.597	0.95	441174	WORD_OFF	n/a	n/a	FLUTE	Instruments	6	2	[0, 0, 0]	n/a	catFR1	0	R1374T
396.547	1.616	442124	WORD	n/a	wordpools/wordpool_categorized_EN.txt	BASEBALL	Toys	7	2	[0, 0, 0]	n/a	catFR1	0	R1374T
398.163	0.984	443745	WORD_OFF	n/a	n/a	BASEBALL	Toys	7	2	[0, 0, 0]	n/a	catFR1	0	R1374T
399.147	1.6	444737	WORD	n/a	wordpools/wordpool_categorized_EN.txt	DOLL	Toys	8	2	[0, 0, 0]	n/a	catFR1	0	R1374T
400.747	0.801	446329	WORD_OFF	n/a	n/a	DOLL	Toys	8	2	[0, 0, 0]	n/a	catFR1	0	R1374T
401.548	1.615	447126	WORD	n/a	wordpools/wordpool_categorized_EN.txt	LEG	Bodyparts	9	2	[0, 0, 0]	n/a	catFR1	0	R1374T
403.163	0.852	448747	WORD_OFF	n/a	n/a	LEG	Bodyparts	9	2	[0, 0, 0]	n/a	catFR1	0	R1374T
404.015	1.599	449599	WORD	n/a	wordpools/wordpool_categorized_EN.txt	KNEE	Bodyparts	10	2	[0, 0, 0]	n/a	catFR1	0	R1374T
405.614	0.868	451192	WORD_OFF	n/a	n/a	KNEE	Bodyparts	10	2	[0, 0, 0]	n/a	catFR1	0	R1374T
406.482	1.617	452060	WORD	n/a	wordpools/wordpool_categorized_EN.txt	VIOLIN	Instruments	11	2	[0, 0, 0]	n/a	catFR1	0	R1374T
408.099	0.866	453679	WORD_OFF	n/a	n/a	VIOLIN	Instruments	11	2	[0, 0, 0]	n/a	catFR1	0	R1374T
408.965	1.617	454545	WORD	n/a	wordpools/wordpool_categorized_EN.txt	BASS	Instruments	12	2	[0, 0, 0]	n/a	catFR1	0	R1374T
410.582	0.0	456164	PROB	12.816	n/a	n/a	n/a	-999	2	[5, 6, 7]	18.0	catFR1	0	R1374T
410.581	0.007	456166	WORD_OFF	n/a	n/a	BASS	Instruments	12	2	[0, 0, 0]	n/a	catFR1	0	R1374T
410.588	0.0	456166	ENCODING_END	n/a	n/a	n/a	n/a	-999	2	[0, 0, 0]	n/a	catFR1	0	R1374T
410.588	0.0	456166	DISTRACT_START	n/a	n/a	n/a	n/a	-999	2	[0, 0, 0]	n/a	catFR1	0	R1374T
410.588	12.827	456170	START	n/a	n/a	n/a	n/a	-999	2	[-999, -999, -999]	n/a	catFR1	0	R1374T
423.415	8.082	468996	PROB	8.066	n/a	n/a	n/a	-999	2	[3, 1, 8]	12.0	catFR1	0	R1374T
431.497	0.0	477078	STOP	n/a	n/a	n/a	n/a	-999	2	[-999, -999, -999]	n/a	catFR1	0	R1374T
431.497	1.051	477081	DISTRACT_END	n/a	n/a	n/a	n/a	-999	2	[0, 0, 0]	n/a	catFR1	0	R1374T
432.548	3.871	478129	REC_START	n/a	n/a	n/a	n/a	-999	2	[0, 0, 0]	n/a	catFR1	0	R1374T
436.419	0.458	482000	REC_WORD	3.871	n/a	COW	Farmanimals	-999	2	[0, 0, 0]	n/a	catFR1	0	R1374T
436.877	0.641	482458	REC_WORD	4.329	n/a	HORSE	Farmanimals	-999	2	[0, 0, 0]	n/a	catFR1	0	R1374T
437.518	0.225	483099	REC_WORD	4.97	n/a	SPINACH	Vegetables	-999	2	[0, 0, 0]	n/a	catFR1	0	R1374T
437.743	0.602	483324	REC_WORD	5.195	n/a	SPINACH	Vegetables	-999	2	[0, 0, 0]	n/a	catFR1	0	R1374T
438.345	1.0	483925	REC_WORD_VV	5.797	n/a	<>	n/a	-999	2	[0, 0, 0]	n/a	catFR1	0	R1374T
439.345	1.444	484925	REC_WORD_VV	6.797	n/a	<>	n/a	-999	2	[0, 0, 0]	n/a	catFR1	0	R1374T
440.789	4.449	486369	REC_WORD	8.241	n/a	OXYGEN	n/a	-999	2	[0, 0, 0]	n/a	catFR1	0	R1374T
445.238	1.0	490818	REC_WORD_VV	12.69	n/a	<>	n/a	-999	2	[0, 0, 0]	n/a	catFR1	0	R1374T
446.238	1.0	491818	REC_WORD_VV	13.69	n/a	<>	n/a	-999	2	[0, 0, 0]	n/a	catFR1	0	R1374T
447.238	1.0	492818	REC_WORD_VV	14.69	n/a	<>	n/a	-999	2	[0, 0, 0]	n/a	catFR1	0	R1374T
448.238	1.0	493818	REC_WORD_VV	15.69	n/a	<>	n/a	-999	2	[0, 0, 0]	n/a	catFR1	0	R1374T
449.238	1.0	494818	REC_WORD_VV	16.69	n/a	<>	n/a	-999	2	[0, 0, 0]	n/a	catFR1	0	R1374T
450.238	1.0	495818	REC_WORD_VV	17.69	n/a	<>	n/a	-999	2	[0, 0, 0]	n/a	catFR1	0	R1374T
451.238	11.601	496818	REC_WORD_VV	18.69	n/a	<>	n/a	-999	2	[0, 0, 0]	n/a	catFR1	0	R1374T
462.839	6.292	508420	REC_END	n/a	n/a	n/a	n/a	-999	2	[0, 0, 0]	n/a	catFR1	0	R1374T
469.131	10.35	514708	COUNTDOWN_START	n/a	n/a	n/a	n/a	-999	3	[0, 0, 0]	n/a	catFR1	0	R1374T
479.481	0.0	525061	COUNTDOWN_END	n/a	n/a	n/a	n/a	-999	3	[0, 0, 0]	n/a	catFR1	0	R1374T
479.481	1.916	525061	ENCODING_START	n/a	n/a	n/a	n/a	-999	3	[0, 0, 0]	n/a	catFR1	0	R1374T
481.397	1.6	526975	WORD	n/a	wordpools/wordpool_categorized_EN.txt	PLIERS	Tools	1	3	[0, 0, 0]	n/a	catFR1	0	R1374T
482.997	0.966	528582	WORD_OFF	n/a	n/a	PLIERS	Tools	1	3	[0, 0, 0]	n/a	catFR1	0	R1374T
483.963	1.617	529546	WORD	n/a	wordpools/wordpool_categorized_EN.txt	HAMMER	Tools	2	3	[0, 0, 0]	n/a	catFR1	0	R1374T
485.58	0.983	531152	WORD_OFF	n/a	n/a	HAMMER	Tools	2	3	[0, 0, 0]	n/a	catFR1	0	R1374T
486.563	1.617	532144	WORD	n/a	wordpools/wordpool_categorized_EN.txt	GIRAFFE	Zoo	3	3	[0, 0, 0]	n/a	catFR1	0	R1374T
488.18	0.9	533765	WORD_OFF	n/a	n/a	GIRAFFE	Zoo	3	3	[0, 0, 0]	n/a	catFR1	0	R1374T
489.08	1.601	534659	WORD	n/a	wordpools/wordpool_categorized_EN.txt	ORANGUTAN	Zoo	4	3	[0, 0, 0]	n/a	catFR1	0	R1374T
490.681	0.966	536266	WORD_OFF	n/a	n/a	ORANGUTAN	Zoo	4	3	[0, 0, 0]	n/a	catFR1	0	R1374T
491.647	1.6	537230	WORD	n/a	wordpools/wordpool_categorized_EN.txt	PASTRY	Desserts	5	3	[0, 0, 0]	n/a	catFR1	0	R1374T
493.247	0.9	538823	WORD_OFF	n/a	n/a	PASTRY	Desserts	5	3	[0, 0, 0]	n/a	catFR1	0	R1374T
494.147	1.601	539731	WORD	n/a	wordpools/wordpool_categorized_EN.txt	COOKIE	Desserts	6	3	[0, 0, 0]	n/a	catFR1	0	R1374T
495.748	0.934	541324	WORD_OFF	n/a	n/a	COOKIE	Desserts	6	3	[0, 0, 0]	n/a	catFR1	0	R1374T
496.682	1.616	542260	WORD	n/a	wordpools/wordpool_categorized_EN.txt	DRILL	Tools	7	3	[0, 0, 0]	n/a	catFR1	0	R1374T
498.298	0.917	543881	WORD_OFF	n/a	n/a	DRILL	Tools	7	3	[0, 0, 0]	n/a	catFR1	0	R1374T
499.215	1.616	544789	WORD	n/a	wordpools/wordpool_categorized_EN.txt	SANDER	Tools	8	3	[0, 0, 0]	n/a	catFR1	0	R1374T
500.831	0.817	546410	WORD_OFF	n/a	n/a	SANDER	Tools	8	3	[0, 0, 0]	n/a	catFR1	0	R1374T
501.648	1.6	547220	WORD	n/a	wordpools/wordpool_categorized_EN.txt	MOUSSE	Desserts	9	3	[0, 0, 0]	n/a	catFR1	0	R1374T
503.248	0.9	548827	WORD_OFF	n/a	n/a	MOUSSE	Desserts	9	3	[0, 0, 0]	n/a	catFR1	0	R1374T
504.148	1.6	549721	WORD	n/a	wordpools/wordpool_categorized_EN.txt	PUDDING	Desserts	10	3	[0, 0, 0]	n/a	catFR1	0	R1374T
505.748	0.866	551328	WORD_OFF	n/a	n/a	PUDDING	Desserts	10	3	[0, 0, 0]	n/a	catFR1	0	R1374T
506.614	1.6	552194	WORD	n/a	wordpools/wordpool_categorized_EN.txt	PANDA	Zoo	11	3	[0, 0, 0]	n/a	catFR1	0	R1374T
508.214	0.8	553787	WORD_OFF	n/a	n/a	PANDA	Zoo	11	3	[0, 0, 0]	n/a	catFR1	0	R1374T
509.014	1.617	554597	WORD	n/a	wordpools/wordpool_categorized_EN.txt	ZEBRA	Zoo	12	3	[0, 0, 0]	n/a	catFR1	0	R1374T
510.631	0.001	556204	WORD_OFF	n/a	n/a	ZEBRA	Zoo	12	3	[0, 0, 0]	n/a	catFR1	0	R1374T
510.632	0.001	556209	PROB	12.299	n/a	n/a	n/a	-999	3	[5, 4, 1]	10.0	catFR1	0	R1374T
510.633	0.0	556210	START	n/a	n/a	n/a	n/a	-999	3	[-999, -999, -999]	n/a	catFR1	0	R1374T
510.633	0.0	556218	ENCODING_END	n/a	n/a	n/a	n/a	-999	3	[0, 0, 0]	n/a	catFR1	0	R1374T
510.633	12.315	556218	DISTRACT_START	n/a	n/a	n/a	n/a	-999	3	[0, 0, 0]	n/a	catFR1	0	R1374T
522.948	7.383	568524	PROB	7.366	n/a	n/a	n/a	-999	3	[7, 1, 3]	11.0	catFR1	0	R1374T
530.331	9.266	575907	PROB	9.249	n/a	n/a	n/a	-999	3	[1, 6, 7]	14.0	catFR1	0	R1374T
539.597	0.0	585172	STOP	n/a	n/a	n/a	n/a	-999	3	[-999, -999, -999]	n/a	catFR1	0	R1374T
539.597	1.217	585181	DISTRACT_END	n/a	n/a	n/a	n/a	-999	3	[0, 0, 0]	n/a	catFR1	0	R1374T
540.814	3.782	586397	REC_START	n/a	n/a	n/a	n/a	-999	3	[0, 0, 0]	n/a	catFR1	0	R1374T
544.596	0.423	590171	REC_WORD	3.782	n/a	COW	Farmanimals	-999	3	[0, 0, 0]	n/a	catFR1	0	R1374T
545.019	0.617	590594	REC_WORD	4.205	n/a	HORSE	Farmanimals	-999	3	[0, 0, 0]	n/a	catFR1	0	R1374T
545.636	0.821	591211	REC_WORD	4.822	n/a	SPINACH	Vegetables	-999	3	[0, 0, 0]	n/a	catFR1	0	R1374T
546.457	1.5	592032	REC_WORD	5.643	n/a	CARROT	Vegetables	-999	3	[0, 0, 0]	n/a	catFR1	0	R1374T
547.957	1.249	593532	REC_WORD	7.143	n/a	GIRAFFE	Zoo	3	3	[0, 0, 0]	n/a	catFR1	0	R1374T
549.206	7.613	594781	REC_WORD	8.392	n/a	OXYGEN	n/a	-999	3	[0, 0, 0]	n/a	catFR1	0	R1374T
556.819	14.24	602394	REC_WORD	16.005	n/a	PLIERS	Tools	1	3	[0, 0, 0]	n/a	catFR1	0	R1374T
571.059	6.889	616632	REC_END	n/a	n/a	n/a	n/a	-999	3	[0, 0, 0]	n/a	catFR1	0	R1374T
577.948	10.35	623520	COUNTDOWN_START	n/a	n/a	n/a	n/a	-999	4	[0, 0, 0]	n/a	catFR1	0	R1374T
588.298	0.001	633873	COUNTDOWN_END	n/a	n/a	n/a	n/a	-999	4	[0, 0, 0]	n/a	catFR1	0	R1374T
588.299	2.215	633873	ENCODING_START	n/a	n/a	n/a	n/a	-999	4	[0, 0, 0]	n/a	catFR1	0	R1374T
590.514	1.6	636095	WORD	n/a	wordpools/wordpool_categorized_EN.txt	BOOKCASE	Furniture	1	4	[0, 0, 0]	n/a	catFR1	0	R1374T
592.114	0.784	637687	WORD_OFF	n/a	n/a	BOOKCASE	Furniture	1	4	[0, 0, 0]	n/a	catFR1	0	R1374T
592.898	1.6	638470	WORD	n/a	wordpools/wordpool_categorized_EN.txt	DRESSER	Furniture	2	4	[0, 0, 0]	n/a	catFR1	0	R1374T
594.498	0.916	640077	WORD_OFF	n/a	n/a	DRESSER	Furniture	2	4	[0, 0, 0]	n/a	catFR1	0	R1374T
595.414	1.6	640985	WORD	n/a	wordpools/wordpool_categorized_EN.txt	REFRIGERATOR	Appliances	3	4	[0, 0, 0]	n/a	catFR1	0	R1374T
597.014	0.967	642592	WORD_OFF	n/a	n/a	REFRIGERATOR	Appliances	3	4	[0, 0, 0]	n/a	catFR1	0	R1374T
597.981	1.6	643556	WORD	n/a	wordpools/wordpool_categorized_EN.txt	VACUUM	Appliances	4	4	[0, 0, 0]	n/a	catFR1	0	R1374T
599.581	0.799	645148	WORD_OFF	n/a	n/a	VACUUM	Appliances	4	4	[0, 0, 0]	n/a	catFR1	0	R1374T
600.38	1.601	645959	WORD	n/a	wordpools/wordpool_categorized_EN.txt	HALLWAY	Building	5	4	[0, 0, 0]	n/a	catFR1	0	R1374T
601.981	0.95	647552	WORD_OFF	n/a	n/a	HALLWAY	Building	5	4	[0, 0, 0]	n/a	catFR1	0	R1374T
602.931	1.6	648502	WORD	n/a	wordpools/wordpool_categorized_EN.txt	CEILING	Building	6	4	[0, 0, 0]	n/a	catFR1	0	R1374T
604.531	0.916	650108	WORD_OFF	n/a	n/a	CEILING	Building	6	4	[0, 0, 0]	n/a	catFR1	0	R1374T
605.447	1.617	651017	WORD	n/a	wordpools/wordpool_categorized_EN.txt	IRON	Appliances	7	4	[0, 0, 0]	n/a	catFR1	0	R1374T
607.064	0.817	652637	WORD_OFF	n/a	n/a	IRON	Appliances	7	4	[0, 0, 0]	n/a	catFR1	0	R1374T
607.881	1.6	653448	WORD	n/a	wordpools/wordpool_categorized_EN.txt	DISHWASHER	Appliances	8	4	[0, 0, 0]	n/a	catFR1	0	R1374T
609.481	0.95	655054	WORD_OFF	n/a	n/a	DISHWASHER	Appliances	8	4	[0, 0, 0]	n/a	catFR1	0	R1374T
610.431	1.6	656005	WORD	n/a	wordpools/wordpool_categorized_EN.txt	RECLINER	Furniture	9	4	[0, 0, 0]	n/a	catFR1	0	R1374T
612.031	0.783	657597	WORD_OFF	n/a	n/a	RECLINER	Furniture	9	4	[0, 0, 0]	n/a	catFR1	0	R1374T
612.814	1.6	658394	WORD	n/a	wordpools/wordpool_categorized_EN.txt	SHELF	Furniture	10	4	[0, 0, 0]	n/a	catFR1	0	R1374T
614.414	1.0	659987	WORD_OFF	n/a	n/a	SHELF	Furniture	10	4	[0, 0, 0]	n/a	catFR1	0	R1374T
615.414	1.617	660992	WORD	n/a	wordpools/wordpool_categorized_EN.txt	ROOF	Building	11	4	[0, 0, 0]	n/a	catFR1	0	R1374T
617.031	0.849	662599	WORD_OFF	n/a	n/a	ROOF	Building	11	4	[0, 0, 0]	n/a	catFR1	0	R1374T
617.88	1.602	663451	WORD	n/a	wordpools/wordpool_categorized_EN.txt	DOOR	Building	12	4	[0, 0, 0]	n/a	catFR1	0	R1374T
619.482	0.001	665053	PROB	23.282	n/a	n/a	n/a	-999	4	[6, 5, 6]	18.0	catFR1	0	R1374T
619.483	0.0	665054	START	n/a	n/a	n/a	n/a	-999	4	[-999, -999, -999]	n/a	catFR1	0	R1374T
619.481	0.002	665058	WORD_OFF	n/a	n/a	DOOR	Building	12	4	[0, 0, 0]	n/a	catFR1	0	R1374T
619.483	0.0	665058	ENCODING_END	n/a	n/a	n/a	n/a	-999	4	[0, 0, 0]	n/a	catFR1	0	R1374T
619.483	23.298	665058	DISTRACT_START	n/a	n/a	n/a	n/a	-999	4	[0, 0, 0]	n/a	catFR1	0	R1374T
642.781	0.0	688349	DISTRACT_END	n/a	n/a	n/a	n/a	-999	4	[0, 0, 0]	n/a	catFR1	0	R1374T
642.781	1.033	688351	STOP	n/a	n/a	n/a	n/a	-999	4	[-999, -999, -999]	n/a	catFR1	0	R1374T
643.814	3.447	689383	REC_START	n/a	n/a	n/a	n/a	-999	4	[0, 0, 0]	n/a	catFR1	0	R1374T
647.261	1.736	692831	REC_WORD_VV	3.447	n/a	<>	n/a	-999	4	[0, 0, 0]	n/a	catFR1	0	R1374T
648.997	6.48	694567	REC_WORD_VV	5.183	n/a	<>	n/a	-999	4	[0, 0, 0]	n/a	catFR1	0	R1374T
655.477	0.817	701047	REC_WORD	11.663	n/a	SPINACH	Vegetables	-999	4	[0, 0, 0]	n/a	catFR1	0	R1374T
656.294	1.158	701864	REC_WORD	12.48	n/a	GIRAFFE	Zoo	-999	4	[0, 0, 0]	n/a	catFR1	0	R1374T
657.452	8.541	703021	REC_WORD	13.638	n/a	OXYGEN	n/a	-999	4	[0, 0, 0]	n/a	catFR1	0	R1374T
665.993	8.065	711562	REC_WORD	22.179	n/a	COW	Farmanimals	-999	4	[0, 0, 0]	n/a	catFR1	0	R1374T
674.058	5.689	719632	REC_END	n/a	n/a	n/a	n/a	-999	4	[0, 0, 0]	n/a	catFR1	0	R1374T
679.747	10.351	725319	COUNTDOWN_START	n/a	n/a	n/a	n/a	-999	5	[0, 0, 0]	n/a	catFR1	0	R1374T
690.098	0.0	735672	COUNTDOWN_END	n/a	n/a	n/a	n/a	-999	5	[0, 0, 0]	n/a	catFR1	0	R1374T
690.098	1.932	735672	ENCODING_START	n/a	n/a	n/a	n/a	-999	5	[0, 0, 0]	n/a	catFR1	0	R1374T
692.03	1.601	737600	WORD	n/a	wordpools/wordpool_categorized_EN.txt	RATCHET	Tools	1	5	[0, 0, 0]	n/a	catFR1	0	R1374T
693.631	0.917	739193	WORD_OFF	n/a	n/a	RATCHET	Tools	1	5	[0, 0, 0]	n/a	catFR1	0	R1374T
694.548	1.616	740115	WORD	n/a	wordpools/wordpool_categorized_EN.txt	SHOVEL	Tools	2	5	[0, 0, 0]	n/a	catFR1	0	R1374T
696.164	0.817	741736	WORD_OFF	n/a	n/a	SHOVEL	Tools	2	5	[0, 0, 0]	n/a	catFR1	0	R1374T
696.981	1.6	742546	WORD	n/a	wordpools/wordpool_categorized_EN.txt	ROOM	Building	3	5	[0, 0, 0]	n/a	catFR1	0	R1374T
698.581	0.917	744153	WORD_OFF	n/a	n/a	ROOM	Building	3	5	[0, 0, 0]	n/a	catFR1	0	R1374T
699.498	1.616	745061	WORD	n/a	wordpools/wordpool_categorized_EN.txt	ATTIC	Building	4	5	[0, 0, 0]	n/a	catFR1	0	R1374T
701.114	0.983	746682	WORD_OFF	n/a	n/a	ATTIC	Building	4	5	[0, 0, 0]	n/a	catFR1	0	R1374T
702.097	1.6	747660	WORD	n/a	wordpools/wordpool_categorized_EN.txt	LEMONADE	Beverages	5	5	[0, 0, 0]	n/a	catFR1	0	R1374T
703.697	0.884	749266	WORD_OFF	n/a	n/a	LEMONADE	Beverages	5	5	[0, 0, 0]	n/a	catFR1	0	R1374T
704.581	1.617	750147	WORD	n/a	wordpools/wordpool_categorized_EN.txt	CIDER	Beverages	6	5	[0, 0, 0]	n/a	catFR1	0	R1374T
706.198	0.8	751767	WORD_OFF	n/a	n/a	CIDER	Beverages	6	5	[0, 0, 0]	n/a	catFR1	0	R1374T
706.998	1.616	752564	WORD	n/a	wordpools/wordpool_categorized_EN.txt	SCREWDRIVER	Tools	7	5	[0, 0, 0]	n/a	catFR1	0	R1374T
708.614	0.784	754184	WORD_OFF	n/a	n/a	SCREWDRIVER	Tools	7	5	[0, 0, 0]	n/a	catFR1	0	R1374T
709.398	1.6	754967	WORD	n/a	wordpools/wordpool_categorized_EN.txt	CROWBAR	Tools	8	5	[0, 0, 0]	n/a	catFR1	0	R1374T
710.998	0.982	756560	WORD_OFF	n/a	n/a	CROWBAR	Tools	8	5	[0, 0, 0]	n/a	catFR1	0	R1374T
711.98	1.601	757552	WORD	n/a	wordpools/wordpool_categorized_EN.txt	WATER	Beverages	9	5	[0, 0, 0]	n/a	catFR1	0	R1374T
713.581	0.949	759144	WORD_OFF	n/a	n/a	WATER	Beverages	9	5	[0, 0, 0]	n/a	catFR1	0	R1374T
714.53	1.601	760095	WORD	n/a	wordpools/wordpool_categorized_EN.txt	JUICE	Beverages	10	5	[0, 0, 0]	n/a	catFR1	0	R1374T
716.131	0.9	761701	WORD_OFF	n/a	n/a	JUICE	Beverages	10	5	[0, 0, 0]	n/a	catFR1	0	R1374T
717.031	1.6	762596	WORD	n/a	wordpools/wordpool_categorized_EN.txt	FLOOR	Building	11	5	[0, 0, 0]	n/a	catFR1	0	R1374T
718.631	0.983	764202	WORD_OFF	n/a	n/a	FLOOR	Building	11	5	[0, 0, 0]	n/a	catFR1	0	R1374T
719.614	1.601	765180	WORD	n/a	wordpools/wordpool_categorized_EN.txt	WALL	Building	12	5	[0, 0, 0]	n/a	catFR1	0	R1374T
721.215	0.001	766781	PROB	15.232	n/a	n/a	n/a	-999	5	[7, 5, 5]	17.0	catFR1	0	R1374T
721.216	0.0	766782	START	n/a	n/a	n/a	n/a	-999	5	[-999, -999, -999]	n/a	catFR1	0	R1374T
721.214	0.002	766787	WORD_OFF	n/a	n/a	WALL	Building	12	5	[0, 0, 0]	n/a	catFR1	0	R1374T
721.216	0.0	766787	ENCODING_END	n/a	n/a	n/a	n/a	-999	5	[0, 0, 0]	n/a	catFR1	0	R1374T
721.216	15.248	766787	DISTRACT_START	n/a	n/a	n/a	n/a	-999	5	[0, 0, 0]	n/a	catFR1	0	R1374T
736.464	9.299	782029	PROB	9.283	n/a	n/a	n/a	-999	5	[1, 4, 1]	6.0	catFR1	0	R1374T
745.763	0.0	791322	DISTRACT_END	n/a	n/a	n/a	n/a	-999	5	[0, 0, 0]	n/a	catFR1	0	R1374T
745.763	1.251	791328	STOP	n/a	n/a	n/a	n/a	-999	5	[-999, -999, -999]	n/a	catFR1	0	R1374T
747.014	3.443	792579	REC_START	n/a	n/a	n/a	n/a	-999	5	[0, 0, 0]	n/a	catFR1	0	R1374T
750.457	2.159	796022	REC_WORD	3.443	n/a	RATCHET	Tools	1	5	[0, 0, 0]	n/a	catFR1	0	R1374T
752.616	2.893	798181	REC_WORD	5.602	n/a	VACUUM	Appliances	-999	5	[0, 0, 0]	n/a	catFR1	0	R1374T
755.509	1.199	801074	REC_WORD	8.495	n/a	FLOOR	Building	11	5	[0, 0, 0]	n/a	catFR1	0	R1374T
756.708	8.574	802272	REC_WORD	9.694	n/a	CEILING	Building	-999	5	[0, 0, 0]	n/a	catFR1	0	R1374T
765.282	11.95	810846	REC_WORD	18.268	n/a	WALL	Building	12	5	[0, 0, 0]	n/a	catFR1	0	R1374T
777.232	6.732	822800	REC_END	n/a	n/a	n/a	n/a	-999	5	[0, 0, 0]	n/a	catFR1	0	R1374T
783.964	10.351	829535	COUNTDOWN_START	n/a	n/a	n/a	n/a	-999	6	[0, 0, 0]	n/a	catFR1	0	R1374T
794.315	0.0	839874	COUNTDOWN_END	n/a	n/a	n/a	n/a	-999	6	[0, 0, 0]	n/a	catFR1	0	R1374T
794.315	1.883	839874	ENCODING_START	n/a	n/a	n/a	n/a	-999	6	[0, 0, 0]	n/a	catFR1	0	R1374T
796.198	1.6	841760	WORD	n/a	wordpools/wordpool_categorized_EN.txt	EYE	Bodyparts	1	6	[0, 0, 0]	n/a	catFR1	0	R1374T
797.798	0.965	843367	WORD_OFF	n/a	n/a	EYE	Bodyparts	1	6	[0, 0, 0]	n/a	catFR1	0	R1374T
798.763	1.6	844331	WORD	n/a	wordpools/wordpool_categorized_EN.txt	TOE	Bodyparts	2	6	[0, 0, 0]	n/a	catFR1	0	R1374T
800.363	0.868	845923	WORD_OFF	n/a	n/a	TOE	Bodyparts	2	6	[0, 0, 0]	n/a	catFR1	0	R1374T
801.231	1.617	846790	WORD	n/a	wordpools/wordpool_categorized_EN.txt	CLOUD	Weather	3	6	[0, 0, 0]	n/a	catFR1	0	R1374T
802.848	0.933	848410	WORD_OFF	n/a	n/a	CLOUD	Weather	3	6	[0, 0, 0]	n/a	catFR1	0	R1374T
803.781	1.616	849347	WORD	n/a	wordpools/wordpool_categorized_EN.txt	HURRICANE	Weather	4	6	[0, 0, 0]	n/a	catFR1	0	R1374T
805.397	0.917	850953	WORD_OFF	n/a	n/a	HURRICANE	Weather	4	6	[0, 0, 0]	n/a	catFR1	0	R1374T
806.314	1.6	851875	WORD	n/a	wordpools/wordpool_categorized_EN.txt	PIANO	Instruments	5	6	[0, 0, 0]	n/a	catFR1	0	R1374T
807.914	0.784	853482	WORD_OFF	n/a	n/a	PIANO	Instruments	5	6	[0, 0, 0]	n/a	catFR1	0	R1374T
808.698	1.6	854265	WORD	n/a	wordpools/wordpool_categorized_EN.txt	ORGAN	Instruments	6	6	[0, 0, 0]	n/a	catFR1	0	R1374T
810.298	0.883	855857	WORD_OFF	n/a	n/a	ORGAN	Instruments	6	6	[0, 0, 0]	n/a	catFR1	0	R1374T
811.181	1.617	856738	WORD	n/a	wordpools/wordpool_categorized_EN.txt	ELBOW	Bodyparts	7	6	[0, 0, 0]	n/a	catFR1	0	R1374T
812.798	0.983	858358	WORD_OFF	n/a	n/a	ELBOW	Bodyparts	7	6	[0, 0, 0]	n/a	catFR1	0	R1374T
813.781	1.617	859336	WORD	n/a	wordpools/wordpool_categorized_EN.txt	FINGERS	Bodyparts	8	6	[0, 0, 0]	n/a	catFR1	0	R1374T
815.398	0.949	860957	WORD_OFF	n/a	n/a	FINGERS	Bodyparts	8	6	[0, 0, 0]	n/a	catFR1	0	R1374T
816.347	1.601	861907	WORD	n/a	wordpools/wordpool_categorized_EN.txt	HUMIDITY	Weather	9	6	[0, 0, 0]	n/a	catFR1	0	R1374T
817.948	0.983	863514	WORD_OFF	n/a	n/a	HUMIDITY	Weather	9	6	[0, 0, 0]	n/a	catFR1	0	R1374T
818.931	1.6	864492	WORD	n/a	wordpools/wordpool_categorized_EN.txt	THUNDER	Weather	10	6	[0, 0, 0]	n/a	catFR1	0	R1374T
820.531	0.917	866099	WORD_OFF	n/a	n/a	THUNDER	Weather	10	6	[0, 0, 0]	n/a	catFR1	0	R1374T
821.448	1.616	867007	WORD	n/a	wordpools/wordpool_categorized_EN.txt	DRUM	Instruments	11	6	[0, 0, 0]	n/a	catFR1	0	R1374T
823.064	1.0	868628	WORD_OFF	n/a	n/a	DRUM	Instruments	11	6	[0, 0, 0]	n/a	catFR1	0	R1374T
824.064	1.6	869620	WORD	n/a	wordpools/wordpool_categorized_EN.txt	CELLO	Instruments	12	6	[0, 0, 0]	n/a	catFR1	0	R1374T
825.664	0.002	871226	WORD_OFF	n/a	n/a	CELLO	Instruments	12	6	[0, 0, 0]	n/a	catFR1	0	R1374T
825.666	0.0	871226	ENCODING_END	n/a	n/a	n/a	n/a	-999	6	[0, 0, 0]	n/a	catFR1	0	R1374T
825.666	0.0	871226	DISTRACT_START	n/a	n/a	n/a	n/a	-999	6	[0, 0, 0]	n/a	catFR1	0	R1374T
825.665	0.001	871226	PROB	17.933	n/a	n/a	n/a	-999	6	[3, 6, 1]	10.0	catFR1	0	R1374T
825.666	17.949	871227	START	n/a	n/a	n/a	n/a	-999	6	[-999, -999, -999]	n/a	catFR1	0	R1374T
843.615	11.483	889175	PROB	11.465	n/a	n/a	n/a	-999	6	[5, 4, 4]	12.0	catFR1	0	R1374T
855.098	0.0	900651	DISTRACT_END	n/a	n/a	n/a	n/a	-999	6	[0, 0, 0]	n/a	catFR1	0	R1374T
855.098	1.232	900657	STOP	n/a	n/a	n/a	n/a	-999	6	[-999, -999, -999]	n/a	catFR1	0	R1374T
856.33	3.932	901895	REC_START	n/a	n/a	n/a	n/a	-999	6	[0, 0, 0]	n/a	catFR1	0	R1374T
860.262	1.628	905821	REC_WORD	3.932	n/a	RATCHET	Tools	-999	6	[0, 0, 0]	n/a	catFR1	0	R1374T
861.89	0.84	907449	REC_WORD	5.56	n/a	COVER	n/a	-999	6	[0, 0, 0]	n/a	catFR1	0	R1374T
862.73	0.973	908289	REC_WORD	6.4	n/a	CEILING	Building	-999	6	[0, 0, 0]	n/a	catFR1	0	R1374T
863.703	11.735	909262	REC_WORD	7.373	n/a	OXYGEN	n/a	-999	6	[0, 0, 0]	n/a	catFR1	0	R1374T
875.438	11.132	920996	REC_WORD	19.108	n/a	CELLO	Instruments	12	6	[0, 0, 0]	n/a	catFR1	0	R1374T
886.57	9.346	932130	REC_END	n/a	n/a	n/a	n/a	-999	6	[0, 0, 0]	n/a	catFR1	0	R1374T
895.916	10.348	941477	COUNTDOWN_START	n/a	n/a	n/a	n/a	-999	7	[0, 0, 0]	n/a	catFR1	0	R1374T
906.264	0.001	951816	COUNTDOWN_END	n/a	n/a	n/a	n/a	-999	7	[0, 0, 0]	n/a	catFR1	0	R1374T
906.265	2.283	951830	ENCODING_START	n/a	n/a	n/a	n/a	-999	7	[0, 0, 0]	n/a	catFR1	0	R1374T
908.548	1.616	954107	WORD	n/a	wordpools/wordpool_categorized_EN.txt	HILLS	Landscapes	1	7	[0, 0, 0]	n/a	catFR1	0	R1374T
910.164	0.933	955728	WORD_OFF	n/a	n/a	HILLS	Landscapes	1	7	[0, 0, 0]	n/a	catFR1	0	R1374T
911.097	1.6	956650	WORD	n/a	wordpools/wordpool_categorized_EN.txt	STREAM	Landscapes	2	7	[0, 0, 0]	n/a	catFR1	0	R1374T
912.697	0.85	958257	WORD_OFF	n/a	n/a	STREAM	Landscapes	2	7	[0, 0, 0]	n/a	catFR1	0	R1374T
913.547	1.6	959109	WORD	n/a	wordpools/wordpool_categorized_EN.txt	JEEP	Vehicles	3	7	[0, 0, 0]	n/a	catFR1	0	R1374T
915.147	1.0	960702	WORD_OFF	n/a	n/a	JEEP	Vehicles	3	7	[0, 0, 0]	n/a	catFR1	0	R1374T
916.147	1.617	961708	WORD	n/a	wordpools/wordpool_categorized_EN.txt	MOPED	Vehicles	4	7	[0, 0, 0]	n/a	catFR1	0	R1374T
917.764	0.983	963315	WORD_OFF	n/a	n/a	MOPED	Vehicles	4	7	[0, 0, 0]	n/a	catFR1	0	R1374T
918.747	1.6	964307	WORD	n/a	wordpools/wordpool_categorized_EN.txt	DRYER	Appliances	5	7	[0, 0, 0]	n/a	catFR1	0	R1374T
920.347	0.95	965899	WORD_OFF	n/a	n/a	DRYER	Appliances	5	7	[0, 0, 0]	n/a	catFR1	0	R1374T
921.297	1.617	966850	WORD	n/a	wordpools/wordpool_categorized_EN.txt	STOVE	Appliances	6	7	[0, 0, 0]	n/a	catFR1	0	R1374T
922.914	0.883	968470	WORD_OFF	n/a	n/a	STOVE	Appliances	6	7	[0, 0, 0]	n/a	catFR1	0	R1374T
923.797	1.617	969350	WORD	n/a	wordpools/wordpool_categorized_EN.txt	SCOOTER	Vehicles	7	7	[0, 0, 0]	n/a	catFR1	0	R1374T
925.414	0.832	970971	WORD_OFF	n/a	n/a	SCOOTER	Vehicles	7	7	[0, 0, 0]	n/a	catFR1	0	R1374T
926.246	1.601	971810	WORD	n/a	wordpools/wordpool_categorized_EN.txt	TRAIN	Vehicles	8	7	[0, 0, 0]	n/a	catFR1	0	R1374T
927.847	0.983	973402	WORD_OFF	n/a	n/a	TRAIN	Vehicles	8	7	[0, 0, 0]	n/a	catFR1	0	R1374T
928.83	1.617	974380	WORD	n/a	wordpools/wordpool_categorized_EN.txt	WASHER	Appliances	9	7	[0, 0, 0]	n/a	catFR1	0	R1374T
930.447	0.883	976001	WORD_OFF	n/a	n/a	WASHER	Appliances	9	7	[0, 0, 0]	n/a	catFR1	0	R1374T
931.33	1.6	976881	WORD	n/a	wordpools/wordpool_categorized_EN.txt	FREEZER	Appliances	10	7	[0, 0, 0]	n/a	catFR1	0	R1374T
932.93	0.867	978488	WORD_OFF	n/a	n/a	FREEZER	Appliances	10	7	[0, 0, 0]	n/a	catFR1	0	R1374T
933.797	1.617	979354	WORD	n/a	wordpools/wordpool_categorized_EN.txt	CREEK	Landscapes	11	7	[0, 0, 0]	n/a	catFR1	0	R1374T
935.414	0.949	980975	WORD_OFF	n/a	n/a	CREEK	Landscapes	11	7	[0, 0, 0]	n/a	catFR1	0	R1374T
936.363	1.6	981925	WORD	n/a	wordpools/wordpool_categorized_EN.txt	MOUNTAIN	Landscapes	12	7	[0, 0, 0]	n/a	catFR1	0	R1374T
937.963	0.002	983518	WORD_OFF	n/a	n/a	MOUNTAIN	Landscapes	12	7	[0, 0, 0]	n/a	catFR1	0	R1374T
937.965	0.0	983518	ENCODING_END	n/a	n/a	n/a	n/a	-999	7	[0, 0, 0]	n/a	catFR1	0	R1374T
937.965	0.0	983518	DISTRACT_START	n/a	n/a	n/a	n/a	-999	7	[0, 0, 0]	n/a	catFR1	0	R1374T
937.965	0.0	983520	START	n/a	n/a	n/a	n/a	-999	7	[-999, -999, -999]	n/a	catFR1	0	R1374T
937.965	12.468	983520	PROB	12.452	n/a	n/a	n/a	-999	7	[2, 4, 7]	13.0	catFR1	0	R1374T
950.433	10.431	995988	PROB	10.415	n/a	n/a	n/a	-999	7	[2, 6, 4]	12.0	catFR1	0	R1374T
960.864	0.0	1006418	DISTRACT_END	n/a	n/a	n/a	n/a	-999	7	[0, 0, 0]	n/a	catFR1	0	R1374T
960.864	1.3	1006418	STOP	n/a	n/a	n/a	n/a	-999	7	[-999, -999, -999]	n/a	catFR1	0	R1374T
962.164	6.21	1007717	REC_START	n/a	n/a	n/a	n/a	-999	7	[0, 0, 0]	n/a	catFR1	0	R1374T
968.374	2.426	1013928	REC_WORD	6.21	n/a	HILLS	Landscapes	1	7	[0, 0, 0]	n/a	catFR1	0	R1374T
970.8	1.779	1016354	REC_WORD	8.636	n/a	MOUNTAIN	Landscapes	12	7	[0, 0, 0]	n/a	catFR1	0	R1374T
972.579	2.662	1018133	REC_WORD	10.415	n/a	TRAILS	n/a	-999	7	[0, 0, 0]	n/a	catFR1	0	R1374T
975.241	1.572	1020794	REC_WORD	13.077	n/a	COVER	n/a	-999	7	[0, 0, 0]	n/a	catFR1	0	R1374T
976.813	15.592	1022366	REC_WORD	14.649	n/a	OXYGEN	n/a	-999	7	[0, 0, 0]	n/a	catFR1	0	R1374T
992.405	6.376	1037952	REC_END	n/a	n/a	n/a	n/a	-999	7	[0, 0, 0]	n/a	catFR1	0	R1374T
998.781	10.35	1044337	COUNTDOWN_START	n/a	n/a	n/a	n/a	-999	8	[0, 0, 0]	n/a	catFR1	0	R1374T
1009.131	0.0	1054690	COUNTDOWN_END	n/a	n/a	n/a	n/a	-999	8	[0, 0, 0]	n/a	catFR1	0	R1374T
1009.131	2.0	1054690	ENCODING_START	n/a	n/a	n/a	n/a	-999	8	[0, 0, 0]	n/a	catFR1	0	R1374T
1011.131	1.599	1056688	WORD	n/a	wordpools/wordpool_categorized_EN.txt	CHEESECAKE	Desserts	1	8	[0, 0, 0]	n/a	catFR1	0	R1374T
1012.73	0.884	1058281	WORD_OFF	n/a	n/a	CHEESECAKE	Desserts	1	8	[0, 0, 0]	n/a	catFR1	0	R1374T
1013.614	1.616	1059161	WORD	n/a	wordpools/wordpool_categorized_EN.txt	CUPCAKE	Desserts	2	8	[0, 0, 0]	n/a	catFR1	0	R1374T
1015.23	0.984	1060782	WORD_OFF	n/a	n/a	CUPCAKE	Desserts	2	8	[0, 0, 0]	n/a	catFR1	0	R1374T
1016.214	1.6	1061760	WORD	n/a	wordpools/wordpool_categorized_EN.txt	MARIGOLD	Flowers	3	8	[0, 0, 0]	n/a	catFR1	0	R1374T
1017.814	0.817	1063367	WORD_OFF	n/a	n/a	MARIGOLD	Flowers	3	8	[0, 0, 0]	n/a	catFR1	0	R1374T
1018.631	1.616	1064177	WORD	n/a	wordpools/wordpool_categorized_EN.txt	DAFFODIL	Flowers	4	8	[0, 0, 0]	n/a	catFR1	0	R1374T
1020.247	0.983	1065798	WORD_OFF	n/a	n/a	DAFFODIL	Flowers	4	8	[0, 0, 0]	n/a	catFR1	0	R1374T
1021.23	1.617	1066776	WORD	n/a	wordpools/wordpool_categorized_EN.txt	TRUCK	Vehicles	5	8	[0, 0, 0]	n/a	catFR1	0	R1374T
1022.847	0.767	1068397	WORD_OFF	n/a	n/a	TRUCK	Vehicles	5	8	[0, 0, 0]	n/a	catFR1	0	R1374T
1023.614	1.6	1069165	WORD	n/a	wordpools/wordpool_categorized_EN.txt	VAN	Vehicles	6	8	[0, 0, 0]	n/a	catFR1	0	R1374T
1025.214	0.816	1070758	WORD_OFF	n/a	n/a	VAN	Vehicles	6	8	[0, 0, 0]	n/a	catFR1	0	R1374T
1026.03	1.609	1071582	WORD	n/a	wordpools/wordpool_categorized_EN.txt	BROWNIES	Desserts	7	8	[0, 0, 0]	n/a	catFR1	0	R1374T
1027.639	0.992	1073189	WORD_OFF	n/a	n/a	BROWNIES	Desserts	7	8	[0, 0, 0]	n/a	catFR1	0	R1374T
1028.631	1.599	1074181	WORD	n/a	wordpools/wordpool_categorized_EN.txt	CAKE	Desserts	8	8	[0, 0, 0]	n/a	catFR1	0	R1374T
1030.23	0.767	1075788	WORD_OFF	n/a	n/a	CAKE	Desserts	8	8	[0, 0, 0]	n/a	catFR1	0	R1374T
1030.997	1.6	1076542	WORD	n/a	wordpools/wordpool_categorized_EN.txt	LILY	Flowers	9	8	[0, 0, 0]	n/a	catFR1	0	R1374T
1032.597	0.983	1078149	WORD_OFF	n/a	n/a	LILY	Flowers	9	8	[0, 0, 0]	n/a	catFR1	0	R1374T
1033.58	1.6	1079127	WORD	n/a	wordpools/wordpool_categorized_EN.txt	ROSE	Flowers	10	8	[0, 0, 0]	n/a	catFR1	0	R1374T
1035.18	0.917	1080734	WORD_OFF	n/a	n/a	ROSE	Flowers	10	8	[0, 0, 0]	n/a	catFR1	0	R1374T
1036.097	1.601	1081642	WORD	n/a	wordpools/wordpool_categorized_EN.txt	BIKE	Vehicles	11	8	[0, 0, 0]	n/a	catFR1	0	R1374T
1037.698	0.767	1083249	WORD_OFF	n/a	n/a	BIKE	Vehicles	11	8	[0, 0, 0]	n/a	catFR1	0	R1374T
1038.465	1.6	1084017	WORD	n/a	wordpools/wordpool_categorized_EN.txt	BUS	Vehicles	12	8	[0, 0, 0]	n/a	catFR1	0	R1374T
1040.065	0.001	1085610	WORD_OFF	n/a	n/a	BUS	Vehicles	12	8	[0, 0, 0]	n/a	catFR1	0	R1374T
1040.066	0.001	1085616	PROB	15.415	n/a	n/a	n/a	-999	8	[6, 3, 6]	15.0	catFR1	0	R1374T
1040.067	0.0	1085617	START	n/a	n/a	n/a	n/a	-999	8	[-999, -999, -999]	n/a	catFR1	0	R1374T
1040.067	0.0	1085624	ENCODING_END	n/a	n/a	n/a	n/a	-999	8	[0, 0, 0]	n/a	catFR1	0	R1374T
1040.067	15.431	1085624	DISTRACT_START	n/a	n/a	n/a	n/a	-999	8	[0, 0, 0]	n/a	catFR1	0	R1374T
1055.498	12.95	1101047	PROB	12.933	n/a	n/a	n/a	-999	8	[1, 1, 5]	7.0	catFR1	0	R1374T
1068.448	0.0	1113997	STOP	n/a	n/a	n/a	n/a	-999	8	[-999, -999, -999]	n/a	catFR1	0	R1374T
1068.448	1.2	1114001	DISTRACT_END	n/a	n/a	n/a	n/a	-999	8	[0, 0, 0]	n/a	catFR1	0	R1374T
1069.648	2.891	1115202	REC_START	n/a	n/a	n/a	n/a	-999	8	[0, 0, 0]	n/a	catFR1	0	R1374T
1072.539	0.867	1118088	REC_WORD	2.891	n/a	CHEESECAKE	Desserts	1	8	[0, 0, 0]	n/a	catFR1	0	R1374T
1073.406	1.833	1118955	REC_WORD	3.758	n/a	CUPCAKE	Desserts	2	8	[0, 0, 0]	n/a	catFR1	0	R1374T
1075.239	15.421	1120787	REC_WORD	5.591	n/a	VAN	Vehicles	6	8	[0, 0, 0]	n/a	catFR1	0	R1374T
1090.66	9.218	1136208	REC_WORD	21.012	n/a	OXYGEN	n/a	-999	8	[0, 0, 0]	n/a	catFR1	0	R1374T
1099.878	16.336	1145423	REC_END	n/a	n/a	n/a	n/a	-999	8	[0, 0, 0]	n/a	catFR1	0	R1374T
1116.214	10.351	1161756	COUNTDOWN_START	n/a	n/a	n/a	n/a	-999	9	[0, 0, 0]	n/a	catFR1	0	R1374T
1126.565	0.0	1172110	COUNTDOWN_END	n/a	n/a	n/a	n/a	-999	9	[0, 0, 0]	n/a	catFR1	0	R1374T
1126.565	2.117	1172110	ENCODING_START	n/a	n/a	n/a	n/a	-999	9	[0, 0, 0]	n/a	catFR1	0	R1374T
1128.682	1.616	1174233	WORD	n/a	wordpools/wordpool_categorized_EN.txt	CHEETAH	Zoo	1	9	[0, 0, 0]	n/a	catFR1	0	R1374T
1130.298	0.933	1175840	WORD_OFF	n/a	n/a	CHEETAH	Zoo	1	9	[0, 0, 0]	n/a	catFR1	0	R1374T
1131.231	1.616	1176776	WORD	n/a	wordpools/wordpool_categorized_EN.txt	BEAR	Zoo	2	9	[0, 0, 0]	n/a	catFR1	0	R1374T
1132.847	0.95	1178397	WORD_OFF	n/a	n/a	BEAR	Zoo	2	9	[0, 0, 0]	n/a	catFR1	0	R1374T
1133.797	1.6	1179347	WORD	n/a	wordpools/wordpool_categorized_EN.txt	SUNFLOWER	Flowers	3	9	[0, 0, 0]	n/a	catFR1	0	R1374T
1135.397	1.0	1180940	WORD_OFF	n/a	n/a	SUNFLOWER	Flowers	3	9	[0, 0, 0]	n/a	catFR1	0	R1374T
1136.397	1.601	1181946	WORD	n/a	wordpools/wordpool_categorized_EN.txt	ORCHID	Flowers	4	9	[0, 0, 0]	n/a	catFR1	0	R1374T
1137.998	0.8	1183538	WORD_OFF	n/a	n/a	ORCHID	Flowers	4	9	[0, 0, 0]	n/a	catFR1	0	R1374T
1138.798	1.6	1184349	WORD	n/a	wordpools/wordpool_categorized_EN.txt	BLENDER	Appliances	5	9	[0, 0, 0]	n/a	catFR1	0	R1374T
1140.398	0.833	1185942	WORD_OFF	n/a	n/a	BLENDER	Appliances	5	9	[0, 0, 0]	n/a	catFR1	0	R1374T
1141.231	1.6	1186780	WORD	n/a	wordpools/wordpool_categorized_EN.txt	TOASTER	Appliances	6	9	[0, 0, 0]	n/a	catFR1	0	R1374T
1142.831	0.85	1188373	WORD_OFF	n/a	n/a	TOASTER	Appliances	6	9	[0, 0, 0]	n/a	catFR1	0	R1374T
1143.681	1.6	1189225	WORD	n/a	wordpools/wordpool_categorized_EN.txt	MONKEY	Zoo	7	9	[0, 0, 0]	n/a	catFR1	0	R1374T
1145.281	0.983	1190832	WORD_OFF	n/a	n/a	MONKEY	Zoo	7	9	[0, 0, 0]	n/a	catFR1	0	R1374T
1146.264	1.6	1191810	WORD	n/a	wordpools/wordpool_categorized_EN.txt	TIGER	Zoo	8	9	[0, 0, 0]	n/a	catFR1	0	R1374T
1147.864	0.917	1193403	WORD_OFF	n/a	n/a	TIGER	Zoo	8	9	[0, 0, 0]	n/a	catFR1	0	R1374T
1148.781	1.6	1194325	WORD	n/a	wordpools/wordpool_categorized_EN.txt	MIXER	Appliances	9	9	[0, 0, 0]	n/a	catFR1	0	R1374T
1150.381	0.817	1195931	WORD_OFF	n/a	n/a	MIXER	Appliances	9	9	[0, 0, 0]	n/a	catFR1	0	R1374T
1151.198	1.6	1196742	WORD	n/a	wordpools/wordpool_categorized_EN.txt	OVEN	Appliances	10	9	[0, 0, 0]	n/a	catFR1	0	R1374T
1152.798	0.783	1198349	WORD_OFF	n/a	n/a	OVEN	Appliances	10	9	[0, 0, 0]	n/a	catFR1	0	R1374T
1153.581	1.6	1199131	WORD	n/a	wordpools/wordpool_categorized_EN.txt	LILAC	Flowers	11	9	[0, 0, 0]	n/a	catFR1	0	R1374T
1155.181	0.85	1200724	WORD_OFF	n/a	n/a	LILAC	Flowers	11	9	[0, 0, 0]	n/a	catFR1	0	R1374T
1156.031	1.601	1201576	WORD	n/a	wordpools/wordpool_categorized_EN.txt	CARNATION	Flowers	12	9	[0, 0, 0]	n/a	catFR1	0	R1374T
1157.632	0.002	1203176	PROB	24.816	n/a	n/a	n/a	-999	9	[7, 2, 6]	15.0	catFR1	0	R1374T
1157.634	0.0	1203178	START	n/a	n/a	n/a	n/a	-999	9	[-999, -999, -999]	n/a	catFR1	0	R1374T
1157.632	0.002	1203183	WORD_OFF	n/a	n/a	CARNATION	Flowers	12	9	[0, 0, 0]	n/a	catFR1	0	R1374T
1157.634	0.0	1203183	ENCODING_END	n/a	n/a	n/a	n/a	-999	9	[0, 0, 0]	n/a	catFR1	0	R1374T
1157.634	24.83	1203183	DISTRACT_START	n/a	n/a	n/a	n/a	-999	9	[0, 0, 0]	n/a	catFR1	0	R1374T
1182.464	0.0	1228007	STOP	n/a	n/a	n/a	n/a	-999	9	[-999, -999, -999]	n/a	catFR1	0	R1374T
1182.464	1.333	1228011	DISTRACT_END	n/a	n/a	n/a	n/a	-999	9	[0, 0, 0]	n/a	catFR1	0	R1374T
1183.797	3.718	1229338	REC_START	n/a	n/a	n/a	n/a	-999	9	[0, 0, 0]	n/a	catFR1	0	R1374T
1187.515	0.438	1233058	REC_WORD	3.718	n/a	CHEETAH	Zoo	1	9	[0, 0, 0]	n/a	catFR1	0	R1374T
1187.953	0.428	1233496	REC_WORD	4.156	n/a	BEAR	Zoo	2	9	[0, 0, 0]	n/a	catFR1	0	R1374T
1188.381	0.534	1233924	REC_WORD	4.584	n/a	MONKEY	Zoo	7	9	[0, 0, 0]	n/a	catFR1	0	R1374T
1188.915	25.119	1234458	REC_WORD	5.118	n/a	MIXER	Appliances	9	9	[0, 0, 0]	n/a	catFR1	0	R1374T
1214.034	5.43	1259573	REC_END	n/a	n/a	n/a	n/a	-999	9	[0, 0, 0]	n/a	catFR1	0	R1374T
1219.464	10.351	1265008	COUNTDOWN_START	n/a	n/a	n/a	n/a	-999	10	[0, 0, 0]	n/a	catFR1	0	R1374T
1229.815	0.0	1275361	COUNTDOWN_END	n/a	n/a	n/a	n/a	-999	10	[0, 0, 0]	n/a	catFR1	0	R1374T
1229.815	2.083	1275361	ENCODING_START	n/a	n/a	n/a	n/a	-999	10	[0, 0, 0]	n/a	catFR1	0	R1374T
1231.898	1.6	1277443	WORD	n/a	wordpools/wordpool_categorized_EN.txt	WHALE	Oceananimals	1	10	[0, 0, 0]	n/a	catFR1	0	R1374T
1233.498	0.883	1279036	WORD_OFF	n/a	n/a	WHALE	Oceananimals	1	10	[0, 0, 0]	n/a	catFR1	0	R1374T
1234.381	1.6	1279916	WORD	n/a	wordpools/wordpool_categorized_EN.txt	FISH	Oceananimals	2	10	[0, 0, 0]	n/a	catFR1	0	R1374T
1235.981	0.833	1281523	WORD_OFF	n/a	n/a	FISH	Oceananimals	2	10	[0, 0, 0]	n/a	catFR1	0	R1374T
1236.814	1.6	1282361	WORD	n/a	wordpools/wordpool_categorized_EN.txt	GORILLA	Zoo	3	10	[0, 0, 0]	n/a	catFR1	0	R1374T
1238.414	0.984	1283954	WORD_OFF	n/a	n/a	GORILLA	Zoo	3	10	[0, 0, 0]	n/a	catFR1	0	R1374T
1239.398	1.6	1284932	WORD	n/a	wordpools/wordpool_categorized_EN.txt	LION	Zoo	4	10	[0, 0, 0]	n/a	catFR1	0	R1374T
1240.998	0.966	1286539	WORD_OFF	n/a	n/a	LION	Zoo	4	10	[0, 0, 0]	n/a	catFR1	0	R1374T
1241.964	1.6	1287503	WORD	n/a	wordpools/wordpool_categorized_EN.txt	CORKSCREW	Kitchentools	5	10	[0, 0, 0]	n/a	catFR1	0	R1374T
1243.564	0.9	1289110	WORD_OFF	n/a	n/a	CORKSCREW	Kitchentools	5	10	[0, 0, 0]	n/a	catFR1	0	R1374T
1244.464	1.6	1290004	WORD	n/a	wordpools/wordpool_categorized_EN.txt	SPATULA	Kitchentools	6	10	[0, 0, 0]	n/a	catFR1	0	R1374T
1246.064	0.817	1291610	WORD_OFF	n/a	n/a	SPATULA	Kitchentools	6	10	[0, 0, 0]	n/a	catFR1	0	R1374T
1246.881	1.617	1292421	WORD	n/a	wordpools/wordpool_categorized_EN.txt	CRAB	Oceananimals	7	10	[0, 0, 0]	n/a	catFR1	0	R1374T
1248.498	0.95	1294042	WORD_OFF	n/a	n/a	CRAB	Oceananimals	7	10	[0, 0, 0]	n/a	catFR1	0	R1374T
1249.448	1.6	1294992	WORD	n/a	wordpools/wordpool_categorized_EN.txt	LOBSTER	Oceananimals	8	10	[0, 0, 0]	n/a	catFR1	0	R1374T
1251.048	0.882	1296584	WORD_OFF	n/a	n/a	LOBSTER	Oceananimals	8	10	[0, 0, 0]	n/a	catFR1	0	R1374T
1251.93	1.618	1297465	WORD	n/a	wordpools/wordpool_categorized_EN.txt	ELEPHANT	Zoo	9	10	[0, 0, 0]	n/a	catFR1	0	R1374T
1253.548	0.899	1299085	WORD_OFF	n/a	n/a	ELEPHANT	Zoo	9	10	[0, 0, 0]	n/a	catFR1	0	R1374T
1254.447	1.6	1299994	WORD	n/a	wordpools/wordpool_categorized_EN.txt	CHIMPANZEE	Zoo	10	10	[0, 0, 0]	n/a	catFR1	0	R1374T
1256.047	0.833	1301586	WORD_OFF	n/a	n/a	CHIMPANZEE	Zoo	10	10	[0, 0, 0]	n/a	catFR1	0	R1374T
1256.88	1.601	1302425	WORD	n/a	wordpools/wordpool_categorized_EN.txt	COLANDER	Kitchentools	11	10	[0, 0, 0]	n/a	catFR1	0	R1374T
1258.481	0.767	1304017	WORD_OFF	n/a	n/a	COLANDER	Kitchentools	11	10	[0, 0, 0]	n/a	catFR1	0	R1374T
1259.248	1.601	1304786	WORD	n/a	wordpools/wordpool_categorized_EN.txt	GRATER	Kitchentools	12	10	[0, 0, 0]	n/a	catFR1	0	R1374T
1260.849	0.001	1306388	PROB	15.565	n/a	n/a	n/a	-999	10	[8, 8, 2]	18.0	catFR1	0	R1374T
1260.85	0.0	1306389	START	n/a	n/a	n/a	n/a	-999	10	[-999, -999, -999]	n/a	catFR1	0	R1374T
1260.848	0.002	1306393	WORD_OFF	n/a	n/a	GRATER	Kitchentools	12	10	[0, 0, 0]	n/a	catFR1	0	R1374T
1260.85	0.0	1306393	ENCODING_END	n/a	n/a	n/a	n/a	-999	10	[0, 0, 0]	n/a	catFR1	0	R1374T
1260.85	15.581	1306393	DISTRACT_START	n/a	n/a	n/a	n/a	-999	10	[0, 0, 0]	n/a	catFR1	0	R1374T
1276.431	6.533	1321969	PROB	6.516	n/a	n/a	n/a	-999	10	[1, 7, 6]	14.0	catFR1	0	R1374T
1282.964	0.0	1328496	DISTRACT_END	n/a	n/a	n/a	n/a	-999	10	[0, 0, 0]	n/a	catFR1	0	R1374T
1282.964	1.25	1328502	STOP	n/a	n/a	n/a	n/a	-999	10	[-999, -999, -999]	n/a	catFR1	0	R1374T
1284.214	1.466	1329754	REC_START	n/a	n/a	n/a	n/a	-999	10	[0, 0, 0]	n/a	catFR1	0	R1374T
1285.68	0.554	1331218	REC_WORD	1.466	n/a	WHALE	Oceananimals	1	10	[0, 0, 0]	n/a	catFR1	0	R1374T
1286.234	0.806	1331772	REC_WORD	2.02	n/a	FISH	Oceananimals	2	10	[0, 0, 0]	n/a	catFR1	0	R1374T
1287.04	0.987	1332578	REC_WORD	2.826	n/a	GORILLA	Zoo	3	10	[0, 0, 0]	n/a	catFR1	0	R1374T
1288.027	0.811	1333565	REC_WORD	3.813	n/a	OXYGEN	n/a	-999	10	[0, 0, 0]	n/a	catFR1	0	R1374T
1288.838	25.62	1334376	REC_WORD	4.624	n/a	MONKEY	Zoo	-999	10	[0, 0, 0]	n/a	catFR1	0	R1374T
1314.458	5.772	1359989	REC_END	n/a	n/a	n/a	n/a	-999	10	[0, 0, 0]	n/a	catFR1	0	R1374T
1320.23	10.352	1365773	COUNTDOWN_START	n/a	n/a	n/a	n/a	-999	11	[0, 0, 0]	n/a	catFR1	0	R1374T
1330.582	0.0	1376112	COUNTDOWN_END	n/a	n/a	n/a	n/a	-999	11	[0, 0, 0]	n/a	catFR1	0	R1374T
1330.582	2.299	1376126	ENCODING_START	n/a	n/a	n/a	n/a	-999	11	[0, 0, 0]	n/a	catFR1	0	R1374T
1332.881	1.617	1378417	WORD	n/a	wordpools/wordpool_categorized_EN.txt	JELLO	Desserts	1	11	[0, 0, 0]	n/a	catFR1	0	R1374T
1334.498	0.883	1380038	WORD_OFF	n/a	n/a	JELLO	Desserts	1	11	[0, 0, 0]	n/a	catFR1	0	R1374T
1335.381	1.6	1380918	WORD	n/a	wordpools/wordpool_categorized_EN.txt	PIE	Desserts	2	11	[0, 0, 0]	n/a	catFR1	0	R1374T
1336.981	0.983	1382511	WORD_OFF	n/a	n/a	PIE	Desserts	2	11	[0, 0, 0]	n/a	catFR1	0	R1374T
1337.964	1.602	1383503	WORD	n/a	wordpools/wordpool_categorized_EN.txt	SHRIMP	Oceananimals	3	11	[0, 0, 0]	n/a	catFR1	0	R1374T
1339.566	0.864	1385096	WORD_OFF	n/a	n/a	SHRIMP	Oceananimals	3	11	[0, 0, 0]	n/a	catFR1	0	R1374T
1340.43	1.601	1385962	WORD	n/a	wordpools/wordpool_categorized_EN.txt	PLANKTON	Oceananimals	4	11	[0, 0, 0]	n/a	catFR1	0	R1374T
1342.031	0.966	1387569	WORD_OFF	n/a	n/a	PLANKTON	Oceananimals	4	11	[0, 0, 0]	n/a	catFR1	0	R1374T
1342.997	1.601	1388533	WORD	n/a	wordpools/wordpool_categorized_EN.txt	PETUNIA	Flowers	5	11	[0, 0, 0]	n/a	catFR1	0	R1374T
1344.598	0.85	1390130	WORD_OFF	n/a	n/a	PETUNIA	Flowers	5	11	[0, 0, 0]	n/a	catFR1	0	R1374T
1345.448	1.6	1390978	WORD	n/a	wordpools/wordpool_categorized_EN.txt	DAISY	Flowers	6	11	[0, 0, 0]	n/a	catFR1	0	R1374T
1347.048	0.916	1392585	WORD_OFF	n/a	n/a	DAISY	Flowers	6	11	[0, 0, 0]	n/a	catFR1	0	R1374T
1347.964	1.617	1393493	WORD	n/a	wordpools/wordpool_categorized_EN.txt	COBBLER	Desserts	7	11	[0, 0, 0]	n/a	catFR1	0	R1374T
1349.581	0.985	1395114	WORD_OFF	n/a	n/a	COBBLER	Desserts	7	11	[0, 0, 0]	n/a	catFR1	0	R1374T
1350.566	1.614	1396106	WORD	n/a	wordpools/wordpool_categorized_EN.txt	FUDGE	Desserts	8	11	[0, 0, 0]	n/a	catFR1	0	R1374T
1352.18	0.984	1397712	WORD_OFF	n/a	n/a	FUDGE	Desserts	8	11	[0, 0, 0]	n/a	catFR1	0	R1374T
1353.164	1.6	1398704	WORD	n/a	wordpools/wordpool_categorized_EN.txt	TULIP	Flowers	9	11	[0, 0, 0]	n/a	catFR1	0	R1374T
1354.764	0.867	1400297	WORD_OFF	n/a	n/a	TULIP	Flowers	9	11	[0, 0, 0]	n/a	catFR1	0	R1374T
1355.631	1.6	1401163	WORD	n/a	wordpools/wordpool_categorized_EN.txt	VIOLET	Flowers	10	11	[0, 0, 0]	n/a	catFR1	0	R1374T
1357.231	0.967	1402770	WORD_OFF	n/a	n/a	VIOLET	Flowers	10	11	[0, 0, 0]	n/a	catFR1	0	R1374T
1358.198	1.6	1403734	WORD	n/a	wordpools/wordpool_categorized_EN.txt	SQUID	Oceananimals	11	11	[0, 0, 0]	n/a	catFR1	0	R1374T
1359.798	0.866	1405327	WORD_OFF	n/a	n/a	SQUID	Oceananimals	11	11	[0, 0, 0]	n/a	catFR1	0	R1374T
1360.664	1.616	1406193	WORD	n/a	wordpools/wordpool_categorized_EN.txt	OCTOPUS	Oceananimals	12	11	[0, 0, 0]	n/a	catFR1	0	R1374T
1362.28	0.002	1407814	WORD_OFF	n/a	n/a	OCTOPUS	Oceananimals	12	11	[0, 0, 0]	n/a	catFR1	0	R1374T
1362.282	0.0	1407814	ENCODING_END	n/a	n/a	n/a	n/a	-999	11	[0, 0, 0]	n/a	catFR1	0	R1374T
1362.282	0.0	1407814	DISTRACT_START	n/a	n/a	n/a	n/a	-999	11	[0, 0, 0]	n/a	catFR1	0	R1374T
1362.28	0.002	1407814	PROB	13.4	n/a	n/a	n/a	-999	11	[4, 1, 1]	6.0	catFR1	0	R1374T
1362.282	13.416	1407816	START	n/a	n/a	n/a	n/a	-999	11	[-999, -999, -999]	n/a	catFR1	0	R1374T
1375.698	7.115	1421231	PROB	7.099	n/a	n/a	n/a	-999	11	[8, 7, 6]	21.0	catFR1	0	R1374T
1382.813	0.0	1428346	STOP	n/a	n/a	n/a	n/a	-999	11	[-999, -999, -999]	n/a	catFR1	0	R1374T
1382.813	1.267	1428353	DISTRACT_END	n/a	n/a	n/a	n/a	-999	11	[0, 0, 0]	n/a	catFR1	0	R1374T
1384.08	2.047	1429610	REC_START	n/a	n/a	n/a	n/a	-999	11	[0, 0, 0]	n/a	catFR1	0	R1374T
1386.127	0.43	1431660	REC_WORD	2.047	n/a	PIE	Desserts	2	11	[0, 0, 0]	n/a	catFR1	0	R1374T
1386.557	0.72	1432090	REC_WORD	2.477	n/a	SHRIMP	Oceananimals	3	11	[0, 0, 0]	n/a	catFR1	0	R1374T
1387.277	0.756	1432810	REC_WORD	3.197	n/a	GORILLA	Zoo	-999	11	[0, 0, 0]	n/a	catFR1	0	R1374T
1388.033	0.872	1433566	REC_WORD	3.953	n/a	OXYGEN	n/a	-999	11	[0, 0, 0]	n/a	catFR1	0	R1374T
1388.905	25.398	1434438	REC_WORD	4.825	n/a	MONKEY	Zoo	-999	11	[0, 0, 0]	n/a	catFR1	0	R1374T
1414.303	4.644	1459831	REC_END	n/a	n/a	n/a	n/a	-999	11	[0, 0, 0]	n/a	catFR1	0	R1374T
1418.947	10.351	1464484	COUNTDOWN_START	n/a	n/a	n/a	n/a	-999	12	[0, 0, 0]	n/a	catFR1	0	R1374T
1429.298	0.0	1474823	COUNTDOWN_END	n/a	n/a	n/a	n/a	-999	12	[0, 0, 0]	n/a	catFR1	0	R1374T
1429.298	1.899	1474837	ENCODING_START	n/a	n/a	n/a	n/a	-999	12	[0, 0, 0]	n/a	catFR1	0	R1374T
1431.197	1.601	1476723	WORD	n/a	wordpools/wordpool_categorized_EN.txt	ISLAND	Landscapes	1	12	[0, 0, 0]	n/a	catFR1	0	R1374T
1432.798	0.832	1478330	WORD_OFF	n/a	n/a	ISLAND	Landscapes	1	12	[0, 0, 0]	n/a	catFR1	0	R1374T
1433.63	1.601	1479168	WORD	n/a	wordpools/wordpool_categorized_EN.txt	WOODS	Landscapes	2	12	[0, 0, 0]	n/a	catFR1	0	R1374T
1435.231	1.0	1480761	WORD_OFF	n/a	n/a	WOODS	Landscapes	2	12	[0, 0, 0]	n/a	catFR1	0	R1374T
1436.231	1.6	1481767	WORD	n/a	wordpools/wordpool_categorized_EN.txt	SOFA	Furniture	3	12	[0, 0, 0]	n/a	catFR1	0	R1374T
1437.831	0.9	1483360	WORD_OFF	n/a	n/a	SOFA	Furniture	3	12	[0, 0, 0]	n/a	catFR1	0	R1374T
1438.731	1.6	1484268	WORD	n/a	wordpools/wordpool_categorized_EN.txt	DESK	Furniture	4	12	[0, 0, 0]	n/a	catFR1	0	R1374T
1440.331	0.917	1485861	WORD_OFF	n/a	n/a	DESK	Furniture	4	12	[0, 0, 0]	n/a	catFR1	0	R1374T
1441.248	1.6	1486783	WORD	n/a	wordpools/wordpool_categorized_EN.txt	CEDAR	Trees	5	12	[0, 0, 0]	n/a	catFR1	0	R1374T
1442.848	0.816	1488376	WORD_OFF	n/a	n/a	CEDAR	Trees	5	12	[0, 0, 0]	n/a	catFR1	0	R1374T
1443.664	1.6	1489200	WORD	n/a	wordpools/wordpool_categorized_EN.txt	ELM	Trees	6	12	[0, 0, 0]	n/a	catFR1	0	R1374T
1445.264	1.0	1490793	WORD_OFF	n/a	n/a	ELM	Trees	6	12	[0, 0, 0]	n/a	catFR1	0	R1374T
1446.264	1.6	1491799	WORD	n/a	wordpools/wordpool_categorized_EN.txt	OCEAN	Landscapes	7	12	[0, 0, 0]	n/a	catFR1	0	R1374T
1447.864	0.95	1493391	WORD_OFF	n/a	n/a	OCEAN	Landscapes	7	12	[0, 0, 0]	n/a	catFR1	0	R1374T
1448.814	1.6	1494342	WORD	n/a	wordpools/wordpool_categorized_EN.txt	VALLEY	Landscapes	8	12	[0, 0, 0]	n/a	catFR1	0	R1374T
1450.414	0.9	1495948	WORD_OFF	n/a	n/a	VALLEY	Landscapes	8	12	[0, 0, 0]	n/a	catFR1	0	R1374T
1451.314	1.6	1496843	WORD	n/a	wordpools/wordpool_categorized_EN.txt	NIGHTSTAND	Furniture	9	12	[0, 0, 0]	n/a	catFR1	0	R1374T
1452.914	0.983	1498449	WORD_OFF	n/a	n/a	NIGHTSTAND	Furniture	9	12	[0, 0, 0]	n/a	catFR1	0	R1374T
1453.897	1.6	1499427	WORD	n/a	wordpools/wordpool_categorized_EN.txt	TABLE	Furniture	10	12	[0, 0, 0]	n/a	catFR1	0	R1374T
1455.497	0.766	1501020	WORD_OFF	n/a	n/a	TABLE	Furniture	10	12	[0, 0, 0]	n/a	catFR1	0	R1374T
1456.263	1.601	1501788	WORD	n/a	wordpools/wordpool_categorized_EN.txt	CYPRESS	Trees	11	12	[0, 0, 0]	n/a	catFR1	0	R1374T
1457.864	0.867	1503395	WORD_OFF	n/a	n/a	CYPRESS	Trees	11	12	[0, 0, 0]	n/a	catFR1	0	R1374T
1458.731	1.617	1504262	WORD	n/a	wordpools/wordpool_categorized_EN.txt	SPRUCE	Trees	12	12	[0, 0, 0]	n/a	catFR1	0	R1374T
1460.348	0.001	1505877	PROB	10.649	n/a	n/a	n/a	-999	12	[7, 3, 2]	12.0	catFR1	0	R1374T
1460.349	0.0	1505878	START	n/a	n/a	n/a	n/a	-999	12	[-999, -999, -999]	n/a	catFR1	0	R1374T
1460.347	0.002	1505882	WORD_OFF	n/a	n/a	SPRUCE	Trees	12	12	[0, 0, 0]	n/a	catFR1	0	R1374T
1460.349	0.0	1505882	ENCODING_END	n/a	n/a	n/a	n/a	-999	12	[0, 0, 0]	n/a	catFR1	0	R1374T
1460.349	10.666	1505882	DISTRACT_START	n/a	n/a	n/a	n/a	-999	12	[0, 0, 0]	n/a	catFR1	0	R1374T
1471.015	6.55	1516543	PROB	6.533	n/a	n/a	n/a	-999	12	[7, 1, 6]	14.0	catFR1	0	R1374T
1477.565	6.632	1523093	PROB	6.616	n/a	n/a	n/a	-999	12	[1, 3, 5]	9.0	catFR1	0	R1374T
1484.197	0.0	1529718	DISTRACT_END	n/a	n/a	n/a	n/a	-999	12	[0, 0, 0]	n/a	catFR1	0	R1374T
1484.197	1.383	1529725	STOP	n/a	n/a	n/a	n/a	-999	12	[-999, -999, -999]	n/a	catFR1	0	R1374T
1485.58	1.495	1531115	REC_START	n/a	n/a	n/a	n/a	-999	12	[0, 0, 0]	n/a	catFR1	0	R1374T
1487.075	0.814	1532603	REC_WORD	1.495	n/a	OCEAN	Landscapes	7	12	[0, 0, 0]	n/a	catFR1	0	R1374T
1487.889	1.212	1533417	REC_WORD	2.309	n/a	VALLEY	Landscapes	8	12	[0, 0, 0]	n/a	catFR1	0	R1374T
1489.101	1.617	1534629	REC_WORD	3.521	n/a	MONKEY	Zoo	-999	12	[0, 0, 0]	n/a	catFR1	0	R1374T
1490.718	7.756	1536245	REC_WORD	5.138	n/a	OXYGEN	n/a	-999	12	[0, 0, 0]	n/a	catFR1	0	R1374T
1498.474	15.915	1544001	REC_WORD	12.894	n/a	SPRUCE	Trees	12	12	[0, 0, 0]	n/a	catFR1	0	R1374T
1514.389	1.409	1559915	REC_WORD	28.809	n/a	STREAM	Landscapes	-999	12	[0, 0, 0]	n/a	catFR1	0	R1374T
1515.798	0.0	1561322	REC_END	n/a	n/a	n/a	n/a	-999	12	[0, 0, 0]	n/a	catFR1	0	R1374T
