onset	duration	sample	trial_type	response_time	stim_file	item_name	category	serialpos	list	test	answer	experiment	session	subject
0.0	97.549	45001	INSTRUCT_START	n/a	n/a	n/a	n/a	-999	-999	[0, 0, 0]	n/a	catFR1	1	R1475J
97.549	39.45	142537	INSTRUCT_END	n/a	n/a	n/a	n/a	-999	-999	[0, 0, 0]	n/a	catFR1	1	R1475J
136.999	10.0	181990	COUNTDOWN_START	n/a	n/a	n/a	n/a	-999	-999	[0, 0, 0]	n/a	catFR1	1	R1475J
147.349	0.0	192334	COUNTDOWN_END	n/a	n/a	n/a	n/a	-999	-999	[0, 0, 0]	n/a	catFR1	1	R1475J
147.349	2.018	192344	ENCODING_START	n/a	n/a	n/a	n/a	-999	-1	[0, 0, 0]	n/a	catFR1	1	R1475J
149.367	1.6	194359	WORD	n/a	n/a	CAR	Vehicles	1	-1	[0, 0, 0]	n/a	catFR1	1	R1475J
150.981	0.834	195971	WORD_OFF	n/a	n/a	CAR	Vehicles	1	-1	[0, 0, 0]	n/a	catFR1	1	R1475J
151.815	1.6	196808	WORD	n/a	n/a	MOPED	Vehicles	2	-1	[0, 0, 0]	n/a	catFR1	1	R1475J
153.415	0.816	198399	WORD_OFF	n/a	n/a	MOPED	Vehicles	2	-1	[0, 0, 0]	n/a	catFR1	1	R1475J
154.231	1.6	199216	WORD	n/a	n/a	BROCCOLI	Vegetables	3	-1	[0, 0, 0]	n/a	catFR1	1	R1475J
155.832	0.935	200817	WORD_OFF	n/a	n/a	BROCCOLI	Vegetables	3	-1	[0, 0, 0]	n/a	catFR1	1	R1475J
156.767	1.6	201758	WORD	n/a	n/a	PEAS	Vegetables	4	-1	[0, 0, 0]	n/a	catFR1	1	R1475J
158.383	0.849	203370	WORD_OFF	n/a	n/a	PEAS	Vegetables	4	-1	[0, 0, 0]	n/a	catFR1	1	R1475J
159.232	1.6	204217	WORD	n/a	n/a	ELEPHANT	Zoo	5	-1	[0, 0, 0]	n/a	catFR1	1	R1475J
160.849	0.833	205839	WORD_OFF	n/a	n/a	ELEPHANT	Zoo	5	-1	[0, 0, 0]	n/a	catFR1	1	R1475J
161.682	1.6	206676	WORD	n/a	n/a	PANDA	Zoo	6	-1	[0, 0, 0]	n/a	catFR1	1	R1475J
163.298	0.917	208288	WORD_OFF	n/a	n/a	PANDA	Zoo	6	-1	[0, 0, 0]	n/a	catFR1	1	R1475J
164.215	1.6	209208	WORD	n/a	n/a	POTATO	Vegetables	7	-1	[0, 0, 0]	n/a	catFR1	1	R1475J
165.816	0.815	210810	WORD_OFF	n/a	n/a	POTATO	Vegetables	7	-1	[0, 0, 0]	n/a	catFR1	1	R1475J
166.631	1.6	211616	WORD	n/a	n/a	SPINACH	Vegetables	8	-1	[0, 0, 0]	n/a	catFR1	1	R1475J
168.233	0.866	213217	WORD_OFF	n/a	n/a	SPINACH	Vegetables	8	-1	[0, 0, 0]	n/a	catFR1	1	R1475J
169.099	1.6	214085	WORD	n/a	n/a	JEEP	Vehicles	9	-1	[0, 0, 0]	n/a	catFR1	1	R1475J
170.715	1.0	215708	WORD_OFF	n/a	n/a	JEEP	Vehicles	9	-1	[0, 0, 0]	n/a	catFR1	1	R1475J
171.715	1.6	216700	WORD	n/a	n/a	TRUCK	Vehicles	10	-1	[0, 0, 0]	n/a	catFR1	1	R1475J
173.316	0.817	218301	WORD_OFF	n/a	n/a	TRUCK	Vehicles	10	-1	[0, 0, 0]	n/a	catFR1	1	R1475J
174.133	1.6	219118	WORD	n/a	n/a	CHEETAH	Zoo	11	-1	[0, 0, 0]	n/a	catFR1	1	R1475J
175.75	0.816	220740	WORD_OFF	n/a	n/a	CHEETAH	Zoo	11	-1	[0, 0, 0]	n/a	catFR1	1	R1475J
176.566	1.6	221556	WORD	n/a	n/a	GORILLA	Zoo	12	-1	[0, 0, 0]	n/a	catFR1	1	R1475J
178.182	0.001	223168	WORD_OFF	n/a	n/a	GORILLA	Zoo	12	-1	[0, 0, 0]	n/a	catFR1	1	R1475J
178.183	0.0	223168	ENCODING_END	n/a	n/a	n/a	n/a	-999	-1	[0, 0, 0]	n/a	catFR1	1	R1475J
178.183	0.0	223168	DISTRACT_START	n/a	n/a	n/a	n/a	-999	-1	[0, 0, 0]	n/a	catFR1	1	R1475J
178.183	0.001	223172	START	n/a	n/a	n/a	n/a	-999	-1	[-999, -999, -999]	n/a	catFR1	1	R1475J
178.184	6.966	223173	PROB	6.949	n/a	n/a	n/a	-999	-1	[1, 2, 8]	11.0	catFR1	1	R1475J
185.15	6.732	230138	PROB	6.715	n/a	n/a	n/a	-999	-1	[6, 3, 6]	15.0	catFR1	1	R1475J
191.882	5.751	236870	PROB	5.733	n/a	n/a	n/a	-999	-1	[2, 6, 3]	11.0	catFR1	1	R1475J
197.633	4.849	242621	PROB	4.832	n/a	n/a	n/a	-999	-1	[3, 2, 3]	8.0	catFR1	1	R1475J
202.482	0.0	247470	STOP	n/a	n/a	n/a	n/a	-999	-1	[-999, -999, -999]	n/a	catFR1	1	R1475J
202.482	2.334	247472	DISTRACT_END	n/a	n/a	n/a	n/a	-999	-1	[0, 0, 0]	n/a	catFR1	1	R1475J
204.816	0.868	249805	REC_START	n/a	n/a	n/a	n/a	-999	-1	[0, 0, 0]	n/a	catFR1	1	R1475J
205.684	0.723	250672	REC_WORD	0.868	n/a	ELEPHANT	Zoo	5	-1	[0, 0, 0]	n/a	catFR1	1	R1475J
206.407	1.374	251395	REC_WORD	1.591	n/a	GORILLA	Zoo	12	-1	[0, 0, 0]	n/a	catFR1	1	R1475J
207.781	0.505	252768	REC_WORD	2.965	n/a	TRUCK	Vehicles	10	-1	[0, 0, 0]	n/a	catFR1	1	R1475J
208.286	0.658	253273	REC_WORD	3.47	n/a	JEEP	Vehicles	9	-1	[0, 0, 0]	n/a	catFR1	1	R1475J
208.944	3.891	253931	REC_WORD	4.128	n/a	CAR	Vehicles	1	-1	[0, 0, 0]	n/a	catFR1	1	R1475J
212.835	22.185	257822	REC_WORD	8.019	n/a	CHEETAH	Zoo	11	-1	[0, 0, 0]	n/a	catFR1	1	R1475J
235.02	20.679	280002	REC_END	n/a	n/a	n/a	n/a	-999	-1	[0, 0, 0]	n/a	catFR1	1	R1475J
255.699	10.0	300689	COUNTDOWN_START	n/a	n/a	n/a	n/a	-999	1	[0, 0, 0]	n/a	catFR1	1	R1475J
266.049	0.0	311033	COUNTDOWN_END	n/a	n/a	n/a	n/a	-999	1	[0, 0, 0]	n/a	catFR1	1	R1475J
266.049	2.082	311033	ENCODING_START	n/a	n/a	n/a	n/a	-999	1	[0, 0, 0]	n/a	catFR1	1	R1475J
268.131	1.6	313120	WORD	n/a	wordpools/wordpool_categorized_EN.txt	LIGHTNING	Weather	1	1	[0, 0, 0]	n/a	catFR1	1	R1475J
269.733	0.848	314722	WORD_OFF	n/a	n/a	LIGHTNING	Weather	1	1	[0, 0, 0]	n/a	catFR1	1	R1475J
270.581	1.6	315569	WORD	n/a	wordpools/wordpool_categorized_EN.txt	RAIN	Weather	2	1	[0, 0, 0]	n/a	catFR1	1	R1475J
272.183	0.966	317171	WORD_OFF	n/a	n/a	RAIN	Weather	2	1	[0, 0, 0]	n/a	catFR1	1	R1475J
273.149	1.6	318132	WORD	n/a	wordpools/wordpool_categorized_EN.txt	KNEE	BodyParts	3	1	[0, 0, 0]	n/a	catFR1	1	R1475J
274.749	0.817	319733	WORD_OFF	n/a	n/a	KNEE	BodyParts	3	1	[0, 0, 0]	n/a	catFR1	1	R1475J
275.566	1.6	320550	WORD	n/a	wordpools/wordpool_categorized_EN.txt	HAND	BodyParts	4	1	[0, 0, 0]	n/a	catFR1	1	R1475J
277.183	0.998	322172	WORD_OFF	n/a	n/a	HAND	BodyParts	4	1	[0, 0, 0]	n/a	catFR1	1	R1475J
278.181	1.6	323164	WORD	n/a	wordpools/wordpool_categorized_EN.txt	OCTOPUS	OceanAnimals	5	1	[0, 0, 0]	n/a	catFR1	1	R1475J
279.781	1.001	324766	WORD_OFF	n/a	n/a	OCTOPUS	OceanAnimals	5	1	[0, 0, 0]	n/a	catFR1	1	R1475J
280.782	1.6	325768	WORD	n/a	wordpools/wordpool_categorized_EN.txt	TURTLE	OceanAnimals	6	1	[0, 0, 0]	n/a	catFR1	1	R1475J
282.399	0.982	327380	WORD_OFF	n/a	n/a	TURTLE	OceanAnimals	6	1	[0, 0, 0]	n/a	catFR1	1	R1475J
283.381	1.6	328362	WORD	n/a	wordpools/wordpool_categorized_EN.txt	ARM	BodyParts	7	1	[0, 0, 0]	n/a	catFR1	1	R1475J
284.999	0.867	329984	WORD_OFF	n/a	n/a	ARM	BodyParts	7	1	[0, 0, 0]	n/a	catFR1	1	R1475J
285.866	1.6	330852	WORD	n/a	wordpools/wordpool_categorized_EN.txt	TOE	BodyParts	8	1	[0, 0, 0]	n/a	catFR1	1	R1475J
287.481	1.002	332464	WORD_OFF	n/a	n/a	TOE	BodyParts	8	1	[0, 0, 0]	n/a	catFR1	1	R1475J
288.483	1.6	333466	WORD	n/a	wordpools/wordpool_categorized_EN.txt	HUMIDITY	Weather	9	1	[0, 0, 0]	n/a	catFR1	1	R1475J
290.1	0.932	335078	WORD_OFF	n/a	n/a	HUMIDITY	Weather	9	1	[0, 0, 0]	n/a	catFR1	1	R1475J
291.032	1.6	336019	WORD	n/a	wordpools/wordpool_categorized_EN.txt	HURRICANE	Weather	10	1	[0, 0, 0]	n/a	catFR1	1	R1475J
292.649	0.8	337631	WORD_OFF	n/a	n/a	HURRICANE	Weather	10	1	[0, 0, 0]	n/a	catFR1	1	R1475J
293.449	1.6	338437	WORD	n/a	wordpools/wordpool_categorized_EN.txt	FISH	OceanAnimals	11	1	[0, 0, 0]	n/a	catFR1	1	R1475J
295.049	0.8	340028	WORD_OFF	n/a	n/a	FISH	OceanAnimals	11	1	[0, 0, 0]	n/a	catFR1	1	R1475J
295.849	1.6	340834	WORD	n/a	wordpools/wordpool_categorized_EN.txt	WHALE	OceanAnimals	12	1	[0, 0, 0]	n/a	catFR1	1	R1475J
297.449	0.001	342433	PROB	4.816	n/a	n/a	n/a	-999	1	[7, 1, 1]	9.0	catFR1	1	R1475J
297.45	0.0	342434	START	n/a	n/a	n/a	n/a	-999	1	[-999, -999, -999]	n/a	catFR1	1	R1475J
297.449	0.001	342436	WORD_OFF	n/a	n/a	WHALE	OceanAnimals	12	1	[0, 0, 0]	n/a	catFR1	1	R1475J
297.45	0.0	342436	ENCODING_END	n/a	n/a	n/a	n/a	-999	1	[0, 0, 0]	n/a	catFR1	1	R1475J
297.45	4.832	342436	DISTRACT_START	n/a	n/a	n/a	n/a	-999	1	[0, 0, 0]	n/a	catFR1	1	R1475J
302.282	10.1	347265	PROB	10.083	n/a	n/a	n/a	-999	1	[3, 6, 4]	13.0	catFR1	1	R1475J
312.382	7.566	357365	PROB	7.549	n/a	n/a	n/a	-999	1	[6, 7, 7]	20.0	catFR1	1	R1475J
319.948	0.0	364931	DISTRACT_END	n/a	n/a	n/a	n/a	-999	1	[0, 0, 0]	n/a	catFR1	1	R1475J
319.948	2.334	364931	STOP	n/a	n/a	n/a	n/a	-999	1	[-999, -999, -999]	n/a	catFR1	1	R1475J
322.282	0.979	367264	REC_START	n/a	n/a	n/a	n/a	-999	1	[0, 0, 0]	n/a	catFR1	1	R1475J
323.261	0.822	368244	REC_WORD	0.979	n/a	LIGHTNING	Weather	1	1	[0, 0, 0]	n/a	catFR1	1	R1475J
324.083	4.213	369066	REC_WORD	1.801	n/a	RAIN	Weather	2	1	[0, 0, 0]	n/a	catFR1	1	R1475J
328.296	1.0	373278	REC_WORD	6.014	n/a	THUNDER	n/a	-999	1	[0, 0, 0]	n/a	catFR1	1	R1475J
329.296	23.17	374278	REC_WORD_VV	7.014	n/a	<>	n/a	-999	1	[0, 0, 0]	n/a	catFR1	1	R1475J
352.466	6.701	397450	REC_END	n/a	n/a	n/a	n/a	-999	1	[0, 0, 0]	n/a	catFR1	1	R1475J
359.167	10.0	404146	COUNTDOWN_START	n/a	n/a	n/a	n/a	-999	2	[0, 0, 0]	n/a	catFR1	1	R1475J
369.516	0.0	414500	COUNTDOWN_END	n/a	n/a	n/a	n/a	-999	2	[0, 0, 0]	n/a	catFR1	1	R1475J
369.516	2.151	414500	ENCODING_START	n/a	n/a	n/a	n/a	-999	2	[0, 0, 0]	n/a	catFR1	1	R1475J
371.667	1.6	416650	WORD	n/a	wordpools/wordpool_categorized_EN.txt	VAN	Vehicles	1	2	[0, 0, 0]	n/a	catFR1	1	R1475J
373.282	0.934	418262	WORD_OFF	n/a	n/a	VAN	Vehicles	1	2	[0, 0, 0]	n/a	catFR1	1	R1475J
374.216	1.6	419192	WORD	n/a	wordpools/wordpool_categorized_EN.txt	TRAIN	Vehicles	2	2	[0, 0, 0]	n/a	catFR1	1	R1475J
375.831	0.969	420814	WORD_OFF	n/a	n/a	TRAIN	Vehicles	2	2	[0, 0, 0]	n/a	catFR1	1	R1475J
376.8	1.6	421775	WORD	n/a	wordpools/wordpool_categorized_EN.txt	TABLE	Furniture	3	2	[0, 0, 0]	n/a	catFR1	1	R1475J
378.4	0.95	423377	WORD_OFF	n/a	n/a	TABLE	Furniture	3	2	[0, 0, 0]	n/a	catFR1	1	R1475J
379.35	1.6	424327	WORD	n/a	wordpools/wordpool_categorized_EN.txt	RECLINER	Furniture	4	2	[0, 0, 0]	n/a	catFR1	1	R1475J
380.965	1.002	425950	WORD_OFF	n/a	n/a	RECLINER	Furniture	4	2	[0, 0, 0]	n/a	catFR1	1	R1475J
381.967	1.6	426952	WORD	n/a	wordpools/wordpool_categorized_EN.txt	VIOLET	Flowers	5	2	[0, 0, 0]	n/a	catFR1	1	R1475J
383.583	0.999	428564	WORD_OFF	n/a	n/a	VIOLET	Flowers	5	2	[0, 0, 0]	n/a	catFR1	1	R1475J
384.582	1.6	429566	WORD	n/a	wordpools/wordpool_categorized_EN.txt	CARNATION	Flowers	6	2	[0, 0, 0]	n/a	catFR1	1	R1475J
386.183	0.883	431168	WORD_OFF	n/a	n/a	CARNATION	Flowers	6	2	[0, 0, 0]	n/a	catFR1	1	R1475J
387.066	1.6	432046	WORD	n/a	wordpools/wordpool_categorized_EN.txt	DRESSER	Furniture	7	2	[0, 0, 0]	n/a	catFR1	1	R1475J
388.668	0.881	433648	WORD_OFF	n/a	n/a	DRESSER	Furniture	7	2	[0, 0, 0]	n/a	catFR1	1	R1475J
389.549	1.6	434526	WORD	n/a	wordpools/wordpool_categorized_EN.txt	BED	Furniture	8	2	[0, 0, 0]	n/a	catFR1	1	R1475J
391.149	0.918	436128	WORD_OFF	n/a	n/a	BED	Furniture	8	2	[0, 0, 0]	n/a	catFR1	1	R1475J
392.067	1.6	437048	WORD	n/a	wordpools/wordpool_categorized_EN.txt	SCOOTER	Vehicles	9	2	[0, 0, 0]	n/a	catFR1	1	R1475J
393.684	0.966	438660	WORD_OFF	n/a	n/a	SCOOTER	Vehicles	9	2	[0, 0, 0]	n/a	catFR1	1	R1475J
394.65	1.6	439631	WORD	n/a	wordpools/wordpool_categorized_EN.txt	BIKE	Vehicles	10	2	[0, 0, 0]	n/a	catFR1	1	R1475J
396.25	0.933	441233	WORD_OFF	n/a	n/a	BIKE	Vehicles	10	2	[0, 0, 0]	n/a	catFR1	1	R1475J
397.183	1.6	442163	WORD	n/a	wordpools/wordpool_categorized_EN.txt	ORCHID	Flowers	11	2	[0, 0, 0]	n/a	catFR1	1	R1475J
398.8	0.95	443775	WORD_OFF	n/a	n/a	ORCHID	Flowers	11	2	[0, 0, 0]	n/a	catFR1	1	R1475J
399.75	1.6	444725	WORD	n/a	wordpools/wordpool_categorized_EN.txt	DAFFODIL	Flowers	12	2	[0, 0, 0]	n/a	catFR1	1	R1475J
401.35	0.002	446327	WORD_OFF	n/a	n/a	DAFFODIL	Flowers	12	2	[0, 0, 0]	n/a	catFR1	1	R1475J
401.352	0.0	446327	ENCODING_END	n/a	n/a	n/a	n/a	-999	2	[0, 0, 0]	n/a	catFR1	1	R1475J
401.351	0.001	446330	PROB	7.999	n/a	n/a	n/a	-999	2	[2, 8, 6]	16.0	catFR1	1	R1475J
401.352	0.0	446331	START	n/a	n/a	n/a	n/a	-999	2	[-999, -999, -999]	n/a	catFR1	1	R1475J
401.352	8.016	446337	DISTRACT_START	n/a	n/a	n/a	n/a	-999	2	[0, 0, 0]	n/a	catFR1	1	R1475J
409.368	6.416	454347	PROB	6.399	n/a	n/a	n/a	-999	2	[2, 2, 8]	13.0	catFR1	1	R1475J
415.784	10.165	460763	PROB	10.149	n/a	n/a	n/a	-999	2	[6, 5, 8]	19.0	catFR1	1	R1475J
425.949	0.0	470927	STOP	n/a	n/a	n/a	n/a	-999	2	[-999, -999, -999]	n/a	catFR1	1	R1475J
425.949	2.05	470931	DISTRACT_END	n/a	n/a	n/a	n/a	-999	2	[0, 0, 0]	n/a	catFR1	1	R1475J
427.999	1.449	472974	REC_START	n/a	n/a	n/a	n/a	-999	2	[0, 0, 0]	n/a	catFR1	1	R1475J
429.448	3.761	474426	REC_WORD	1.449	n/a	DAFFODIL	Flowers	12	2	[0, 0, 0]	n/a	catFR1	1	R1475J
433.209	25.01	478187	REC_WORD	5.21	n/a	VAN	Vehicles	1	2	[0, 0, 0]	n/a	catFR1	1	R1475J
458.219	2.897	503191	REC_END	n/a	n/a	n/a	n/a	-999	2	[0, 0, 0]	n/a	catFR1	1	R1475J
461.116	10.0	506095	COUNTDOWN_START	n/a	n/a	n/a	n/a	-999	3	[0, 0, 0]	n/a	catFR1	1	R1475J
471.466	0.0	516439	COUNTDOWN_END	n/a	n/a	n/a	n/a	-999	3	[0, 0, 0]	n/a	catFR1	1	R1475J
471.466	2.016	516449	ENCODING_START	n/a	n/a	n/a	n/a	-999	3	[0, 0, 0]	n/a	catFR1	1	R1475J
473.482	1.6	518454	WORD	n/a	wordpools/wordpool_categorized_EN.txt	MARBLES	Toys	1	3	[0, 0, 0]	n/a	catFR1	1	R1475J
475.084	0.783	520055	WORD_OFF	n/a	n/a	MARBLES	Toys	1	3	[0, 0, 0]	n/a	catFR1	1	R1475J
475.867	1.6	520841	WORD	n/a	wordpools/wordpool_categorized_EN.txt	FOOTBALL	Toys	2	3	[0, 0, 0]	n/a	catFR1	1	R1475J
477.467	0.783	522442	WORD_OFF	n/a	n/a	FOOTBALL	Toys	2	3	[0, 0, 0]	n/a	catFR1	1	R1475J
478.25	1.6	523228	WORD	n/a	wordpools/wordpool_categorized_EN.txt	CABBAGE	Vegetables	3	3	[0, 0, 0]	n/a	catFR1	1	R1475J
479.85	0.849	524829	WORD_OFF	n/a	n/a	CABBAGE	Vegetables	3	3	[0, 0, 0]	n/a	catFR1	1	R1475J
480.699	1.6	525677	WORD	n/a	wordpools/wordpool_categorized_EN.txt	CELERY	Vegetables	4	3	[0, 0, 0]	n/a	catFR1	1	R1475J
482.3	0.916	527278	WORD_OFF	n/a	n/a	CELERY	Vegetables	4	3	[0, 0, 0]	n/a	catFR1	1	R1475J
483.216	1.6	528188	WORD	n/a	wordpools/wordpool_categorized_EN.txt	BINDER	OfficeSupplies	5	3	[0, 0, 0]	n/a	catFR1	1	R1475J
484.817	0.783	529789	WORD_OFF	n/a	n/a	BINDER	OfficeSupplies	5	3	[0, 0, 0]	n/a	catFR1	1	R1475J
485.6	1.6	530575	WORD	n/a	wordpools/wordpool_categorized_EN.txt	GLUE	OfficeSupplies	6	3	[0, 0, 0]	n/a	catFR1	1	R1475J
487.216	0.784	532187	WORD_OFF	n/a	n/a	GLUE	OfficeSupplies	6	3	[0, 0, 0]	n/a	catFR1	1	R1475J
488.0	1.6	532972	WORD	n/a	wordpools/wordpool_categorized_EN.txt	BASKETBALL	Toys	7	3	[0, 0, 0]	n/a	catFR1	1	R1475J
489.617	0.815	534594	WORD_OFF	n/a	n/a	BASKETBALL	Toys	7	3	[0, 0, 0]	n/a	catFR1	1	R1475J
490.432	1.6	535411	WORD	n/a	wordpools/wordpool_categorized_EN.txt	PUZZLE	Toys	8	3	[0, 0, 0]	n/a	catFR1	1	R1475J
492.048	0.917	537023	WORD_OFF	n/a	n/a	PUZZLE	Toys	8	3	[0, 0, 0]	n/a	catFR1	1	R1475J
492.965	1.6	537942	WORD	n/a	wordpools/wordpool_categorized_EN.txt	LETTUCE	Vegetables	9	3	[0, 0, 0]	n/a	catFR1	1	R1475J
494.565	0.834	539544	WORD_OFF	n/a	n/a	LETTUCE	Vegetables	9	3	[0, 0, 0]	n/a	catFR1	1	R1475J
495.399	1.6	540371	WORD	n/a	wordpools/wordpool_categorized_EN.txt	CARROT	Vegetables	10	3	[0, 0, 0]	n/a	catFR1	1	R1475J
496.999	0.967	541972	WORD_OFF	n/a	n/a	CARROT	Vegetables	10	3	[0, 0, 0]	n/a	catFR1	1	R1475J
497.966	1.6	542943	WORD	n/a	wordpools/wordpool_categorized_EN.txt	PEN	OfficeSupplies	11	3	[0, 0, 0]	n/a	catFR1	1	R1475J
499.581	0.767	544555	WORD_OFF	n/a	n/a	PEN	OfficeSupplies	11	3	[0, 0, 0]	n/a	catFR1	1	R1475J
500.348	1.6	545320	WORD	n/a	wordpools/wordpool_categorized_EN.txt	RULER	OfficeSupplies	12	3	[0, 0, 0]	n/a	catFR1	1	R1475J
501.949	0.001	546922	WORD_OFF	n/a	n/a	RULER	OfficeSupplies	12	3	[0, 0, 0]	n/a	catFR1	1	R1475J
501.95	0.0	546922	ENCODING_END	n/a	n/a	n/a	n/a	-999	3	[0, 0, 0]	n/a	catFR1	1	R1475J
501.949	0.001	546924	PROB	7.399	n/a	n/a	n/a	-999	3	[4, 3, 8]	15.0	catFR1	1	R1475J
501.95	0.0	546925	START	n/a	n/a	n/a	n/a	-999	3	[-999, -999, -999]	n/a	catFR1	1	R1475J
501.95	7.416	546932	DISTRACT_START	n/a	n/a	n/a	n/a	-999	3	[0, 0, 0]	n/a	catFR1	1	R1475J
509.366	7.867	554341	PROB	7.849	n/a	n/a	n/a	-999	3	[7, 1, 8]	16.0	catFR1	1	R1475J
517.233	4.767	562207	PROB	4.75	n/a	n/a	n/a	-999	3	[1, 5, 1]	7.0	catFR1	1	R1475J
522.0	0.0	566968	DISTRACT_END	n/a	n/a	n/a	n/a	-999	3	[0, 0, 0]	n/a	catFR1	1	R1475J
522.0	2.3	566974	STOP	n/a	n/a	n/a	n/a	-999	3	[-999, -999, -999]	n/a	catFR1	1	R1475J
524.3	10.177	569270	REC_START	n/a	n/a	n/a	n/a	-999	3	[0, 0, 0]	n/a	catFR1	1	R1475J
534.477	1.107	579451	REC_WORD	10.177	n/a	CARROT	Vegetables	10	3	[0, 0, 0]	n/a	catFR1	1	R1475J
535.584	18.958	580558	REC_WORD	11.284	n/a	LETTUCE	Vegetables	9	3	[0, 0, 0]	n/a	catFR1	1	R1475J
554.542	2.29	599518	REC_END	n/a	n/a	n/a	n/a	-999	3	[0, 0, 0]	n/a	catFR1	1	R1475J
556.832	10.0	601802	COUNTDOWN_START	n/a	n/a	n/a	n/a	-999	4	[0, 0, 0]	n/a	catFR1	1	R1475J
567.182	0.0	612156	COUNTDOWN_END	n/a	n/a	n/a	n/a	-999	4	[0, 0, 0]	n/a	catFR1	1	R1475J
567.182	1.849	612156	ENCODING_START	n/a	n/a	n/a	n/a	-999	4	[0, 0, 0]	n/a	catFR1	1	R1475J
569.031	1.6	614006	WORD	n/a	wordpools/wordpool_categorized_EN.txt	PLANKTON	OceanAnimals	1	4	[0, 0, 0]	n/a	catFR1	1	R1475J
570.631	0.818	615607	WORD_OFF	n/a	n/a	PLANKTON	OceanAnimals	1	4	[0, 0, 0]	n/a	catFR1	1	R1475J
571.449	1.6	616424	WORD	n/a	wordpools/wordpool_categorized_EN.txt	LOBSTER	OceanAnimals	2	4	[0, 0, 0]	n/a	catFR1	1	R1475J
573.049	0.966	618025	WORD_OFF	n/a	n/a	LOBSTER	OceanAnimals	2	4	[0, 0, 0]	n/a	catFR1	1	R1475J
574.015	1.6	618986	WORD	n/a	wordpools/wordpool_categorized_EN.txt	HEAD	BodyParts	3	4	[0, 0, 0]	n/a	catFR1	1	R1475J
575.615	0.9	620588	WORD_OFF	n/a	n/a	HEAD	BodyParts	3	4	[0, 0, 0]	n/a	catFR1	1	R1475J
576.515	1.6	621487	WORD	n/a	wordpools/wordpool_categorized_EN.txt	ELBOW	BodyParts	4	4	[0, 0, 0]	n/a	catFR1	1	R1475J
578.115	0.867	623089	WORD_OFF	n/a	n/a	ELBOW	BodyParts	4	4	[0, 0, 0]	n/a	catFR1	1	R1475J
578.982	1.6	623957	WORD	n/a	wordpools/wordpool_categorized_EN.txt	RUM	Beverages	5	4	[0, 0, 0]	n/a	catFR1	1	R1475J
580.598	0.852	625569	WORD_OFF	n/a	n/a	RUM	Beverages	5	4	[0, 0, 0]	n/a	catFR1	1	R1475J
581.45	1.6	626416	WORD	n/a	wordpools/wordpool_categorized_EN.txt	WINE	Beverages	6	4	[0, 0, 0]	n/a	catFR1	1	R1475J
583.05	0.882	628018	WORD_OFF	n/a	n/a	WINE	Beverages	6	4	[0, 0, 0]	n/a	catFR1	1	R1475J
583.932	1.6	628906	WORD	n/a	wordpools/wordpool_categorized_EN.txt	CRAB	OceanAnimals	7	4	[0, 0, 0]	n/a	catFR1	1	R1475J
585.532	0.8	630508	WORD_OFF	n/a	n/a	CRAB	OceanAnimals	7	4	[0, 0, 0]	n/a	catFR1	1	R1475J
586.332	1.6	631304	WORD	n/a	wordpools/wordpool_categorized_EN.txt	JELLYFISH	OceanAnimals	8	4	[0, 0, 0]	n/a	catFR1	1	R1475J
587.949	0.883	632916	WORD_OFF	n/a	n/a	JELLYFISH	OceanAnimals	8	4	[0, 0, 0]	n/a	catFR1	1	R1475J
588.832	1.6	633804	WORD	n/a	wordpools/wordpool_categorized_EN.txt	WATER	Beverages	9	4	[0, 0, 0]	n/a	catFR1	1	R1475J
590.432	0.982	635406	WORD_OFF	n/a	n/a	WATER	Beverages	9	4	[0, 0, 0]	n/a	catFR1	1	R1475J
591.414	1.6	636388	WORD	n/a	wordpools/wordpool_categorized_EN.txt	BEER	Beverages	10	4	[0, 0, 0]	n/a	catFR1	1	R1475J
593.015	0.884	637989	WORD_OFF	n/a	n/a	BEER	Beverages	10	4	[0, 0, 0]	n/a	catFR1	1	R1475J
593.899	1.6	638868	WORD	n/a	wordpools/wordpool_categorized_EN.txt	FINGERS	BodyParts	11	4	[0, 0, 0]	n/a	catFR1	1	R1475J
595.499	0.9	640469	WORD_OFF	n/a	n/a	FINGERS	BodyParts	11	4	[0, 0, 0]	n/a	catFR1	1	R1475J
596.399	1.6	641368	WORD	n/a	wordpools/wordpool_categorized_EN.txt	EYE	BodyParts	12	4	[0, 0, 0]	n/a	catFR1	1	R1475J
598.015	0.001	642980	WORD_OFF	n/a	n/a	EYE	BodyParts	12	4	[0, 0, 0]	n/a	catFR1	1	R1475J
598.016	0.0	642987	START	n/a	n/a	n/a	n/a	-999	4	[-999, -999, -999]	n/a	catFR1	1	R1475J
598.016	0.0	642987	PROB	8.417	n/a	n/a	n/a	-999	4	[4, 4, 5]	13.0	catFR1	1	R1475J
598.016	0.0	642991	ENCODING_END	n/a	n/a	n/a	n/a	-999	4	[0, 0, 0]	n/a	catFR1	1	R1475J
598.016	8.432	642991	DISTRACT_START	n/a	n/a	n/a	n/a	-999	4	[0, 0, 0]	n/a	catFR1	1	R1475J
606.448	5.601	651419	PROB	5.583	n/a	n/a	n/a	-999	4	[4, 1, 7]	12.0	catFR1	1	R1475J
612.049	7.566	657019	PROB	7.549	n/a	n/a	n/a	-999	4	[7, 6, 6]	19.0	catFR1	1	R1475J
619.615	0.0	664585	STOP	n/a	n/a	n/a	n/a	-999	4	[-999, -999, -999]	n/a	catFR1	1	R1475J
619.615	2.233	664587	DISTRACT_END	n/a	n/a	n/a	n/a	-999	4	[0, 0, 0]	n/a	catFR1	1	R1475J
621.848	9.542	666817	REC_START	n/a	n/a	n/a	n/a	-999	4	[0, 0, 0]	n/a	catFR1	1	R1475J
631.39	0.712	676360	REC_WORD	9.542	n/a	ARM	BodyParts	-999	4	[0, 0, 0]	n/a	catFR1	1	R1475J
632.102	14.029	677072	REC_WORD	10.254	n/a	ELBOW	BodyParts	4	4	[0, 0, 0]	n/a	catFR1	1	R1475J
646.131	5.958	691100	REC_WORD	24.283	n/a	CRAB	OceanAnimals	7	4	[0, 0, 0]	n/a	catFR1	1	R1475J
652.089	2.793	697055	REC_END	n/a	n/a	n/a	n/a	-999	4	[0, 0, 0]	n/a	catFR1	1	R1475J
654.882	10.0	699855	COUNTDOWN_START	n/a	n/a	n/a	n/a	-999	5	[0, 0, 0]	n/a	catFR1	1	R1475J
665.231	0.0	710199	COUNTDOWN_END	n/a	n/a	n/a	n/a	-999	5	[0, 0, 0]	n/a	catFR1	1	R1475J
665.231	2.184	710199	ENCODING_START	n/a	n/a	n/a	n/a	-999	5	[0, 0, 0]	n/a	catFR1	1	R1475J
667.415	1.6	712379	WORD	n/a	wordpools/wordpool_categorized_EN.txt	THUNDER	Weather	1	5	[0, 0, 0]	n/a	catFR1	1	R1475J
669.015	1.0	713981	WORD_OFF	n/a	n/a	THUNDER	Weather	1	5	[0, 0, 0]	n/a	catFR1	1	R1475J
670.015	1.6	714983	WORD	n/a	wordpools/wordpool_categorized_EN.txt	WIND	Weather	2	5	[0, 0, 0]	n/a	catFR1	1	R1475J
671.615	0.767	716585	WORD_OFF	n/a	n/a	WIND	Weather	2	5	[0, 0, 0]	n/a	catFR1	1	R1475J
672.382	1.6	717349	WORD	n/a	wordpools/wordpool_categorized_EN.txt	LINEN	Fabric	3	5	[0, 0, 0]	n/a	catFR1	1	R1475J
673.982	0.949	718951	WORD_OFF	n/a	n/a	LINEN	Fabric	3	5	[0, 0, 0]	n/a	catFR1	1	R1475J
674.931	1.6	719902	WORD	n/a	wordpools/wordpool_categorized_EN.txt	COTTON	Fabric	4	5	[0, 0, 0]	n/a	catFR1	1	R1475J
676.532	0.967	721503	WORD_OFF	n/a	n/a	COTTON	Fabric	4	5	[0, 0, 0]	n/a	catFR1	1	R1475J
677.499	1.6	722464	WORD	n/a	wordpools/wordpool_categorized_EN.txt	FLOOR	Building	5	5	[0, 0, 0]	n/a	catFR1	1	R1475J
679.099	0.882	724066	WORD_OFF	n/a	n/a	FLOOR	Building	5	5	[0, 0, 0]	n/a	catFR1	1	R1475J
679.981	1.6	724944	WORD	n/a	wordpools/wordpool_categorized_EN.txt	ROOF	Building	6	5	[0, 0, 0]	n/a	catFR1	1	R1475J
681.582	0.799	726546	WORD_OFF	n/a	n/a	ROOF	Building	6	5	[0, 0, 0]	n/a	catFR1	1	R1475J
682.381	1.6	727352	WORD	n/a	wordpools/wordpool_categorized_EN.txt	FLEECE	Fabric	7	5	[0, 0, 0]	n/a	catFR1	1	R1475J
683.982	0.834	728943	WORD_OFF	n/a	n/a	FLEECE	Fabric	7	5	[0, 0, 0]	n/a	catFR1	1	R1475J
684.816	1.6	729780	WORD	n/a	wordpools/wordpool_categorized_EN.txt	SILK	Fabric	8	5	[0, 0, 0]	n/a	catFR1	1	R1475J
686.432	0.884	731403	WORD_OFF	n/a	n/a	SILK	Fabric	8	5	[0, 0, 0]	n/a	catFR1	1	R1475J
687.316	1.6	732281	WORD	n/a	wordpools/wordpool_categorized_EN.txt	ROOM	Building	9	5	[0, 0, 0]	n/a	catFR1	1	R1475J
688.932	0.816	733903	WORD_OFF	n/a	n/a	ROOM	Building	9	5	[0, 0, 0]	n/a	catFR1	1	R1475J
689.748	1.6	734715	WORD	n/a	wordpools/wordpool_categorized_EN.txt	BATHROOM	Building	10	5	[0, 0, 0]	n/a	catFR1	1	R1475J
691.348	0.917	736311	WORD_OFF	n/a	n/a	BATHROOM	Building	10	5	[0, 0, 0]	n/a	catFR1	1	R1475J
692.265	1.6	737231	WORD	n/a	wordpools/wordpool_categorized_EN.txt	SNOW	Weather	11	5	[0, 0, 0]	n/a	catFR1	1	R1475J
693.865	0.851	738832	WORD_OFF	n/a	n/a	SNOW	Weather	11	5	[0, 0, 0]	n/a	catFR1	1	R1475J
694.716	1.6	739680	WORD	n/a	wordpools/wordpool_categorized_EN.txt	CLOUD	Weather	12	5	[0, 0, 0]	n/a	catFR1	1	R1475J
696.333	0.001	741300	PROB	13.182	n/a	n/a	n/a	-999	5	[4, 2, 5]	11.0	catFR1	1	R1475J
696.334	0.0	741301	START	n/a	n/a	n/a	n/a	-999	5	[-999, -999, -999]	n/a	catFR1	1	R1475J
696.333	0.001	741302	WORD_OFF	n/a	n/a	CLOUD	Weather	12	5	[0, 0, 0]	n/a	catFR1	1	R1475J
696.334	0.0	741302	ENCODING_END	n/a	n/a	n/a	n/a	-999	5	[0, 0, 0]	n/a	catFR1	1	R1475J
696.334	13.198	741302	DISTRACT_START	n/a	n/a	n/a	n/a	-999	5	[0, 0, 0]	n/a	catFR1	1	R1475J
709.532	5.134	754498	PROB	5.116	n/a	n/a	n/a	-999	5	[6, 1, 1]	8.0	catFR1	1	R1475J
714.666	11.765	759632	PROB	11.749	n/a	n/a	n/a	-999	5	[6, 8, 5]	19.0	catFR1	1	R1475J
726.431	0.0	771393	DISTRACT_END	n/a	n/a	n/a	n/a	-999	5	[0, 0, 0]	n/a	catFR1	1	R1475J
726.431	2.333	771397	STOP	n/a	n/a	n/a	n/a	-999	5	[-999, -999, -999]	n/a	catFR1	1	R1475J
728.764	8.858	773726	REC_START	n/a	n/a	n/a	n/a	-999	5	[0, 0, 0]	n/a	catFR1	1	R1475J
737.622	2.311	782587	REC_WORD	8.858	n/a	FLOOR	Building	5	5	[0, 0, 0]	n/a	catFR1	1	R1475J
739.933	19.05	784898	REC_WORD	11.169	n/a	ROOF	Building	6	5	[0, 0, 0]	n/a	catFR1	1	R1475J
758.983	2.3	803943	REC_END	n/a	n/a	n/a	n/a	-999	5	[0, 0, 0]	n/a	catFR1	1	R1475J
761.283	10.0	806247	COUNTDOWN_START	n/a	n/a	n/a	n/a	-999	6	[0, 0, 0]	n/a	catFR1	1	R1475J
771.634	0.0	816601	COUNTDOWN_END	n/a	n/a	n/a	n/a	-999	6	[0, 0, 0]	n/a	catFR1	1	R1475J
771.634	2.266	816601	ENCODING_START	n/a	n/a	n/a	n/a	-999	6	[0, 0, 0]	n/a	catFR1	1	R1475J
773.9	1.6	818864	WORD	n/a	wordpools/wordpool_categorized_EN.txt	THUNDERSTORM	Weather	1	6	[0, 0, 0]	n/a	catFR1	1	R1475J
775.5	0.834	820466	WORD_OFF	n/a	n/a	THUNDERSTORM	Weather	1	6	[0, 0, 0]	n/a	catFR1	1	R1475J
776.334	1.6	821292	WORD	n/a	wordpools/wordpool_categorized_EN.txt	TORNADO	Weather	2	6	[0, 0, 0]	n/a	catFR1	1	R1475J
777.934	0.766	822894	WORD_OFF	n/a	n/a	TORNADO	Weather	2	6	[0, 0, 0]	n/a	catFR1	1	R1475J
778.7	1.6	823659	WORD	n/a	wordpools/wordpool_categorized_EN.txt	PINE	Trees	3	6	[0, 0, 0]	n/a	catFR1	1	R1475J
780.315	0.769	825281	WORD_OFF	n/a	n/a	PINE	Trees	3	6	[0, 0, 0]	n/a	catFR1	1	R1475J
781.084	1.6	826046	WORD	n/a	wordpools/wordpool_categorized_EN.txt	WALNUT	Trees	4	6	[0, 0, 0]	n/a	catFR1	1	R1475J
782.684	0.783	827647	WORD_OFF	n/a	n/a	WALNUT	Trees	4	6	[0, 0, 0]	n/a	catFR1	1	R1475J
783.467	1.6	828433	WORD	n/a	wordpools/wordpool_categorized_EN.txt	SUEDE	Fabric	5	6	[0, 0, 0]	n/a	catFR1	1	R1475J
785.067	0.85	830034	WORD_OFF	n/a	n/a	SUEDE	Fabric	5	6	[0, 0, 0]	n/a	catFR1	1	R1475J
785.917	1.6	830882	WORD	n/a	wordpools/wordpool_categorized_EN.txt	NYLON	Fabric	6	6	[0, 0, 0]	n/a	catFR1	1	R1475J
787.533	0.866	832494	WORD_OFF	n/a	n/a	NYLON	Fabric	6	6	[0, 0, 0]	n/a	catFR1	1	R1475J
788.399	1.6	833362	WORD	n/a	wordpools/wordpool_categorized_EN.txt	SPRUCE	Trees	7	6	[0, 0, 0]	n/a	catFR1	1	R1475J
790.0	0.817	834963	WORD_OFF	n/a	n/a	SPRUCE	Trees	7	6	[0, 0, 0]	n/a	catFR1	1	R1475J
790.817	1.6	835780	WORD	n/a	wordpools/wordpool_categorized_EN.txt	EVERGREEN	Trees	8	6	[0, 0, 0]	n/a	catFR1	1	R1475J
792.433	1.0	837392	WORD_OFF	n/a	n/a	EVERGREEN	Trees	8	6	[0, 0, 0]	n/a	catFR1	1	R1475J
793.433	1.6	838394	WORD	n/a	wordpools/wordpool_categorized_EN.txt	VELVET	Fabric	9	6	[0, 0, 0]	n/a	catFR1	1	R1475J
795.05	0.849	840016	WORD_OFF	n/a	n/a	VELVET	Fabric	9	6	[0, 0, 0]	n/a	catFR1	1	R1475J
795.899	1.6	840864	WORD	n/a	wordpools/wordpool_categorized_EN.txt	SPANDEX	Fabric	10	6	[0, 0, 0]	n/a	catFR1	1	R1475J
797.516	0.817	842476	WORD_OFF	n/a	n/a	SPANDEX	Fabric	10	6	[0, 0, 0]	n/a	catFR1	1	R1475J
798.333	1.6	843292	WORD	n/a	wordpools/wordpool_categorized_EN.txt	DRIZZLE	Weather	11	6	[0, 0, 0]	n/a	catFR1	1	R1475J
799.948	0.818	844914	WORD_OFF	n/a	n/a	DRIZZLE	Weather	11	6	[0, 0, 0]	n/a	catFR1	1	R1475J
800.766	1.6	845731	WORD	n/a	wordpools/wordpool_categorized_EN.txt	FOG	Weather	12	6	[0, 0, 0]	n/a	catFR1	1	R1475J
802.366	0.002	847328	PROB	6.534	n/a	n/a	n/a	-999	6	[3, 3, 5]	11.0	catFR1	1	R1475J
802.368	0.0	847330	START	n/a	n/a	n/a	n/a	-999	6	[-999, -999, -999]	n/a	catFR1	1	R1475J
802.366	0.002	847332	WORD_OFF	n/a	n/a	FOG	Weather	12	6	[0, 0, 0]	n/a	catFR1	1	R1475J
802.368	0.0	847332	ENCODING_END	n/a	n/a	n/a	n/a	-999	6	[0, 0, 0]	n/a	catFR1	1	R1475J
802.368	6.55	847332	DISTRACT_START	n/a	n/a	n/a	n/a	-999	6	[0, 0, 0]	n/a	catFR1	1	R1475J
808.918	5.998	853880	PROB	5.982	n/a	n/a	n/a	-999	6	[3, 1, 4]	8.0	catFR1	1	R1475J
814.916	8.616	859878	PROB	8.599	n/a	n/a	n/a	-999	6	[7, 8, 2]	17.0	catFR1	1	R1475J
823.532	0.0	868494	STOP	n/a	n/a	n/a	n/a	-999	6	[-999, -999, -999]	n/a	catFR1	1	R1475J
823.532	2.383	868495	DISTRACT_END	n/a	n/a	n/a	n/a	-999	6	[0, 0, 0]	n/a	catFR1	1	R1475J
825.915	0.848	870880	REC_START	n/a	n/a	n/a	n/a	-999	6	[0, 0, 0]	n/a	catFR1	1	R1475J
826.763	2.258	871725	REC_WORD	0.848	n/a	THUNDERSTORM	Weather	1	6	[0, 0, 0]	n/a	catFR1	1	R1475J
829.021	27.102	873982	REC_WORD	3.106	n/a	TORNADO	Weather	2	6	[0, 0, 0]	n/a	catFR1	1	R1475J
856.123	3.627	901086	REC_END	n/a	n/a	n/a	n/a	-999	6	[0, 0, 0]	n/a	catFR1	1	R1475J
859.75	10.0	904713	COUNTDOWN_START	n/a	n/a	n/a	n/a	-999	7	[0, 0, 0]	n/a	catFR1	1	R1475J
870.101	0.0	915057	COUNTDOWN_END	n/a	n/a	n/a	n/a	-999	7	[0, 0, 0]	n/a	catFR1	1	R1475J
870.101	1.983	915057	ENCODING_START	n/a	n/a	n/a	n/a	-999	7	[0, 0, 0]	n/a	catFR1	1	R1475J
872.084	1.6	917041	WORD	n/a	wordpools/wordpool_categorized_EN.txt	CHICKEN	FarmAnimals	1	7	[0, 0, 0]	n/a	catFR1	1	R1475J
873.684	0.916	918643	WORD_OFF	n/a	n/a	CHICKEN	FarmAnimals	1	7	[0, 0, 0]	n/a	catFR1	1	R1475J
874.6	1.6	919562	WORD	n/a	wordpools/wordpool_categorized_EN.txt	BULL	FarmAnimals	2	7	[0, 0, 0]	n/a	catFR1	1	R1475J
876.216	0.766	921174	WORD_OFF	n/a	n/a	BULL	FarmAnimals	2	7	[0, 0, 0]	n/a	catFR1	1	R1475J
876.982	1.6	921939	WORD	n/a	wordpools/wordpool_categorized_EN.txt	BROWNIES	Desserts	3	7	[0, 0, 0]	n/a	catFR1	1	R1475J
878.584	0.916	923541	WORD_OFF	n/a	n/a	BROWNIES	Desserts	3	7	[0, 0, 0]	n/a	catFR1	1	R1475J
879.5	1.6	924460	WORD	n/a	wordpools/wordpool_categorized_EN.txt	COBBLER	Desserts	4	7	[0, 0, 0]	n/a	catFR1	1	R1475J
881.1	0.884	926062	WORD_OFF	n/a	n/a	COBBLER	Desserts	4	7	[0, 0, 0]	n/a	catFR1	1	R1475J
881.984	1.6	926940	WORD	n/a	wordpools/wordpool_categorized_EN.txt	WOOL	Fabric	5	7	[0, 0, 0]	n/a	catFR1	1	R1475J
883.6	0.767	928563	WORD_OFF	n/a	n/a	WOOL	Fabric	5	7	[0, 0, 0]	n/a	catFR1	1	R1475J
884.367	1.6	929327	WORD	n/a	wordpools/wordpool_categorized_EN.txt	DENIM	Fabric	6	7	[0, 0, 0]	n/a	catFR1	1	R1475J
885.967	0.8	930929	WORD_OFF	n/a	n/a	DENIM	Fabric	6	7	[0, 0, 0]	n/a	catFR1	1	R1475J
886.767	1.6	931725	WORD	n/a	wordpools/wordpool_categorized_EN.txt	PIE	Desserts	7	7	[0, 0, 0]	n/a	catFR1	1	R1475J
888.367	0.899	933326	WORD_OFF	n/a	n/a	PIE	Desserts	7	7	[0, 0, 0]	n/a	catFR1	1	R1475J
889.266	1.6	934225	WORD	n/a	wordpools/wordpool_categorized_EN.txt	CUPCAKE	Desserts	8	7	[0, 0, 0]	n/a	catFR1	1	R1475J
890.867	0.95	935827	WORD_OFF	n/a	n/a	CUPCAKE	Desserts	8	7	[0, 0, 0]	n/a	catFR1	1	R1475J
891.817	1.6	936778	WORD	n/a	wordpools/wordpool_categorized_EN.txt	CALF	FarmAnimals	9	7	[0, 0, 0]	n/a	catFR1	1	R1475J
893.434	0.765	938390	WORD_OFF	n/a	n/a	CALF	FarmAnimals	9	7	[0, 0, 0]	n/a	catFR1	1	R1475J
894.199	1.6	939154	WORD	n/a	wordpools/wordpool_categorized_EN.txt	ROOSTER	FarmAnimals	10	7	[0, 0, 0]	n/a	catFR1	1	R1475J
895.801	0.899	940766	WORD_OFF	n/a	n/a	ROOSTER	FarmAnimals	10	7	[0, 0, 0]	n/a	catFR1	1	R1475J
896.7	1.6	941655	WORD	n/a	wordpools/wordpool_categorized_EN.txt	LEATHER	Fabric	11	7	[0, 0, 0]	n/a	catFR1	1	R1475J
898.317	0.883	943277	WORD_OFF	n/a	n/a	LEATHER	Fabric	11	7	[0, 0, 0]	n/a	catFR1	1	R1475J
899.2	1.6	944156	WORD	n/a	wordpools/wordpool_categorized_EN.txt	SATIN	Fabric	12	7	[0, 0, 0]	n/a	catFR1	1	R1475J
900.816	0.002	945774	PROB	9.849	n/a	n/a	n/a	-999	7	[4, 7, 5]	16.0	catFR1	1	R1475J
900.818	0.0	945776	START	n/a	n/a	n/a	n/a	-999	7	[-999, -999, -999]	n/a	catFR1	1	R1475J
900.817	0.001	945778	WORD_OFF	n/a	n/a	SATIN	Fabric	12	7	[0, 0, 0]	n/a	catFR1	1	R1475J
900.818	0.0	945778	ENCODING_END	n/a	n/a	n/a	n/a	-999	7	[0, 0, 0]	n/a	catFR1	1	R1475J
900.818	9.865	945778	DISTRACT_START	n/a	n/a	n/a	n/a	-999	7	[0, 0, 0]	n/a	catFR1	1	R1475J
910.683	7.1	955641	PROB	7.082	n/a	n/a	n/a	-999	7	[5, 8, 8]	21.0	catFR1	1	R1475J
917.783	10.582	962741	PROB	10.565	n/a	n/a	n/a	-999	7	[4, 8, 6]	18.0	catFR1	1	R1475J
928.365	0.0	973322	STOP	n/a	n/a	n/a	n/a	-999	7	[-999, -999, -999]	n/a	catFR1	1	R1475J
928.365	2.401	973327	DISTRACT_END	n/a	n/a	n/a	n/a	-999	7	[0, 0, 0]	n/a	catFR1	1	R1475J
930.766	9.673	975722	REC_START	n/a	n/a	n/a	n/a	-999	7	[0, 0, 0]	n/a	catFR1	1	R1475J
940.439	20.556	985396	REC_WORD	9.673	n/a	CHICKEN	FarmAnimals	1	7	[0, 0, 0]	n/a	catFR1	1	R1475J
960.995	2.37	1005949	REC_END	n/a	n/a	n/a	n/a	-999	7	[0, 0, 0]	n/a	catFR1	1	R1475J
963.365	10.0	1008326	COUNTDOWN_START	n/a	n/a	n/a	n/a	-999	8	[0, 0, 0]	n/a	catFR1	1	R1475J
973.715	0.0	1018669	COUNTDOWN_END	n/a	n/a	n/a	n/a	-999	8	[0, 0, 0]	n/a	catFR1	1	R1475J
973.715	1.984	1018669	ENCODING_START	n/a	n/a	n/a	n/a	-999	8	[0, 0, 0]	n/a	catFR1	1	R1475J
975.699	1.6	1020653	WORD	n/a	wordpools/wordpool_categorized_EN.txt	LEVEL	Tools	1	8	[0, 0, 0]	n/a	catFR1	1	R1475J
977.315	0.984	1022275	WORD_OFF	n/a	n/a	LEVEL	Tools	1	8	[0, 0, 0]	n/a	catFR1	1	R1475J
978.299	1.6	1023257	WORD	n/a	wordpools/wordpool_categorized_EN.txt	HAMMER	Tools	2	8	[0, 0, 0]	n/a	catFR1	1	R1475J
979.916	0.933	1024869	WORD_OFF	n/a	n/a	HAMMER	Tools	2	8	[0, 0, 0]	n/a	catFR1	1	R1475J
980.849	1.6	1025799	WORD	n/a	wordpools/wordpool_categorized_EN.txt	COW	FarmAnimals	3	8	[0, 0, 0]	n/a	catFR1	1	R1475J
982.449	0.783	1027401	WORD_OFF	n/a	n/a	COW	FarmAnimals	3	8	[0, 0, 0]	n/a	catFR1	1	R1475J
983.232	1.6	1028186	WORD	n/a	wordpools/wordpool_categorized_EN.txt	HEN	FarmAnimals	4	8	[0, 0, 0]	n/a	catFR1	1	R1475J
984.832	0.883	1029788	WORD_OFF	n/a	n/a	HEN	FarmAnimals	4	8	[0, 0, 0]	n/a	catFR1	1	R1475J
985.715	1.6	1030666	WORD	n/a	wordpools/wordpool_categorized_EN.txt	COLA	Beverages	5	8	[0, 0, 0]	n/a	catFR1	1	R1475J
987.315	0.883	1032268	WORD_OFF	n/a	n/a	COLA	Beverages	5	8	[0, 0, 0]	n/a	catFR1	1	R1475J
988.198	1.6	1033156	WORD	n/a	wordpools/wordpool_categorized_EN.txt	TEA	Beverages	6	8	[0, 0, 0]	n/a	catFR1	1	R1475J
989.798	0.884	1034748	WORD_OFF	n/a	n/a	TEA	Beverages	6	8	[0, 0, 0]	n/a	catFR1	1	R1475J
990.682	1.6	1035636	WORD	n/a	wordpools/wordpool_categorized_EN.txt	GOAT	FarmAnimals	7	8	[0, 0, 0]	n/a	catFR1	1	R1475J
992.298	0.801	1037248	WORD_OFF	n/a	n/a	GOAT	FarmAnimals	7	8	[0, 0, 0]	n/a	catFR1	1	R1475J
993.099	1.6	1038054	WORD	n/a	wordpools/wordpool_categorized_EN.txt	LAMB	FarmAnimals	8	8	[0, 0, 0]	n/a	catFR1	1	R1475J
994.715	0.867	1039666	WORD_OFF	n/a	n/a	LAMB	FarmAnimals	8	8	[0, 0, 0]	n/a	catFR1	1	R1475J
995.582	1.6	1040534	WORD	n/a	wordpools/wordpool_categorized_EN.txt	SCREWDRIVER	Tools	9	8	[0, 0, 0]	n/a	catFR1	1	R1475J
997.182	0.783	1042136	WORD_OFF	n/a	n/a	SCREWDRIVER	Tools	9	8	[0, 0, 0]	n/a	catFR1	1	R1475J
997.965	1.6	1042921	WORD	n/a	wordpools/wordpool_categorized_EN.txt	AXE	Tools	10	8	[0, 0, 0]	n/a	catFR1	1	R1475J
999.582	0.833	1044533	WORD_OFF	n/a	n/a	AXE	Tools	10	8	[0, 0, 0]	n/a	catFR1	1	R1475J
1000.415	1.6	1045370	WORD	n/a	wordpools/wordpool_categorized_EN.txt	MILK	Beverages	11	8	[0, 0, 0]	n/a	catFR1	1	R1475J
1002.015	0.966	1046972	WORD_OFF	n/a	n/a	MILK	Beverages	11	8	[0, 0, 0]	n/a	catFR1	1	R1475J
1002.981	1.6	1047933	WORD	n/a	wordpools/wordpool_categorized_EN.txt	SODA	Beverages	12	8	[0, 0, 0]	n/a	catFR1	1	R1475J
1004.582	0.002	1049535	WORD_OFF	n/a	n/a	SODA	Beverages	12	8	[0, 0, 0]	n/a	catFR1	1	R1475J
1004.584	0.0	1049535	ENCODING_END	n/a	n/a	n/a	n/a	-999	8	[0, 0, 0]	n/a	catFR1	1	R1475J
1004.584	0.0	1049535	DISTRACT_START	n/a	n/a	n/a	n/a	-999	8	[0, 0, 0]	n/a	catFR1	1	R1475J
1004.583	0.001	1049537	PROB	6.549	n/a	n/a	n/a	-999	8	[2, 2, 3]	7.0	catFR1	1	R1475J
1004.584	6.565	1049538	START	n/a	n/a	n/a	n/a	-999	8	[-999, -999, -999]	n/a	catFR1	1	R1475J
1011.149	5.25	1056103	PROB	5.232	n/a	n/a	n/a	-999	8	[3, 5, 1]	9.0	catFR1	1	R1475J
1016.399	7.033	1061353	PROB	7.016	n/a	n/a	n/a	-999	8	[2, 4, 7]	13.0	catFR1	1	R1475J
1023.432	6.5	1068385	PROB	6.483	n/a	n/a	n/a	-999	8	[2, 5, 4]	11.0	catFR1	1	R1475J
1029.932	0.0	1074882	DISTRACT_END	n/a	n/a	n/a	n/a	-999	8	[0, 0, 0]	n/a	catFR1	1	R1475J
1029.932	2.049	1074885	STOP	n/a	n/a	n/a	n/a	-999	8	[-999, -999, -999]	n/a	catFR1	1	R1475J
1031.981	8.601	1076936	REC_START	n/a	n/a	n/a	n/a	-999	8	[0, 0, 0]	n/a	catFR1	1	R1475J
1040.582	1.122	1085535	REC_WORD	8.601	n/a	COW	FarmAnimals	3	8	[0, 0, 0]	n/a	catFR1	1	R1475J
1041.704	2.095	1086656	REC_WORD	9.723	n/a	LAMB	FarmAnimals	8	8	[0, 0, 0]	n/a	catFR1	1	R1475J
1043.799	8.005	1088751	REC_WORD	11.818	n/a	GOAT	FarmAnimals	7	8	[0, 0, 0]	n/a	catFR1	1	R1475J
1051.804	10.385	1096756	REC_WORD	19.823	n/a	THUNDERSTORM	Weather	-999	8	[0, 0, 0]	n/a	catFR1	1	R1475J
1062.189	1.71	1107143	REC_END	n/a	n/a	n/a	n/a	-999	8	[0, 0, 0]	n/a	catFR1	1	R1475J
1063.899	10.0	1108848	COUNTDOWN_START	n/a	n/a	n/a	n/a	-999	9	[0, 0, 0]	n/a	catFR1	1	R1475J
1074.248	0.0	1119202	COUNTDOWN_END	n/a	n/a	n/a	n/a	-999	9	[0, 0, 0]	n/a	catFR1	1	R1475J
1074.248	2.319	1119202	ENCODING_START	n/a	n/a	n/a	n/a	-999	9	[0, 0, 0]	n/a	catFR1	1	R1475J
1076.567	1.6	1121517	WORD	n/a	wordpools/wordpool_categorized_EN.txt	FOUNDATION	Building	1	9	[0, 0, 0]	n/a	catFR1	1	R1475J
1078.167	0.817	1123118	WORD_OFF	n/a	n/a	FOUNDATION	Building	1	9	[0, 0, 0]	n/a	catFR1	1	R1475J
1078.984	1.6	1123935	WORD	n/a	wordpools/wordpool_categorized_EN.txt	WALL	Building	2	9	[0, 0, 0]	n/a	catFR1	1	R1475J
1080.583	0.901	1125536	WORD_OFF	n/a	n/a	WALL	Building	2	9	[0, 0, 0]	n/a	catFR1	1	R1475J
1081.484	1.6	1126435	WORD	n/a	wordpools/wordpool_categorized_EN.txt	PIGEON	Birds	3	9	[0, 0, 0]	n/a	catFR1	1	R1475J
1083.099	0.785	1128047	WORD_OFF	n/a	n/a	PIGEON	Birds	3	9	[0, 0, 0]	n/a	catFR1	1	R1475J
1083.884	1.6	1128833	WORD	n/a	wordpools/wordpool_categorized_EN.txt	ROBIN	Birds	4	9	[0, 0, 0]	n/a	catFR1	1	R1475J
1085.501	0.983	1130455	WORD_OFF	n/a	n/a	ROBIN	Birds	4	9	[0, 0, 0]	n/a	catFR1	1	R1475J
1086.484	1.6	1131437	WORD	n/a	wordpools/wordpool_categorized_EN.txt	TABLET	Electronics	5	9	[0, 0, 0]	n/a	catFR1	1	R1475J
1088.083	0.983	1133038	WORD_OFF	n/a	n/a	TABLET	Electronics	5	9	[0, 0, 0]	n/a	catFR1	1	R1475J
1089.066	1.6	1134020	WORD	n/a	wordpools/wordpool_categorized_EN.txt	PHONE	Electronics	6	9	[0, 0, 0]	n/a	catFR1	1	R1475J
1090.667	1.0	1135622	WORD_OFF	n/a	n/a	PHONE	Electronics	6	9	[0, 0, 0]	n/a	catFR1	1	R1475J
1091.667	1.6	1136614	WORD	n/a	wordpools/wordpool_categorized_EN.txt	DOVE	Birds	7	9	[0, 0, 0]	n/a	catFR1	1	R1475J
1093.267	0.983	1138215	WORD_OFF	n/a	n/a	DOVE	Birds	7	9	[0, 0, 0]	n/a	catFR1	1	R1475J
1094.25	1.6	1139197	WORD	n/a	wordpools/wordpool_categorized_EN.txt	FINCH	Birds	8	9	[0, 0, 0]	n/a	catFR1	1	R1475J
1095.867	0.798	1140819	WORD_OFF	n/a	n/a	FINCH	Birds	8	9	[0, 0, 0]	n/a	catFR1	1	R1475J
1096.665	1.6	1141615	WORD	n/a	wordpools/wordpool_categorized_EN.txt	STAIRS	Building	9	9	[0, 0, 0]	n/a	catFR1	1	R1475J
1098.266	0.784	1143217	WORD_OFF	n/a	n/a	STAIRS	Building	9	9	[0, 0, 0]	n/a	catFR1	1	R1475J
1099.05	1.6	1144002	WORD	n/a	wordpools/wordpool_categorized_EN.txt	WINDOW	Building	10	9	[0, 0, 0]	n/a	catFR1	1	R1475J
1100.667	0.799	1145614	WORD_OFF	n/a	n/a	WINDOW	Building	10	9	[0, 0, 0]	n/a	catFR1	1	R1475J
1101.466	1.6	1146420	WORD	n/a	wordpools/wordpool_categorized_EN.txt	STEREO	Electronics	11	9	[0, 0, 0]	n/a	catFR1	1	R1475J
1103.067	0.833	1148011	WORD_OFF	n/a	n/a	STEREO	Electronics	11	9	[0, 0, 0]	n/a	catFR1	1	R1475J
1103.9	1.6	1148848	WORD	n/a	wordpools/wordpool_categorized_EN.txt	COMPUTER	Electronics	12	9	[0, 0, 0]	n/a	catFR1	1	R1475J
1105.501	0.001	1150450	WORD_OFF	n/a	n/a	COMPUTER	Electronics	12	9	[0, 0, 0]	n/a	catFR1	1	R1475J
1105.502	0.0	1150450	ENCODING_END	n/a	n/a	n/a	n/a	-999	9	[0, 0, 0]	n/a	catFR1	1	R1475J
1105.502	0.0	1150450	DISTRACT_START	n/a	n/a	n/a	n/a	-999	9	[0, 0, 0]	n/a	catFR1	1	R1475J
1105.5	0.002	1150450	PROB	9.416	n/a	n/a	n/a	-999	9	[7, 2, 5]	14.0	catFR1	1	R1475J
1105.502	9.43	1150452	START	n/a	n/a	n/a	n/a	-999	9	[-999, -999, -999]	n/a	catFR1	1	R1475J
1114.932	8.717	1159881	PROB	8.7	n/a	n/a	n/a	-999	9	[4, 6, 5]	15.0	catFR1	1	R1475J
1123.649	8.351	1168598	PROB	8.333	n/a	n/a	n/a	-999	9	[5, 6, 5]	16.0	catFR1	1	R1475J
1132.0	0.0	1176945	DISTRACT_END	n/a	n/a	n/a	n/a	-999	9	[0, 0, 0]	n/a	catFR1	1	R1475J
1132.0	2.216	1176949	STOP	n/a	n/a	n/a	n/a	-999	9	[-999, -999, -999]	n/a	catFR1	1	R1475J
1134.216	3.074	1179164	REC_START	n/a	n/a	n/a	n/a	-999	9	[0, 0, 0]	n/a	catFR1	1	R1475J
1137.29	0.635	1182238	REC_WORD	3.074	n/a	FLOOR	Building	-999	9	[0, 0, 0]	n/a	catFR1	1	R1475J
1137.925	4.909	1182873	REC_WORD	3.709	n/a	FOUNDATION	Building	1	9	[0, 0, 0]	n/a	catFR1	1	R1475J
1142.834	21.608	1187782	REC_WORD	8.618	n/a	WALL	Building	2	9	[0, 0, 0]	n/a	catFR1	1	R1475J
1164.442	2.008	1209391	REC_END	n/a	n/a	n/a	n/a	-999	9	[0, 0, 0]	n/a	catFR1	1	R1475J
1166.45	10.0	1211396	COUNTDOWN_START	n/a	n/a	n/a	n/a	-999	10	[0, 0, 0]	n/a	catFR1	1	R1475J
1176.8	0.0	1221750	COUNTDOWN_END	n/a	n/a	n/a	n/a	-999	10	[0, 0, 0]	n/a	catFR1	1	R1475J
1176.8	2.134	1221750	ENCODING_START	n/a	n/a	n/a	n/a	-999	10	[0, 0, 0]	n/a	catFR1	1	R1475J
1178.934	1.6	1223879	WORD	n/a	wordpools/wordpool_categorized_EN.txt	CEILING	Building	1	10	[0, 0, 0]	n/a	catFR1	1	R1475J
1180.55	0.8	1225501	WORD_OFF	n/a	n/a	CEILING	Building	1	10	[0, 0, 0]	n/a	catFR1	1	R1475J
1181.35	1.6	1226297	WORD	n/a	wordpools/wordpool_categorized_EN.txt	ATTIC	Building	2	10	[0, 0, 0]	n/a	catFR1	1	R1475J
1182.951	0.849	1227898	WORD_OFF	n/a	n/a	ATTIC	Building	2	10	[0, 0, 0]	n/a	catFR1	1	R1475J
1183.8	1.6	1228746	WORD	n/a	wordpools/wordpool_categorized_EN.txt	SOCKS	Clothing	3	10	[0, 0, 0]	n/a	catFR1	1	R1475J
1185.417	0.85	1230368	WORD_OFF	n/a	n/a	SOCKS	Clothing	3	10	[0, 0, 0]	n/a	catFR1	1	R1475J
1186.267	1.6	1231215	WORD	n/a	wordpools/wordpool_categorized_EN.txt	DRESS	Clothing	4	10	[0, 0, 0]	n/a	catFR1	1	R1475J
1187.867	0.9	1232817	WORD_OFF	n/a	n/a	DRESS	Clothing	4	10	[0, 0, 0]	n/a	catFR1	1	R1475J
1188.767	1.6	1233716	WORD	n/a	wordpools/wordpool_categorized_EN.txt	CROWBAR	Tools	5	10	[0, 0, 0]	n/a	catFR1	1	R1475J
1190.367	0.9	1235318	WORD_OFF	n/a	n/a	CROWBAR	Tools	5	10	[0, 0, 0]	n/a	catFR1	1	R1475J
1191.267	1.6	1236217	WORD	n/a	wordpools/wordpool_categorized_EN.txt	RATCHET	Tools	6	10	[0, 0, 0]	n/a	catFR1	1	R1475J
1192.867	0.866	1237812	WORD_OFF	n/a	n/a	RATCHET	Tools	6	10	[0, 0, 0]	n/a	catFR1	1	R1475J
1193.733	1.6	1238676	WORD	n/a	wordpools/wordpool_categorized_EN.txt	DOOR	Building	7	10	[0, 0, 0]	n/a	catFR1	1	R1475J
1195.334	0.983	1240278	WORD_OFF	n/a	n/a	DOOR	Building	7	10	[0, 0, 0]	n/a	catFR1	1	R1475J
1196.317	1.6	1241259	WORD	n/a	wordpools/wordpool_categorized_EN.txt	HALLWAY	Building	8	10	[0, 0, 0]	n/a	catFR1	1	R1475J
1197.916	1.001	1242861	WORD_OFF	n/a	n/a	HALLWAY	Building	8	10	[0, 0, 0]	n/a	catFR1	1	R1475J
1198.917	1.6	1243863	WORD	n/a	wordpools/wordpool_categorized_EN.txt	SANDER	Tools	9	10	[0, 0, 0]	n/a	catFR1	1	R1475J
1200.517	0.95	1245465	WORD_OFF	n/a	n/a	SANDER	Tools	9	10	[0, 0, 0]	n/a	catFR1	1	R1475J
1201.467	1.6	1246416	WORD	n/a	wordpools/wordpool_categorized_EN.txt	PLIERS	Tools	10	10	[0, 0, 0]	n/a	catFR1	1	R1475J
1203.083	0.984	1248028	WORD_OFF	n/a	n/a	PLIERS	Tools	10	10	[0, 0, 0]	n/a	catFR1	1	R1475J
1204.067	1.6	1249009	WORD	n/a	wordpools/wordpool_categorized_EN.txt	BLOUSE	Clothing	11	10	[0, 0, 0]	n/a	catFR1	1	R1475J
1205.683	0.767	1250632	WORD_OFF	n/a	n/a	BLOUSE	Clothing	11	10	[0, 0, 0]	n/a	catFR1	1	R1475J
1206.45	1.6	1251396	WORD	n/a	wordpools/wordpool_categorized_EN.txt	SHOES	Clothing	12	10	[0, 0, 0]	n/a	catFR1	1	R1475J
1208.066	0.001	1253008	WORD_OFF	n/a	n/a	SHOES	Clothing	12	10	[0, 0, 0]	n/a	catFR1	1	R1475J
1208.067	0.0	1253008	ENCODING_END	n/a	n/a	n/a	n/a	-999	10	[0, 0, 0]	n/a	catFR1	1	R1475J
1208.067	0.0	1253012	START	n/a	n/a	n/a	n/a	-999	10	[-999, -999, -999]	n/a	catFR1	1	R1475J
1208.067	0.0	1253012	PROB	7.699	n/a	n/a	n/a	-999	10	[4, 7, 2]	13.0	catFR1	1	R1475J
1208.067	7.716	1253019	DISTRACT_START	n/a	n/a	n/a	n/a	-999	10	[0, 0, 0]	n/a	catFR1	1	R1475J
1215.783	6.332	1260728	PROB	6.316	n/a	n/a	n/a	-999	10	[5, 1, 1]	7.0	catFR1	1	R1475J
1222.115	5.35	1267060	PROB	5.333	n/a	n/a	n/a	-999	10	[1, 5, 1]	7.0	catFR1	1	R1475J
1227.465	9.318	1272410	PROB	9.301	n/a	n/a	n/a	-999	10	[7, 6, 1]	14.0	catFR1	1	R1475J
1236.783	0.0	1281725	DISTRACT_END	n/a	n/a	n/a	n/a	-999	10	[0, 0, 0]	n/a	catFR1	1	R1475J
1236.783	2.199	1281727	STOP	n/a	n/a	n/a	n/a	-999	10	[-999, -999, -999]	n/a	catFR1	1	R1475J
1238.982	2.569	1283923	REC_START	n/a	n/a	n/a	n/a	-999	10	[0, 0, 0]	n/a	catFR1	1	R1475J
1241.551	27.648	1286495	REC_WORD	2.569	n/a	CEILING	Building	1	10	[0, 0, 0]	n/a	catFR1	1	R1475J
1269.199	1.935	1314140	REC_END	n/a	n/a	n/a	n/a	-999	10	[0, 0, 0]	n/a	catFR1	1	R1475J
1271.134	10.0	1316083	COUNTDOWN_START	n/a	n/a	n/a	n/a	-999	11	[0, 0, 0]	n/a	catFR1	1	R1475J
1281.481	0.0	1326427	COUNTDOWN_END	n/a	n/a	n/a	n/a	-999	11	[0, 0, 0]	n/a	catFR1	1	R1475J
1281.481	2.117	1326427	ENCODING_START	n/a	n/a	n/a	n/a	-999	11	[0, 0, 0]	n/a	catFR1	1	R1475J
1283.598	1.6	1328545	WORD	n/a	wordpools/wordpool_categorized_EN.txt	SHEEP	FarmAnimals	1	11	[0, 0, 0]	n/a	catFR1	1	R1475J
1285.2	0.9	1330147	WORD_OFF	n/a	n/a	SHEEP	FarmAnimals	1	11	[0, 0, 0]	n/a	catFR1	1	R1475J
1286.1	1.6	1331046	WORD	n/a	wordpools/wordpool_categorized_EN.txt	TURKEY	FarmAnimals	2	11	[0, 0, 0]	n/a	catFR1	1	R1475J
1287.717	1.0	1332658	WORD_OFF	n/a	n/a	TURKEY	FarmAnimals	2	11	[0, 0, 0]	n/a	catFR1	1	R1475J
1288.717	1.6	1333660	WORD	n/a	wordpools/wordpool_categorized_EN.txt	TELEVISION	Electronics	3	11	[0, 0, 0]	n/a	catFR1	1	R1475J
1290.334	0.966	1335272	WORD_OFF	n/a	n/a	TELEVISION	Electronics	3	11	[0, 0, 0]	n/a	catFR1	1	R1475J
1291.3	1.6	1336243	WORD	n/a	wordpools/wordpool_categorized_EN.txt	HEADPHONES	Electronics	4	11	[0, 0, 0]	n/a	catFR1	1	R1475J
1292.9	0.766	1337845	WORD_OFF	n/a	n/a	HEADPHONES	Electronics	4	11	[0, 0, 0]	n/a	catFR1	1	R1475J
1293.666	1.6	1338610	WORD	n/a	wordpools/wordpool_categorized_EN.txt	JACKET	Clothing	5	11	[0, 0, 0]	n/a	catFR1	1	R1475J
1295.267	0.899	1340211	WORD_OFF	n/a	n/a	JACKET	Clothing	5	11	[0, 0, 0]	n/a	catFR1	1	R1475J
1296.166	1.6	1341110	WORD	n/a	wordpools/wordpool_categorized_EN.txt	COAT	Clothing	6	11	[0, 0, 0]	n/a	catFR1	1	R1475J
1297.783	0.884	1342722	WORD_OFF	n/a	n/a	COAT	Clothing	6	11	[0, 0, 0]	n/a	catFR1	1	R1475J
1298.667	1.6	1343611	WORD	n/a	wordpools/wordpool_categorized_EN.txt	RADIO	Electronics	7	11	[0, 0, 0]	n/a	catFR1	1	R1475J
1300.282	0.867	1345223	WORD_OFF	n/a	n/a	RADIO	Electronics	7	11	[0, 0, 0]	n/a	catFR1	1	R1475J
1301.149	1.6	1346091	WORD	n/a	wordpools/wordpool_categorized_EN.txt	SPEAKER	Electronics	8	11	[0, 0, 0]	n/a	catFR1	1	R1475J
1302.75	0.866	1347693	WORD_OFF	n/a	n/a	SPEAKER	Electronics	8	11	[0, 0, 0]	n/a	catFR1	1	R1475J
1303.616	1.6	1348561	WORD	n/a	wordpools/wordpool_categorized_EN.txt	SHORTS	Clothing	9	11	[0, 0, 0]	n/a	catFR1	1	R1475J
1305.233	0.983	1350173	WORD_OFF	n/a	n/a	SHORTS	Clothing	9	11	[0, 0, 0]	n/a	catFR1	1	R1475J
1306.216	1.6	1351154	WORD	n/a	wordpools/wordpool_categorized_EN.txt	UNDERWEAR	Clothing	10	11	[0, 0, 0]	n/a	catFR1	1	R1475J
1307.816	0.933	1352756	WORD_OFF	n/a	n/a	UNDERWEAR	Clothing	10	11	[0, 0, 0]	n/a	catFR1	1	R1475J
1308.749	1.6	1353686	WORD	n/a	wordpools/wordpool_categorized_EN.txt	PIG	FarmAnimals	11	11	[0, 0, 0]	n/a	catFR1	1	R1475J
1310.349	0.984	1355288	WORD_OFF	n/a	n/a	PIG	FarmAnimals	11	11	[0, 0, 0]	n/a	catFR1	1	R1475J
1311.333	1.6	1356269	WORD	n/a	wordpools/wordpool_categorized_EN.txt	HORSE	FarmAnimals	12	11	[0, 0, 0]	n/a	catFR1	1	R1475J
1312.933	0.0	1357871	WORD_OFF	n/a	n/a	HORSE	FarmAnimals	12	11	[0, 0, 0]	n/a	catFR1	1	R1475J
1312.933	0.002	1357874	PROB	6.032	n/a	n/a	n/a	-999	11	[6, 2, 3]	11.0	catFR1	1	R1475J
1312.935	0.0	1357876	START	n/a	n/a	n/a	n/a	-999	11	[-999, -999, -999]	n/a	catFR1	1	R1475J
1312.935	0.0	1357881	ENCODING_END	n/a	n/a	n/a	n/a	-999	11	[0, 0, 0]	n/a	catFR1	1	R1475J
1312.935	6.047	1357881	DISTRACT_START	n/a	n/a	n/a	n/a	-999	11	[0, 0, 0]	n/a	catFR1	1	R1475J
1318.982	7.268	1363923	PROB	7.25	n/a	n/a	n/a	-999	11	[7, 1, 2]	10.0	catFR1	1	R1475J
1326.25	8.515	1371191	PROB	8.498	n/a	n/a	n/a	-999	11	[1, 7, 2]	10.0	catFR1	1	R1475J
1334.765	0.0	1379705	DISTRACT_END	n/a	n/a	n/a	n/a	-999	11	[0, 0, 0]	n/a	catFR1	1	R1475J
1334.765	2.201	1379705	STOP	n/a	n/a	n/a	n/a	-999	11	[-999, -999, -999]	n/a	catFR1	1	R1475J
1336.966	4.86	1381904	REC_START	n/a	n/a	n/a	n/a	-999	11	[0, 0, 0]	n/a	catFR1	1	R1475J
1341.826	9.356	1386766	REC_WORD	4.86	n/a	PIG	FarmAnimals	11	11	[0, 0, 0]	n/a	catFR1	1	R1475J
1351.182	0.974	1396122	REC_WORD	14.216	n/a	HEADPHONES	Electronics	4	11	[0, 0, 0]	n/a	catFR1	1	R1475J
1352.156	9.536	1397095	REC_WORD	15.19	n/a	RADIO	Electronics	7	11	[0, 0, 0]	n/a	catFR1	1	R1475J
1361.692	1.726	1406631	REC_WORD	24.726	n/a	SOCKS	Clothing	-999	11	[0, 0, 0]	n/a	catFR1	1	R1475J
1363.418	3.788	1408357	REC_WORD	26.452	n/a	UNDERWEAR	Clothing	10	11	[0, 0, 0]	n/a	catFR1	1	R1475J
1367.206	1.843	1412142	REC_END	n/a	n/a	n/a	n/a	-999	11	[0, 0, 0]	n/a	catFR1	1	R1475J
1369.049	10.0	1413991	COUNTDOWN_START	n/a	n/a	n/a	n/a	-999	12	[0, 0, 0]	n/a	catFR1	1	R1475J
1379.399	0.0	1424335	COUNTDOWN_END	n/a	n/a	n/a	n/a	-999	12	[0, 0, 0]	n/a	catFR1	1	R1475J
1379.399	2.335	1424335	ENCODING_START	n/a	n/a	n/a	n/a	-999	12	[0, 0, 0]	n/a	catFR1	1	R1475J
1381.734	1.6	1426670	WORD	n/a	wordpools/wordpool_categorized_EN.txt	DRILL	Tools	1	12	[0, 0, 0]	n/a	catFR1	1	R1475J
1383.35	0.783	1428282	WORD_OFF	n/a	n/a	DRILL	Tools	1	12	[0, 0, 0]	n/a	catFR1	1	R1475J
1384.133	1.6	1429068	WORD	n/a	wordpools/wordpool_categorized_EN.txt	WRENCH	Tools	2	12	[0, 0, 0]	n/a	catFR1	1	R1475J
1385.75	0.8	1430690	WORD_OFF	n/a	n/a	WRENCH	Tools	2	12	[0, 0, 0]	n/a	catFR1	1	R1475J
1386.55	1.6	1431486	WORD	n/a	wordpools/wordpool_categorized_EN.txt	PRINTER	Electronics	3	12	[0, 0, 0]	n/a	catFR1	1	R1475J
1388.167	0.783	1433108	WORD_OFF	n/a	n/a	PRINTER	Electronics	3	12	[0, 0, 0]	n/a	catFR1	1	R1475J
1388.95	1.6	1433883	WORD	n/a	wordpools/wordpool_categorized_EN.txt	CALCULATOR	Electronics	4	12	[0, 0, 0]	n/a	catFR1	1	R1475J
1390.567	0.914	1435505	WORD_OFF	n/a	n/a	CALCULATOR	Electronics	4	12	[0, 0, 0]	n/a	catFR1	1	R1475J
1391.481	1.6	1436415	WORD	n/a	wordpools/wordpool_categorized_EN.txt	LEMONADE	Beverages	5	12	[0, 0, 0]	n/a	catFR1	1	R1475J
1393.1	1.0	1438037	WORD_OFF	n/a	n/a	LEMONADE	Beverages	5	12	[0, 0, 0]	n/a	catFR1	1	R1475J
1394.1	1.6	1439039	WORD	n/a	wordpools/wordpool_categorized_EN.txt	CIDER	Beverages	6	12	[0, 0, 0]	n/a	catFR1	1	R1475J
1395.715	0.917	1440651	WORD_OFF	n/a	n/a	CIDER	Beverages	6	12	[0, 0, 0]	n/a	catFR1	1	R1475J
1396.632	1.6	1441571	WORD	n/a	wordpools/wordpool_categorized_EN.txt	SCANNER	Electronics	7	12	[0, 0, 0]	n/a	catFR1	1	R1475J
1398.249	1.0	1443183	WORD_OFF	n/a	n/a	SCANNER	Electronics	7	12	[0, 0, 0]	n/a	catFR1	1	R1475J
1399.249	1.6	1444185	WORD	n/a	wordpools/wordpool_categorized_EN.txt	MICROWAVE	Electronics	8	12	[0, 0, 0]	n/a	catFR1	1	R1475J
1400.849	0.884	1445787	WORD_OFF	n/a	n/a	MICROWAVE	Electronics	8	12	[0, 0, 0]	n/a	catFR1	1	R1475J
1401.733	1.6	1446676	WORD	n/a	wordpools/wordpool_categorized_EN.txt	COFFEE	Beverages	9	12	[0, 0, 0]	n/a	catFR1	1	R1475J
1403.333	0.767	1448267	WORD_OFF	n/a	n/a	COFFEE	Beverages	9	12	[0, 0, 0]	n/a	catFR1	1	R1475J
1404.1	1.6	1449042	WORD	n/a	wordpools/wordpool_categorized_EN.txt	JUICE	Beverages	10	12	[0, 0, 0]	n/a	catFR1	1	R1475J
1405.699	0.983	1450633	WORD_OFF	n/a	n/a	JUICE	Beverages	10	12	[0, 0, 0]	n/a	catFR1	1	R1475J
1406.682	1.6	1451615	WORD	n/a	wordpools/wordpool_categorized_EN.txt	SHOVEL	Tools	11	12	[0, 0, 0]	n/a	catFR1	1	R1475J
1408.282	0.784	1453217	WORD_OFF	n/a	n/a	SHOVEL	Tools	11	12	[0, 0, 0]	n/a	catFR1	1	R1475J
1409.066	1.6	1454002	WORD	n/a	wordpools/wordpool_categorized_EN.txt	SAW	Tools	12	12	[0, 0, 0]	n/a	catFR1	1	R1475J
1410.666	0.0	1455603	PROB	7.5	n/a	n/a	n/a	-999	12	[4, 1, 3]	8.0	catFR1	1	R1475J
1410.666	0.001	1455604	WORD_OFF	n/a	n/a	SAW	Tools	12	12	[0, 0, 0]	n/a	catFR1	1	R1475J
1410.667	0.0	1455604	ENCODING_END	n/a	n/a	n/a	n/a	-999	12	[0, 0, 0]	n/a	catFR1	1	R1475J
1410.667	0.0	1455604	DISTRACT_START	n/a	n/a	n/a	n/a	-999	12	[0, 0, 0]	n/a	catFR1	1	R1475J
1410.667	7.516	1455604	START	n/a	n/a	n/a	n/a	-999	12	[-999, -999, -999]	n/a	catFR1	1	R1475J
1418.183	8.484	1463120	PROB	8.466	n/a	n/a	n/a	-999	12	[8, 3, 5]	16.0	catFR1	1	R1475J
1426.667	5.099	1471603	PROB	5.083	n/a	n/a	n/a	-999	12	[1, 8, 3]	12.0	catFR1	1	R1475J
1431.766	0.0	1476702	STOP	n/a	n/a	n/a	n/a	-999	12	[-999, -999, -999]	n/a	catFR1	1	R1475J
1431.766	2.033	1476704	DISTRACT_END	n/a	n/a	n/a	n/a	-999	12	[0, 0, 0]	n/a	catFR1	1	R1475J
1433.799	30.0	1478738	REC_START	n/a	n/a	n/a	n/a	-999	12	[0, 0, 0]	n/a	catFR1	1	R1475J
1463.799	0.22	1508734	REC_WORD_VV	30.0	n/a	<>	n/a	-999	12	[0, 0, 0]	n/a	catFR1	1	R1475J
1464.019	0.0	1508954	REC_END	n/a	n/a	n/a	n/a	-999	12	[0, 0, 0]	n/a	catFR1	1	R1475J
