onset	duration	sample	trial_type	response_time	stim_file	item_name	category	serialpos	list	test	answer	experiment	session	subject
0.0	164.899	6918	INSTRUCT_START	n/a	n/a	n/a	n/a	-999	-999	[0, 0, 0]	n/a	catFR1	1	R1444D
164.899	30.883	171804	INSTRUCT_END	n/a	n/a	n/a	n/a	-999	-999	[0, 0, 0]	n/a	catFR1	1	R1444D
195.782	10.349	202694	COUNTDOWN_START	n/a	n/a	n/a	n/a	-999	-999	[0, 0, 0]	n/a	catFR1	1	R1444D
206.131	0.001	213041	COUNTDOWN_END	n/a	n/a	n/a	n/a	-999	-999	[0, 0, 0]	n/a	catFR1	1	R1444D
206.132	2.134	213041	ENCODING_START	n/a	n/a	n/a	n/a	-999	-1	[0, 0, 0]	n/a	catFR1	1	R1444D
208.266	1.615	215175	WORD	n/a	n/a	COMPUTER	Electronics	1	-1	[0, 0, 0]	n/a	catFR1	1	R1444D
209.881	0.785	216783	WORD_OFF	n/a	n/a	COMPUTER	Electronics	1	-1	[0, 0, 0]	n/a	catFR1	1	R1444D
210.666	1.615	217574	WORD	n/a	n/a	STEREO	Electronics	2	-1	[0, 0, 0]	n/a	catFR1	1	R1444D
212.281	1.001	219181	WORD_OFF	n/a	n/a	STEREO	Electronics	2	-1	[0, 0, 0]	n/a	catFR1	1	R1444D
213.282	1.617	220186	WORD	n/a	n/a	LILAC	Flowers	3	-1	[0, 0, 0]	n/a	catFR1	1	R1444D
214.899	0.999	221806	WORD_OFF	n/a	n/a	LILAC	Flowers	3	-1	[0, 0, 0]	n/a	catFR1	1	R1444D
215.898	1.618	222798	WORD	n/a	n/a	TULIP	Flowers	4	-1	[0, 0, 0]	n/a	catFR1	1	R1444D
217.516	0.933	224417	WORD_OFF	n/a	n/a	TULIP	Flowers	4	-1	[0, 0, 0]	n/a	catFR1	1	R1444D
218.449	1.6	225359	WORD	n/a	n/a	CHICKEN	FarmAnimals	5	-1	[0, 0, 0]	n/a	catFR1	1	R1444D
220.049	0.95	226954	WORD_OFF	n/a	n/a	CHICKEN	FarmAnimals	5	-1	[0, 0, 0]	n/a	catFR1	1	R1444D
220.999	1.6	227908	WORD	n/a	n/a	PIG	FarmAnimals	6	-1	[0, 0, 0]	n/a	catFR1	1	R1444D
222.599	0.8	229503	WORD_OFF	n/a	n/a	PIG	FarmAnimals	6	-1	[0, 0, 0]	n/a	catFR1	1	R1444D
223.399	1.616	230307	WORD	n/a	n/a	PRINTER	Electronics	7	-1	[0, 0, 0]	n/a	catFR1	1	R1444D
225.015	0.767	231914	WORD_OFF	n/a	n/a	PRINTER	Electronics	7	-1	[0, 0, 0]	n/a	catFR1	1	R1444D
225.782	1.6	232692	WORD	n/a	n/a	TELEVISION	Electronics	8	-1	[0, 0, 0]	n/a	catFR1	1	R1444D
227.382	0.933	234287	WORD_OFF	n/a	n/a	TELEVISION	Electronics	8	-1	[0, 0, 0]	n/a	catFR1	1	R1444D
228.315	1.599	235216	WORD	n/a	n/a	SUNFLOWER	Flowers	9	-1	[0, 0, 0]	n/a	catFR1	1	R1444D
229.914	0.834	236824	WORD_OFF	n/a	n/a	SUNFLOWER	Flowers	9	-1	[0, 0, 0]	n/a	catFR1	1	R1444D
230.748	1.6	237652	WORD	n/a	n/a	LILY	Flowers	10	-1	[0, 0, 0]	n/a	catFR1	1	R1444D
232.348	0.85	239247	WORD_OFF	n/a	n/a	LILY	Flowers	10	-1	[0, 0, 0]	n/a	catFR1	1	R1444D
233.198	1.6	240101	WORD	n/a	n/a	SHEEP	FarmAnimals	11	-1	[0, 0, 0]	n/a	catFR1	1	R1444D
234.798	0.967	241708	WORD_OFF	n/a	n/a	SHEEP	FarmAnimals	11	-1	[0, 0, 0]	n/a	catFR1	1	R1444D
235.765	1.6	242663	WORD	n/a	n/a	HORSE	FarmAnimals	12	-1	[0, 0, 0]	n/a	catFR1	1	R1444D
237.365	0.002	244270	WORD_OFF	n/a	n/a	HORSE	FarmAnimals	12	-1	[0, 0, 0]	n/a	catFR1	1	R1444D
237.367	0.0	244270	ENCODING_END	n/a	n/a	n/a	n/a	-999	-1	[0, 0, 0]	n/a	catFR1	1	R1444D
237.367	0.0	244270	DISTRACT_START	n/a	n/a	n/a	n/a	-999	-1	[0, 0, 0]	n/a	catFR1	1	R1444D
237.367	0.0	244274	START	n/a	n/a	n/a	n/a	-999	-1	[-999, -999, -999]	n/a	catFR1	1	R1444D
237.367	7.249	244274	PROB	7.232	n/a	n/a	n/a	-999	-1	[1, 6, 1]	8.0	catFR1	1	R1444D
244.616	5.232	251523	PROB	5.216	n/a	n/a	n/a	-999	-1	[8, 1, 7]	15.0	catFR1	1	R1444D
249.848	5.034	256755	PROB	5.017	n/a	n/a	n/a	-999	-1	[2, 8, 6]	16.0	catFR1	1	R1444D
254.882	4.967	261788	PROB	4.95	n/a	n/a	n/a	-999	-1	[1, 7, 8]	16.0	catFR1	1	R1444D
259.849	0.0	266747	DISTRACT_END	n/a	n/a	n/a	n/a	-999	-1	[0, 0, 0]	n/a	catFR1	1	R1444D
259.849	2.166	266755	STOP	n/a	n/a	n/a	n/a	-999	-1	[-999, -999, -999]	n/a	catFR1	1	R1444D
262.015	29.995	268915	REC_START	n/a	n/a	n/a	n/a	-999	-1	[0, 0, 0]	n/a	catFR1	1	R1444D
292.01	0.188	298915	REC_WORD_VV	29.995	n/a	<>	n/a	-999	-1	[0, 0, 0]	n/a	catFR1	1	R1444D
292.198	4.417	299094	REC_END	n/a	n/a	n/a	n/a	-999	-1	[0, 0, 0]	n/a	catFR1	1	R1444D
296.615	10.35	303514	COUNTDOWN_START	n/a	n/a	n/a	n/a	-999	1	[0, 0, 0]	n/a	catFR1	1	R1444D
306.965	0.0	313861	COUNTDOWN_END	n/a	n/a	n/a	n/a	-999	1	[0, 0, 0]	n/a	catFR1	1	R1444D
306.965	2.184	313873	ENCODING_START	n/a	n/a	n/a	n/a	-999	1	[0, 0, 0]	n/a	catFR1	1	R1444D
309.149	1.6	316045	WORD	n/a	wordpools/wordpool_categorized_EN.txt	LADYBUG	Insects	1	1	[0, 0, 0]	n/a	catFR1	1	R1444D
310.749	0.766	317653	WORD_OFF	n/a	n/a	LADYBUG	Insects	1	1	[0, 0, 0]	n/a	catFR1	1	R1444D
311.515	1.601	318419	WORD	n/a	wordpools/wordpool_categorized_EN.txt	BEETLE	Insects	2	1	[0, 0, 0]	n/a	catFR1	1	R1444D
313.116	0.849	320013	WORD_OFF	n/a	n/a	BEETLE	Insects	2	1	[0, 0, 0]	n/a	catFR1	1	R1444D
313.965	1.615	320867	WORD	n/a	wordpools/wordpool_categorized_EN.txt	ROOM	Building	3	1	[0, 0, 0]	n/a	catFR1	1	R1444D
315.58	0.818	322475	WORD_OFF	n/a	n/a	ROOM	Building	3	1	[0, 0, 0]	n/a	catFR1	1	R1444D
316.398	1.601	323303	WORD	n/a	wordpools/wordpool_categorized_EN.txt	FOUNDATION	Building	4	1	[0, 0, 0]	n/a	catFR1	1	R1444D
317.999	0.966	324898	WORD_OFF	n/a	n/a	FOUNDATION	Building	4	1	[0, 0, 0]	n/a	catFR1	1	R1444D
318.965	1.617	325865	WORD	n/a	wordpools/wordpool_categorized_EN.txt	CHERRY	Fruit	5	1	[0, 0, 0]	n/a	catFR1	1	R1444D
320.582	0.85	327485	WORD_OFF	n/a	n/a	CHERRY	Fruit	5	1	[0, 0, 0]	n/a	catFR1	1	R1444D
321.432	1.617	328326	WORD	n/a	wordpools/wordpool_categorized_EN.txt	PLUM	Fruit	6	1	[0, 0, 0]	n/a	catFR1	1	R1444D
323.049	0.9	329946	WORD_OFF	n/a	n/a	PLUM	Fruit	6	1	[0, 0, 0]	n/a	catFR1	1	R1444D
323.949	1.616	330850	WORD	n/a	wordpools/wordpool_categorized_EN.txt	ROOF	Building	7	1	[0, 0, 0]	n/a	catFR1	1	R1444D
325.565	0.95	332470	WORD_OFF	n/a	n/a	ROOF	Building	7	1	[0, 0, 0]	n/a	catFR1	1	R1444D
326.515	1.601	333412	WORD	n/a	wordpools/wordpool_categorized_EN.txt	FLOOR	Building	8	1	[0, 0, 0]	n/a	catFR1	1	R1444D
328.116	0.799	335019	WORD_OFF	n/a	n/a	FLOOR	Building	8	1	[0, 0, 0]	n/a	catFR1	1	R1444D
328.915	1.601	335810	WORD	n/a	wordpools/wordpool_categorized_EN.txt	PEAR	Fruit	9	1	[0, 0, 0]	n/a	catFR1	1	R1444D
330.516	0.782	337417	WORD_OFF	n/a	n/a	PEAR	Fruit	9	1	[0, 0, 0]	n/a	catFR1	1	R1444D
331.298	1.617	338196	WORD	n/a	wordpools/wordpool_categorized_EN.txt	PEACH	Fruit	10	1	[0, 0, 0]	n/a	catFR1	1	R1444D
332.915	1.0	339816	WORD_OFF	n/a	n/a	PEACH	Fruit	10	1	[0, 0, 0]	n/a	catFR1	1	R1444D
333.915	1.6	340808	WORD	n/a	wordpools/wordpool_categorized_EN.txt	CRICKET	Insects	11	1	[0, 0, 0]	n/a	catFR1	1	R1444D
335.515	0.833	342415	WORD_OFF	n/a	n/a	CRICKET	Insects	11	1	[0, 0, 0]	n/a	catFR1	1	R1444D
336.348	1.6	343244	WORD	n/a	wordpools/wordpool_categorized_EN.txt	BEE	Insects	12	1	[0, 0, 0]	n/a	catFR1	1	R1444D
337.948	0.001	344851	WORD_OFF	n/a	n/a	BEE	Insects	12	1	[0, 0, 0]	n/a	catFR1	1	R1444D
337.949	0.0	344851	ENCODING_END	n/a	n/a	n/a	n/a	-999	1	[0, 0, 0]	n/a	catFR1	1	R1444D
337.949	0.0	344851	DISTRACT_START	n/a	n/a	n/a	n/a	-999	1	[0, 0, 0]	n/a	catFR1	1	R1444D
337.949	0.0	344851	START	n/a	n/a	n/a	n/a	-999	1	[-999, -999, -999]	n/a	catFR1	1	R1444D
337.949	5.534	344851	PROB	5.516	n/a	n/a	n/a	-999	1	[6, 2, 8]	16.0	catFR1	1	R1444D
343.483	3.817	350385	PROB	3.799	n/a	n/a	n/a	-999	1	[1, 2, 4]	7.0	catFR1	1	R1444D
347.3	4.333	354201	PROB	4.316	n/a	n/a	n/a	-999	1	[8, 7, 2]	16.0	catFR1	1	R1444D
351.633	5.749	358534	PROB	5.732	n/a	n/a	n/a	-999	1	[4, 8, 2]	14.0	catFR1	1	R1444D
357.382	4.866	364283	PROB	4.849	n/a	n/a	n/a	-999	1	[4, 4, 3]	10.0	catFR1	1	R1444D
362.248	0.0	369149	DISTRACT_END	n/a	n/a	n/a	n/a	-999	1	[0, 0, 0]	n/a	catFR1	1	R1444D
362.248	2.133	369149	STOP	n/a	n/a	n/a	n/a	-999	1	[-999, -999, -999]	n/a	catFR1	1	R1444D
364.381	24.797	371279	REC_START	n/a	n/a	n/a	n/a	-999	1	[0, 0, 0]	n/a	catFR1	1	R1444D
389.178	1.0	396077	REC_WORD_VV	24.797	n/a	<>	n/a	-999	1	[0, 0, 0]	n/a	catFR1	1	R1444D
390.178	1.0	397077	REC_WORD_VV	25.797	n/a	<>	n/a	-999	1	[0, 0, 0]	n/a	catFR1	1	R1444D
391.178	1.0	398077	REC_WORD_VV	26.797	n/a	<>	n/a	-999	1	[0, 0, 0]	n/a	catFR1	1	R1444D
392.178	1.0	399077	REC_WORD_VV	27.797	n/a	<>	n/a	-999	1	[0, 0, 0]	n/a	catFR1	1	R1444D
393.178	1.0	400077	REC_WORD_VV	28.797	n/a	<>	n/a	-999	1	[0, 0, 0]	n/a	catFR1	1	R1444D
394.178	0.378	401077	REC_WORD_VV	29.797	n/a	<>	n/a	-999	1	[0, 0, 0]	n/a	catFR1	1	R1444D
394.556	8.16	401458	REC_END	n/a	n/a	n/a	n/a	-999	1	[0, 0, 0]	n/a	catFR1	1	R1444D
402.716	10.348	409607	COUNTDOWN_START	n/a	n/a	n/a	n/a	-999	2	[0, 0, 0]	n/a	catFR1	1	R1444D
413.064	0.0	419954	COUNTDOWN_END	n/a	n/a	n/a	n/a	-999	2	[0, 0, 0]	n/a	catFR1	1	R1444D
413.064	1.901	419967	ENCODING_START	n/a	n/a	n/a	n/a	-999	2	[0, 0, 0]	n/a	catFR1	1	R1444D
414.965	1.601	421863	WORD	n/a	wordpools/wordpool_categorized_EN.txt	ORCHID	Flowers	1	2	[0, 0, 0]	n/a	catFR1	1	R1444D
416.566	0.849	423458	WORD_OFF	n/a	n/a	ORCHID	Flowers	1	2	[0, 0, 0]	n/a	catFR1	1	R1444D
417.415	1.601	424311	WORD	n/a	wordpools/wordpool_categorized_EN.txt	MARIGOLD	Flowers	2	2	[0, 0, 0]	n/a	catFR1	1	R1444D
419.016	0.933	425906	WORD_OFF	n/a	n/a	MARIGOLD	Flowers	2	2	[0, 0, 0]	n/a	catFR1	1	R1444D
419.949	1.617	426848	WORD	n/a	wordpools/wordpool_categorized_EN.txt	GRATER	KitchenTools	3	2	[0, 0, 0]	n/a	catFR1	1	R1444D
421.566	0.933	428455	WORD_OFF	n/a	n/a	GRATER	KitchenTools	3	2	[0, 0, 0]	n/a	catFR1	1	R1444D
422.499	1.6	429397	WORD	n/a	wordpools/wordpool_categorized_EN.txt	STRAINER	KitchenTools	4	2	[0, 0, 0]	n/a	catFR1	1	R1444D
424.099	0.766	430992	WORD_OFF	n/a	n/a	STRAINER	KitchenTools	4	2	[0, 0, 0]	n/a	catFR1	1	R1444D
424.865	1.616	431758	WORD	n/a	wordpools/wordpool_categorized_EN.txt	ELEPHANT	Zoo	5	2	[0, 0, 0]	n/a	catFR1	1	R1444D
426.481	0.867	433378	WORD_OFF	n/a	n/a	ELEPHANT	Zoo	5	2	[0, 0, 0]	n/a	catFR1	1	R1444D
427.348	1.601	434244	WORD	n/a	wordpools/wordpool_categorized_EN.txt	GIRAFFE	Zoo	6	2	[0, 0, 0]	n/a	catFR1	1	R1444D
428.949	0.817	435839	WORD_OFF	n/a	n/a	GIRAFFE	Zoo	6	2	[0, 0, 0]	n/a	catFR1	1	R1444D
429.766	1.6	436655	WORD	n/a	wordpools/wordpool_categorized_EN.txt	DAFFODIL	Flowers	7	2	[0, 0, 0]	n/a	catFR1	1	R1444D
431.366	0.9	438262	WORD_OFF	n/a	n/a	DAFFODIL	Flowers	7	2	[0, 0, 0]	n/a	catFR1	1	R1444D
432.266	1.616	439154	WORD	n/a	wordpools/wordpool_categorized_EN.txt	VIOLET	Flowers	8	2	[0, 0, 0]	n/a	catFR1	1	R1444D
433.882	0.799	440774	WORD_OFF	n/a	n/a	VIOLET	Flowers	8	2	[0, 0, 0]	n/a	catFR1	1	R1444D
434.681	1.6	441577	WORD	n/a	wordpools/wordpool_categorized_EN.txt	LADLE	KitchenTools	9	2	[0, 0, 0]	n/a	catFR1	1	R1444D
436.281	0.785	443172	WORD_OFF	n/a	n/a	LADLE	KitchenTools	9	2	[0, 0, 0]	n/a	catFR1	1	R1444D
437.066	1.616	443963	WORD	n/a	wordpools/wordpool_categorized_EN.txt	SPOON	KitchenTools	10	2	[0, 0, 0]	n/a	catFR1	1	R1444D
438.682	0.966	445570	WORD_OFF	n/a	n/a	SPOON	KitchenTools	10	2	[0, 0, 0]	n/a	catFR1	1	R1444D
439.648	1.6	446537	WORD	n/a	wordpools/wordpool_categorized_EN.txt	ORANGUTAN	Zoo	11	2	[0, 0, 0]	n/a	catFR1	1	R1444D
441.248	0.917	448145	WORD_OFF	n/a	n/a	ORANGUTAN	Zoo	11	2	[0, 0, 0]	n/a	catFR1	1	R1444D
442.165	1.6	449061	WORD	n/a	wordpools/wordpool_categorized_EN.txt	CHEETAH	Zoo	12	2	[0, 0, 0]	n/a	catFR1	1	R1444D
443.765	0.001	450656	WORD_OFF	n/a	n/a	CHEETAH	Zoo	12	2	[0, 0, 0]	n/a	catFR1	1	R1444D
443.766	0.0	450656	ENCODING_END	n/a	n/a	n/a	n/a	-999	2	[0, 0, 0]	n/a	catFR1	1	R1444D
443.766	0.0	450656	DISTRACT_START	n/a	n/a	n/a	n/a	-999	2	[0, 0, 0]	n/a	catFR1	1	R1444D
443.766	0.0	450662	START	n/a	n/a	n/a	n/a	-999	2	[-999, -999, -999]	n/a	catFR1	1	R1444D
443.766	8.217	450662	PROB	8.2	n/a	n/a	n/a	-999	2	[2, 6, 3]	11.0	catFR1	1	R1444D
451.983	4.567	458879	PROB	4.549	n/a	n/a	n/a	-999	2	[3, 1, 4]	8.0	catFR1	1	R1444D
456.55	6.666	463446	PROB	6.649	n/a	n/a	n/a	-999	2	[5, 3, 8]	16.0	catFR1	1	R1444D
463.216	4.633	470111	PROB	4.616	n/a	n/a	n/a	-999	2	[6, 1, 1]	8.0	catFR1	1	R1444D
467.849	0.0	474740	DISTRACT_END	n/a	n/a	n/a	n/a	-999	2	[0, 0, 0]	n/a	catFR1	1	R1444D
467.849	2.082	474744	STOP	n/a	n/a	n/a	n/a	-999	2	[-999, -999, -999]	n/a	catFR1	1	R1444D
469.931	2.949	476820	REC_START	n/a	n/a	n/a	n/a	-999	2	[0, 0, 0]	n/a	catFR1	1	R1444D
472.88	1.0	479775	REC_WORD_VV	2.949	n/a	<>	n/a	-999	2	[0, 0, 0]	n/a	catFR1	1	R1444D
473.88	2.195	480775	REC_WORD_VV	3.949	n/a	<>	n/a	-999	2	[0, 0, 0]	n/a	catFR1	1	R1444D
476.075	1.247	482970	REC_WORD_VV	6.144	n/a	<>	n/a	-999	2	[0, 0, 0]	n/a	catFR1	1	R1444D
477.322	1.067	484216	REC_WORD	7.391	n/a	ORCHID	Flowers	1	2	[0, 0, 0]	n/a	catFR1	1	R1444D
478.389	2.107	485283	REC_WORD	8.458	n/a	CHEETAH	Zoo	12	2	[0, 0, 0]	n/a	catFR1	1	R1444D
480.496	0.445	487390	REC_WORD_VV	10.565	n/a	<>	n/a	-999	2	[0, 0, 0]	n/a	catFR1	1	R1444D
480.941	2.831	487835	REC_WORD	11.01	n/a	LADLE	KitchenTools	9	2	[0, 0, 0]	n/a	catFR1	1	R1444D
483.772	1.844	490666	REC_WORD_VV	13.841	n/a	<>	n/a	-999	2	[0, 0, 0]	n/a	catFR1	1	R1444D
485.616	4.555	492510	REC_WORD	15.685	n/a	SPOON	KitchenTools	10	2	[0, 0, 0]	n/a	catFR1	1	R1444D
490.171	9.96	497065	REC_WORD_VV	20.24	n/a	<>	n/a	-999	2	[0, 0, 0]	n/a	catFR1	1	R1444D
500.131	7.568	507024	REC_END	n/a	n/a	n/a	n/a	-999	2	[0, 0, 0]	n/a	catFR1	1	R1444D
507.699	10.35	514596	COUNTDOWN_START	n/a	n/a	n/a	n/a	-999	3	[0, 0, 0]	n/a	catFR1	1	R1444D
518.049	0.0	524943	COUNTDOWN_END	n/a	n/a	n/a	n/a	-999	3	[0, 0, 0]	n/a	catFR1	1	R1444D
518.049	2.034	524943	ENCODING_START	n/a	n/a	n/a	n/a	-999	3	[0, 0, 0]	n/a	catFR1	1	R1444D
520.083	1.616	526977	WORD	n/a	wordpools/wordpool_categorized_EN.txt	CLOUD	Weather	1	3	[0, 0, 0]	n/a	catFR1	1	R1444D
521.699	0.766	528584	WORD_OFF	n/a	n/a	CLOUD	Weather	1	3	[0, 0, 0]	n/a	catFR1	1	R1444D
522.465	1.6	529350	WORD	n/a	wordpools/wordpool_categorized_EN.txt	SNOW	Weather	2	3	[0, 0, 0]	n/a	catFR1	1	R1444D
524.065	0.917	530958	WORD_OFF	n/a	n/a	SNOW	Weather	2	3	[0, 0, 0]	n/a	catFR1	1	R1444D
524.982	1.6	531874	WORD	n/a	wordpools/wordpool_categorized_EN.txt	SCOOTER	Vehicles	3	3	[0, 0, 0]	n/a	catFR1	1	R1444D
526.582	0.95	533469	WORD_OFF	n/a	n/a	SCOOTER	Vehicles	3	3	[0, 0, 0]	n/a	catFR1	1	R1444D
527.532	1.6	534423	WORD	n/a	wordpools/wordpool_categorized_EN.txt	VAN	Vehicles	4	3	[0, 0, 0]	n/a	catFR1	1	R1444D
529.132	0.834	536018	WORD_OFF	n/a	n/a	VAN	Vehicles	4	3	[0, 0, 0]	n/a	catFR1	1	R1444D
529.966	1.599	536859	WORD	n/a	wordpools/wordpool_categorized_EN.txt	REFRIGERATOR	Appliances	5	3	[0, 0, 0]	n/a	catFR1	1	R1444D
531.565	0.983	538454	WORD_OFF	n/a	n/a	REFRIGERATOR	Appliances	5	3	[0, 0, 0]	n/a	catFR1	1	R1444D
532.548	1.617	539434	WORD	n/a	wordpools/wordpool_categorized_EN.txt	DISHWASHER	Appliances	6	3	[0, 0, 0]	n/a	catFR1	1	R1444D
534.165	0.767	541053	WORD_OFF	n/a	n/a	DISHWASHER	Appliances	6	3	[0, 0, 0]	n/a	catFR1	1	R1444D
534.932	1.616	541819	WORD	n/a	wordpools/wordpool_categorized_EN.txt	THUNDERSTORM	Weather	7	3	[0, 0, 0]	n/a	catFR1	1	R1444D
536.548	0.951	543439	WORD_OFF	n/a	n/a	THUNDERSTORM	Weather	7	3	[0, 0, 0]	n/a	catFR1	1	R1444D
537.499	1.615	544381	WORD	n/a	wordpools/wordpool_categorized_EN.txt	DRIZZLE	Weather	8	3	[0, 0, 0]	n/a	catFR1	1	R1444D
539.114	0.784	546001	WORD_OFF	n/a	n/a	DRIZZLE	Weather	8	3	[0, 0, 0]	n/a	catFR1	1	R1444D
539.898	1.6	546779	WORD	n/a	wordpools/wordpool_categorized_EN.txt	CAR	Vehicles	9	3	[0, 0, 0]	n/a	catFR1	1	R1444D
541.498	0.934	548387	WORD_OFF	n/a	n/a	CAR	Vehicles	9	3	[0, 0, 0]	n/a	catFR1	1	R1444D
542.432	1.616	549316	WORD	n/a	wordpools/wordpool_categorized_EN.txt	MOTORCYCLE	Vehicles	10	3	[0, 0, 0]	n/a	catFR1	1	R1444D
544.048	1.0	550936	WORD_OFF	n/a	n/a	MOTORCYCLE	Vehicles	10	3	[0, 0, 0]	n/a	catFR1	1	R1444D
545.048	1.601	551940	WORD	n/a	wordpools/wordpool_categorized_EN.txt	TOASTER	Appliances	11	3	[0, 0, 0]	n/a	catFR1	1	R1444D
546.649	0.983	553535	WORD_OFF	n/a	n/a	TOASTER	Appliances	11	3	[0, 0, 0]	n/a	catFR1	1	R1444D
547.632	1.616	554514	WORD	n/a	wordpools/wordpool_categorized_EN.txt	FREEZER	Appliances	12	3	[0, 0, 0]	n/a	catFR1	1	R1444D
549.248	0.002	556134	WORD_OFF	n/a	n/a	FREEZER	Appliances	12	3	[0, 0, 0]	n/a	catFR1	1	R1444D
549.25	0.0	556134	ENCODING_END	n/a	n/a	n/a	n/a	-999	3	[0, 0, 0]	n/a	catFR1	1	R1444D
549.25	0.0	556134	DISTRACT_START	n/a	n/a	n/a	n/a	-999	3	[0, 0, 0]	n/a	catFR1	1	R1444D
549.248	0.002	556139	PROB	18.216	n/a	n/a	n/a	-999	3	[3, 4, 5]	12.0	catFR1	1	R1444D
549.25	18.233	556141	START	n/a	n/a	n/a	n/a	-999	3	[-999, -999, -999]	n/a	catFR1	1	R1444D
567.483	6.249	574373	PROB	6.231	n/a	n/a	n/a	-999	3	[5, 6, 6]	17.0	catFR1	1	R1444D
573.732	0.0	580620	DISTRACT_END	n/a	n/a	n/a	n/a	-999	3	[0, 0, 0]	n/a	catFR1	1	R1444D
573.732	2.316	580621	STOP	n/a	n/a	n/a	n/a	-999	3	[-999, -999, -999]	n/a	catFR1	1	R1444D
576.048	0.365	582939	REC_START	n/a	n/a	n/a	n/a	-999	3	[0, 0, 0]	n/a	catFR1	1	R1444D
576.413	1.584	583302	REC_WORD	0.365	n/a	CLOUD	Weather	1	3	[0, 0, 0]	n/a	catFR1	1	R1444D
577.997	0.591	584886	REC_WORD	1.949	n/a	CLOUD	Weather	1	3	[0, 0, 0]	n/a	catFR1	1	R1444D
578.588	1.731	585477	REC_WORD	2.54	n/a	STORM	n/a	-999	3	[0, 0, 0]	n/a	catFR1	1	R1444D
580.319	1.018	587208	REC_WORD	4.271	n/a	CHEETAH	Zoo	-999	3	[0, 0, 0]	n/a	catFR1	1	R1444D
581.337	1.942	588226	REC_WORD	5.289	n/a	REFRIGERATOR	Appliances	5	3	[0, 0, 0]	n/a	catFR1	1	R1444D
583.279	1.0	590168	REC_WORD_VV	7.231	n/a	<>	n/a	-999	3	[0, 0, 0]	n/a	catFR1	1	R1444D
584.279	2.433	591168	REC_WORD_VV	8.231	n/a	<>	n/a	-999	3	[0, 0, 0]	n/a	catFR1	1	R1444D
586.712	3.573	593601	REC_WORD_VV	10.664	n/a	<>	n/a	-999	3	[0, 0, 0]	n/a	catFR1	1	R1444D
590.285	1.997	597173	REC_WORD	14.237	n/a	REFRIGERATOR	Appliances	5	3	[0, 0, 0]	n/a	catFR1	1	R1444D
592.282	2.637	599170	REC_WORD	16.234	n/a	LADLE	KitchenTools	-999	3	[0, 0, 0]	n/a	catFR1	1	R1444D
594.919	5.299	601807	REC_WORD_VV	18.871	n/a	<>	n/a	-999	3	[0, 0, 0]	n/a	catFR1	1	R1444D
600.218	0.574	607106	REC_WORD_VV	24.17	n/a	<>	n/a	-999	3	[0, 0, 0]	n/a	catFR1	1	R1444D
600.792	3.621	607680	REC_WORD	24.744	n/a	GROOM	n/a	-999	3	[0, 0, 0]	n/a	catFR1	1	R1444D
604.413	1.839	611301	REC_WORD_VV	28.365	n/a	<>	n/a	-999	3	[0, 0, 0]	n/a	catFR1	1	R1444D
606.252	5.697	613130	REC_END	n/a	n/a	n/a	n/a	-999	3	[0, 0, 0]	n/a	catFR1	1	R1444D
611.949	10.349	618831	COUNTDOWN_START	n/a	n/a	n/a	n/a	-999	4	[0, 0, 0]	n/a	catFR1	1	R1444D
622.298	0.0	629178	COUNTDOWN_END	n/a	n/a	n/a	n/a	-999	4	[0, 0, 0]	n/a	catFR1	1	R1444D
622.298	2.101	629178	ENCODING_START	n/a	n/a	n/a	n/a	-999	4	[0, 0, 0]	n/a	catFR1	1	R1444D
624.399	1.616	631288	WORD	n/a	wordpools/wordpool_categorized_EN.txt	BANJO	Instruments	1	4	[0, 0, 0]	n/a	catFR1	1	R1444D
626.015	0.867	632895	WORD_OFF	n/a	n/a	BANJO	Instruments	1	4	[0, 0, 0]	n/a	catFR1	1	R1444D
626.882	1.617	633761	WORD	n/a	wordpools/wordpool_categorized_EN.txt	VIOLIN	Instruments	2	4	[0, 0, 0]	n/a	catFR1	1	R1444D
628.499	0.833	635381	WORD_OFF	n/a	n/a	VIOLIN	Instruments	2	4	[0, 0, 0]	n/a	catFR1	1	R1444D
629.332	1.617	636210	WORD	n/a	wordpools/wordpool_categorized_EN.txt	MOPED	Vehicles	3	4	[0, 0, 0]	n/a	catFR1	1	R1444D
630.949	0.783	637830	WORD_OFF	n/a	n/a	MOPED	Vehicles	3	4	[0, 0, 0]	n/a	catFR1	1	R1444D
631.732	1.617	638621	WORD	n/a	wordpools/wordpool_categorized_EN.txt	BOAT	Vehicles	4	4	[0, 0, 0]	n/a	catFR1	1	R1444D
633.349	0.999	640228	WORD_OFF	n/a	n/a	BOAT	Vehicles	4	4	[0, 0, 0]	n/a	catFR1	1	R1444D
634.348	1.601	641233	WORD	n/a	wordpools/wordpool_categorized_EN.txt	BATHROOM	Building	5	4	[0, 0, 0]	n/a	catFR1	1	R1444D
635.949	0.767	642828	WORD_OFF	n/a	n/a	BATHROOM	Building	5	4	[0, 0, 0]	n/a	catFR1	1	R1444D
636.716	1.599	643594	WORD	n/a	wordpools/wordpool_categorized_EN.txt	CEILING	Building	6	4	[0, 0, 0]	n/a	catFR1	1	R1444D
638.315	1.001	645201	WORD_OFF	n/a	n/a	CEILING	Building	6	4	[0, 0, 0]	n/a	catFR1	1	R1444D
639.316	1.6	646193	WORD	n/a	wordpools/wordpool_categorized_EN.txt	TRAIN	Vehicles	7	4	[0, 0, 0]	n/a	catFR1	1	R1444D
640.916	0.949	647800	WORD_OFF	n/a	n/a	TRAIN	Vehicles	7	4	[0, 0, 0]	n/a	catFR1	1	R1444D
641.865	1.616	648742	WORD	n/a	wordpools/wordpool_categorized_EN.txt	BUS	Vehicles	8	4	[0, 0, 0]	n/a	catFR1	1	R1444D
643.481	0.817	650362	WORD_OFF	n/a	n/a	BUS	Vehicles	8	4	[0, 0, 0]	n/a	catFR1	1	R1444D
644.298	1.6	651178	WORD	n/a	wordpools/wordpool_categorized_EN.txt	TROMBONE	Instruments	9	4	[0, 0, 0]	n/a	catFR1	1	R1444D
645.898	0.8	652785	WORD_OFF	n/a	n/a	TROMBONE	Instruments	9	4	[0, 0, 0]	n/a	catFR1	1	R1444D
646.698	1.6	653576	WORD	n/a	wordpools/wordpool_categorized_EN.txt	CELLO	Instruments	10	4	[0, 0, 0]	n/a	catFR1	1	R1444D
648.298	0.984	655184	WORD_OFF	n/a	n/a	CELLO	Instruments	10	4	[0, 0, 0]	n/a	catFR1	1	R1444D
649.282	1.6	656163	WORD	n/a	wordpools/wordpool_categorized_EN.txt	HALLWAY	Building	11	4	[0, 0, 0]	n/a	catFR1	1	R1444D
650.882	0.883	657770	WORD_OFF	n/a	n/a	HALLWAY	Building	11	4	[0, 0, 0]	n/a	catFR1	1	R1444D
651.765	1.617	658649	WORD	n/a	wordpools/wordpool_categorized_EN.txt	ATTIC	Building	12	4	[0, 0, 0]	n/a	catFR1	1	R1444D
653.382	0.001	660267	PROB	8.665	n/a	n/a	n/a	-999	4	[3, 3, 7]	13.0	catFR1	1	R1444D
653.383	0.0	660268	START	n/a	n/a	n/a	n/a	-999	4	[-999, -999, -999]	n/a	catFR1	1	R1444D
653.382	0.001	660269	WORD_OFF	n/a	n/a	ATTIC	Building	12	4	[0, 0, 0]	n/a	catFR1	1	R1444D
653.383	0.0	660269	ENCODING_END	n/a	n/a	n/a	n/a	-999	4	[0, 0, 0]	n/a	catFR1	1	R1444D
653.383	8.682	660269	DISTRACT_START	n/a	n/a	n/a	n/a	-999	4	[0, 0, 0]	n/a	catFR1	1	R1444D
662.065	3.934	668949	PROB	3.917	n/a	n/a	n/a	-999	4	[3, 3, 3]	9.0	catFR1	1	R1444D
665.999	4.934	672883	PROB	4.917	n/a	n/a	n/a	-999	4	[1, 5, 6]	12.0	catFR1	1	R1444D
670.933	4.283	677817	PROB	4.266	n/a	n/a	n/a	-999	4	[3, 8, 1]	12.0	catFR1	1	R1444D
675.216	0.0	682093	DISTRACT_END	n/a	n/a	n/a	n/a	-999	4	[0, 0, 0]	n/a	catFR1	1	R1444D
675.216	2.133	682100	STOP	n/a	n/a	n/a	n/a	-999	4	[-999, -999, -999]	n/a	catFR1	1	R1444D
677.349	3.528	684223	REC_START	n/a	n/a	n/a	n/a	-999	4	[0, 0, 0]	n/a	catFR1	1	R1444D
680.877	1.0	687760	REC_WORD_VV	3.528	n/a	<>	n/a	-999	4	[0, 0, 0]	n/a	catFR1	1	R1444D
681.877	0.75	688760	REC_WORD_VV	4.528	n/a	<>	n/a	-999	4	[0, 0, 0]	n/a	catFR1	1	R1444D
682.627	4.248	689510	REC_WORD	5.278	n/a	BANJO	Instruments	1	4	[0, 0, 0]	n/a	catFR1	1	R1444D
686.875	1.99	693758	REC_WORD_VV	9.526	n/a	<>	n/a	-999	4	[0, 0, 0]	n/a	catFR1	1	R1444D
688.865	6.651	695748	REC_WORD_VV	11.516	n/a	<>	n/a	-999	4	[0, 0, 0]	n/a	catFR1	1	R1444D
695.516	3.031	702399	REC_WORD	18.167	n/a	BANJO	Instruments	1	4	[0, 0, 0]	n/a	catFR1	1	R1444D
698.547	1.076	705430	REC_WORD	21.198	n/a	CHEETAH	Zoo	-999	4	[0, 0, 0]	n/a	catFR1	1	R1444D
699.623	1.701	706505	REC_WORD_VV	22.274	n/a	<>	n/a	-999	4	[0, 0, 0]	n/a	catFR1	1	R1444D
701.324	0.402	708206	REC_WORD	23.975	n/a	BANJO	Instruments	1	4	[0, 0, 0]	n/a	catFR1	1	R1444D
701.726	1.672	708608	REC_WORD	24.377	n/a	CHEETAH	Zoo	-999	4	[0, 0, 0]	n/a	catFR1	1	R1444D
703.398	2.661	710280	REC_WORD	26.049	n/a	CLOUD	Weather	-999	4	[0, 0, 0]	n/a	catFR1	1	R1444D
706.059	1.509	712941	REC_WORD	28.71	n/a	TIGER	n/a	-999	4	[0, 0, 0]	n/a	catFR1	1	R1444D
707.568	7.548	714452	REC_END	n/a	n/a	n/a	n/a	-999	4	[0, 0, 0]	n/a	catFR1	1	R1444D
715.116	10.35	721999	COUNTDOWN_START	n/a	n/a	n/a	n/a	-999	5	[0, 0, 0]	n/a	catFR1	1	R1444D
725.466	0.0	732346	COUNTDOWN_END	n/a	n/a	n/a	n/a	-999	5	[0, 0, 0]	n/a	catFR1	1	R1444D
725.466	1.833	732346	ENCODING_START	n/a	n/a	n/a	n/a	-999	5	[0, 0, 0]	n/a	catFR1	1	R1444D
727.299	1.616	734179	WORD	n/a	wordpools/wordpool_categorized_EN.txt	JUICE	Beverages	1	5	[0, 0, 0]	n/a	catFR1	1	R1444D
728.915	0.9	735787	WORD_OFF	n/a	n/a	JUICE	Beverages	1	5	[0, 0, 0]	n/a	catFR1	1	R1444D
729.815	1.6	736691	WORD	n/a	wordpools/wordpool_categorized_EN.txt	MILK	Beverages	2	5	[0, 0, 0]	n/a	catFR1	1	R1444D
731.415	0.851	738298	WORD_OFF	n/a	n/a	MILK	Beverages	2	5	[0, 0, 0]	n/a	catFR1	1	R1444D
732.266	1.599	739139	WORD	n/a	wordpools/wordpool_categorized_EN.txt	COW	FarmAnimals	3	5	[0, 0, 0]	n/a	catFR1	1	R1444D
733.865	0.984	740747	WORD_OFF	n/a	n/a	COW	FarmAnimals	3	5	[0, 0, 0]	n/a	catFR1	1	R1444D
734.849	1.616	741726	WORD	n/a	wordpools/wordpool_categorized_EN.txt	BULL	FarmAnimals	4	5	[0, 0, 0]	n/a	catFR1	1	R1444D
736.465	0.901	743346	WORD_OFF	n/a	n/a	BULL	FarmAnimals	4	5	[0, 0, 0]	n/a	catFR1	1	R1444D
737.366	1.599	744237	WORD	n/a	wordpools/wordpool_categorized_EN.txt	PUDDING	Desserts	5	5	[0, 0, 0]	n/a	catFR1	1	R1444D
738.965	0.918	745845	WORD_OFF	n/a	n/a	PUDDING	Desserts	5	5	[0, 0, 0]	n/a	catFR1	1	R1444D
739.883	1.616	746761	WORD	n/a	wordpools/wordpool_categorized_EN.txt	CAKE	Desserts	6	5	[0, 0, 0]	n/a	catFR1	1	R1444D
741.499	0.882	748381	WORD_OFF	n/a	n/a	CAKE	Desserts	6	5	[0, 0, 0]	n/a	catFR1	1	R1444D
742.381	1.601	749260	WORD	n/a	wordpools/wordpool_categorized_EN.txt	COFFEE	Beverages	7	5	[0, 0, 0]	n/a	catFR1	1	R1444D
743.982	0.816	750855	WORD_OFF	n/a	n/a	COFFEE	Beverages	7	5	[0, 0, 0]	n/a	catFR1	1	R1444D
744.798	1.617	751671	WORD	n/a	wordpools/wordpool_categorized_EN.txt	RUM	Beverages	8	5	[0, 0, 0]	n/a	catFR1	1	R1444D
746.415	0.917	753291	WORD_OFF	n/a	n/a	RUM	Beverages	8	5	[0, 0, 0]	n/a	catFR1	1	R1444D
747.332	1.616	754208	WORD	n/a	wordpools/wordpool_categorized_EN.txt	COOKIE	Desserts	9	5	[0, 0, 0]	n/a	catFR1	1	R1444D
748.948	0.851	755828	WORD_OFF	n/a	n/a	COOKIE	Desserts	9	5	[0, 0, 0]	n/a	catFR1	1	R1444D
749.799	1.617	756681	WORD	n/a	wordpools/wordpool_categorized_EN.txt	PIE	Desserts	10	5	[0, 0, 0]	n/a	catFR1	1	R1444D
751.416	0.95	758289	WORD_OFF	n/a	n/a	PIE	Desserts	10	5	[0, 0, 0]	n/a	catFR1	1	R1444D
752.366	1.6	759243	WORD	n/a	wordpools/wordpool_categorized_EN.txt	ROOSTER	FarmAnimals	11	5	[0, 0, 0]	n/a	catFR1	1	R1444D
753.966	0.865	760838	WORD_OFF	n/a	n/a	ROOSTER	FarmAnimals	11	5	[0, 0, 0]	n/a	catFR1	1	R1444D
754.831	1.601	761704	WORD	n/a	wordpools/wordpool_categorized_EN.txt	LAMB	FarmAnimals	12	5	[0, 0, 0]	n/a	catFR1	1	R1444D
756.432	0.002	763312	WORD_OFF	n/a	n/a	LAMB	FarmAnimals	12	5	[0, 0, 0]	n/a	catFR1	1	R1444D
756.434	0.0	763312	ENCODING_END	n/a	n/a	n/a	n/a	-999	5	[0, 0, 0]	n/a	catFR1	1	R1444D
756.434	0.0	763312	DISTRACT_START	n/a	n/a	n/a	n/a	-999	5	[0, 0, 0]	n/a	catFR1	1	R1444D
756.433	0.001	763312	PROB	12.816	n/a	n/a	n/a	-999	5	[6, 7, 3]	16.0	catFR1	1	R1444D
756.434	12.832	763313	START	n/a	n/a	n/a	n/a	-999	5	[-999, -999, -999]	n/a	catFR1	1	R1444D
769.266	4.217	776145	PROB	4.2	n/a	n/a	n/a	-999	5	[8, 6, 2]	16.0	catFR1	1	R1444D
773.483	4.582	780361	PROB	4.565	n/a	n/a	n/a	-999	5	[3, 2, 2]	7.0	catFR1	1	R1444D
778.065	0.0	784935	DISTRACT_END	n/a	n/a	n/a	n/a	-999	5	[0, 0, 0]	n/a	catFR1	1	R1444D
778.065	2.167	784943	STOP	n/a	n/a	n/a	n/a	-999	5	[-999, -999, -999]	n/a	catFR1	1	R1444D
780.232	5.129	787102	REC_START	n/a	n/a	n/a	n/a	-999	5	[0, 0, 0]	n/a	catFR1	1	R1444D
785.361	2.747	792239	REC_WORD_VV	5.129	n/a	<>	n/a	-999	5	[0, 0, 0]	n/a	catFR1	1	R1444D
788.108	1.057	794986	REC_WORD_VV	7.876	n/a	<>	n/a	-999	5	[0, 0, 0]	n/a	catFR1	1	R1444D
789.165	3.097	796043	REC_WORD	8.933	n/a	PUDDING	Desserts	5	5	[0, 0, 0]	n/a	catFR1	1	R1444D
792.262	0.508	799139	REC_WORD_VV	12.03	n/a	<>	n/a	-999	5	[0, 0, 0]	n/a	catFR1	1	R1444D
792.77	0.608	799647	REC_WORD	12.538	n/a	BANJO	Instruments	-999	5	[0, 0, 0]	n/a	catFR1	1	R1444D
793.378	0.951	800255	REC_WORD	13.146	n/a	PUDDING	Desserts	5	5	[0, 0, 0]	n/a	catFR1	1	R1444D
794.329	2.162	801206	REC_WORD_VV	14.097	n/a	<>	n/a	-999	5	[0, 0, 0]	n/a	catFR1	1	R1444D
796.491	1.404	803368	REC_WORD	16.259	n/a	COW	FarmAnimals	3	5	[0, 0, 0]	n/a	catFR1	1	R1444D
797.895	2.412	804772	REC_WORD_VV	17.663	n/a	<>	n/a	-999	5	[0, 0, 0]	n/a	catFR1	1	R1444D
800.307	1.365	807184	REC_WORD_VV	20.075	n/a	<>	n/a	-999	5	[0, 0, 0]	n/a	catFR1	1	R1444D
801.672	3.132	808549	REC_WORD	21.44	n/a	LAMB	FarmAnimals	12	5	[0, 0, 0]	n/a	catFR1	1	R1444D
804.804	5.658	811681	REC_WORD	24.572	n/a	LAMB	FarmAnimals	12	5	[0, 0, 0]	n/a	catFR1	1	R1444D
810.462	2.303	817332	REC_END	n/a	n/a	n/a	n/a	-999	5	[0, 0, 0]	n/a	catFR1	1	R1444D
812.765	10.349	819642	COUNTDOWN_START	n/a	n/a	n/a	n/a	-999	6	[0, 0, 0]	n/a	catFR1	1	R1444D
823.114	0.0	829989	COUNTDOWN_END	n/a	n/a	n/a	n/a	-999	6	[0, 0, 0]	n/a	catFR1	1	R1444D
823.114	2.068	829989	ENCODING_START	n/a	n/a	n/a	n/a	-999	6	[0, 0, 0]	n/a	catFR1	1	R1444D
825.182	1.6	832048	WORD	n/a	wordpools/wordpool_categorized_EN.txt	DOOR	Building	1	6	[0, 0, 0]	n/a	catFR1	1	R1444D
826.782	0.866	833656	WORD_OFF	n/a	n/a	DOOR	Building	1	6	[0, 0, 0]	n/a	catFR1	1	R1444D
827.648	1.618	834522	WORD	n/a	wordpools/wordpool_categorized_EN.txt	STAIRS	Building	2	6	[0, 0, 0]	n/a	catFR1	1	R1444D
829.266	0.85	836142	WORD_OFF	n/a	n/a	STAIRS	Building	2	6	[0, 0, 0]	n/a	catFR1	1	R1444D
830.116	1.616	836983	WORD	n/a	wordpools/wordpool_categorized_EN.txt	COTTON	Fabric	3	6	[0, 0, 0]	n/a	catFR1	1	R1444D
831.732	0.967	838603	WORD_OFF	n/a	n/a	COTTON	Fabric	3	6	[0, 0, 0]	n/a	catFR1	1	R1444D
832.699	1.601	839570	WORD	n/a	wordpools/wordpool_categorized_EN.txt	NYLON	Fabric	4	6	[0, 0, 0]	n/a	catFR1	1	R1444D
834.3	0.899	841177	WORD_OFF	n/a	n/a	NYLON	Fabric	4	6	[0, 0, 0]	n/a	catFR1	1	R1444D
835.199	1.617	842069	WORD	n/a	wordpools/wordpool_categorized_EN.txt	PIANO	Instruments	5	6	[0, 0, 0]	n/a	catFR1	1	R1444D
836.816	0.95	843689	WORD_OFF	n/a	n/a	PIANO	Instruments	5	6	[0, 0, 0]	n/a	catFR1	1	R1444D
837.766	1.615	844643	WORD	n/a	wordpools/wordpool_categorized_EN.txt	ORGAN	Instruments	6	6	[0, 0, 0]	n/a	catFR1	1	R1444D
839.381	0.951	846250	WORD_OFF	n/a	n/a	ORGAN	Instruments	6	6	[0, 0, 0]	n/a	catFR1	1	R1444D
840.332	1.616	847204	WORD	n/a	wordpools/wordpool_categorized_EN.txt	SPANDEX	Fabric	7	6	[0, 0, 0]	n/a	catFR1	1	R1444D
841.948	0.984	848824	WORD_OFF	n/a	n/a	SPANDEX	Fabric	7	6	[0, 0, 0]	n/a	catFR1	1	R1444D
842.932	1.616	849804	WORD	n/a	wordpools/wordpool_categorized_EN.txt	LINEN	Fabric	8	6	[0, 0, 0]	n/a	catFR1	1	R1444D
844.548	0.767	851424	WORD_OFF	n/a	n/a	LINEN	Fabric	8	6	[0, 0, 0]	n/a	catFR1	1	R1444D
845.315	1.6	852190	WORD	n/a	wordpools/wordpool_categorized_EN.txt	WALL	Building	9	6	[0, 0, 0]	n/a	catFR1	1	R1444D
846.915	0.766	853784	WORD_OFF	n/a	n/a	WALL	Building	9	6	[0, 0, 0]	n/a	catFR1	1	R1444D
847.681	1.6	854550	WORD	n/a	wordpools/wordpool_categorized_EN.txt	WINDOW	Building	10	6	[0, 0, 0]	n/a	catFR1	1	R1444D
849.281	0.885	856158	WORD_OFF	n/a	n/a	WINDOW	Building	10	6	[0, 0, 0]	n/a	catFR1	1	R1444D
850.166	1.6	857037	WORD	n/a	wordpools/wordpool_categorized_EN.txt	TUBA	Instruments	11	6	[0, 0, 0]	n/a	catFR1	1	R1444D
851.766	0.849	858631	WORD_OFF	n/a	n/a	TUBA	Instruments	11	6	[0, 0, 0]	n/a	catFR1	1	R1444D
852.615	1.601	859485	WORD	n/a	wordpools/wordpool_categorized_EN.txt	GUITAR	Instruments	12	6	[0, 0, 0]	n/a	catFR1	1	R1444D
854.216	0.001	861090	PROB	11.865	n/a	n/a	n/a	-999	6	[8, 7, 6]	20.0	catFR1	1	R1444D
854.217	0.0	861091	START	n/a	n/a	n/a	n/a	-999	6	[-999, -999, -999]	n/a	catFR1	1	R1444D
854.216	0.001	861092	WORD_OFF	n/a	n/a	GUITAR	Instruments	12	6	[0, 0, 0]	n/a	catFR1	1	R1444D
854.217	0.0	861092	ENCODING_END	n/a	n/a	n/a	n/a	-999	6	[0, 0, 0]	n/a	catFR1	1	R1444D
854.217	11.883	861092	DISTRACT_START	n/a	n/a	n/a	n/a	-999	6	[0, 0, 0]	n/a	catFR1	1	R1444D
866.1	5.816	872973	PROB	5.799	n/a	n/a	n/a	-999	6	[7, 3, 5]	15.0	catFR1	1	R1444D
871.916	3.999	878789	PROB	3.983	n/a	n/a	n/a	-999	6	[4, 1, 1]	6.0	catFR1	1	R1444D
875.915	0.0	882788	STOP	n/a	n/a	n/a	n/a	-999	6	[-999, -999, -999]	n/a	catFR1	1	R1444D
875.915	2.385	882791	DISTRACT_END	n/a	n/a	n/a	n/a	-999	6	[0, 0, 0]	n/a	catFR1	1	R1444D
878.3	0.84	885172	REC_START	n/a	n/a	n/a	n/a	-999	6	[0, 0, 0]	n/a	catFR1	1	R1444D
879.14	1.0	886013	REC_WORD_VV	0.84	n/a	<>	n/a	-999	6	[0, 0, 0]	n/a	catFR1	1	R1444D
880.14	5.181	887013	REC_WORD_VV	1.84	n/a	<>	n/a	-999	6	[0, 0, 0]	n/a	catFR1	1	R1444D
885.321	2.562	892193	REC_WORD_VV	7.021	n/a	<>	n/a	-999	6	[0, 0, 0]	n/a	catFR1	1	R1444D
887.883	8.464	894755	REC_WORD_VV	9.583	n/a	<>	n/a	-999	6	[0, 0, 0]	n/a	catFR1	1	R1444D
896.347	1.0	903219	REC_WORD_VV	18.047	n/a	<>	n/a	-999	6	[0, 0, 0]	n/a	catFR1	1	R1444D
897.347	1.0	904219	REC_WORD_VV	19.047	n/a	<>	n/a	-999	6	[0, 0, 0]	n/a	catFR1	1	R1444D
898.347	1.0	905219	REC_WORD_VV	20.047	n/a	<>	n/a	-999	6	[0, 0, 0]	n/a	catFR1	1	R1444D
899.347	1.0	906219	REC_WORD_VV	21.047	n/a	<>	n/a	-999	6	[0, 0, 0]	n/a	catFR1	1	R1444D
900.347	1.0	907219	REC_WORD_VV	22.047	n/a	<>	n/a	-999	6	[0, 0, 0]	n/a	catFR1	1	R1444D
901.347	1.0	908219	REC_WORD_VV	23.047	n/a	<>	n/a	-999	6	[0, 0, 0]	n/a	catFR1	1	R1444D
902.347	1.0	909218	REC_WORD_VV	24.047	n/a	<>	n/a	-999	6	[0, 0, 0]	n/a	catFR1	1	R1444D
903.347	0.765	910218	REC_WORD_VV	25.047	n/a	<>	n/a	-999	6	[0, 0, 0]	n/a	catFR1	1	R1444D
904.112	0.935	910983	REC_WORD	25.812	n/a	BANJO	Instruments	-999	6	[0, 0, 0]	n/a	catFR1	1	R1444D
905.047	1.57	911918	REC_WORD	26.747	n/a	BANJO	Instruments	-999	6	[0, 0, 0]	n/a	catFR1	1	R1444D
906.617	1.0	913488	REC_WORD_VV	28.317	n/a	<>	n/a	-999	6	[0, 0, 0]	n/a	catFR1	1	R1444D
907.617	0.939	914488	REC_WORD_VV	29.317	n/a	<>	n/a	-999	6	[0, 0, 0]	n/a	catFR1	1	R1444D
908.556	8.559	915426	REC_END	n/a	n/a	n/a	n/a	-999	6	[0, 0, 0]	n/a	catFR1	1	R1444D
917.115	10.351	923990	COUNTDOWN_START	n/a	n/a	n/a	n/a	-999	7	[0, 0, 0]	n/a	catFR1	1	R1444D
927.466	0.0	934337	COUNTDOWN_END	n/a	n/a	n/a	n/a	-999	7	[0, 0, 0]	n/a	catFR1	1	R1444D
927.466	2.216	934337	ENCODING_START	n/a	n/a	n/a	n/a	-999	7	[0, 0, 0]	n/a	catFR1	1	R1444D
929.682	1.6	936547	WORD	n/a	wordpools/wordpool_categorized_EN.txt	MOSQUITO	Insects	1	7	[0, 0, 0]	n/a	catFR1	1	R1444D
931.282	0.983	938154	WORD_OFF	n/a	n/a	MOSQUITO	Insects	1	7	[0, 0, 0]	n/a	catFR1	1	R1444D
932.265	1.616	939134	WORD	n/a	wordpools/wordpool_categorized_EN.txt	ANT	Insects	2	7	[0, 0, 0]	n/a	catFR1	1	R1444D
933.881	0.851	940741	WORD_OFF	n/a	n/a	ANT	Insects	2	7	[0, 0, 0]	n/a	catFR1	1	R1444D
934.732	1.616	941595	WORD	n/a	wordpools/wordpool_categorized_EN.txt	SODA	Beverages	3	7	[0, 0, 0]	n/a	catFR1	1	R1444D
936.348	0.817	943215	WORD_OFF	n/a	n/a	SODA	Beverages	3	7	[0, 0, 0]	n/a	catFR1	1	R1444D
937.165	1.601	944031	WORD	n/a	wordpools/wordpool_categorized_EN.txt	WINE	Beverages	4	7	[0, 0, 0]	n/a	catFR1	1	R1444D
938.766	0.783	945638	WORD_OFF	n/a	n/a	WINE	Beverages	4	7	[0, 0, 0]	n/a	catFR1	1	R1444D
939.549	1.615	946417	WORD	n/a	wordpools/wordpool_categorized_EN.txt	WASHER	Appliances	5	7	[0, 0, 0]	n/a	catFR1	1	R1444D
941.164	0.868	948024	WORD_OFF	n/a	n/a	WASHER	Appliances	5	7	[0, 0, 0]	n/a	catFR1	1	R1444D
942.032	1.617	948903	WORD	n/a	wordpools/wordpool_categorized_EN.txt	MIXER	Appliances	6	7	[0, 0, 0]	n/a	catFR1	1	R1444D
943.649	0.917	950511	WORD_OFF	n/a	n/a	MIXER	Appliances	6	7	[0, 0, 0]	n/a	catFR1	1	R1444D
944.566	1.6	951427	WORD	n/a	wordpools/wordpool_categorized_EN.txt	WATER	Beverages	7	7	[0, 0, 0]	n/a	catFR1	1	R1444D
946.166	0.933	953034	WORD_OFF	n/a	n/a	WATER	Beverages	7	7	[0, 0, 0]	n/a	catFR1	1	R1444D
947.099	1.617	953964	WORD	n/a	wordpools/wordpool_categorized_EN.txt	CIDER	Beverages	8	7	[0, 0, 0]	n/a	catFR1	1	R1444D
948.716	0.882	955584	WORD_OFF	n/a	n/a	CIDER	Beverages	8	7	[0, 0, 0]	n/a	catFR1	1	R1444D
949.598	1.601	956463	WORD	n/a	wordpools/wordpool_categorized_EN.txt	SPIDER	Insects	9	7	[0, 0, 0]	n/a	catFR1	1	R1444D
951.199	0.916	958070	WORD_OFF	n/a	n/a	SPIDER	Insects	9	7	[0, 0, 0]	n/a	catFR1	1	R1444D
952.115	1.617	958986	WORD	n/a	wordpools/wordpool_categorized_EN.txt	FLY	Insects	10	7	[0, 0, 0]	n/a	catFR1	1	R1444D
953.732	0.833	960594	WORD_OFF	n/a	n/a	FLY	Insects	10	7	[0, 0, 0]	n/a	catFR1	1	R1444D
954.565	1.6	961435	WORD	n/a	wordpools/wordpool_categorized_EN.txt	OVEN	Appliances	11	7	[0, 0, 0]	n/a	catFR1	1	R1444D
956.165	0.984	963030	WORD_OFF	n/a	n/a	OVEN	Appliances	11	7	[0, 0, 0]	n/a	catFR1	1	R1444D
957.149	1.616	964009	WORD	n/a	wordpools/wordpool_categorized_EN.txt	IRON	Appliances	12	7	[0, 0, 0]	n/a	catFR1	1	R1444D
958.765	0.001	965629	WORD_OFF	n/a	n/a	IRON	Appliances	12	7	[0, 0, 0]	n/a	catFR1	1	R1444D
958.766	0.0	965629	ENCODING_END	n/a	n/a	n/a	n/a	-999	7	[0, 0, 0]	n/a	catFR1	1	R1444D
958.766	0.0	965629	DISTRACT_START	n/a	n/a	n/a	n/a	-999	7	[0, 0, 0]	n/a	catFR1	1	R1444D
958.766	0.0	965634	START	n/a	n/a	n/a	n/a	-999	7	[-999, -999, -999]	n/a	catFR1	1	R1444D
958.766	18.967	965634	PROB	18.95	n/a	n/a	n/a	-999	7	[1, 5, 1]	7.0	catFR1	1	R1444D
977.733	5.716	984600	PROB	5.699	n/a	n/a	n/a	-999	7	[7, 5, 2]	14.0	catFR1	1	R1444D
983.449	0.0	990316	DISTRACT_END	n/a	n/a	n/a	n/a	-999	7	[0, 0, 0]	n/a	catFR1	1	R1444D
983.449	2.217	990316	STOP	n/a	n/a	n/a	n/a	-999	7	[-999, -999, -999]	n/a	catFR1	1	R1444D
985.666	1.165	992534	REC_START	n/a	n/a	n/a	n/a	-999	7	[0, 0, 0]	n/a	catFR1	1	R1444D
986.831	0.837	993698	REC_WORD	1.165	n/a	MOSQUITO	Insects	1	7	[0, 0, 0]	n/a	catFR1	1	R1444D
987.668	0.318	994535	REC_WORD_VV	2.002	n/a	<>	n/a	-999	7	[0, 0, 0]	n/a	catFR1	1	R1444D
987.986	0.565	994853	REC_WORD	2.32	n/a	WATER	Beverages	7	7	[0, 0, 0]	n/a	catFR1	1	R1444D
988.551	1.144	995418	REC_WORD_VV	2.885	n/a	<>	n/a	-999	7	[0, 0, 0]	n/a	catFR1	1	R1444D
989.695	0.986	996562	REC_WORD_VV	4.029	n/a	<>	n/a	-999	7	[0, 0, 0]	n/a	catFR1	1	R1444D
990.681	1.482	997548	REC_WORD	5.015	n/a	FLY	Insects	10	7	[0, 0, 0]	n/a	catFR1	1	R1444D
992.163	3.708	999030	REC_WORD_VV	6.497	n/a	<>	n/a	-999	7	[0, 0, 0]	n/a	catFR1	1	R1444D
995.871	0.685	1002737	REC_WORD_VV	10.205	n/a	<>	n/a	-999	7	[0, 0, 0]	n/a	catFR1	1	R1444D
996.556	0.648	1003422	REC_WORD	10.89	n/a	MOSQUITO	Insects	1	7	[0, 0, 0]	n/a	catFR1	1	R1444D
997.204	0.177	1004070	REC_WORD	11.538	n/a	WATER	Beverages	7	7	[0, 0, 0]	n/a	catFR1	1	R1444D
997.381	8.682	1004247	REC_WORD	11.715	n/a	FLY	Insects	10	7	[0, 0, 0]	n/a	catFR1	1	R1444D
1006.063	1.79	1012929	REC_WORD	20.397	n/a	MOSQUITO	Insects	1	7	[0, 0, 0]	n/a	catFR1	1	R1444D
1007.853	1.732	1014719	REC_WORD	22.187	n/a	WINDOW	Building	-999	7	[0, 0, 0]	n/a	catFR1	1	R1444D
1009.585	2.643	1016451	REC_WORD_VV	23.919	n/a	<>	n/a	-999	7	[0, 0, 0]	n/a	catFR1	1	R1444D
1012.228	3.692	1019094	REC_WORD	26.562	n/a	LABEL	n/a	-999	7	[0, 0, 0]	n/a	catFR1	1	R1444D
1015.92	2.579	1022788	REC_END	n/a	n/a	n/a	n/a	-999	7	[0, 0, 0]	n/a	catFR1	1	R1444D
1018.499	10.349	1025362	COUNTDOWN_START	n/a	n/a	n/a	n/a	-999	8	[0, 0, 0]	n/a	catFR1	1	R1444D
1028.848	0.0	1035709	COUNTDOWN_END	n/a	n/a	n/a	n/a	-999	8	[0, 0, 0]	n/a	catFR1	1	R1444D
1028.848	1.884	1035709	ENCODING_START	n/a	n/a	n/a	n/a	-999	8	[0, 0, 0]	n/a	catFR1	1	R1444D
1030.732	1.617	1037593	WORD	n/a	wordpools/wordpool_categorized_EN.txt	MAPLE	Trees	1	8	[0, 0, 0]	n/a	catFR1	1	R1444D
1032.349	0.933	1039213	WORD_OFF	n/a	n/a	MAPLE	Trees	1	8	[0, 0, 0]	n/a	catFR1	1	R1444D
1033.282	1.617	1040142	WORD	n/a	wordpools/wordpool_categorized_EN.txt	CYPRESS	Trees	2	8	[0, 0, 0]	n/a	catFR1	1	R1444D
1034.899	0.933	1041762	WORD_OFF	n/a	n/a	CYPRESS	Trees	2	8	[0, 0, 0]	n/a	catFR1	1	R1444D
1035.832	1.6	1042691	WORD	n/a	wordpools/wordpool_categorized_EN.txt	PLANE	Vehicles	3	8	[0, 0, 0]	n/a	catFR1	1	R1444D
1037.432	0.9	1044298	WORD_OFF	n/a	n/a	PLANE	Vehicles	3	8	[0, 0, 0]	n/a	catFR1	1	R1444D
1038.332	1.6	1045190	WORD	n/a	wordpools/wordpool_categorized_EN.txt	TRUCK	Vehicles	4	8	[0, 0, 0]	n/a	catFR1	1	R1444D
1039.932	0.95	1046797	WORD_OFF	n/a	n/a	TRUCK	Vehicles	4	8	[0, 0, 0]	n/a	catFR1	1	R1444D
1040.882	1.6	1047739	WORD	n/a	wordpools/wordpool_categorized_EN.txt	STREAM	Landscapes	5	8	[0, 0, 0]	n/a	catFR1	1	R1444D
1042.482	0.767	1049346	WORD_OFF	n/a	n/a	STREAM	Landscapes	5	8	[0, 0, 0]	n/a	catFR1	1	R1444D
1043.249	1.617	1050112	WORD	n/a	wordpools/wordpool_categorized_EN.txt	CREEK	Landscapes	6	8	[0, 0, 0]	n/a	catFR1	1	R1444D
1044.866	0.783	1051732	WORD_OFF	n/a	n/a	CREEK	Landscapes	6	8	[0, 0, 0]	n/a	catFR1	1	R1444D
1045.649	1.6	1052511	WORD	n/a	wordpools/wordpool_categorized_EN.txt	JEEP	Vehicles	7	8	[0, 0, 0]	n/a	catFR1	1	R1444D
1047.249	0.949	1054105	WORD_OFF	n/a	n/a	JEEP	Vehicles	7	8	[0, 0, 0]	n/a	catFR1	1	R1444D
1048.198	1.601	1055060	WORD	n/a	wordpools/wordpool_categorized_EN.txt	BIKE	Vehicles	8	8	[0, 0, 0]	n/a	catFR1	1	R1444D
1049.799	0.817	1056654	WORD_OFF	n/a	n/a	BIKE	Vehicles	8	8	[0, 0, 0]	n/a	catFR1	1	R1444D
1050.616	1.6	1057471	WORD	n/a	wordpools/wordpool_categorized_EN.txt	FOREST	Landscapes	9	8	[0, 0, 0]	n/a	catFR1	1	R1444D
1052.216	0.85	1059078	WORD_OFF	n/a	n/a	FOREST	Landscapes	9	8	[0, 0, 0]	n/a	catFR1	1	R1444D
1053.066	1.616	1059919	WORD	n/a	wordpools/wordpool_categorized_EN.txt	ISLAND	Landscapes	10	8	[0, 0, 0]	n/a	catFR1	1	R1444D
1054.682	0.866	1061539	WORD_OFF	n/a	n/a	ISLAND	Landscapes	10	8	[0, 0, 0]	n/a	catFR1	1	R1444D
1055.548	1.6	1062406	WORD	n/a	wordpools/wordpool_categorized_EN.txt	HICKORY	Trees	11	8	[0, 0, 0]	n/a	catFR1	1	R1444D
1057.148	0.867	1064013	WORD_OFF	n/a	n/a	HICKORY	Trees	11	8	[0, 0, 0]	n/a	catFR1	1	R1444D
1058.015	1.6	1064879	WORD	n/a	wordpools/wordpool_categorized_EN.txt	WILLOW	Trees	12	8	[0, 0, 0]	n/a	catFR1	1	R1444D
1059.615	0.002	1066474	WORD_OFF	n/a	n/a	WILLOW	Trees	12	8	[0, 0, 0]	n/a	catFR1	1	R1444D
1059.617	0.0	1066474	ENCODING_END	n/a	n/a	n/a	n/a	-999	8	[0, 0, 0]	n/a	catFR1	1	R1444D
1059.617	0.0	1066474	DISTRACT_START	n/a	n/a	n/a	n/a	-999	8	[0, 0, 0]	n/a	catFR1	1	R1444D
1059.616	0.001	1066479	PROB	11.798	n/a	n/a	n/a	-999	8	[6, 4, 7]	17.0	catFR1	1	R1444D
1059.617	11.816	1066480	START	n/a	n/a	n/a	n/a	-999	8	[-999, -999, -999]	n/a	catFR1	1	R1444D
1071.433	5.132	1078295	PROB	5.115	n/a	n/a	n/a	-999	8	[6, 8, 2]	16.0	catFR1	1	R1444D
1076.565	6.766	1083427	PROB	6.75	n/a	n/a	n/a	-999	8	[8, 3, 7]	18.0	catFR1	1	R1444D
1083.331	0.0	1090193	STOP	n/a	n/a	n/a	n/a	-999	8	[-999, -999, -999]	n/a	catFR1	1	R1444D
1083.331	2.101	1090194	DISTRACT_END	n/a	n/a	n/a	n/a	-999	8	[0, 0, 0]	n/a	catFR1	1	R1444D
1085.432	5.932	1092286	REC_START	n/a	n/a	n/a	n/a	-999	8	[0, 0, 0]	n/a	catFR1	1	R1444D
1091.364	0.551	1098225	REC_WORD	5.932	n/a	PIE	Desserts	-999	8	[0, 0, 0]	n/a	catFR1	1	R1444D
1091.915	0.372	1098776	REC_WORD	6.483	n/a	WATER	Beverages	-999	8	[0, 0, 0]	n/a	catFR1	1	R1444D
1092.287	1.467	1099148	REC_WORD	6.855	n/a	CREEK	Landscapes	6	8	[0, 0, 0]	n/a	catFR1	1	R1444D
1093.754	2.001	1100615	REC_WORD_VV	8.322	n/a	<>	n/a	-999	8	[0, 0, 0]	n/a	catFR1	1	R1444D
1095.755	0.987	1102616	REC_WORD_VV	10.323	n/a	<>	n/a	-999	8	[0, 0, 0]	n/a	catFR1	1	R1444D
1096.742	0.346	1103603	REC_WORD	11.31	n/a	APPLE	n/a	-999	8	[0, 0, 0]	n/a	catFR1	1	R1444D
1097.088	0.502	1103949	REC_WORD	11.656	n/a	PIE	Desserts	-999	8	[0, 0, 0]	n/a	catFR1	1	R1444D
1097.59	1.891	1104451	REC_WORD	12.158	n/a	CRUST	n/a	-999	8	[0, 0, 0]	n/a	catFR1	1	R1444D
1099.481	2.032	1106342	REC_WORD_VV	14.049	n/a	<>	n/a	-999	8	[0, 0, 0]	n/a	catFR1	1	R1444D
1101.513	3.212	1108374	REC_WORD	16.081	n/a	CLOUD	Weather	-999	8	[0, 0, 0]	n/a	catFR1	1	R1444D
1104.725	4.991	1111586	REC_WORD_VV	19.293	n/a	<>	n/a	-999	8	[0, 0, 0]	n/a	catFR1	1	R1444D
1109.716	5.931	1116576	REC_WORD_VV	24.284	n/a	<>	n/a	-999	8	[0, 0, 0]	n/a	catFR1	1	R1444D
1115.647	3.569	1122503	REC_END	n/a	n/a	n/a	n/a	-999	8	[0, 0, 0]	n/a	catFR1	1	R1444D
1119.216	10.349	1126069	COUNTDOWN_START	n/a	n/a	n/a	n/a	-999	9	[0, 0, 0]	n/a	catFR1	1	R1444D
1129.565	0.0	1136416	COUNTDOWN_END	n/a	n/a	n/a	n/a	-999	9	[0, 0, 0]	n/a	catFR1	1	R1444D
1129.565	1.951	1136429	ENCODING_START	n/a	n/a	n/a	n/a	-999	9	[0, 0, 0]	n/a	catFR1	1	R1444D
1131.516	1.615	1138375	WORD	n/a	wordpools/wordpool_categorized_EN.txt	SILK	Fabric	1	9	[0, 0, 0]	n/a	catFR1	1	R1444D
1133.131	0.884	1139982	WORD_OFF	n/a	n/a	SILK	Fabric	1	9	[0, 0, 0]	n/a	catFR1	1	R1444D
1134.015	1.617	1140874	WORD	n/a	wordpools/wordpool_categorized_EN.txt	DENIM	Fabric	2	9	[0, 0, 0]	n/a	catFR1	1	R1444D
1135.632	0.834	1142481	WORD_OFF	n/a	n/a	DENIM	Fabric	2	9	[0, 0, 0]	n/a	catFR1	1	R1444D
1136.466	1.6	1143322	WORD	n/a	wordpools/wordpool_categorized_EN.txt	BASS	Instruments	3	9	[0, 0, 0]	n/a	catFR1	1	R1444D
1138.066	0.85	1144917	WORD_OFF	n/a	n/a	BASS	Instruments	3	9	[0, 0, 0]	n/a	catFR1	1	R1444D
1138.916	1.616	1145771	WORD	n/a	wordpools/wordpool_categorized_EN.txt	TRUMPET	Instruments	4	9	[0, 0, 0]	n/a	catFR1	1	R1444D
1140.532	0.784	1147391	WORD_OFF	n/a	n/a	TRUMPET	Instruments	4	9	[0, 0, 0]	n/a	catFR1	1	R1444D
1141.316	1.616	1148169	WORD	n/a	wordpools/wordpool_categorized_EN.txt	BEACH	Landscapes	5	9	[0, 0, 0]	n/a	catFR1	1	R1444D
1142.932	0.767	1149789	WORD_OFF	n/a	n/a	BEACH	Landscapes	5	9	[0, 0, 0]	n/a	catFR1	1	R1444D
1143.699	1.617	1150555	WORD	n/a	wordpools/wordpool_categorized_EN.txt	HILLS	Landscapes	6	9	[0, 0, 0]	n/a	catFR1	1	R1444D
1145.316	0.833	1152175	WORD_OFF	n/a	n/a	HILLS	Landscapes	6	9	[0, 0, 0]	n/a	catFR1	1	R1444D
1146.149	1.618	1153004	WORD	n/a	wordpools/wordpool_categorized_EN.txt	FLUTE	Instruments	7	9	[0, 0, 0]	n/a	catFR1	1	R1444D
1147.767	0.897	1154624	WORD_OFF	n/a	n/a	FLUTE	Instruments	7	9	[0, 0, 0]	n/a	catFR1	1	R1444D
1148.664	1.602	1155515	WORD	n/a	wordpools/wordpool_categorized_EN.txt	DRUM	Instruments	8	9	[0, 0, 0]	n/a	catFR1	1	R1444D
1150.266	0.8	1157123	WORD_OFF	n/a	n/a	DRUM	Instruments	8	9	[0, 0, 0]	n/a	catFR1	1	R1444D
1151.066	1.615	1157926	WORD	n/a	wordpools/wordpool_categorized_EN.txt	SUEDE	Fabric	9	9	[0, 0, 0]	n/a	catFR1	1	R1444D
1152.681	0.851	1159534	WORD_OFF	n/a	n/a	SUEDE	Fabric	9	9	[0, 0, 0]	n/a	catFR1	1	R1444D
1153.532	1.616	1160387	WORD	n/a	wordpools/wordpool_categorized_EN.txt	WOOL	Fabric	10	9	[0, 0, 0]	n/a	catFR1	1	R1444D
1155.148	0.95	1162007	WORD_OFF	n/a	n/a	WOOL	Fabric	10	9	[0, 0, 0]	n/a	catFR1	1	R1444D
1156.098	1.6	1162949	WORD	n/a	wordpools/wordpool_categorized_EN.txt	WOODS	Landscapes	11	9	[0, 0, 0]	n/a	catFR1	1	R1444D
1157.698	0.967	1164556	WORD_OFF	n/a	n/a	WOODS	Landscapes	11	9	[0, 0, 0]	n/a	catFR1	1	R1444D
1158.665	1.616	1165523	WORD	n/a	wordpools/wordpool_categorized_EN.txt	OCEAN	Landscapes	12	9	[0, 0, 0]	n/a	catFR1	1	R1444D
1160.281	0.001	1167130	WORD_OFF	n/a	n/a	OCEAN	Landscapes	12	9	[0, 0, 0]	n/a	catFR1	1	R1444D
1160.282	0.0	1167130	ENCODING_END	n/a	n/a	n/a	n/a	-999	9	[0, 0, 0]	n/a	catFR1	1	R1444D
1160.281	0.001	1167138	PROB	6.451	n/a	n/a	n/a	-999	9	[8, 1, 3]	12.0	catFR1	1	R1444D
1160.282	0.0	1167139	START	n/a	n/a	n/a	n/a	-999	9	[-999, -999, -999]	n/a	catFR1	1	R1444D
1160.282	6.467	1167143	DISTRACT_START	n/a	n/a	n/a	n/a	-999	9	[0, 0, 0]	n/a	catFR1	1	R1444D
1166.749	8.417	1173606	PROB	8.4	n/a	n/a	n/a	-999	9	[7, 7, 8]	22.0	catFR1	1	R1444D
1175.166	6.285	1182023	PROB	6.266	n/a	n/a	n/a	-999	9	[2, 7, 8]	17.0	catFR1	1	R1444D
1181.451	0.0	1188302	DISTRACT_END	n/a	n/a	n/a	n/a	-999	9	[0, 0, 0]	n/a	catFR1	1	R1444D
1181.451	2.114	1188307	STOP	n/a	n/a	n/a	n/a	-999	9	[-999, -999, -999]	n/a	catFR1	1	R1444D
1183.565	2.772	1190419	REC_START	n/a	n/a	n/a	n/a	-999	9	[0, 0, 0]	n/a	catFR1	1	R1444D
1186.337	1.0	1193193	REC_WORD_VV	2.772	n/a	<>	n/a	-999	9	[0, 0, 0]	n/a	catFR1	1	R1444D
1187.337	3.066	1194193	REC_WORD_VV	3.772	n/a	<>	n/a	-999	9	[0, 0, 0]	n/a	catFR1	1	R1444D
1190.403	1.402	1197259	REC_WORD	6.838	n/a	WEED	n/a	-999	9	[0, 0, 0]	n/a	catFR1	1	R1444D
1191.805	1.444	1198661	REC_WORD	8.24	n/a	WEED	n/a	-999	9	[0, 0, 0]	n/a	catFR1	1	R1444D
1193.249	1.476	1200105	REC_WORD	9.684	n/a	CRACKER	n/a	-999	9	[0, 0, 0]	n/a	catFR1	1	R1444D
1194.725	2.196	1201581	REC_WORD_VV	11.16	n/a	<>	n/a	-999	9	[0, 0, 0]	n/a	catFR1	1	R1444D
1196.921	1.695	1203777	REC_WORD_VV	13.356	n/a	<>	n/a	-999	9	[0, 0, 0]	n/a	catFR1	1	R1444D
1198.616	0.433	1205471	REC_WORD	15.051	n/a	WEED	n/a	-999	9	[0, 0, 0]	n/a	catFR1	1	R1444D
1199.049	0.567	1205904	REC_WORD	15.484	n/a	CRACKER	n/a	-999	9	[0, 0, 0]	n/a	catFR1	1	R1444D
1199.616	1.49	1206471	REC_WORD	16.051	n/a	WATER	Beverages	-999	9	[0, 0, 0]	n/a	catFR1	1	R1444D
1201.106	1.416	1207961	REC_WORD	17.541	n/a	WOOL	Fabric	10	9	[0, 0, 0]	n/a	catFR1	1	R1444D
1202.522	4.464	1209377	REC_WORD_VV	18.957	n/a	<>	n/a	-999	9	[0, 0, 0]	n/a	catFR1	1	R1444D
1206.986	6.817	1213841	REC_WORD_VV	23.421	n/a	<>	n/a	-999	9	[0, 0, 0]	n/a	catFR1	1	R1444D
1213.803	3.345	1220648	REC_END	n/a	n/a	n/a	n/a	-999	9	[0, 0, 0]	n/a	catFR1	1	R1444D
1217.148	10.351	1224001	COUNTDOWN_START	n/a	n/a	n/a	n/a	-999	10	[0, 0, 0]	n/a	catFR1	1	R1444D
1227.499	0.0	1234348	COUNTDOWN_END	n/a	n/a	n/a	n/a	-999	10	[0, 0, 0]	n/a	catFR1	1	R1444D
1227.499	1.967	1234348	ENCODING_START	n/a	n/a	n/a	n/a	-999	10	[0, 0, 0]	n/a	catFR1	1	R1444D
1229.466	1.616	1236319	WORD	n/a	wordpools/wordpool_categorized_EN.txt	LAKE	Landscapes	1	10	[0, 0, 0]	n/a	catFR1	1	R1444D
1231.082	0.85	1237939	WORD_OFF	n/a	n/a	LAKE	Landscapes	1	10	[0, 0, 0]	n/a	catFR1	1	R1444D
1231.932	1.617	1238780	WORD	n/a	wordpools/wordpool_categorized_EN.txt	MOUNTAIN	Landscapes	2	10	[0, 0, 0]	n/a	catFR1	1	R1444D
1233.549	0.916	1240400	WORD_OFF	n/a	n/a	MOUNTAIN	Landscapes	2	10	[0, 0, 0]	n/a	catFR1	1	R1444D
1234.465	1.617	1241317	WORD	n/a	wordpools/wordpool_categorized_EN.txt	BLUEBIRD	Birds	3	10	[0, 0, 0]	n/a	catFR1	1	R1444D
1236.082	0.817	1242937	WORD_OFF	n/a	n/a	BLUEBIRD	Birds	3	10	[0, 0, 0]	n/a	catFR1	1	R1444D
1236.899	1.6	1243753	WORD	n/a	wordpools/wordpool_categorized_EN.txt	DOVE	Birds	4	10	[0, 0, 0]	n/a	catFR1	1	R1444D
1238.499	0.783	1245348	WORD_OFF	n/a	n/a	DOVE	Birds	4	10	[0, 0, 0]	n/a	catFR1	1	R1444D
1239.282	1.617	1246139	WORD	n/a	wordpools/wordpool_categorized_EN.txt	RECLINER	Furniture	5	10	[0, 0, 0]	n/a	catFR1	1	R1444D
1240.899	0.933	1247746	WORD_OFF	n/a	n/a	RECLINER	Furniture	5	10	[0, 0, 0]	n/a	catFR1	1	R1444D
1241.832	1.616	1248680	WORD	n/a	wordpools/wordpool_categorized_EN.txt	COUCH	Furniture	6	10	[0, 0, 0]	n/a	catFR1	1	R1444D
1243.448	0.783	1250295	WORD_OFF	n/a	n/a	COUCH	Furniture	6	10	[0, 0, 0]	n/a	catFR1	1	R1444D
1244.231	1.601	1251086	WORD	n/a	wordpools/wordpool_categorized_EN.txt	RIVER	Landscapes	7	10	[0, 0, 0]	n/a	catFR1	1	R1444D
1245.832	0.8	1252681	WORD_OFF	n/a	n/a	RIVER	Landscapes	7	10	[0, 0, 0]	n/a	catFR1	1	R1444D
1246.632	1.617	1253485	WORD	n/a	wordpools/wordpool_categorized_EN.txt	VALLEY	Landscapes	8	10	[0, 0, 0]	n/a	catFR1	1	R1444D
1248.249	0.917	1255093	WORD_OFF	n/a	n/a	VALLEY	Landscapes	8	10	[0, 0, 0]	n/a	catFR1	1	R1444D
1249.166	1.599	1256021	WORD	n/a	wordpools/wordpool_categorized_EN.txt	HAWK	Birds	9	10	[0, 0, 0]	n/a	catFR1	1	R1444D
1250.765	0.967	1257616	WORD_OFF	n/a	n/a	HAWK	Birds	9	10	[0, 0, 0]	n/a	catFR1	1	R1444D
1251.732	1.6	1258583	WORD	n/a	wordpools/wordpool_categorized_EN.txt	SPARROW	Birds	10	10	[0, 0, 0]	n/a	catFR1	1	R1444D
1253.332	0.767	1260178	WORD_OFF	n/a	n/a	SPARROW	Birds	10	10	[0, 0, 0]	n/a	catFR1	1	R1444D
1254.099	1.616	1260944	WORD	n/a	wordpools/wordpool_categorized_EN.txt	NIGHTSTAND	Furniture	11	10	[0, 0, 0]	n/a	catFR1	1	R1444D
1255.715	0.983	1262563	WORD_OFF	n/a	n/a	NIGHTSTAND	Furniture	11	10	[0, 0, 0]	n/a	catFR1	1	R1444D
1256.698	1.6	1263543	WORD	n/a	wordpools/wordpool_categorized_EN.txt	SOFA	Furniture	12	10	[0, 0, 0]	n/a	catFR1	1	R1444D
1258.298	0.001	1265150	WORD_OFF	n/a	n/a	SOFA	Furniture	12	10	[0, 0, 0]	n/a	catFR1	1	R1444D
1258.299	0.0	1265150	ENCODING_END	n/a	n/a	n/a	n/a	-999	10	[0, 0, 0]	n/a	catFR1	1	R1444D
1258.299	0.0	1265150	DISTRACT_START	n/a	n/a	n/a	n/a	-999	10	[0, 0, 0]	n/a	catFR1	1	R1444D
1258.298	0.001	1265150	PROB	9.6	n/a	n/a	n/a	-999	10	[6, 7, 2]	15.0	catFR1	1	R1444D
1258.299	9.616	1265151	START	n/a	n/a	n/a	n/a	-999	10	[-999, -999, -999]	n/a	catFR1	1	R1444D
1267.915	5.818	1274767	PROB	5.799	n/a	n/a	n/a	-999	10	[6, 8, 4]	18.0	catFR1	1	R1444D
1273.733	6.083	1280584	PROB	6.066	n/a	n/a	n/a	-999	10	[3, 5, 8]	16.0	catFR1	1	R1444D
1279.816	0.0	1286660	DISTRACT_END	n/a	n/a	n/a	n/a	-999	10	[0, 0, 0]	n/a	catFR1	1	R1444D
1279.816	2.116	1286667	STOP	n/a	n/a	n/a	n/a	-999	10	[-999, -999, -999]	n/a	catFR1	1	R1444D
1281.932	1.026	1288778	REC_START	n/a	n/a	n/a	n/a	-999	10	[0, 0, 0]	n/a	catFR1	1	R1444D
1282.958	1.0	1289809	REC_WORD_VV	1.026	n/a	<>	n/a	-999	10	[0, 0, 0]	n/a	catFR1	1	R1444D
1283.958	0.862	1290809	REC_WORD_VV	2.026	n/a	<>	n/a	-999	10	[0, 0, 0]	n/a	catFR1	1	R1444D
1284.82	1.79	1291671	REC_WORD	2.888	n/a	RIVER	Landscapes	7	10	[0, 0, 0]	n/a	catFR1	1	R1444D
1286.61	1.165	1293461	REC_WORD	4.678	n/a	CRACKER	n/a	-999	10	[0, 0, 0]	n/a	catFR1	1	R1444D
1287.775	1.375	1294626	REC_WORD	5.843	n/a	SPARROW	Birds	10	10	[0, 0, 0]	n/a	catFR1	1	R1444D
1289.15	1.173	1296001	REC_WORD	7.218	n/a	BOAT	Vehicles	-999	10	[0, 0, 0]	n/a	catFR1	1	R1444D
1290.323	4.942	1297173	REC_WORD	8.391	n/a	WATER	Beverages	-999	10	[0, 0, 0]	n/a	catFR1	1	R1444D
1295.265	0.757	1302115	REC_WORD	13.333	n/a	SPARROW	Birds	10	10	[0, 0, 0]	n/a	catFR1	1	R1444D
1296.022	0.434	1302872	REC_WORD	14.09	n/a	BOAT	Vehicles	-999	10	[0, 0, 0]	n/a	catFR1	1	R1444D
1296.456	0.933	1303306	REC_WORD	14.524	n/a	WATER	Beverages	-999	10	[0, 0, 0]	n/a	catFR1	1	R1444D
1297.389	1.339	1304239	REC_WORD	15.457	n/a	CRICKET	Insects	-999	10	[0, 0, 0]	n/a	catFR1	1	R1444D
1298.728	3.291	1305578	REC_WORD_VV	16.796	n/a	<>	n/a	-999	10	[0, 0, 0]	n/a	catFR1	1	R1444D
1302.019	1.0	1308869	REC_WORD_VV	20.087	n/a	<>	n/a	-999	10	[0, 0, 0]	n/a	catFR1	1	R1444D
1303.019	1.0	1309869	REC_WORD_VV	21.087	n/a	<>	n/a	-999	10	[0, 0, 0]	n/a	catFR1	1	R1444D
1304.019	3.036	1310869	REC_WORD_VV	22.087	n/a	<>	n/a	-999	10	[0, 0, 0]	n/a	catFR1	1	R1444D
1307.055	5.108	1313905	REC_WORD_VV	25.123	n/a	<>	n/a	-999	10	[0, 0, 0]	n/a	catFR1	1	R1444D
1312.163	2.902	1319007	REC_END	n/a	n/a	n/a	n/a	-999	10	[0, 0, 0]	n/a	catFR1	1	R1444D
1315.065	10.35	1321920	COUNTDOWN_START	n/a	n/a	n/a	n/a	-999	11	[0, 0, 0]	n/a	catFR1	1	R1444D
1325.415	0.0	1332254	COUNTDOWN_END	n/a	n/a	n/a	n/a	-999	11	[0, 0, 0]	n/a	catFR1	1	R1444D
1325.415	2.118	1332267	ENCODING_START	n/a	n/a	n/a	n/a	-999	11	[0, 0, 0]	n/a	catFR1	1	R1444D
1327.533	1.615	1334377	WORD	n/a	wordpools/wordpool_categorized_EN.txt	STAPLER	OfficeSupplies	1	11	[0, 0, 0]	n/a	catFR1	1	R1444D
1329.148	0.884	1335996	WORD_OFF	n/a	n/a	STAPLER	OfficeSupplies	1	11	[0, 0, 0]	n/a	catFR1	1	R1444D
1330.032	1.6	1336875	WORD	n/a	wordpools/wordpool_categorized_EN.txt	FOLDER	OfficeSupplies	2	11	[0, 0, 0]	n/a	catFR1	1	R1444D
1331.632	0.8	1338483	WORD_OFF	n/a	n/a	FOLDER	OfficeSupplies	2	11	[0, 0, 0]	n/a	catFR1	1	R1444D
1332.432	1.6	1339274	WORD	n/a	wordpools/wordpool_categorized_EN.txt	DOLL	Toys	3	11	[0, 0, 0]	n/a	catFR1	1	R1444D
1334.032	0.917	1340881	WORD_OFF	n/a	n/a	DOLL	Toys	3	11	[0, 0, 0]	n/a	catFR1	1	R1444D
1334.949	1.6	1341798	WORD	n/a	wordpools/wordpool_categorized_EN.txt	FOOTBALL	Toys	4	11	[0, 0, 0]	n/a	catFR1	1	R1444D
1336.549	0.85	1343392	WORD_OFF	n/a	n/a	FOOTBALL	Toys	4	11	[0, 0, 0]	n/a	catFR1	1	R1444D
1337.399	1.617	1344246	WORD	n/a	wordpools/wordpool_categorized_EN.txt	CABINET	Furniture	5	11	[0, 0, 0]	n/a	catFR1	1	R1444D
1339.016	0.899	1345866	WORD_OFF	n/a	n/a	CABINET	Furniture	5	11	[0, 0, 0]	n/a	catFR1	1	R1444D
1339.915	1.601	1346758	WORD	n/a	wordpools/wordpool_categorized_EN.txt	BED	Furniture	6	11	[0, 0, 0]	n/a	catFR1	1	R1444D
1341.516	0.8	1348365	WORD_OFF	n/a	n/a	BED	Furniture	6	11	[0, 0, 0]	n/a	catFR1	1	R1444D
1342.316	1.599	1349156	WORD	n/a	wordpools/wordpool_categorized_EN.txt	RULER	OfficeSupplies	7	11	[0, 0, 0]	n/a	catFR1	1	R1444D
1343.915	0.9	1350763	WORD_OFF	n/a	n/a	RULER	OfficeSupplies	7	11	[0, 0, 0]	n/a	catFR1	1	R1444D
1344.815	1.617	1351655	WORD	n/a	wordpools/wordpool_categorized_EN.txt	BINDER	OfficeSupplies	8	11	[0, 0, 0]	n/a	catFR1	1	R1444D
1346.432	0.784	1353275	WORD_OFF	n/a	n/a	BINDER	OfficeSupplies	8	11	[0, 0, 0]	n/a	catFR1	1	R1444D
1347.216	1.6	1354066	WORD	n/a	wordpools/wordpool_categorized_EN.txt	DRESSER	Furniture	9	11	[0, 0, 0]	n/a	catFR1	1	R1444D
1348.816	0.849	1355661	WORD_OFF	n/a	n/a	DRESSER	Furniture	9	11	[0, 0, 0]	n/a	catFR1	1	R1444D
1349.665	1.616	1356514	WORD	n/a	wordpools/wordpool_categorized_EN.txt	BOOKCASE	Furniture	10	11	[0, 0, 0]	n/a	catFR1	1	R1444D
1351.281	0.901	1358122	WORD_OFF	n/a	n/a	BOOKCASE	Furniture	10	11	[0, 0, 0]	n/a	catFR1	1	R1444D
1352.182	1.6	1359026	WORD	n/a	wordpools/wordpool_categorized_EN.txt	BASKETBALL	Toys	11	11	[0, 0, 0]	n/a	catFR1	1	R1444D
1353.782	0.767	1360621	WORD_OFF	n/a	n/a	BASKETBALL	Toys	11	11	[0, 0, 0]	n/a	catFR1	1	R1444D
1354.549	1.6	1361387	WORD	n/a	wordpools/wordpool_categorized_EN.txt	BARBIE	Toys	12	11	[0, 0, 0]	n/a	catFR1	1	R1444D
1356.149	0.001	1362994	WORD_OFF	n/a	n/a	BARBIE	Toys	12	11	[0, 0, 0]	n/a	catFR1	1	R1444D
1356.15	0.0	1362994	ENCODING_END	n/a	n/a	n/a	n/a	-999	11	[0, 0, 0]	n/a	catFR1	1	R1444D
1356.15	0.0	1362994	DISTRACT_START	n/a	n/a	n/a	n/a	-999	11	[0, 0, 0]	n/a	catFR1	1	R1444D
1356.149	0.001	1362996	PROB	14.516	n/a	n/a	n/a	-999	11	[1, 2, 2]	5.0	catFR1	1	R1444D
1356.15	14.532	1362997	START	n/a	n/a	n/a	n/a	-999	11	[-999, -999, -999]	n/a	catFR1	1	R1444D
1370.682	4.534	1377528	PROB	4.516	n/a	n/a	n/a	-999	11	[7, 2, 7]	16.0	catFR1	1	R1444D
1375.216	10.382	1382062	PROB	10.366	n/a	n/a	n/a	-999	11	[7, 4, 6]	17.0	catFR1	1	R1444D
1385.598	0.0	1392440	DISTRACT_END	n/a	n/a	n/a	n/a	-999	11	[0, 0, 0]	n/a	catFR1	1	R1444D
1385.598	2.134	1392443	STOP	n/a	n/a	n/a	n/a	-999	11	[-999, -999, -999]	n/a	catFR1	1	R1444D
1387.732	0.109	1394570	REC_START	n/a	n/a	n/a	n/a	-999	11	[0, 0, 0]	n/a	catFR1	1	R1444D
1387.841	0.546	1394686	REC_WORD	0.109	n/a	DOLL	Toys	3	11	[0, 0, 0]	n/a	catFR1	1	R1444D
1388.387	0.324	1395232	REC_WORD_VV	0.655	n/a	<>	n/a	-999	11	[0, 0, 0]	n/a	catFR1	1	R1444D
1388.711	1.598	1395556	REC_WORD	0.979	n/a	BASKETBALL	Toys	11	11	[0, 0, 0]	n/a	catFR1	1	R1444D
1390.309	0.985	1397154	REC_WORD_VV	2.577	n/a	<>	n/a	-999	11	[0, 0, 0]	n/a	catFR1	1	R1444D
1391.294	1.653	1398139	REC_WORD	3.562	n/a	WEEDER	n/a	-999	11	[0, 0, 0]	n/a	catFR1	1	R1444D
1392.947	3.379	1399792	REC_WORD_VV	5.215	n/a	<>	n/a	-999	11	[0, 0, 0]	n/a	catFR1	1	R1444D
1396.326	1.711	1403171	REC_WORD_VV	8.594	n/a	<>	n/a	-999	11	[0, 0, 0]	n/a	catFR1	1	R1444D
1398.037	2.059	1404882	REC_WORD	10.305	n/a	BASKET	n/a	-999	11	[0, 0, 0]	n/a	catFR1	1	R1444D
1400.096	2.515	1406941	REC_WORD_VV	12.364	n/a	<>	n/a	-999	11	[0, 0, 0]	n/a	catFR1	1	R1444D
1402.611	3.547	1409455	REC_WORD	14.879	n/a	HAM	n/a	-999	11	[0, 0, 0]	n/a	catFR1	1	R1444D
1406.158	1.0	1413002	REC_WORD_VV	18.426	n/a	<>	n/a	-999	11	[0, 0, 0]	n/a	catFR1	1	R1444D
1407.158	10.817	1414002	REC_WORD_VV	19.426	n/a	<>	n/a	-999	11	[0, 0, 0]	n/a	catFR1	1	R1444D
1417.975	7.007	1424812	REC_END	n/a	n/a	n/a	n/a	-999	11	[0, 0, 0]	n/a	catFR1	1	R1444D
1424.982	10.349	1431818	COUNTDOWN_START	n/a	n/a	n/a	n/a	-999	12	[0, 0, 0]	n/a	catFR1	1	R1444D
1435.331	0.001	1442165	COUNTDOWN_END	n/a	n/a	n/a	n/a	-999	12	[0, 0, 0]	n/a	catFR1	1	R1444D
1435.332	2.049	1442178	ENCODING_START	n/a	n/a	n/a	n/a	-999	12	[0, 0, 0]	n/a	catFR1	1	R1444D
1437.381	1.617	1444225	WORD	n/a	wordpools/wordpool_categorized_EN.txt	PINE	Trees	1	12	[0, 0, 0]	n/a	catFR1	1	R1444D
1438.998	0.934	1445832	WORD_OFF	n/a	n/a	PINE	Trees	1	12	[0, 0, 0]	n/a	catFR1	1	R1444D
1439.932	1.6	1446774	WORD	n/a	wordpools/wordpool_categorized_EN.txt	EVERGREEN	Trees	2	12	[0, 0, 0]	n/a	catFR1	1	R1444D
1441.532	0.8	1448369	WORD_OFF	n/a	n/a	EVERGREEN	Trees	2	12	[0, 0, 0]	n/a	catFR1	1	R1444D
1442.332	1.6	1449172	WORD	n/a	wordpools/wordpool_categorized_EN.txt	PIGEON	Birds	3	12	[0, 0, 0]	n/a	catFR1	1	R1444D
1443.932	0.95	1450767	WORD_OFF	n/a	n/a	PIGEON	Birds	3	12	[0, 0, 0]	n/a	catFR1	1	R1444D
1444.882	1.6	1451721	WORD	n/a	wordpools/wordpool_categorized_EN.txt	CARDINAL	Birds	4	12	[0, 0, 0]	n/a	catFR1	1	R1444D
1446.482	0.8	1453316	WORD_OFF	n/a	n/a	CARDINAL	Birds	4	12	[0, 0, 0]	n/a	catFR1	1	R1444D
1447.282	1.616	1454120	WORD	n/a	wordpools/wordpool_categorized_EN.txt	EYE	BodyParts	5	12	[0, 0, 0]	n/a	catFR1	1	R1444D
1448.898	0.934	1455739	WORD_OFF	n/a	n/a	EYE	BodyParts	5	12	[0, 0, 0]	n/a	catFR1	1	R1444D
1449.832	1.6	1456669	WORD	n/a	wordpools/wordpool_categorized_EN.txt	FOOT	BodyParts	6	12	[0, 0, 0]	n/a	catFR1	1	R1444D
1451.432	0.784	1458276	WORD_OFF	n/a	n/a	FOOT	BodyParts	6	12	[0, 0, 0]	n/a	catFR1	1	R1444D
1452.216	1.616	1459054	WORD	n/a	wordpools/wordpool_categorized_EN.txt	BIRCH	Trees	7	12	[0, 0, 0]	n/a	catFR1	1	R1444D
1453.832	0.967	1460674	WORD_OFF	n/a	n/a	BIRCH	Trees	7	12	[0, 0, 0]	n/a	catFR1	1	R1444D
1454.799	1.617	1461641	WORD	n/a	wordpools/wordpool_categorized_EN.txt	WALNUT	Trees	8	12	[0, 0, 0]	n/a	catFR1	1	R1444D
1456.416	0.949	1463249	WORD_OFF	n/a	n/a	WALNUT	Trees	8	12	[0, 0, 0]	n/a	catFR1	1	R1444D
1457.365	1.601	1464203	WORD	n/a	wordpools/wordpool_categorized_EN.txt	EAR	BodyParts	9	12	[0, 0, 0]	n/a	catFR1	1	R1444D
1458.966	0.933	1465810	WORD_OFF	n/a	n/a	EAR	BodyParts	9	12	[0, 0, 0]	n/a	catFR1	1	R1444D
1459.899	1.615	1466739	WORD	n/a	wordpools/wordpool_categorized_EN.txt	ARM	BodyParts	10	12	[0, 0, 0]	n/a	catFR1	1	R1444D
1461.514	0.851	1468347	WORD_OFF	n/a	n/a	ARM	BodyParts	10	12	[0, 0, 0]	n/a	catFR1	1	R1444D
1462.365	1.6	1469201	WORD	n/a	wordpools/wordpool_categorized_EN.txt	CROW	Birds	11	12	[0, 0, 0]	n/a	catFR1	1	R1444D
1463.965	0.951	1470808	WORD_OFF	n/a	n/a	CROW	Birds	11	12	[0, 0, 0]	n/a	catFR1	1	R1444D
1464.916	1.614	1471750	WORD	n/a	wordpools/wordpool_categorized_EN.txt	FINCH	Birds	12	12	[0, 0, 0]	n/a	catFR1	1	R1444D
1466.53	0.001	1473369	WORD_OFF	n/a	n/a	FINCH	Birds	12	12	[0, 0, 0]	n/a	catFR1	1	R1444D
1466.531	0.0	1473369	ENCODING_END	n/a	n/a	n/a	n/a	-999	12	[0, 0, 0]	n/a	catFR1	1	R1444D
1466.531	0.0	1473369	DISTRACT_START	n/a	n/a	n/a	n/a	-999	12	[0, 0, 0]	n/a	catFR1	1	R1444D
1466.531	0.001	1473372	START	n/a	n/a	n/a	n/a	-999	12	[-999, -999, -999]	n/a	catFR1	1	R1444D
1466.532	13.301	1473373	PROB	13.284	n/a	n/a	n/a	-999	12	[5, 1, 7]	13.0	catFR1	1	R1444D
1479.833	10.099	1486673	PROB	10.083	n/a	n/a	n/a	-999	12	[3, 2, 5]	10.0	catFR1	1	R1444D
1489.932	0.0	1496763	DISTRACT_END	n/a	n/a	n/a	n/a	-999	12	[0, 0, 0]	n/a	catFR1	1	R1444D
1489.932	2.267	1496772	STOP	n/a	n/a	n/a	n/a	-999	12	[-999, -999, -999]	n/a	catFR1	1	R1444D
1492.199	6.148	1499031	REC_START	n/a	n/a	n/a	n/a	-999	12	[0, 0, 0]	n/a	catFR1	1	R1444D
1498.347	1.256	1505186	REC_WORD_VV	6.148	n/a	<>	n/a	-999	12	[0, 0, 0]	n/a	catFR1	1	R1444D
1499.603	0.614	1506442	REC_WORD	7.404	n/a	BEACH	Landscapes	-999	12	[0, 0, 0]	n/a	catFR1	1	R1444D
1500.217	1.316	1507056	REC_WORD_VV	8.018	n/a	<>	n/a	-999	12	[0, 0, 0]	n/a	catFR1	1	R1444D
1501.533	1.355	1508372	REC_WORD_VV	9.334	n/a	<>	n/a	-999	12	[0, 0, 0]	n/a	catFR1	1	R1444D
1502.888	1.436	1509727	REC_WORD	10.689	n/a	WALNUT	Trees	8	12	[0, 0, 0]	n/a	catFR1	1	R1444D
1504.324	0.397	1511163	REC_WORD_VV	12.125	n/a	<>	n/a	-999	12	[0, 0, 0]	n/a	catFR1	1	R1444D
1504.721	2.553	1511560	REC_WORD	12.522	n/a	FINCH	Birds	12	12	[0, 0, 0]	n/a	catFR1	1	R1444D
1507.274	1.266	1514113	REC_WORD_VV	15.075	n/a	<>	n/a	-999	12	[0, 0, 0]	n/a	catFR1	1	R1444D
1508.54	0.423	1515379	REC_WORD	16.341	n/a	WALNUT	Trees	8	12	[0, 0, 0]	n/a	catFR1	1	R1444D
1508.963	1.919	1515802	REC_WORD	16.764	n/a	FINCH	Birds	12	12	[0, 0, 0]	n/a	catFR1	1	R1444D
1510.882	1.775	1517721	REC_WORD	18.683	n/a	MAPLE	Trees	-999	12	[0, 0, 0]	n/a	catFR1	1	R1444D
1512.657	3.675	1519495	REC_WORD_VV	20.458	n/a	<>	n/a	-999	12	[0, 0, 0]	n/a	catFR1	1	R1444D
1516.332	1.543	1523170	REC_WORD	24.133	n/a	POOL	n/a	-999	12	[0, 0, 0]	n/a	catFR1	1	R1444D
1517.875	4.568	1524713	REC_WORD_VV	25.676	n/a	<>	n/a	-999	12	[0, 0, 0]	n/a	catFR1	1	R1444D
1522.443	0.0	1529273	REC_END	n/a	n/a	n/a	n/a	-999	12	[0, 0, 0]	n/a	catFR1	1	R1444D
