onset	duration	sample	trial_type	response_time	stim_file	item_name	category	serialpos	list	test	answer	experiment	session	subject
0.0	0.0	659711	INSTRUCT_START	n/a	n/a	n/a	n/a	-999	-999	[0, 0, 0]	n/a	catFR1	2	R1266J
0.0	10.892	659711	INSTRUCT_END	n/a	n/a	n/a	n/a	-999	-999	[0, 0, 0]	n/a	catFR1	2	R1266J
10.892	0.0	670603	SESS_START	n/a	n/a	n/a	n/a	-999	-999	[0, 0, 0]	n/a	catFR1	2	R1266J
10.892	68.299	670603	MIC_TEST	n/a	n/a	n/a	n/a	-999	-999	[0, 0, 0]	n/a	catFR1	2	R1266J
79.191	1.653	738902	PRACTICE_TRIAL	n/a	n/a	n/a	n/a	-999	-1	[0, 0, 0]	n/a	catFR1	2	R1266J
80.844	10.428	740555	COUNTDOWN_START	n/a	n/a	n/a	n/a	-999	-1	[0, 0, 0]	n/a	catFR1	2	R1266J
91.272	0.008	750983	COUNTDOWN_END	n/a	n/a	n/a	n/a	-999	-1	[0, 0, 0]	n/a	catFR1	2	R1266J
91.28	1.616	750991	PRACTICE_ORIENT	n/a	n/a	n/a	n/a	-999	-1	[0, 0, 0]	n/a	catFR1	2	R1266J
92.896	1.883	752607	PRACTICE_ORIENT_OFF	n/a	n/a	n/a	n/a	-999	-1	[0, 0, 0]	n/a	catFR1	2	R1266J
94.779	1.617	754490	PRACTICE_WORD	n/a	n/a	CHEST	n/a	-1	-1	[0, 0, 0]	n/a	catFR1	2	R1266J
96.396	0.933	756107	PRACTICE_WORD_OFF	n/a	n/a	CHEST	n/a	-999	-1	[0, 0, 0]	n/a	catFR1	2	R1266J
97.329	1.617	757040	PRACTICE_WORD	n/a	n/a	COTTON	n/a	-1	-1	[0, 0, 0]	n/a	catFR1	2	R1266J
98.946	0.867	758657	PRACTICE_WORD_OFF	n/a	n/a	COTTON	n/a	-999	-1	[0, 0, 0]	n/a	catFR1	2	R1266J
99.813	1.617	759524	PRACTICE_WORD	n/a	n/a	IRON	n/a	-1	-1	[0, 0, 0]	n/a	catFR1	2	R1266J
101.43	0.801	761141	PRACTICE_WORD_OFF	n/a	n/a	IRON	n/a	-999	-1	[0, 0, 0]	n/a	catFR1	2	R1266J
102.231	1.616	761942	PRACTICE_WORD	n/a	n/a	RING	n/a	-1	-1	[0, 0, 0]	n/a	catFR1	2	R1266J
103.847	0.867	763558	PRACTICE_WORD_OFF	n/a	n/a	RING	n/a	-999	-1	[0, 0, 0]	n/a	catFR1	2	R1266J
104.714	1.617	764425	PRACTICE_WORD	n/a	n/a	WATCH	n/a	-1	-1	[0, 0, 0]	n/a	catFR1	2	R1266J
106.331	1.0	766042	PRACTICE_WORD_OFF	n/a	n/a	WATCH	n/a	-999	-1	[0, 0, 0]	n/a	catFR1	2	R1266J
107.331	1.617	767042	PRACTICE_WORD	n/a	n/a	ATTIC	n/a	-1	-1	[0, 0, 0]	n/a	catFR1	2	R1266J
108.948	0.85	768659	PRACTICE_WORD_OFF	n/a	n/a	ATTIC	n/a	-999	-1	[0, 0, 0]	n/a	catFR1	2	R1266J
109.798	1.617	769509	PRACTICE_WORD	n/a	n/a	WAGON	n/a	-1	-1	[0, 0, 0]	n/a	catFR1	2	R1266J
111.415	1.0	771126	PRACTICE_WORD_OFF	n/a	n/a	WAGON	n/a	-999	-1	[0, 0, 0]	n/a	catFR1	2	R1266J
112.415	1.617	772126	PRACTICE_WORD	n/a	n/a	FLOOD	n/a	-1	-1	[0, 0, 0]	n/a	catFR1	2	R1266J
114.032	0.8	773743	PRACTICE_WORD_OFF	n/a	n/a	FLOOD	n/a	-999	-1	[0, 0, 0]	n/a	catFR1	2	R1266J
114.832	1.617	774543	PRACTICE_WORD	n/a	n/a	BEAM	n/a	-1	-1	[0, 0, 0]	n/a	catFR1	2	R1266J
116.449	0.817	776160	PRACTICE_WORD_OFF	n/a	n/a	BEAM	n/a	-999	-1	[0, 0, 0]	n/a	catFR1	2	R1266J
117.266	1.616	776977	PRACTICE_WORD	n/a	n/a	RHINO	n/a	-1	-1	[0, 0, 0]	n/a	catFR1	2	R1266J
118.882	0.917	778593	PRACTICE_WORD_OFF	n/a	n/a	RHINO	n/a	-999	-1	[0, 0, 0]	n/a	catFR1	2	R1266J
119.799	1.617	779510	PRACTICE_WORD	n/a	n/a	CAMEL	n/a	-1	-1	[0, 0, 0]	n/a	catFR1	2	R1266J
121.416	1.0	781127	PRACTICE_WORD_OFF	n/a	n/a	CAMEL	n/a	-999	-1	[0, 0, 0]	n/a	catFR1	2	R1266J
122.416	1.617	782127	PRACTICE_WORD	n/a	n/a	TONGUE	n/a	-1	-1	[0, 0, 0]	n/a	catFR1	2	R1266J
124.033	0.0	783744	PRACTICE_WORD_OFF	n/a	n/a	TONGUE	n/a	-999	-1	[0, 0, 0]	n/a	catFR1	2	R1266J
124.033	0.001	783744	ENCODING_END	n/a	n/a	n/a	n/a	-999	-1	[0, 0, 0]	n/a	catFR1	2	R1266J
124.034	0.0	783745	DISTRACT_START	n/a	n/a	n/a	n/a	-999	-1	[0, 0, 0]	n/a	catFR1	2	R1266J
124.034	0.016	783745	START	n/a	n/a	n/a	n/a	-999	1	[-999, -999, -999]	n/a	catFR1	2	R1266J
124.05	5.967	783761	PROB	5.941	n/a	n/a	n/a	-999	1	[7, 7, 4]	18.0	catFR1	2	R1266J
130.017	4.034	789728	PROB	3.997	n/a	n/a	n/a	-999	1	[2, 1, 8]	11.0	catFR1	2	R1266J
134.051	4.284	793762	PROB	4.251	n/a	n/a	n/a	-999	1	[9, 7, 4]	20.0	catFR1	2	R1266J
138.335	5.855	798046	PROB	5.855	n/a	n/a	n/a	-999	1	[5, 3, 9]	17.0	catFR1	2	R1266J
144.19	0.014	803901	STOP	n/a	n/a	n/a	n/a	-999	1	[-999, -999, -999]	n/a	catFR1	2	R1266J
144.204	0.665	803915	DISTRACT_END	n/a	n/a	n/a	n/a	-999	-1	[0, 0, 0]	n/a	catFR1	2	R1266J
144.869	0.521	804580	RETRIEVAL_ORIENT	n/a	n/a	n/a	n/a	-999	-1	[0, 0, 0]	n/a	catFR1	2	R1266J
145.39	30.009	805101	PRACTICE_REC_START	n/a	n/a	n/a	n/a	-999	-1	[0, 0, 0]	n/a	catFR1	2	R1266J
175.399	10.325	835110	PRACTICE_REC_END	n/a	n/a	n/a	n/a	-999	-1	[0, 0, 0]	n/a	catFR1	2	R1266J
185.724	0.5	845435	TRIAL	n/a	n/a	n/a	n/a	-999	1	[0, 0, 0]	n/a	catFR1	2	R1266J
186.224	10.428	845935	COUNTDOWN_START	n/a	n/a	n/a	n/a	-999	1	[0, 0, 0]	n/a	catFR1	2	R1266J
196.652	0.007	856363	COUNTDOWN_END	n/a	n/a	n/a	n/a	-999	1	[0, 0, 0]	n/a	catFR1	2	R1266J
196.659	1.618	856370	ORIENT	n/a	n/a	n/a	n/a	-999	1	[0, 0, 0]	n/a	catFR1	2	R1266J
198.277	1.95	857988	ORIENT_OFF	n/a	n/a	n/a	n/a	-999	1	[0, 0, 0]	n/a	catFR1	2	R1266J
200.227	1.616	859938	WORD	n/a	wordpools/wordpool_categorized_EN.txt	CUPCAKE	Desserts	1	1	[0, 0, 0]	n/a	catFR1	2	R1266J
201.843	0.933	861554	WORD_OFF	n/a	n/a	CUPCAKE	n/a	1	1	[0, 0, 0]	n/a	catFR1	2	R1266J
202.776	1.617	862487	WORD	n/a	wordpools/wordpool_categorized_EN.txt	PIE	Desserts	2	1	[0, 0, 0]	n/a	catFR1	2	R1266J
204.393	0.835	864104	WORD_OFF	n/a	n/a	PIE	n/a	2	1	[0, 0, 0]	n/a	catFR1	2	R1266J
205.228	1.616	864939	WORD	n/a	wordpools/wordpool_categorized_EN.txt	CARROT	Vegetables	3	1	[0, 0, 0]	n/a	catFR1	2	R1266J
206.844	0.933	866555	WORD_OFF	n/a	n/a	CARROT	n/a	3	1	[0, 0, 0]	n/a	catFR1	2	R1266J
207.777	1.617	867488	WORD	n/a	wordpools/wordpool_categorized_EN.txt	ONION	Vegetables	4	1	[0, 0, 0]	n/a	catFR1	2	R1266J
209.394	0.818	869105	WORD_OFF	n/a	n/a	ONION	n/a	4	1	[0, 0, 0]	n/a	catFR1	2	R1266J
210.212	1.616	869923	WORD	n/a	wordpools/wordpool_categorized_EN.txt	PIG	FarmAnimals	5	1	[0, 0, 0]	n/a	catFR1	2	R1266J
211.828	0.966	871539	WORD_OFF	n/a	n/a	PIG	n/a	5	1	[0, 0, 0]	n/a	catFR1	2	R1266J
212.794	1.617	872505	WORD	n/a	wordpools/wordpool_categorized_EN.txt	SHEEP	FarmAnimals	6	1	[0, 0, 0]	n/a	catFR1	2	R1266J
214.411	0.917	874122	WORD_OFF	n/a	n/a	SHEEP	n/a	6	1	[0, 0, 0]	n/a	catFR1	2	R1266J
215.328	1.617	875039	WORD	n/a	wordpools/wordpool_categorized_EN.txt	PUDDING	Desserts	7	1	[0, 0, 0]	n/a	catFR1	2	R1266J
216.945	0.967	876656	WORD_OFF	n/a	n/a	PUDDING	n/a	7	1	[0, 0, 0]	n/a	catFR1	2	R1266J
217.912	1.616	877623	WORD	n/a	wordpools/wordpool_categorized_EN.txt	MOUSSE	Desserts	8	1	[0, 0, 0]	n/a	catFR1	2	R1266J
219.528	0.901	879239	WORD_OFF	n/a	n/a	MOUSSE	n/a	8	1	[0, 0, 0]	n/a	catFR1	2	R1266J
220.429	1.617	880140	WORD	n/a	wordpools/wordpool_categorized_EN.txt	CUCUMBER	Vegetables	9	1	[0, 0, 0]	n/a	catFR1	2	R1266J
222.046	1.0	881757	WORD_OFF	n/a	n/a	CUCUMBER	n/a	9	1	[0, 0, 0]	n/a	catFR1	2	R1266J
223.046	1.617	882757	WORD	n/a	wordpools/wordpool_categorized_EN.txt	PEAS	Vegetables	10	1	[0, 0, 0]	n/a	catFR1	2	R1266J
224.663	0.933	884374	WORD_OFF	n/a	n/a	PEAS	n/a	10	1	[0, 0, 0]	n/a	catFR1	2	R1266J
225.596	1.618	885307	WORD	n/a	wordpools/wordpool_categorized_EN.txt	TURKEY	FarmAnimals	11	1	[0, 0, 0]	n/a	catFR1	2	R1266J
227.214	0.782	886925	WORD_OFF	n/a	n/a	TURKEY	n/a	11	1	[0, 0, 0]	n/a	catFR1	2	R1266J
227.996	1.617	887707	WORD	n/a	wordpools/wordpool_categorized_EN.txt	BULL	FarmAnimals	12	1	[0, 0, 0]	n/a	catFR1	2	R1266J
229.613	0.0	889324	ENCODING_END	n/a	n/a	n/a	n/a	-999	1	[0, 0, 0]	n/a	catFR1	2	R1266J
229.613	0.133	889324	WORD_OFF	n/a	n/a	BULL	n/a	12	1	[0, 0, 0]	n/a	catFR1	2	R1266J
229.746	0.0	889457	DISTRACT_START	n/a	n/a	n/a	n/a	-999	1	[0, 0, 0]	n/a	catFR1	2	R1266J
229.746	0.017	889457	START	n/a	n/a	n/a	n/a	-999	2	[-999, -999, -999]	n/a	catFR1	2	R1266J
229.763	5.684	889474	PROB	5.656	n/a	n/a	n/a	-999	2	[3, 6, 1]	10.0	catFR1	2	R1266J
235.447	7.368	895158	PROB	7.331	n/a	n/a	n/a	-999	2	[6, 7, 4]	17.0	catFR1	2	R1266J
242.815	2.05	902526	PROB	2.027	n/a	n/a	n/a	-999	2	[5, 3, 5]	13.0	catFR1	2	R1266J
244.865	4.301	904576	PROB	4.273	n/a	n/a	n/a	-999	2	[3, 3, 8]	14.0	catFR1	2	R1266J
249.166	4.235	908877	PROB	4.235	n/a	n/a	n/a	-999	2	[1, 7, 4]	12.0	catFR1	2	R1266J
253.401	0.016	913112	STOP	n/a	n/a	n/a	n/a	-999	2	[-999, -999, -999]	n/a	catFR1	2	R1266J
253.417	0.699	913128	DISTRACT_END	n/a	n/a	n/a	n/a	-999	1	[0, 0, 0]	n/a	catFR1	2	R1266J
254.116	0.518	913827	RETRIEVAL_ORIENT	n/a	n/a	n/a	n/a	-999	1	[0, 0, 0]	n/a	catFR1	2	R1266J
254.634	1.745	914345	REC_START	n/a	n/a	n/a	n/a	-999	1	[0, 0, 0]	n/a	catFR1	2	R1266J
256.379	6.815	916090	REC_WORD	1.745	n/a	ONION	Vegetables	4	1	[0, 0, 0]	n/a	catFR1	2	R1266J
263.194	4.042	922905	REC_WORD	8.56	n/a	RING	n/a	-999	1	[0, 0, 0]	n/a	catFR1	2	R1266J
267.236	17.41	926947	REC_WORD	12.602	n/a	SHEEP	FarmAnimals	6	1	[0, 0, 0]	n/a	catFR1	2	R1266J
284.646	4.508	944357	REC_END	n/a	n/a	n/a	n/a	-999	1	[0, 0, 0]	n/a	catFR1	2	R1266J
289.154	0.5	948865	TRIAL	n/a	n/a	n/a	n/a	-999	2	[0, 0, 0]	n/a	catFR1	2	R1266J
289.654	10.428	949365	COUNTDOWN_START	n/a	n/a	n/a	n/a	-999	2	[0, 0, 0]	n/a	catFR1	2	R1266J
300.082	0.007	959793	COUNTDOWN_END	n/a	n/a	n/a	n/a	-999	2	[0, 0, 0]	n/a	catFR1	2	R1266J
300.089	1.617	959800	ORIENT	n/a	n/a	n/a	n/a	-999	2	[0, 0, 0]	n/a	catFR1	2	R1266J
301.706	2.033	961417	ORIENT_OFF	n/a	n/a	n/a	n/a	-999	2	[0, 0, 0]	n/a	catFR1	2	R1266J
303.739	1.617	963450	WORD	n/a	wordpools/wordpool_categorized_EN.txt	BROWNIES	Desserts	1	2	[0, 0, 0]	n/a	catFR1	2	R1266J
305.356	0.801	965067	WORD_OFF	n/a	n/a	BROWNIES	n/a	1	2	[0, 0, 0]	n/a	catFR1	2	R1266J
306.157	1.616	965868	WORD	n/a	wordpools/wordpool_categorized_EN.txt	COOKIE	Desserts	2	2	[0, 0, 0]	n/a	catFR1	2	R1266J
307.773	0.884	967484	WORD_OFF	n/a	n/a	COOKIE	n/a	2	2	[0, 0, 0]	n/a	catFR1	2	R1266J
308.657	1.617	968368	WORD	n/a	wordpools/wordpool_categorized_EN.txt	PLUM	Fruit	3	2	[0, 0, 0]	n/a	catFR1	2	R1266J
310.274	0.883	969985	WORD_OFF	n/a	n/a	PLUM	n/a	3	2	[0, 0, 0]	n/a	catFR1	2	R1266J
311.157	1.617	970868	WORD	n/a	wordpools/wordpool_categorized_EN.txt	CHERRY	Fruit	4	2	[0, 0, 0]	n/a	catFR1	2	R1266J
312.774	0.85	972485	WORD_OFF	n/a	n/a	CHERRY	n/a	4	2	[0, 0, 0]	n/a	catFR1	2	R1266J
313.624	1.618	973335	WORD	n/a	wordpools/wordpool_categorized_EN.txt	PUZZLE	Toys	5	2	[0, 0, 0]	n/a	catFR1	2	R1266J
315.242	0.799	974953	WORD_OFF	n/a	n/a	PUZZLE	n/a	5	2	[0, 0, 0]	n/a	catFR1	2	R1266J
316.041	1.617	975752	WORD	n/a	wordpools/wordpool_categorized_EN.txt	FOOTBALL	Toys	6	2	[0, 0, 0]	n/a	catFR1	2	R1266J
317.658	1.0	977369	WORD_OFF	n/a	n/a	FOOTBALL	n/a	6	2	[0, 0, 0]	n/a	catFR1	2	R1266J
318.658	1.618	978369	WORD	n/a	wordpools/wordpool_categorized_EN.txt	LIME	Fruit	7	2	[0, 0, 0]	n/a	catFR1	2	R1266J
320.276	0.967	979987	WORD_OFF	n/a	n/a	LIME	n/a	7	2	[0, 0, 0]	n/a	catFR1	2	R1266J
321.243	1.616	980954	WORD	n/a	wordpools/wordpool_categorized_EN.txt	GRAPE	Fruit	8	2	[0, 0, 0]	n/a	catFR1	2	R1266J
322.859	0.866	982570	WORD_OFF	n/a	n/a	GRAPE	n/a	8	2	[0, 0, 0]	n/a	catFR1	2	R1266J
323.725	1.617	983436	WORD	n/a	wordpools/wordpool_categorized_EN.txt	PASTRY	Desserts	9	2	[0, 0, 0]	n/a	catFR1	2	R1266J
325.342	0.817	985053	WORD_OFF	n/a	n/a	PASTRY	n/a	9	2	[0, 0, 0]	n/a	catFR1	2	R1266J
326.159	1.617	985870	WORD	n/a	wordpools/wordpool_categorized_EN.txt	CHEESECAKE	Desserts	10	2	[0, 0, 0]	n/a	catFR1	2	R1266J
327.776	1.0	987487	WORD_OFF	n/a	n/a	CHEESECAKE	n/a	10	2	[0, 0, 0]	n/a	catFR1	2	R1266J
328.776	1.617	988487	WORD	n/a	wordpools/wordpool_categorized_EN.txt	BALL	Toys	11	2	[0, 0, 0]	n/a	catFR1	2	R1266J
330.393	0.901	990104	WORD_OFF	n/a	n/a	BALL	n/a	11	2	[0, 0, 0]	n/a	catFR1	2	R1266J
331.294	1.616	991005	WORD	n/a	wordpools/wordpool_categorized_EN.txt	DOLLHOUSE	Toys	12	2	[0, 0, 0]	n/a	catFR1	2	R1266J
332.91	0.0	992621	ENCODING_END	n/a	n/a	n/a	n/a	-999	2	[0, 0, 0]	n/a	catFR1	2	R1266J
332.91	0.101	992621	WORD_OFF	n/a	n/a	DOLLHOUSE	n/a	12	2	[0, 0, 0]	n/a	catFR1	2	R1266J
333.011	0.0	992722	DISTRACT_START	n/a	n/a	n/a	n/a	-999	2	[0, 0, 0]	n/a	catFR1	2	R1266J
333.011	0.016	992722	START	n/a	n/a	n/a	n/a	-999	3	[-999, -999, -999]	n/a	catFR1	2	R1266J
333.027	5.1	992738	PROB	5.074	n/a	n/a	n/a	-999	3	[5, 9, 5]	19.0	catFR1	2	R1266J
338.127	3.934	997838	PROB	3.903	n/a	n/a	n/a	-999	3	[4, 5, 9]	18.0	catFR1	2	R1266J
342.061	2.734	1001772	PROB	2.697	n/a	n/a	n/a	-999	3	[1, 3, 3]	7.0	catFR1	2	R1266J
344.795	4.0	1004506	PROB	3.963	n/a	n/a	n/a	-999	3	[4, 3, 9]	16.0	catFR1	2	R1266J
348.795	2.934	1008506	PROB	2.898	n/a	n/a	n/a	-999	3	[1, 2, 4]	7.0	catFR1	2	R1266J
351.729	3.316	1011440	PROB	3.316	n/a	n/a	n/a	-999	3	[8, 1, 8]	17.0	catFR1	2	R1266J
355.045	0.018	1014756	STOP	n/a	n/a	n/a	n/a	-999	3	[-999, -999, -999]	n/a	catFR1	2	R1266J
355.063	0.533	1014774	DISTRACT_END	n/a	n/a	n/a	n/a	-999	2	[0, 0, 0]	n/a	catFR1	2	R1266J
355.596	0.518	1015307	RETRIEVAL_ORIENT	n/a	n/a	n/a	n/a	-999	2	[0, 0, 0]	n/a	catFR1	2	R1266J
356.114	6.786	1015825	REC_START	n/a	n/a	n/a	n/a	-999	2	[0, 0, 0]	n/a	catFR1	2	R1266J
362.9	5.464	1022611	REC_WORD	6.786	n/a	CUPCAKE	n/a	-999	2	[0, 0, 0]	n/a	catFR1	2	R1266J
368.364	4.225	1028075	REC_WORD	12.25	n/a	CHEESECAKE	Desserts	10	2	[0, 0, 0]	n/a	catFR1	2	R1266J
372.589	4.094	1032300	REC_WORD_VV	16.475	n/a	<>	n/a	-999	2	[0, 0, 0]	n/a	catFR1	2	R1266J
376.683	0.345	1036394	REC_WORD	20.569	n/a	OLIVE	n/a	-999	2	[0, 0, 0]	n/a	catFR1	2	R1266J
377.028	1.161	1036739	REC_WORD_VV	20.914	n/a	<>	n/a	-999	2	[0, 0, 0]	n/a	catFR1	2	R1266J
378.189	7.936	1037900	REC_WORD_VV	22.075	n/a	<>	n/a	-999	2	[0, 0, 0]	n/a	catFR1	2	R1266J
386.125	4.426	1045836	REC_END	n/a	n/a	n/a	n/a	-999	2	[0, 0, 0]	n/a	catFR1	2	R1266J
390.551	0.5	1050262	TRIAL	n/a	n/a	n/a	n/a	-999	3	[0, 0, 0]	n/a	catFR1	2	R1266J
391.051	10.428	1050762	COUNTDOWN_START	n/a	n/a	n/a	n/a	-999	3	[0, 0, 0]	n/a	catFR1	2	R1266J
401.479	0.006	1061190	COUNTDOWN_END	n/a	n/a	n/a	n/a	-999	3	[0, 0, 0]	n/a	catFR1	2	R1266J
401.485	1.617	1061196	ORIENT	n/a	n/a	n/a	n/a	-999	3	[0, 0, 0]	n/a	catFR1	2	R1266J
403.102	1.967	1062813	ORIENT_OFF	n/a	n/a	n/a	n/a	-999	3	[0, 0, 0]	n/a	catFR1	2	R1266J
405.069	1.617	1064780	WORD	n/a	wordpools/wordpool_categorized_EN.txt	OCEAN	Landscapes	1	3	[0, 0, 0]	n/a	catFR1	2	R1266J
406.686	0.817	1066397	WORD_OFF	n/a	n/a	OCEAN	n/a	1	3	[0, 0, 0]	n/a	catFR1	2	R1266J
407.503	1.617	1067214	WORD	n/a	wordpools/wordpool_categorized_EN.txt	WOODS	Landscapes	2	3	[0, 0, 0]	n/a	catFR1	2	R1266J
409.12	0.883	1068831	WORD_OFF	n/a	n/a	WOODS	n/a	2	3	[0, 0, 0]	n/a	catFR1	2	R1266J
410.003	1.617	1069714	WORD	n/a	wordpools/wordpool_categorized_EN.txt	CALCULATOR	Electronics	3	3	[0, 0, 0]	n/a	catFR1	2	R1266J
411.62	0.917	1071331	WORD_OFF	n/a	n/a	CALCULATOR	n/a	3	3	[0, 0, 0]	n/a	catFR1	2	R1266J
412.537	1.617	1072248	WORD	n/a	wordpools/wordpool_categorized_EN.txt	HEADPHONES	Electronics	4	3	[0, 0, 0]	n/a	catFR1	2	R1266J
414.154	0.983	1073865	WORD_OFF	n/a	n/a	HEADPHONES	n/a	4	3	[0, 0, 0]	n/a	catFR1	2	R1266J
415.137	1.617	1074848	WORD	n/a	wordpools/wordpool_categorized_EN.txt	CELERY	Vegetables	5	3	[0, 0, 0]	n/a	catFR1	2	R1266J
416.754	0.783	1076465	WORD_OFF	n/a	n/a	CELERY	n/a	5	3	[0, 0, 0]	n/a	catFR1	2	R1266J
417.537	1.617	1077248	WORD	n/a	wordpools/wordpool_categorized_EN.txt	CABBAGE	Vegetables	6	3	[0, 0, 0]	n/a	catFR1	2	R1266J
419.154	0.767	1078865	WORD_OFF	n/a	n/a	CABBAGE	n/a	6	3	[0, 0, 0]	n/a	catFR1	2	R1266J
419.921	1.617	1079632	WORD	n/a	wordpools/wordpool_categorized_EN.txt	TABLET	Electronics	7	3	[0, 0, 0]	n/a	catFR1	2	R1266J
421.538	0.85	1081249	WORD_OFF	n/a	n/a	TABLET	n/a	7	3	[0, 0, 0]	n/a	catFR1	2	R1266J
422.388	1.617	1082099	WORD	n/a	wordpools/wordpool_categorized_EN.txt	SPEAKER	Electronics	8	3	[0, 0, 0]	n/a	catFR1	2	R1266J
424.005	1.0	1083716	WORD_OFF	n/a	n/a	SPEAKER	n/a	8	3	[0, 0, 0]	n/a	catFR1	2	R1266J
425.005	1.617	1084716	WORD	n/a	wordpools/wordpool_categorized_EN.txt	LAKE	Landscapes	9	3	[0, 0, 0]	n/a	catFR1	2	R1266J
426.622	0.783	1086333	WORD_OFF	n/a	n/a	LAKE	n/a	9	3	[0, 0, 0]	n/a	catFR1	2	R1266J
427.405	1.617	1087116	WORD	n/a	wordpools/wordpool_categorized_EN.txt	CREEK	Landscapes	10	3	[0, 0, 0]	n/a	catFR1	2	R1266J
429.022	0.833	1088733	WORD_OFF	n/a	n/a	CREEK	n/a	10	3	[0, 0, 0]	n/a	catFR1	2	R1266J
429.855	1.618	1089566	WORD	n/a	wordpools/wordpool_categorized_EN.txt	BROCCOLI	Vegetables	11	3	[0, 0, 0]	n/a	catFR1	2	R1266J
431.473	0.966	1091184	WORD_OFF	n/a	n/a	BROCCOLI	n/a	11	3	[0, 0, 0]	n/a	catFR1	2	R1266J
432.439	1.617	1092150	WORD	n/a	wordpools/wordpool_categorized_EN.txt	LETTUCE	Vegetables	12	3	[0, 0, 0]	n/a	catFR1	2	R1266J
434.056	0.001	1093767	WORD_OFF	n/a	n/a	LETTUCE	n/a	12	3	[0, 0, 0]	n/a	catFR1	2	R1266J
434.057	0.102	1093768	ENCODING_END	n/a	n/a	n/a	n/a	-999	3	[0, 0, 0]	n/a	catFR1	2	R1266J
434.159	0.0	1093870	DISTRACT_START	n/a	n/a	n/a	n/a	-999	3	[0, 0, 0]	n/a	catFR1	2	R1266J
434.159	0.014	1093870	START	n/a	n/a	n/a	n/a	-999	4	[-999, -999, -999]	n/a	catFR1	2	R1266J
434.173	4.65	1093884	PROB	4.613	n/a	n/a	n/a	-999	4	[3, 5, 2]	10.0	catFR1	2	R1266J
438.823	3.452	1098534	PROB	3.429	n/a	n/a	n/a	-999	4	[7, 4, 1]	12.0	catFR1	2	R1266J
442.275	2.099	1101986	PROB	2.07	n/a	n/a	n/a	-999	4	[6, 6, 2]	14.0	catFR1	2	R1266J
444.374	9.468	1104085	PROB	9.436	n/a	n/a	n/a	-999	4	[6, 9, 8]	23.0	catFR1	2	R1266J
453.842	4.351	1113553	PROB	4.351	n/a	n/a	n/a	-999	4	[7, 7, 8]	22.0	catFR1	2	R1266J
458.193	0.017	1117904	STOP	n/a	n/a	n/a	n/a	-999	4	[-999, -999, -999]	n/a	catFR1	2	R1266J
458.21	0.632	1117921	DISTRACT_END	n/a	n/a	n/a	n/a	-999	3	[0, 0, 0]	n/a	catFR1	2	R1266J
458.842	0.518	1118553	RETRIEVAL_ORIENT	n/a	n/a	n/a	n/a	-999	3	[0, 0, 0]	n/a	catFR1	2	R1266J
459.36	1.946	1119071	REC_START	n/a	n/a	n/a	n/a	-999	3	[0, 0, 0]	n/a	catFR1	2	R1266J
461.306	0.847	1121017	REC_WORD	1.946	n/a	BAKE	n/a	-999	3	[0, 0, 0]	n/a	catFR1	2	R1266J
462.153	7.746	1121864	REC_WORD	2.793	n/a	BROCCOLI	Vegetables	11	3	[0, 0, 0]	n/a	catFR1	2	R1266J
469.899	19.473	1129610	REC_WORD	10.539	n/a	ONION	n/a	-999	3	[0, 0, 0]	n/a	catFR1	2	R1266J
489.372	4.192	1149083	REC_END	n/a	n/a	n/a	n/a	-999	3	[0, 0, 0]	n/a	catFR1	2	R1266J
493.564	0.5	1153275	TRIAL	n/a	n/a	n/a	n/a	-999	4	[0, 0, 0]	n/a	catFR1	2	R1266J
494.064	10.428	1153775	COUNTDOWN_START	n/a	n/a	n/a	n/a	-999	4	[0, 0, 0]	n/a	catFR1	2	R1266J
504.492	0.007	1164203	COUNTDOWN_END	n/a	n/a	n/a	n/a	-999	4	[0, 0, 0]	n/a	catFR1	2	R1266J
504.499	1.616	1164210	ORIENT	n/a	n/a	n/a	n/a	-999	4	[0, 0, 0]	n/a	catFR1	2	R1266J
506.115	2.135	1165826	ORIENT_OFF	n/a	n/a	n/a	n/a	-999	4	[0, 0, 0]	n/a	catFR1	2	R1266J
508.25	1.616	1167961	WORD	n/a	wordpools/wordpool_categorized_EN.txt	GORILLA	Zoo	1	4	[0, 0, 0]	n/a	catFR1	2	R1266J
509.866	0.783	1169577	WORD_OFF	n/a	n/a	GORILLA	n/a	1	4	[0, 0, 0]	n/a	catFR1	2	R1266J
510.649	1.618	1170360	WORD	n/a	wordpools/wordpool_categorized_EN.txt	ELEPHANT	Zoo	2	4	[0, 0, 0]	n/a	catFR1	2	R1266J
512.267	0.816	1171978	WORD_OFF	n/a	n/a	ELEPHANT	n/a	2	4	[0, 0, 0]	n/a	catFR1	2	R1266J
513.083	1.617	1172794	WORD	n/a	wordpools/wordpool_categorized_EN.txt	SNOW	Weather	3	4	[0, 0, 0]	n/a	catFR1	2	R1266J
514.7	0.9	1174411	WORD_OFF	n/a	n/a	SNOW	n/a	3	4	[0, 0, 0]	n/a	catFR1	2	R1266J
515.6	1.618	1175311	WORD	n/a	wordpools/wordpool_categorized_EN.txt	THUNDER	Weather	4	4	[0, 0, 0]	n/a	catFR1	2	R1266J
517.218	0.915	1176929	WORD_OFF	n/a	n/a	THUNDER	n/a	4	4	[0, 0, 0]	n/a	catFR1	2	R1266J
518.133	1.617	1177844	WORD	n/a	wordpools/wordpool_categorized_EN.txt	BASEBALL	Toys	5	4	[0, 0, 0]	n/a	catFR1	2	R1266J
519.75	0.884	1179461	WORD_OFF	n/a	n/a	BASEBALL	n/a	5	4	[0, 0, 0]	n/a	catFR1	2	R1266J
520.634	1.618	1180345	WORD	n/a	wordpools/wordpool_categorized_EN.txt	SLINKY	Toys	6	4	[0, 0, 0]	n/a	catFR1	2	R1266J
522.252	0.866	1181963	WORD_OFF	n/a	n/a	SLINKY	n/a	6	4	[0, 0, 0]	n/a	catFR1	2	R1266J
523.118	1.617	1182829	WORD	n/a	wordpools/wordpool_categorized_EN.txt	HURRICANE	Weather	7	4	[0, 0, 0]	n/a	catFR1	2	R1266J
524.735	0.816	1184446	WORD_OFF	n/a	n/a	HURRICANE	n/a	7	4	[0, 0, 0]	n/a	catFR1	2	R1266J
525.551	1.617	1185262	WORD	n/a	wordpools/wordpool_categorized_EN.txt	TORNADO	Weather	8	4	[0, 0, 0]	n/a	catFR1	2	R1266J
527.168	0.817	1186879	WORD_OFF	n/a	n/a	TORNADO	n/a	8	4	[0, 0, 0]	n/a	catFR1	2	R1266J
527.985	1.617	1187696	WORD	n/a	wordpools/wordpool_categorized_EN.txt	LION	Zoo	9	4	[0, 0, 0]	n/a	catFR1	2	R1266J
529.602	0.85	1189313	WORD_OFF	n/a	n/a	LION	n/a	9	4	[0, 0, 0]	n/a	catFR1	2	R1266J
530.452	1.617	1190163	WORD	n/a	wordpools/wordpool_categorized_EN.txt	TIGER	Zoo	10	4	[0, 0, 0]	n/a	catFR1	2	R1266J
532.069	0.867	1191780	WORD_OFF	n/a	n/a	TIGER	n/a	10	4	[0, 0, 0]	n/a	catFR1	2	R1266J
532.936	1.616	1192647	WORD	n/a	wordpools/wordpool_categorized_EN.txt	MARBLES	Toys	11	4	[0, 0, 0]	n/a	catFR1	2	R1266J
534.552	0.817	1194263	WORD_OFF	n/a	n/a	MARBLES	n/a	11	4	[0, 0, 0]	n/a	catFR1	2	R1266J
535.369	1.617	1195080	WORD	n/a	wordpools/wordpool_categorized_EN.txt	BARBIE	Toys	12	4	[0, 0, 0]	n/a	catFR1	2	R1266J
536.986	0.0	1196697	ENCODING_END	n/a	n/a	n/a	n/a	-999	4	[0, 0, 0]	n/a	catFR1	2	R1266J
536.986	0.132	1196697	WORD_OFF	n/a	n/a	BARBIE	n/a	12	4	[0, 0, 0]	n/a	catFR1	2	R1266J
537.118	0.0	1196829	DISTRACT_START	n/a	n/a	n/a	n/a	-999	4	[0, 0, 0]	n/a	catFR1	2	R1266J
537.118	0.018	1196829	START	n/a	n/a	n/a	n/a	-999	5	[-999, -999, -999]	n/a	catFR1	2	R1266J
537.136	4.085	1196847	PROB	4.053	n/a	n/a	n/a	-999	5	[4, 6, 1]	11.0	catFR1	2	R1266J
541.221	4.55	1200932	PROB	4.521	n/a	n/a	n/a	-999	5	[2, 2, 3]	7.0	catFR1	2	R1266J
545.771	2.833	1205482	PROB	2.803	n/a	n/a	n/a	-999	5	[4, 5, 1]	10.0	catFR1	2	R1266J
548.604	4.584	1208315	PROB	4.553	n/a	n/a	n/a	-999	5	[8, 3, 3]	14.0	catFR1	2	R1266J
553.188	4.72	1212899	PROB	4.72	n/a	n/a	n/a	-999	5	[8, 5, 2]	15.0	catFR1	2	R1266J
557.908	0.014	1217619	STOP	n/a	n/a	n/a	n/a	-999	5	[-999, -999, -999]	n/a	catFR1	2	R1266J
557.922	0.7	1217633	DISTRACT_END	n/a	n/a	n/a	n/a	-999	4	[0, 0, 0]	n/a	catFR1	2	R1266J
558.622	0.517	1218333	RETRIEVAL_ORIENT	n/a	n/a	n/a	n/a	-999	4	[0, 0, 0]	n/a	catFR1	2	R1266J
559.139	5.63	1218850	REC_START	n/a	n/a	n/a	n/a	-999	4	[0, 0, 0]	n/a	catFR1	2	R1266J
564.769	2.653	1224480	REC_WORD	5.63	n/a	MOUNTAIN	n/a	-999	4	[0, 0, 0]	n/a	catFR1	2	R1266J
567.422	0.459	1227133	REC_WORD_VV	8.283	n/a	<>	n/a	-999	4	[0, 0, 0]	n/a	catFR1	2	R1266J
567.881	5.754	1227592	REC_WORD	8.742	n/a	MONKEY	n/a	-999	4	[0, 0, 0]	n/a	catFR1	2	R1266J
573.635	5.681	1233346	REC_WORD_VV	14.496	n/a	<>	n/a	-999	4	[0, 0, 0]	n/a	catFR1	2	R1266J
579.316	9.831	1239027	REC_WORD_VV	20.177	n/a	<>	n/a	-999	4	[0, 0, 0]	n/a	catFR1	2	R1266J
589.147	5.03	1248858	REC_END	n/a	n/a	n/a	n/a	-999	4	[0, 0, 0]	n/a	catFR1	2	R1266J
594.177	0.5	1253888	TRIAL	n/a	n/a	n/a	n/a	-999	5	[0, 0, 0]	n/a	catFR1	2	R1266J
594.677	10.428	1254388	COUNTDOWN_START	n/a	n/a	n/a	n/a	-999	5	[0, 0, 0]	n/a	catFR1	2	R1266J
605.105	0.007	1264816	COUNTDOWN_END	n/a	n/a	n/a	n/a	-999	5	[0, 0, 0]	n/a	catFR1	2	R1266J
605.112	1.616	1264823	ORIENT	n/a	n/a	n/a	n/a	-999	5	[0, 0, 0]	n/a	catFR1	2	R1266J
606.728	2.284	1266439	ORIENT_OFF	n/a	n/a	n/a	n/a	-999	5	[0, 0, 0]	n/a	catFR1	2	R1266J
609.012	1.617	1268723	WORD	n/a	wordpools/wordpool_categorized_EN.txt	PAPER	OfficeSupplies	1	5	[0, 0, 0]	n/a	catFR1	2	R1266J
610.629	1.017	1270340	WORD_OFF	n/a	n/a	PAPER	n/a	1	5	[0, 0, 0]	n/a	catFR1	2	R1266J
611.646	1.618	1271357	WORD	n/a	wordpools/wordpool_categorized_EN.txt	FOLDER	OfficeSupplies	2	5	[0, 0, 0]	n/a	catFR1	2	R1266J
613.264	0.966	1272975	WORD_OFF	n/a	n/a	FOLDER	n/a	2	5	[0, 0, 0]	n/a	catFR1	2	R1266J
614.23	1.616	1273941	WORD	n/a	wordpools/wordpool_categorized_EN.txt	STEREO	Electronics	3	5	[0, 0, 0]	n/a	catFR1	2	R1266J
615.846	0.917	1275557	WORD_OFF	n/a	n/a	STEREO	n/a	3	5	[0, 0, 0]	n/a	catFR1	2	R1266J
616.763	1.617	1276474	WORD	n/a	wordpools/wordpool_categorized_EN.txt	TELEVISION	Electronics	4	5	[0, 0, 0]	n/a	catFR1	2	R1266J
618.38	0.917	1278091	WORD_OFF	n/a	n/a	TELEVISION	n/a	4	5	[0, 0, 0]	n/a	catFR1	2	R1266J
619.297	1.616	1279008	WORD	n/a	wordpools/wordpool_categorized_EN.txt	LILAC	Flowers	5	5	[0, 0, 0]	n/a	catFR1	2	R1266J
620.913	0.984	1280624	WORD_OFF	n/a	n/a	LILAC	n/a	5	5	[0, 0, 0]	n/a	catFR1	2	R1266J
621.897	1.617	1281608	WORD	n/a	wordpools/wordpool_categorized_EN.txt	LILY	Flowers	6	5	[0, 0, 0]	n/a	catFR1	2	R1266J
623.514	0.817	1283225	WORD_OFF	n/a	n/a	LILY	n/a	6	5	[0, 0, 0]	n/a	catFR1	2	R1266J
624.331	1.617	1284042	WORD	n/a	wordpools/wordpool_categorized_EN.txt	RULER	OfficeSupplies	7	5	[0, 0, 0]	n/a	catFR1	2	R1266J
625.948	0.983	1285659	WORD_OFF	n/a	n/a	RULER	n/a	7	5	[0, 0, 0]	n/a	catFR1	2	R1266J
626.931	1.617	1286642	WORD	n/a	wordpools/wordpool_categorized_EN.txt	ERASER	OfficeSupplies	8	5	[0, 0, 0]	n/a	catFR1	2	R1266J
628.548	1.016	1288259	WORD_OFF	n/a	n/a	ERASER	n/a	8	5	[0, 0, 0]	n/a	catFR1	2	R1266J
629.564	1.617	1289275	WORD	n/a	wordpools/wordpool_categorized_EN.txt	MICROWAVE	Electronics	9	5	[0, 0, 0]	n/a	catFR1	2	R1266J
631.181	0.901	1290892	WORD_OFF	n/a	n/a	MICROWAVE	n/a	9	5	[0, 0, 0]	n/a	catFR1	2	R1266J
632.082	1.617	1291793	WORD	n/a	wordpools/wordpool_categorized_EN.txt	RADIO	Electronics	10	5	[0, 0, 0]	n/a	catFR1	2	R1266J
633.699	0.966	1293410	WORD_OFF	n/a	n/a	RADIO	n/a	10	5	[0, 0, 0]	n/a	catFR1	2	R1266J
634.665	1.601	1294376	WORD	n/a	wordpools/wordpool_categorized_EN.txt	CARNATION	Flowers	11	5	[0, 0, 0]	n/a	catFR1	2	R1266J
636.266	0.916	1295977	WORD_OFF	n/a	n/a	CARNATION	n/a	11	5	[0, 0, 0]	n/a	catFR1	2	R1266J
637.182	1.617	1296893	WORD	n/a	wordpools/wordpool_categorized_EN.txt	TULIP	Flowers	12	5	[0, 0, 0]	n/a	catFR1	2	R1266J
638.799	0.0	1298510	ENCODING_END	n/a	n/a	n/a	n/a	-999	5	[0, 0, 0]	n/a	catFR1	2	R1266J
638.799	0.098	1298510	WORD_OFF	n/a	n/a	TULIP	n/a	12	5	[0, 0, 0]	n/a	catFR1	2	R1266J
638.897	0.0	1298608	DISTRACT_START	n/a	n/a	n/a	n/a	-999	5	[0, 0, 0]	n/a	catFR1	2	R1266J
638.897	0.019	1298608	START	n/a	n/a	n/a	n/a	-999	6	[-999, -999, -999]	n/a	catFR1	2	R1266J
638.916	7.201	1298627	PROB	7.174	n/a	n/a	n/a	-999	6	[5, 3, 7]	15.0	catFR1	2	R1266J
646.117	5.967	1305828	PROB	5.932	n/a	n/a	n/a	-999	6	[5, 2, 3]	10.0	catFR1	2	R1266J
652.084	3.202	1311795	PROB	3.165	n/a	n/a	n/a	-999	6	[8, 1, 1]	10.0	catFR1	2	R1266J
655.286	2.966	1314997	PROB	2.933	n/a	n/a	n/a	-999	6	[4, 6, 5]	15.0	catFR1	2	R1266J
658.252	8.157	1317963	PROB	8.157	n/a	n/a	n/a	-999	6	[5, 4, 7]	16.0	catFR1	2	R1266J
666.409	0.011	1326120	STOP	n/a	n/a	n/a	n/a	-999	6	[-999, -999, -999]	n/a	catFR1	2	R1266J
666.42	0.599	1326131	DISTRACT_END	n/a	n/a	n/a	n/a	-999	5	[0, 0, 0]	n/a	catFR1	2	R1266J
667.019	0.518	1326730	RETRIEVAL_ORIENT	n/a	n/a	n/a	n/a	-999	5	[0, 0, 0]	n/a	catFR1	2	R1266J
667.537	1.046	1327248	REC_START	n/a	n/a	n/a	n/a	-999	5	[0, 0, 0]	n/a	catFR1	2	R1266J
668.583	2.211	1328294	REC_WORD_VV	1.046	n/a	<>	n/a	-999	5	[0, 0, 0]	n/a	catFR1	2	R1266J
670.794	2.318	1330505	REC_WORD	3.257	n/a	TABLE	n/a	-999	5	[0, 0, 0]	n/a	catFR1	2	R1266J
673.112	10.834	1332823	REC_WORD	5.575	n/a	RULER	OfficeSupplies	7	5	[0, 0, 0]	n/a	catFR1	2	R1266J
683.946	4.619	1343657	REC_WORD	16.409	n/a	PAPER	OfficeSupplies	1	5	[0, 0, 0]	n/a	catFR1	2	R1266J
688.565	0.723	1348276	REC_WORD	21.028	n/a	DESK	n/a	-999	5	[0, 0, 0]	n/a	catFR1	2	R1266J
689.288	8.26	1348999	REC_WORD_VV	21.751	n/a	<>	n/a	-999	5	[0, 0, 0]	n/a	catFR1	2	R1266J
697.548	4.309	1357259	REC_END	n/a	n/a	n/a	n/a	-999	5	[0, 0, 0]	n/a	catFR1	2	R1266J
701.857	0.5	1361568	TRIAL	n/a	n/a	n/a	n/a	-999	6	[0, 0, 0]	n/a	catFR1	2	R1266J
702.357	10.428	1362068	COUNTDOWN_START	n/a	n/a	n/a	n/a	-999	6	[0, 0, 0]	n/a	catFR1	2	R1266J
712.785	0.007	1372496	COUNTDOWN_END	n/a	n/a	n/a	n/a	-999	6	[0, 0, 0]	n/a	catFR1	2	R1266J
712.792	1.617	1372503	ORIENT	n/a	n/a	n/a	n/a	-999	6	[0, 0, 0]	n/a	catFR1	2	R1266J
714.409	2.017	1374120	ORIENT_OFF	n/a	n/a	n/a	n/a	-999	6	[0, 0, 0]	n/a	catFR1	2	R1266J
716.426	1.616	1376137	WORD	n/a	wordpools/wordpool_categorized_EN.txt	ORCHID	Flowers	1	6	[0, 0, 0]	n/a	catFR1	2	R1266J
718.042	0.834	1377753	WORD_OFF	n/a	n/a	ORCHID	n/a	1	6	[0, 0, 0]	n/a	catFR1	2	R1266J
718.876	1.617	1378587	WORD	n/a	wordpools/wordpool_categorized_EN.txt	DAISY	Flowers	2	6	[0, 0, 0]	n/a	catFR1	2	R1266J
720.493	0.784	1380204	WORD_OFF	n/a	n/a	DAISY	n/a	2	6	[0, 0, 0]	n/a	catFR1	2	R1266J
721.277	1.616	1380988	WORD	n/a	wordpools/wordpool_categorized_EN.txt	BLOCKS	Toys	3	6	[0, 0, 0]	n/a	catFR1	2	R1266J
722.893	0.767	1382604	WORD_OFF	n/a	n/a	BLOCKS	n/a	3	6	[0, 0, 0]	n/a	catFR1	2	R1266J
723.66	1.601	1383371	WORD	n/a	wordpools/wordpool_categorized_EN.txt	DOLL	Toys	4	6	[0, 0, 0]	n/a	catFR1	2	R1266J
725.261	1.017	1384972	WORD_OFF	n/a	n/a	DOLL	n/a	4	6	[0, 0, 0]	n/a	catFR1	2	R1266J
726.278	1.616	1385989	WORD	n/a	wordpools/wordpool_categorized_EN.txt	LEMONADE	Beverages	5	6	[0, 0, 0]	n/a	catFR1	2	R1266J
727.894	0.833	1387605	WORD_OFF	n/a	n/a	LEMONADE	n/a	5	6	[0, 0, 0]	n/a	catFR1	2	R1266J
728.727	1.617	1388438	WORD	n/a	wordpools/wordpool_categorized_EN.txt	COLA	Beverages	6	6	[0, 0, 0]	n/a	catFR1	2	R1266J
730.344	0.918	1390055	WORD_OFF	n/a	n/a	COLA	n/a	6	6	[0, 0, 0]	n/a	catFR1	2	R1266J
731.262	1.616	1390973	WORD	n/a	wordpools/wordpool_categorized_EN.txt	BASKETBALL	Toys	7	6	[0, 0, 0]	n/a	catFR1	2	R1266J
732.878	1.0	1392589	WORD_OFF	n/a	n/a	BASKETBALL	n/a	7	6	[0, 0, 0]	n/a	catFR1	2	R1266J
733.878	1.617	1393589	WORD	n/a	wordpools/wordpool_categorized_EN.txt	FRISBEE	Toys	8	6	[0, 0, 0]	n/a	catFR1	2	R1266J
735.495	0.983	1395206	WORD_OFF	n/a	n/a	FRISBEE	n/a	8	6	[0, 0, 0]	n/a	catFR1	2	R1266J
736.478	1.617	1396189	WORD	n/a	wordpools/wordpool_categorized_EN.txt	SUNFLOWER	Flowers	9	6	[0, 0, 0]	n/a	catFR1	2	R1266J
738.095	0.767	1397806	WORD_OFF	n/a	n/a	SUNFLOWER	n/a	9	6	[0, 0, 0]	n/a	catFR1	2	R1266J
738.862	1.617	1398573	WORD	n/a	wordpools/wordpool_categorized_EN.txt	PETUNIA	Flowers	10	6	[0, 0, 0]	n/a	catFR1	2	R1266J
740.479	0.867	1400190	WORD_OFF	n/a	n/a	PETUNIA	n/a	10	6	[0, 0, 0]	n/a	catFR1	2	R1266J
741.346	1.616	1401057	WORD	n/a	wordpools/wordpool_categorized_EN.txt	MILK	Beverages	11	6	[0, 0, 0]	n/a	catFR1	2	R1266J
742.962	0.984	1402673	WORD_OFF	n/a	n/a	MILK	n/a	11	6	[0, 0, 0]	n/a	catFR1	2	R1266J
743.946	1.617	1403657	WORD	n/a	wordpools/wordpool_categorized_EN.txt	SODA	Beverages	12	6	[0, 0, 0]	n/a	catFR1	2	R1266J
745.563	0.0	1405274	ENCODING_END	n/a	n/a	n/a	n/a	-999	6	[0, 0, 0]	n/a	catFR1	2	R1266J
745.563	0.134	1405274	WORD_OFF	n/a	n/a	SODA	n/a	12	6	[0, 0, 0]	n/a	catFR1	2	R1266J
745.697	0.0	1405408	DISTRACT_START	n/a	n/a	n/a	n/a	-999	6	[0, 0, 0]	n/a	catFR1	2	R1266J
745.697	0.016	1405408	START	n/a	n/a	n/a	n/a	-999	7	[-999, -999, -999]	n/a	catFR1	2	R1266J
745.713	4.834	1405424	PROB	4.803	n/a	n/a	n/a	-999	7	[4, 6, 9]	19.0	catFR1	2	R1266J
750.547	6.817	1410258	PROB	6.785	n/a	n/a	n/a	-999	7	[2, 1, 3]	6.0	catFR1	2	R1266J
757.364	6.201	1417075	PROB	6.177	n/a	n/a	n/a	-999	7	[6, 2, 8]	16.0	catFR1	2	R1266J
763.565	4.641	1423276	PROB	4.641	n/a	n/a	n/a	-999	7	[9, 4, 7]	19.0	catFR1	2	R1266J
768.206	0.011	1427917	STOP	n/a	n/a	n/a	n/a	-999	7	[-999, -999, -999]	n/a	catFR1	2	R1266J
768.217	0.699	1427928	DISTRACT_END	n/a	n/a	n/a	n/a	-999	6	[0, 0, 0]	n/a	catFR1	2	R1266J
768.916	0.517	1428627	RETRIEVAL_ORIENT	n/a	n/a	n/a	n/a	-999	6	[0, 0, 0]	n/a	catFR1	2	R1266J
769.433	1.298	1429144	REC_START	n/a	n/a	n/a	n/a	-999	6	[0, 0, 0]	n/a	catFR1	2	R1266J
770.731	2.632	1430442	REC_WORD_VV	1.298	n/a	<>	n/a	-999	6	[0, 0, 0]	n/a	catFR1	2	R1266J
773.363	1.0	1433074	REC_WORD_VV	3.93	n/a	<>	n/a	-999	6	[0, 0, 0]	n/a	catFR1	2	R1266J
774.363	22.238	1434074	REC_WORD_VV	4.93	n/a	<>	n/a	-999	6	[0, 0, 0]	n/a	catFR1	2	R1266J
796.601	1.0	1456312	REC_WORD_VV	27.168	n/a	<>	n/a	-999	6	[0, 0, 0]	n/a	catFR1	2	R1266J
797.601	1.0	1457312	REC_WORD_VV	28.168	n/a	<>	n/a	-999	6	[0, 0, 0]	n/a	catFR1	2	R1266J
798.601	0.841	1458312	REC_WORD_VV	29.168	n/a	<>	n/a	-999	6	[0, 0, 0]	n/a	catFR1	2	R1266J
799.442	8.328	1459153	REC_END	n/a	n/a	n/a	n/a	-999	6	[0, 0, 0]	n/a	catFR1	2	R1266J
807.77	0.5	1467481	TRIAL	n/a	n/a	n/a	n/a	-999	7	[0, 0, 0]	n/a	catFR1	2	R1266J
808.27	10.428	1467981	COUNTDOWN_START	n/a	n/a	n/a	n/a	-999	7	[0, 0, 0]	n/a	catFR1	2	R1266J
818.698	0.007	1478409	COUNTDOWN_END	n/a	n/a	n/a	n/a	-999	7	[0, 0, 0]	n/a	catFR1	2	R1266J
818.705	1.617	1478416	ORIENT	n/a	n/a	n/a	n/a	-999	7	[0, 0, 0]	n/a	catFR1	2	R1266J
820.322	1.985	1480033	ORIENT_OFF	n/a	n/a	n/a	n/a	-999	7	[0, 0, 0]	n/a	catFR1	2	R1266J
822.307	1.616	1482018	WORD	n/a	wordpools/wordpool_categorized_EN.txt	TOASTER	Appliances	1	7	[0, 0, 0]	n/a	catFR1	2	R1266J
823.923	1.0	1483634	WORD_OFF	n/a	n/a	TOASTER	n/a	1	7	[0, 0, 0]	n/a	catFR1	2	R1266J
824.923	1.617	1484634	WORD	n/a	wordpools/wordpool_categorized_EN.txt	OVEN	Appliances	2	7	[0, 0, 0]	n/a	catFR1	2	R1266J
826.54	0.95	1486251	WORD_OFF	n/a	n/a	OVEN	n/a	2	7	[0, 0, 0]	n/a	catFR1	2	R1266J
827.49	1.617	1487201	WORD	n/a	wordpools/wordpool_categorized_EN.txt	SHOVEL	Tools	3	7	[0, 0, 0]	n/a	catFR1	2	R1266J
829.107	0.817	1488818	WORD_OFF	n/a	n/a	SHOVEL	n/a	3	7	[0, 0, 0]	n/a	catFR1	2	R1266J
829.924	1.616	1489635	WORD	n/a	wordpools/wordpool_categorized_EN.txt	LEVEL	Tools	4	7	[0, 0, 0]	n/a	catFR1	2	R1266J
831.54	0.951	1491251	WORD_OFF	n/a	n/a	LEVEL	n/a	4	7	[0, 0, 0]	n/a	catFR1	2	R1266J
832.491	1.617	1492202	WORD	n/a	wordpools/wordpool_categorized_EN.txt	VAN	Vehicles	5	7	[0, 0, 0]	n/a	catFR1	2	R1266J
834.108	0.883	1493819	WORD_OFF	n/a	n/a	VAN	n/a	5	7	[0, 0, 0]	n/a	catFR1	2	R1266J
834.991	1.617	1494702	WORD	n/a	wordpools/wordpool_categorized_EN.txt	BOAT	Vehicles	6	7	[0, 0, 0]	n/a	catFR1	2	R1266J
836.608	0.8	1496319	WORD_OFF	n/a	n/a	BOAT	n/a	6	7	[0, 0, 0]	n/a	catFR1	2	R1266J
837.408	1.617	1497119	WORD	n/a	wordpools/wordpool_categorized_EN.txt	STOVE	Appliances	7	7	[0, 0, 0]	n/a	catFR1	2	R1266J
839.025	0.816	1498736	WORD_OFF	n/a	n/a	STOVE	n/a	7	7	[0, 0, 0]	n/a	catFR1	2	R1266J
839.841	1.617	1499552	WORD	n/a	wordpools/wordpool_categorized_EN.txt	WASHER	Appliances	8	7	[0, 0, 0]	n/a	catFR1	2	R1266J
841.458	1.0	1501169	WORD_OFF	n/a	n/a	WASHER	n/a	8	7	[0, 0, 0]	n/a	catFR1	2	R1266J
842.458	1.617	1502169	WORD	n/a	wordpools/wordpool_categorized_EN.txt	SANDER	Tools	9	7	[0, 0, 0]	n/a	catFR1	2	R1266J
844.075	0.917	1503786	WORD_OFF	n/a	n/a	SANDER	n/a	9	7	[0, 0, 0]	n/a	catFR1	2	R1266J
844.992	1.617	1504703	WORD	n/a	wordpools/wordpool_categorized_EN.txt	AXE	Tools	10	7	[0, 0, 0]	n/a	catFR1	2	R1266J
846.609	0.783	1506320	WORD_OFF	n/a	n/a	AXE	n/a	10	7	[0, 0, 0]	n/a	catFR1	2	R1266J
847.392	1.617	1507103	WORD	n/a	wordpools/wordpool_categorized_EN.txt	BUS	Vehicles	11	7	[0, 0, 0]	n/a	catFR1	2	R1266J
849.009	0.917	1508720	WORD_OFF	n/a	n/a	BUS	n/a	11	7	[0, 0, 0]	n/a	catFR1	2	R1266J
849.926	1.617	1509637	WORD	n/a	wordpools/wordpool_categorized_EN.txt	MOTORCYCLE	Vehicles	12	7	[0, 0, 0]	n/a	catFR1	2	R1266J
851.543	0.0	1511254	ENCODING_END	n/a	n/a	n/a	n/a	-999	7	[0, 0, 0]	n/a	catFR1	2	R1266J
851.543	0.13	1511254	WORD_OFF	n/a	n/a	MOTORCYCLE	n/a	12	7	[0, 0, 0]	n/a	catFR1	2	R1266J
851.673	0.0	1511384	DISTRACT_START	n/a	n/a	n/a	n/a	-999	7	[0, 0, 0]	n/a	catFR1	2	R1266J
851.673	0.02	1511384	START	n/a	n/a	n/a	n/a	-999	8	[-999, -999, -999]	n/a	catFR1	2	R1266J
851.693	6.917	1511404	PROB	6.884	n/a	n/a	n/a	-999	8	[4, 1, 8]	13.0	catFR1	2	R1266J
858.61	3.418	1518321	PROB	3.382	n/a	n/a	n/a	-999	8	[2, 2, 7]	11.0	catFR1	2	R1266J
862.028	2.683	1521739	PROB	2.644	n/a	n/a	n/a	-999	8	[3, 7, 3]	13.0	catFR1	2	R1266J
864.711	4.118	1524422	PROB	4.09	n/a	n/a	n/a	-999	8	[7, 2, 6]	15.0	catFR1	2	R1266J
868.829	4.594	1528540	PROB	4.594	n/a	n/a	n/a	-999	8	[5, 7, 7]	19.0	catFR1	2	R1266J
873.423	0.007	1533134	STOP	n/a	n/a	n/a	n/a	-999	8	[-999, -999, -999]	n/a	catFR1	2	R1266J
873.43	0.533	1533141	DISTRACT_END	n/a	n/a	n/a	n/a	-999	7	[0, 0, 0]	n/a	catFR1	2	R1266J
873.963	0.517	1533674	RETRIEVAL_ORIENT	n/a	n/a	n/a	n/a	-999	7	[0, 0, 0]	n/a	catFR1	2	R1266J
874.48	0.804	1534191	REC_START	n/a	n/a	n/a	n/a	-999	7	[0, 0, 0]	n/a	catFR1	2	R1266J
875.284	1.277	1534995	REC_WORD	0.804	n/a	MOTORCYCLE	Vehicles	12	7	[0, 0, 0]	n/a	catFR1	2	R1266J
876.561	1.709	1536272	REC_WORD	2.081	n/a	BIKE	n/a	-999	7	[0, 0, 0]	n/a	catFR1	2	R1266J
878.27	4.171	1537981	REC_WORD	3.79	n/a	TOASTER	Appliances	1	7	[0, 0, 0]	n/a	catFR1	2	R1266J
882.441	12.465	1542152	REC_WORD	7.961	n/a	AXE	Tools	10	7	[0, 0, 0]	n/a	catFR1	2	R1266J
894.906	9.585	1554617	REC_WORD_VV	20.426	n/a	<>	n/a	-999	7	[0, 0, 0]	n/a	catFR1	2	R1266J
904.491	4.693	1564202	REC_END	n/a	n/a	n/a	n/a	-999	7	[0, 0, 0]	n/a	catFR1	2	R1266J
909.184	0.5	1568895	TRIAL	n/a	n/a	n/a	n/a	-999	8	[0, 0, 0]	n/a	catFR1	2	R1266J
909.684	10.428	1569395	COUNTDOWN_START	n/a	n/a	n/a	n/a	-999	8	[0, 0, 0]	n/a	catFR1	2	R1266J
920.112	0.006	1579823	COUNTDOWN_END	n/a	n/a	n/a	n/a	-999	8	[0, 0, 0]	n/a	catFR1	2	R1266J
920.118	1.617	1579829	ORIENT	n/a	n/a	n/a	n/a	-999	8	[0, 0, 0]	n/a	catFR1	2	R1266J
921.735	1.984	1581446	ORIENT_OFF	n/a	n/a	n/a	n/a	-999	8	[0, 0, 0]	n/a	catFR1	2	R1266J
923.719	1.617	1583430	WORD	n/a	wordpools/wordpool_categorized_EN.txt	RAIN	Weather	1	8	[0, 0, 0]	n/a	catFR1	2	R1266J
925.336	0.817	1585047	WORD_OFF	n/a	n/a	RAIN	n/a	1	8	[0, 0, 0]	n/a	catFR1	2	R1266J
926.153	1.616	1585864	WORD	n/a	wordpools/wordpool_categorized_EN.txt	WIND	Weather	2	8	[0, 0, 0]	n/a	catFR1	2	R1266J
927.769	0.767	1587480	WORD_OFF	n/a	n/a	WIND	n/a	2	8	[0, 0, 0]	n/a	catFR1	2	R1266J
928.536	1.617	1588247	WORD	n/a	wordpools/wordpool_categorized_EN.txt	ROACH	Insects	3	8	[0, 0, 0]	n/a	catFR1	2	R1266J
930.153	0.817	1589865	WORD_OFF	n/a	n/a	ROACH	n/a	3	8	[0, 0, 0]	n/a	catFR1	2	R1266J
930.97	1.617	1590682	WORD	n/a	wordpools/wordpool_categorized_EN.txt	BEETLE	Insects	4	8	[0, 0, 0]	n/a	catFR1	2	R1266J
932.587	1.017	1592299	WORD_OFF	n/a	n/a	BEETLE	n/a	4	8	[0, 0, 0]	n/a	catFR1	2	R1266J
933.604	1.618	1593316	WORD	n/a	wordpools/wordpool_categorized_EN.txt	ORANGE	Fruit	5	8	[0, 0, 0]	n/a	catFR1	2	R1266J
935.222	0.815	1594934	WORD_OFF	n/a	n/a	ORANGE	n/a	5	8	[0, 0, 0]	n/a	catFR1	2	R1266J
936.037	1.617	1595749	WORD	n/a	wordpools/wordpool_categorized_EN.txt	LEMON	Fruit	6	8	[0, 0, 0]	n/a	catFR1	2	R1266J
937.654	1.0	1597366	WORD_OFF	n/a	n/a	LEMON	n/a	6	8	[0, 0, 0]	n/a	catFR1	2	R1266J
938.654	1.601	1598366	WORD	n/a	wordpools/wordpool_categorized_EN.txt	LIGHTNING	Weather	7	8	[0, 0, 0]	n/a	catFR1	2	R1266J
940.255	0.8	1599967	WORD_OFF	n/a	n/a	LIGHTNING	n/a	7	8	[0, 0, 0]	n/a	catFR1	2	R1266J
941.055	1.616	1600767	WORD	n/a	wordpools/wordpool_categorized_EN.txt	HUMIDITY	Weather	8	8	[0, 0, 0]	n/a	catFR1	2	R1266J
942.671	0.801	1602383	WORD_OFF	n/a	n/a	HUMIDITY	n/a	8	8	[0, 0, 0]	n/a	catFR1	2	R1266J
943.472	1.617	1603184	WORD	n/a	wordpools/wordpool_categorized_EN.txt	CRICKET	Insects	9	8	[0, 0, 0]	n/a	catFR1	2	R1266J
945.089	0.966	1604801	WORD_OFF	n/a	n/a	CRICKET	n/a	9	8	[0, 0, 0]	n/a	catFR1	2	R1266J
946.055	1.617	1605767	WORD	n/a	wordpools/wordpool_categorized_EN.txt	GNAT	Insects	10	8	[0, 0, 0]	n/a	catFR1	2	R1266J
947.672	0.95	1607384	WORD_OFF	n/a	n/a	GNAT	n/a	10	8	[0, 0, 0]	n/a	catFR1	2	R1266J
948.622	1.618	1608334	WORD	n/a	wordpools/wordpool_categorized_EN.txt	BANANA	Fruit	11	8	[0, 0, 0]	n/a	catFR1	2	R1266J
950.24	0.832	1609952	WORD_OFF	n/a	n/a	BANANA	n/a	11	8	[0, 0, 0]	n/a	catFR1	2	R1266J
951.072	1.617	1610784	WORD	n/a	wordpools/wordpool_categorized_EN.txt	PEAR	Fruit	12	8	[0, 0, 0]	n/a	catFR1	2	R1266J
952.689	0.001	1612401	WORD_OFF	n/a	n/a	PEAR	n/a	12	8	[0, 0, 0]	n/a	catFR1	2	R1266J
952.69	0.101	1612402	ENCODING_END	n/a	n/a	n/a	n/a	-999	8	[0, 0, 0]	n/a	catFR1	2	R1266J
952.791	0.0	1612503	DISTRACT_START	n/a	n/a	n/a	n/a	-999	8	[0, 0, 0]	n/a	catFR1	2	R1266J
952.791	0.015	1612503	START	n/a	n/a	n/a	n/a	-999	9	[-999, -999, -999]	n/a	catFR1	2	R1266J
952.806	3.217	1612518	PROB	3.182	n/a	n/a	n/a	-999	9	[1, 8, 7]	16.0	catFR1	2	R1266J
956.023	6.252	1615735	PROB	6.223	n/a	n/a	n/a	-999	9	[7, 7, 3]	8.0	catFR1	2	R1266J
962.275	6.866	1621987	PROB	6.84	n/a	n/a	n/a	-999	9	[3, 6, 5]	14.0	catFR1	2	R1266J
969.141	2.784	1628853	PROB	2.751	n/a	n/a	n/a	-999	9	[4, 2, 3]	9.0	catFR1	2	R1266J
971.925	2.79	1631637	PROB	2.79	n/a	n/a	n/a	-999	9	[4, 4, 9]	17.0	catFR1	2	R1266J
974.715	0.011	1634427	STOP	n/a	n/a	n/a	n/a	-999	9	[-999, -999, -999]	n/a	catFR1	2	R1266J
974.726	0.534	1634438	DISTRACT_END	n/a	n/a	n/a	n/a	-999	8	[0, 0, 0]	n/a	catFR1	2	R1266J
975.26	0.517	1634972	RETRIEVAL_ORIENT	n/a	n/a	n/a	n/a	-999	8	[0, 0, 0]	n/a	catFR1	2	R1266J
975.777	1.804	1635489	REC_START	n/a	n/a	n/a	n/a	-999	8	[0, 0, 0]	n/a	catFR1	2	R1266J
977.581	1.786	1637293	REC_WORD	1.804	n/a	WIND	Weather	2	8	[0, 0, 0]	n/a	catFR1	2	R1266J
979.367	3.804	1639079	REC_WORD	3.59	n/a	ROACH	Insects	3	8	[0, 0, 0]	n/a	catFR1	2	R1266J
983.171	2.217	1642883	REC_WORD	7.394	n/a	HUMIDITY	Weather	8	8	[0, 0, 0]	n/a	catFR1	2	R1266J
985.388	20.399	1645100	REC_WORD	9.611	n/a	RAIN	Weather	1	8	[0, 0, 0]	n/a	catFR1	2	R1266J
1005.787	4.176	1665499	REC_END	n/a	n/a	n/a	n/a	-999	8	[0, 0, 0]	n/a	catFR1	2	R1266J
1009.963	0.5	1669675	TRIAL	n/a	n/a	n/a	n/a	-999	9	[0, 0, 0]	n/a	catFR1	2	R1266J
1010.463	10.428	1670175	COUNTDOWN_START	n/a	n/a	n/a	n/a	-999	9	[0, 0, 0]	n/a	catFR1	2	R1266J
1020.891	0.007	1680603	COUNTDOWN_END	n/a	n/a	n/a	n/a	-999	9	[0, 0, 0]	n/a	catFR1	2	R1266J
1020.898	1.617	1680610	ORIENT	n/a	n/a	n/a	n/a	-999	9	[0, 0, 0]	n/a	catFR1	2	R1266J
1022.515	2.234	1682227	ORIENT_OFF	n/a	n/a	n/a	n/a	-999	9	[0, 0, 0]	n/a	catFR1	2	R1266J
1024.749	1.617	1684461	WORD	n/a	wordpools/wordpool_categorized_EN.txt	ARM	BodyParts	1	9	[0, 0, 0]	n/a	catFR1	2	R1266J
1026.366	0.816	1686078	WORD_OFF	n/a	n/a	ARM	n/a	1	9	[0, 0, 0]	n/a	catFR1	2	R1266J
1027.182	1.617	1686894	WORD	n/a	wordpools/wordpool_categorized_EN.txt	NOSE	BodyParts	2	9	[0, 0, 0]	n/a	catFR1	2	R1266J
1028.799	0.817	1688511	WORD_OFF	n/a	n/a	NOSE	n/a	2	9	[0, 0, 0]	n/a	catFR1	2	R1266J
1029.616	1.618	1689328	WORD	n/a	wordpools/wordpool_categorized_EN.txt	HALLWAY	Building	3	9	[0, 0, 0]	n/a	catFR1	2	R1266J
1031.234	0.866	1690946	WORD_OFF	n/a	n/a	HALLWAY	n/a	3	9	[0, 0, 0]	n/a	catFR1	2	R1266J
1032.1	1.617	1691812	WORD	n/a	wordpools/wordpool_categorized_EN.txt	ATTIC	Building	4	9	[0, 0, 0]	n/a	catFR1	2	R1266J
1033.717	0.9	1693429	WORD_OFF	n/a	n/a	ATTIC	n/a	4	9	[0, 0, 0]	n/a	catFR1	2	R1266J
1034.617	1.618	1694329	WORD	n/a	wordpools/wordpool_categorized_EN.txt	VIOLET	Flowers	5	9	[0, 0, 0]	n/a	catFR1	2	R1266J
1036.235	0.798	1695947	WORD_OFF	n/a	n/a	VIOLET	n/a	5	9	[0, 0, 0]	n/a	catFR1	2	R1266J
1037.033	1.617	1696745	WORD	n/a	wordpools/wordpool_categorized_EN.txt	ROSE	Flowers	6	9	[0, 0, 0]	n/a	catFR1	2	R1266J
1038.65	0.9	1698362	WORD_OFF	n/a	n/a	ROSE	n/a	6	9	[0, 0, 0]	n/a	catFR1	2	R1266J
1039.55	1.617	1699262	WORD	n/a	wordpools/wordpool_categorized_EN.txt	HEAD	BodyParts	7	9	[0, 0, 0]	n/a	catFR1	2	R1266J
1041.167	0.934	1700879	WORD_OFF	n/a	n/a	HEAD	n/a	7	9	[0, 0, 0]	n/a	catFR1	2	R1266J
1042.101	1.617	1701813	WORD	n/a	wordpools/wordpool_categorized_EN.txt	LEG	BodyParts	8	9	[0, 0, 0]	n/a	catFR1	2	R1266J
1043.718	1.017	1703430	WORD_OFF	n/a	n/a	LEG	n/a	8	9	[0, 0, 0]	n/a	catFR1	2	R1266J
1044.735	1.617	1704447	WORD	n/a	wordpools/wordpool_categorized_EN.txt	WINDOW	Building	9	9	[0, 0, 0]	n/a	catFR1	2	R1266J
1046.352	0.966	1706064	WORD_OFF	n/a	n/a	WINDOW	n/a	9	9	[0, 0, 0]	n/a	catFR1	2	R1266J
1047.318	1.617	1707030	WORD	n/a	wordpools/wordpool_categorized_EN.txt	CEILING	Building	10	9	[0, 0, 0]	n/a	catFR1	2	R1266J
1048.935	0.917	1708647	WORD_OFF	n/a	n/a	CEILING	n/a	10	9	[0, 0, 0]	n/a	catFR1	2	R1266J
1049.852	1.617	1709564	WORD	n/a	wordpools/wordpool_categorized_EN.txt	DAFFODIL	Flowers	11	9	[0, 0, 0]	n/a	catFR1	2	R1266J
1051.469	0.834	1711181	WORD_OFF	n/a	n/a	DAFFODIL	n/a	11	9	[0, 0, 0]	n/a	catFR1	2	R1266J
1052.303	1.616	1712015	WORD	n/a	wordpools/wordpool_categorized_EN.txt	MARIGOLD	Flowers	12	9	[0, 0, 0]	n/a	catFR1	2	R1266J
1053.919	0.0	1713631	ENCODING_END	n/a	n/a	n/a	n/a	-999	9	[0, 0, 0]	n/a	catFR1	2	R1266J
1053.919	0.131	1713631	WORD_OFF	n/a	n/a	MARIGOLD	n/a	12	9	[0, 0, 0]	n/a	catFR1	2	R1266J
1054.05	0.0	1713762	DISTRACT_START	n/a	n/a	n/a	n/a	-999	9	[0, 0, 0]	n/a	catFR1	2	R1266J
1054.05	0.019	1713762	START	n/a	n/a	n/a	n/a	-999	10	[-999, -999, -999]	n/a	catFR1	2	R1266J
1054.069	7.901	1713781	PROB	7.875	n/a	n/a	n/a	-999	10	[9, 9, 5]	23.0	catFR1	2	R1266J
1061.97	3.684	1721682	PROB	3.662	n/a	n/a	n/a	-999	10	[3, 3, 7]	15.0	catFR1	2	R1266J
1065.654	7.868	1725366	PROB	7.841	n/a	n/a	n/a	-999	10	[2, 7, 6]	15.0	catFR1	2	R1266J
1073.522	4.47	1733234	PROB	4.47	n/a	n/a	n/a	-999	10	[6, 1, 7]	14.0	catFR1	2	R1266J
1077.992	0.014	1737704	STOP	n/a	n/a	n/a	n/a	-999	10	[-999, -999, -999]	n/a	catFR1	2	R1266J
1078.006	0.666	1737718	DISTRACT_END	n/a	n/a	n/a	n/a	-999	9	[0, 0, 0]	n/a	catFR1	2	R1266J
1078.672	0.518	1738384	RETRIEVAL_ORIENT	n/a	n/a	n/a	n/a	-999	9	[0, 0, 0]	n/a	catFR1	2	R1266J
1079.19	1.517	1738902	REC_START	n/a	n/a	n/a	n/a	-999	9	[0, 0, 0]	n/a	catFR1	2	R1266J
1080.707	1.944	1740419	REC_WORD	1.517	n/a	ARM	BodyParts	1	9	[0, 0, 0]	n/a	catFR1	2	R1266J
1082.651	1.28	1742363	REC_WORD	3.461	n/a	NOSE	BodyParts	2	9	[0, 0, 0]	n/a	catFR1	2	R1266J
1083.931	25.272	1743643	REC_WORD	4.741	n/a	WIND	n/a	-999	9	[0, 0, 0]	n/a	catFR1	2	R1266J
1109.203	4.307	1768915	REC_END	n/a	n/a	n/a	n/a	-999	9	[0, 0, 0]	n/a	catFR1	2	R1266J
1113.51	0.5	1773222	TRIAL	n/a	n/a	n/a	n/a	-999	10	[0, 0, 0]	n/a	catFR1	2	R1266J
1114.01	10.428	1773722	COUNTDOWN_START	n/a	n/a	n/a	n/a	-999	10	[0, 0, 0]	n/a	catFR1	2	R1266J
1124.438	0.007	1784150	COUNTDOWN_END	n/a	n/a	n/a	n/a	-999	10	[0, 0, 0]	n/a	catFR1	2	R1266J
1124.445	1.617	1784157	ORIENT	n/a	n/a	n/a	n/a	-999	10	[0, 0, 0]	n/a	catFR1	2	R1266J
1126.062	2.066	1785774	ORIENT_OFF	n/a	n/a	n/a	n/a	-999	10	[0, 0, 0]	n/a	catFR1	2	R1266J
1128.128	1.617	1787840	WORD	n/a	wordpools/wordpool_categorized_EN.txt	BUTTERFLY	Insects	1	10	[0, 0, 0]	n/a	catFR1	2	R1266J
1129.745	0.784	1789457	WORD_OFF	n/a	n/a	BUTTERFLY	n/a	1	10	[0, 0, 0]	n/a	catFR1	2	R1266J
1130.529	1.617	1790241	WORD	n/a	wordpools/wordpool_categorized_EN.txt	MOSQUITO	Insects	2	10	[0, 0, 0]	n/a	catFR1	2	R1266J
1132.146	0.883	1791858	WORD_OFF	n/a	n/a	MOSQUITO	n/a	2	10	[0, 0, 0]	n/a	catFR1	2	R1266J
1133.029	1.617	1792741	WORD	n/a	wordpools/wordpool_categorized_EN.txt	BEAR	Zoo	3	10	[0, 0, 0]	n/a	catFR1	2	R1266J
1134.646	0.817	1794358	WORD_OFF	n/a	n/a	BEAR	n/a	3	10	[0, 0, 0]	n/a	catFR1	2	R1266J
1135.463	1.616	1795175	WORD	n/a	wordpools/wordpool_categorized_EN.txt	GIRAFFE	Zoo	4	10	[0, 0, 0]	n/a	catFR1	2	R1266J
1137.079	0.851	1796791	WORD_OFF	n/a	n/a	GIRAFFE	n/a	4	10	[0, 0, 0]	n/a	catFR1	2	R1266J
1137.93	1.617	1797642	WORD	n/a	wordpools/wordpool_categorized_EN.txt	TEA	Beverages	5	10	[0, 0, 0]	n/a	catFR1	2	R1266J
1139.547	0.966	1799259	WORD_OFF	n/a	n/a	TEA	n/a	5	10	[0, 0, 0]	n/a	catFR1	2	R1266J
1140.513	1.617	1800225	WORD	n/a	wordpools/wordpool_categorized_EN.txt	JUICE	Beverages	6	10	[0, 0, 0]	n/a	catFR1	2	R1266J
1142.13	0.934	1801842	WORD_OFF	n/a	n/a	JUICE	n/a	6	10	[0, 0, 0]	n/a	catFR1	2	R1266J
1143.064	1.617	1802776	WORD	n/a	wordpools/wordpool_categorized_EN.txt	ORANGUTAN	Zoo	7	10	[0, 0, 0]	n/a	catFR1	2	R1266J
1144.681	0.767	1804393	WORD_OFF	n/a	n/a	ORANGUTAN	n/a	7	10	[0, 0, 0]	n/a	catFR1	2	R1266J
1145.448	1.616	1805160	WORD	n/a	wordpools/wordpool_categorized_EN.txt	CHEETAH	Zoo	8	10	[0, 0, 0]	n/a	catFR1	2	R1266J
1147.064	0.817	1806776	WORD_OFF	n/a	n/a	CHEETAH	n/a	8	10	[0, 0, 0]	n/a	catFR1	2	R1266J
1147.881	1.617	1807593	WORD	n/a	wordpools/wordpool_categorized_EN.txt	SPIDER	Insects	9	10	[0, 0, 0]	n/a	catFR1	2	R1266J
1149.498	0.801	1809210	WORD_OFF	n/a	n/a	SPIDER	n/a	9	10	[0, 0, 0]	n/a	catFR1	2	R1266J
1150.299	1.616	1810011	WORD	n/a	wordpools/wordpool_categorized_EN.txt	MOTH	Insects	10	10	[0, 0, 0]	n/a	catFR1	2	R1266J
1151.915	0.883	1811627	WORD_OFF	n/a	n/a	MOTH	n/a	10	10	[0, 0, 0]	n/a	catFR1	2	R1266J
1152.798	1.617	1812510	WORD	n/a	wordpools/wordpool_categorized_EN.txt	BEER	Beverages	11	10	[0, 0, 0]	n/a	catFR1	2	R1266J
1154.415	0.95	1814127	WORD_OFF	n/a	n/a	BEER	n/a	11	10	[0, 0, 0]	n/a	catFR1	2	R1266J
1155.365	1.617	1815077	WORD	n/a	wordpools/wordpool_categorized_EN.txt	WINE	Beverages	12	10	[0, 0, 0]	n/a	catFR1	2	R1266J
1156.982	0.0	1816694	WORD_OFF	n/a	n/a	WINE	n/a	12	10	[0, 0, 0]	n/a	catFR1	2	R1266J
1156.982	0.096	1816694	ENCODING_END	n/a	n/a	n/a	n/a	-999	10	[0, 0, 0]	n/a	catFR1	2	R1266J
1157.078	0.001	1816790	DISTRACT_START	n/a	n/a	n/a	n/a	-999	10	[0, 0, 0]	n/a	catFR1	2	R1266J
1157.079	0.02	1816791	START	n/a	n/a	n/a	n/a	-999	11	[-999, -999, -999]	n/a	catFR1	2	R1266J
1157.099	7.734	1816811	PROB	7.705	n/a	n/a	n/a	-999	11	[2, 9, 6]	17.0	catFR1	2	R1266J
1164.833	2.834	1824545	PROB	2.802	n/a	n/a	n/a	-999	11	[7, 7, 1]	15.0	catFR1	2	R1266J
1167.667	2.067	1827379	PROB	2.042	n/a	n/a	n/a	-999	11	[9, 4, 1]	14.0	catFR1	2	R1266J
1169.734	1.783	1829446	PROB	1.758	n/a	n/a	n/a	-999	11	[7, 3, 1]	11.0	catFR1	2	R1266J
1171.517	4.518	1831229	PROB	4.495	n/a	n/a	n/a	-999	11	[6, 1, 6]	13.0	catFR1	2	R1266J
1176.035	2.36	1835747	PROB	2.36	n/a	n/a	n/a	-999	11	[2, 8, 1]	11.0	catFR1	2	R1266J
1178.395	0.007	1838107	STOP	n/a	n/a	n/a	n/a	-999	11	[-999, -999, -999]	n/a	catFR1	2	R1266J
1178.402	0.6	1838114	DISTRACT_END	n/a	n/a	n/a	n/a	-999	10	[0, 0, 0]	n/a	catFR1	2	R1266J
1179.002	0.517	1838714	RETRIEVAL_ORIENT	n/a	n/a	n/a	n/a	-999	10	[0, 0, 0]	n/a	catFR1	2	R1266J
1179.519	1.852	1839231	REC_START	n/a	n/a	n/a	n/a	-999	10	[0, 0, 0]	n/a	catFR1	2	R1266J
1181.371	18.081	1841083	REC_WORD	1.852	n/a	MOSQUITO	Insects	2	10	[0, 0, 0]	n/a	catFR1	2	R1266J
1199.452	10.078	1859164	REC_WORD_VV	19.933	n/a	<>	n/a	-999	10	[0, 0, 0]	n/a	catFR1	2	R1266J
1209.53	4.66	1869242	REC_END	n/a	n/a	n/a	n/a	-999	10	[0, 0, 0]	n/a	catFR1	2	R1266J
1214.19	0.5	1873902	TRIAL	n/a	n/a	n/a	n/a	-999	11	[0, 0, 0]	n/a	catFR1	2	R1266J
1214.69	10.428	1874402	COUNTDOWN_START	n/a	n/a	n/a	n/a	-999	11	[0, 0, 0]	n/a	catFR1	2	R1266J
1225.118	0.006	1884830	COUNTDOWN_END	n/a	n/a	n/a	n/a	-999	11	[0, 0, 0]	n/a	catFR1	2	R1266J
1225.124	1.617	1884836	ORIENT	n/a	n/a	n/a	n/a	-999	11	[0, 0, 0]	n/a	catFR1	2	R1266J
1226.741	2.184	1886453	ORIENT_OFF	n/a	n/a	n/a	n/a	-999	11	[0, 0, 0]	n/a	catFR1	2	R1266J
1228.925	1.616	1888637	WORD	n/a	wordpools/wordpool_categorized_EN.txt	DRESS	Clothing	1	11	[0, 0, 0]	n/a	catFR1	2	R1266J
1230.541	0.834	1890253	WORD_OFF	n/a	n/a	DRESS	n/a	1	11	[0, 0, 0]	n/a	catFR1	2	R1266J
1231.375	1.617	1891087	WORD	n/a	wordpools/wordpool_categorized_EN.txt	COAT	Clothing	2	11	[0, 0, 0]	n/a	catFR1	2	R1266J
1232.992	0.967	1892704	WORD_OFF	n/a	n/a	COAT	n/a	2	11	[0, 0, 0]	n/a	catFR1	2	R1266J
1233.959	1.617	1893671	WORD	n/a	wordpools/wordpool_categorized_EN.txt	COUCH	Furniture	3	11	[0, 0, 0]	n/a	catFR1	2	R1266J
1235.576	0.85	1895288	WORD_OFF	n/a	n/a	COUCH	n/a	3	11	[0, 0, 0]	n/a	catFR1	2	R1266J
1236.426	1.616	1896138	WORD	n/a	wordpools/wordpool_categorized_EN.txt	CABINET	Furniture	4	11	[0, 0, 0]	n/a	catFR1	2	R1266J
1238.042	0.834	1897754	WORD_OFF	n/a	n/a	CABINET	n/a	4	11	[0, 0, 0]	n/a	catFR1	2	R1266J
1238.876	1.617	1898588	WORD	n/a	wordpools/wordpool_categorized_EN.txt	RIVER	Landscapes	5	11	[0, 0, 0]	n/a	catFR1	2	R1266J
1240.493	0.867	1900205	WORD_OFF	n/a	n/a	RIVER	n/a	5	11	[0, 0, 0]	n/a	catFR1	2	R1266J
1241.36	1.617	1901072	WORD	n/a	wordpools/wordpool_categorized_EN.txt	HILLS	Landscapes	6	11	[0, 0, 0]	n/a	catFR1	2	R1266J
1242.977	0.866	1902689	WORD_OFF	n/a	n/a	HILLS	n/a	6	11	[0, 0, 0]	n/a	catFR1	2	R1266J
1243.843	1.617	1903555	WORD	n/a	wordpools/wordpool_categorized_EN.txt	NIGHTSTAND	Furniture	7	11	[0, 0, 0]	n/a	catFR1	2	R1266J
1245.46	0.917	1905172	WORD_OFF	n/a	n/a	NIGHTSTAND	n/a	7	11	[0, 0, 0]	n/a	catFR1	2	R1266J
1246.377	1.617	1906089	WORD	n/a	wordpools/wordpool_categorized_EN.txt	RECLINER	Furniture	8	11	[0, 0, 0]	n/a	catFR1	2	R1266J
1247.994	0.9	1907706	WORD_OFF	n/a	n/a	RECLINER	n/a	8	11	[0, 0, 0]	n/a	catFR1	2	R1266J
1248.894	1.617	1908606	WORD	n/a	wordpools/wordpool_categorized_EN.txt	SKIRT	Clothing	9	11	[0, 0, 0]	n/a	catFR1	2	R1266J
1250.511	0.768	1910223	WORD_OFF	n/a	n/a	SKIRT	n/a	9	11	[0, 0, 0]	n/a	catFR1	2	R1266J
1251.279	1.616	1910991	WORD	n/a	wordpools/wordpool_categorized_EN.txt	BLOUSE	Clothing	10	11	[0, 0, 0]	n/a	catFR1	2	R1266J
1252.895	0.866	1912607	WORD_OFF	n/a	n/a	BLOUSE	n/a	10	11	[0, 0, 0]	n/a	catFR1	2	R1266J
1253.761	1.617	1913473	WORD	n/a	wordpools/wordpool_categorized_EN.txt	BEACH	Landscapes	11	11	[0, 0, 0]	n/a	catFR1	2	R1266J
1255.378	0.984	1915090	WORD_OFF	n/a	n/a	BEACH	n/a	11	11	[0, 0, 0]	n/a	catFR1	2	R1266J
1256.362	1.616	1916074	WORD	n/a	wordpools/wordpool_categorized_EN.txt	STREAM	Landscapes	12	11	[0, 0, 0]	n/a	catFR1	2	R1266J
1257.978	0.001	1917690	WORD_OFF	n/a	n/a	STREAM	n/a	12	11	[0, 0, 0]	n/a	catFR1	2	R1266J
1257.979	0.1	1917691	ENCODING_END	n/a	n/a	n/a	n/a	-999	11	[0, 0, 0]	n/a	catFR1	2	R1266J
1258.079	0.0	1917791	DISTRACT_START	n/a	n/a	n/a	n/a	-999	11	[0, 0, 0]	n/a	catFR1	2	R1266J
1258.079	0.016	1917791	START	n/a	n/a	n/a	n/a	-999	12	[-999, -999, -999]	n/a	catFR1	2	R1266J
1258.095	11.685	1917807	PROB	11.649	n/a	n/a	n/a	-999	12	[5, 7, 6]	18.0	catFR1	2	R1266J
1269.78	2.417	1929492	PROB	2.387	n/a	n/a	n/a	-999	12	[3, 7, 8]	18.0	catFR1	2	R1266J
1272.197	1.9	1931909	PROB	1.874	n/a	n/a	n/a	-999	12	[5, 5, 7]	17.0	catFR1	2	R1266J
1274.097	6.614	1933809	PROB	6.614	n/a	n/a	n/a	-999	12	[6, 6, 8]	20.0	catFR1	2	R1266J
1280.711	0.021	1940423	STOP	n/a	n/a	n/a	n/a	-999	12	[-999, -999, -999]	n/a	catFR1	2	R1266J
1280.732	0.716	1940444	DISTRACT_END	n/a	n/a	n/a	n/a	-999	11	[0, 0, 0]	n/a	catFR1	2	R1266J
1281.448	0.518	1941160	RETRIEVAL_ORIENT	n/a	n/a	n/a	n/a	-999	11	[0, 0, 0]	n/a	catFR1	2	R1266J
1281.966	1.195	1941678	REC_START	n/a	n/a	n/a	n/a	-999	11	[0, 0, 0]	n/a	catFR1	2	R1266J
1283.161	2.663	1942873	REC_WORD	1.195	n/a	COAT	Clothing	2	11	[0, 0, 0]	n/a	catFR1	2	R1266J
1285.824	1.511	1945536	REC_WORD	3.858	n/a	COUCH	Furniture	3	11	[0, 0, 0]	n/a	catFR1	2	R1266J
1287.335	1.28	1947047	REC_WORD	5.369	n/a	BEACH	Landscapes	11	11	[0, 0, 0]	n/a	catFR1	2	R1266J
1288.615	23.361	1948327	REC_WORD	6.649	n/a	BLOUSE	Clothing	10	11	[0, 0, 0]	n/a	catFR1	2	R1266J
1311.976	4.295	1971688	REC_END	n/a	n/a	n/a	n/a	-999	11	[0, 0, 0]	n/a	catFR1	2	R1266J
1316.271	0.5	1975983	TRIAL	n/a	n/a	n/a	n/a	-999	12	[0, 0, 0]	n/a	catFR1	2	R1266J
1316.771	10.428	1976483	COUNTDOWN_START	n/a	n/a	n/a	n/a	-999	12	[0, 0, 0]	n/a	catFR1	2	R1266J
1327.199	0.023	1986911	COUNTDOWN_END	n/a	n/a	n/a	n/a	-999	12	[0, 0, 0]	n/a	catFR1	2	R1266J
1327.222	1.616	1986934	ORIENT	n/a	n/a	n/a	n/a	-999	12	[0, 0, 0]	n/a	catFR1	2	R1266J
1328.838	2.016	1988550	ORIENT_OFF	n/a	n/a	n/a	n/a	-999	12	[0, 0, 0]	n/a	catFR1	2	R1266J
1330.854	1.617	1990566	WORD	n/a	wordpools/wordpool_categorized_EN.txt	WATER	Beverages	1	12	[0, 0, 0]	n/a	catFR1	2	R1266J
1332.471	0.951	1992183	WORD_OFF	n/a	n/a	WATER	n/a	1	12	[0, 0, 0]	n/a	catFR1	2	R1266J
1333.422	1.616	1993134	WORD	n/a	wordpools/wordpool_categorized_EN.txt	CIDER	Beverages	2	12	[0, 0, 0]	n/a	catFR1	2	R1266J
1335.038	0.834	1994750	WORD_OFF	n/a	n/a	CIDER	n/a	2	12	[0, 0, 0]	n/a	catFR1	2	R1266J
1335.872	1.617	1995584	WORD	n/a	wordpools/wordpool_categorized_EN.txt	JACKET	Clothing	3	12	[0, 0, 0]	n/a	catFR1	2	R1266J
1337.489	0.784	1997201	WORD_OFF	n/a	n/a	JACKET	n/a	3	12	[0, 0, 0]	n/a	catFR1	2	R1266J
1338.273	1.616	1997985	WORD	n/a	wordpools/wordpool_categorized_EN.txt	SHIRT	Clothing	4	12	[0, 0, 0]	n/a	catFR1	2	R1266J
1339.889	0.884	1999601	WORD_OFF	n/a	n/a	SHIRT	n/a	4	12	[0, 0, 0]	n/a	catFR1	2	R1266J
1340.773	1.616	2000485	WORD	n/a	wordpools/wordpool_categorized_EN.txt	STRAWBERRY	Fruit	5	12	[0, 0, 0]	n/a	catFR1	2	R1266J
1342.389	1.017	2002101	WORD_OFF	n/a	n/a	STRAWBERRY	n/a	5	12	[0, 0, 0]	n/a	catFR1	2	R1266J
1343.406	1.617	2003118	WORD	n/a	wordpools/wordpool_categorized_EN.txt	APPLE	Fruit	6	12	[0, 0, 0]	n/a	catFR1	2	R1266J
1345.023	1.0	2004735	WORD_OFF	n/a	n/a	APPLE	n/a	6	12	[0, 0, 0]	n/a	catFR1	2	R1266J
1346.023	1.617	2005735	WORD	n/a	wordpools/wordpool_categorized_EN.txt	SHORTS	Clothing	7	12	[0, 0, 0]	n/a	catFR1	2	R1266J
1347.64	0.9	2007352	WORD_OFF	n/a	n/a	SHORTS	n/a	7	12	[0, 0, 0]	n/a	catFR1	2	R1266J
1348.54	1.617	2008252	WORD	n/a	wordpools/wordpool_categorized_EN.txt	UNDERWEAR	Clothing	8	12	[0, 0, 0]	n/a	catFR1	2	R1266J
1350.157	0.933	2009869	WORD_OFF	n/a	n/a	UNDERWEAR	n/a	8	12	[0, 0, 0]	n/a	catFR1	2	R1266J
1351.09	1.617	2010802	WORD	n/a	wordpools/wordpool_categorized_EN.txt	RUM	Beverages	9	12	[0, 0, 0]	n/a	catFR1	2	R1266J
1352.707	0.867	2012419	WORD_OFF	n/a	n/a	RUM	n/a	9	12	[0, 0, 0]	n/a	catFR1	2	R1266J
1353.574	1.617	2013286	WORD	n/a	wordpools/wordpool_categorized_EN.txt	COFFEE	Beverages	10	12	[0, 0, 0]	n/a	catFR1	2	R1266J
1355.191	0.984	2014903	WORD_OFF	n/a	n/a	COFFEE	n/a	10	12	[0, 0, 0]	n/a	catFR1	2	R1266J
1356.175	1.616	2015887	WORD	n/a	wordpools/wordpool_categorized_EN.txt	PEACH	Fruit	11	12	[0, 0, 0]	n/a	catFR1	2	R1266J
1357.791	0.917	2017503	WORD_OFF	n/a	n/a	PEACH	n/a	11	12	[0, 0, 0]	n/a	catFR1	2	R1266J
1358.708	1.601	2018420	WORD	n/a	wordpools/wordpool_categorized_EN.txt	BLUEBERRY	Fruit	12	12	[0, 0, 0]	n/a	catFR1	2	R1266J
1360.309	0.0	2020021	ENCODING_END	n/a	n/a	n/a	n/a	-999	12	[0, 0, 0]	n/a	catFR1	2	R1266J
1360.309	0.141	2020021	WORD_OFF	n/a	n/a	BLUEBERRY	n/a	12	12	[0, 0, 0]	n/a	catFR1	2	R1266J
1360.45	0.001	2020162	DISTRACT_START	n/a	n/a	n/a	n/a	-999	12	[0, 0, 0]	n/a	catFR1	2	R1266J
1360.451	0.007	2020163	START	n/a	n/a	n/a	n/a	-999	13	[-999, -999, -999]	n/a	catFR1	2	R1266J
1360.458	6.868	2020170	PROB	6.842	n/a	n/a	n/a	-999	13	[5, 3, 4]	14.0	catFR1	2	R1266J
1367.326	4.901	2027038	PROB	4.878	n/a	n/a	n/a	-999	13	[4, 1, 2]	7.0	catFR1	2	R1266J
1372.227	3.834	2031939	PROB	3.8	n/a	n/a	n/a	-999	13	[4, 7, 9]	20.0	catFR1	2	R1266J
1376.061	4.903	2035773	PROB	4.903	n/a	n/a	n/a	-999	13	[7, 8, 5]	20.0	catFR1	2	R1266J
1380.964	0.014	2040676	STOP	n/a	n/a	n/a	n/a	-999	13	[-999, -999, -999]	n/a	catFR1	2	R1266J
1380.978	0.616	2040690	DISTRACT_END	n/a	n/a	n/a	n/a	-999	12	[0, 0, 0]	n/a	catFR1	2	R1266J
1381.594	0.518	2041306	RETRIEVAL_ORIENT	n/a	n/a	n/a	n/a	-999	12	[0, 0, 0]	n/a	catFR1	2	R1266J
1382.112	2.023	2041824	REC_START	n/a	n/a	n/a	n/a	-999	12	[0, 0, 0]	n/a	catFR1	2	R1266J
1384.135	1.576	2043847	REC_WORD_VV	2.023	n/a	<>	n/a	-999	12	[0, 0, 0]	n/a	catFR1	2	R1266J
1385.711	7.687	2045423	REC_WORD_VV	3.599	n/a	<>	n/a	-999	12	[0, 0, 0]	n/a	catFR1	2	R1266J
1393.398	6.86	2053110	REC_WORD_VV	11.286	n/a	<>	n/a	-999	12	[0, 0, 0]	n/a	catFR1	2	R1266J
1400.258	1.0	2059970	REC_WORD_VV	18.146	n/a	<>	n/a	-999	12	[0, 0, 0]	n/a	catFR1	2	R1266J
1401.258	10.864	2060970	REC_WORD_VV	19.146	n/a	<>	n/a	-999	12	[0, 0, 0]	n/a	catFR1	2	R1266J
1412.122	4.843	2071834	REC_END	n/a	n/a	n/a	n/a	-999	12	[0, 0, 0]	n/a	catFR1	2	R1266J
1416.965	0.5	2076677	TRIAL	n/a	n/a	n/a	n/a	-999	13	[0, 0, 0]	n/a	catFR1	2	R1266J
1417.465	10.428	2077177	COUNTDOWN_START	n/a	n/a	n/a	n/a	-999	13	[0, 0, 0]	n/a	catFR1	2	R1266J
1427.893	0.007	2087605	COUNTDOWN_END	n/a	n/a	n/a	n/a	-999	13	[0, 0, 0]	n/a	catFR1	2	R1266J
1427.9	1.617	2087612	ORIENT	n/a	n/a	n/a	n/a	-999	13	[0, 0, 0]	n/a	catFR1	2	R1266J
1429.517	2.1	2089229	ORIENT_OFF	n/a	n/a	n/a	n/a	-999	13	[0, 0, 0]	n/a	catFR1	2	R1266J
1431.617	1.618	2091329	WORD	n/a	wordpools/wordpool_categorized_EN.txt	CEDAR	Trees	1	13	[0, 0, 0]	n/a	catFR1	2	R1266J
1433.235	0.984	2092947	WORD_OFF	n/a	n/a	CEDAR	n/a	1	13	[0, 0, 0]	n/a	catFR1	2	R1266J
1434.219	1.616	2093931	WORD	n/a	wordpools/wordpool_categorized_EN.txt	EVERGREEN	Trees	2	13	[0, 0, 0]	n/a	catFR1	2	R1266J
1435.835	0.783	2095547	WORD_OFF	n/a	n/a	EVERGREEN	n/a	2	13	[0, 0, 0]	n/a	catFR1	2	R1266J
1436.618	1.618	2096330	WORD	n/a	wordpools/wordpool_categorized_EN.txt	FOREST	Landscapes	3	13	[0, 0, 0]	n/a	catFR1	2	R1266J
1438.236	1.0	2097948	WORD_OFF	n/a	n/a	FOREST	n/a	3	13	[0, 0, 0]	n/a	catFR1	2	R1266J
1439.236	1.616	2098948	WORD	n/a	wordpools/wordpool_categorized_EN.txt	ISLAND	Landscapes	4	13	[0, 0, 0]	n/a	catFR1	2	R1266J
1440.852	0.783	2100564	WORD_OFF	n/a	n/a	ISLAND	n/a	4	13	[0, 0, 0]	n/a	catFR1	2	R1266J
1441.635	1.601	2101347	WORD	n/a	wordpools/wordpool_categorized_EN.txt	PLANE	Vehicles	5	13	[0, 0, 0]	n/a	catFR1	2	R1266J
1443.236	0.968	2102948	WORD_OFF	n/a	n/a	PLANE	n/a	5	13	[0, 0, 0]	n/a	catFR1	2	R1266J
1444.204	1.615	2103916	WORD	n/a	wordpools/wordpool_categorized_EN.txt	JEEP	Vehicles	6	13	[0, 0, 0]	n/a	catFR1	2	R1266J
1445.819	1.001	2105531	WORD_OFF	n/a	n/a	JEEP	n/a	6	13	[0, 0, 0]	n/a	catFR1	2	R1266J
1446.82	1.616	2106532	WORD	n/a	wordpools/wordpool_categorized_EN.txt	CYPRESS	Trees	7	13	[0, 0, 0]	n/a	catFR1	2	R1266J
1448.436	0.785	2108148	WORD_OFF	n/a	n/a	CYPRESS	n/a	7	13	[0, 0, 0]	n/a	catFR1	2	R1266J
1449.221	1.616	2108933	WORD	n/a	wordpools/wordpool_categorized_EN.txt	MAPLE	Trees	8	13	[0, 0, 0]	n/a	catFR1	2	R1266J
1450.837	0.766	2110549	WORD_OFF	n/a	n/a	MAPLE	n/a	8	13	[0, 0, 0]	n/a	catFR1	2	R1266J
1451.603	1.601	2111315	WORD	n/a	wordpools/wordpool_categorized_EN.txt	VALLEY	Landscapes	9	13	[0, 0, 0]	n/a	catFR1	2	R1266J
1453.204	0.983	2112916	WORD_OFF	n/a	n/a	VALLEY	n/a	9	13	[0, 0, 0]	n/a	catFR1	2	R1266J
1454.187	1.617	2113899	WORD	n/a	wordpools/wordpool_categorized_EN.txt	MOUNTAIN	Landscapes	10	13	[0, 0, 0]	n/a	catFR1	2	R1266J
1455.804	0.784	2115516	WORD_OFF	n/a	n/a	MOUNTAIN	n/a	10	13	[0, 0, 0]	n/a	catFR1	2	R1266J
1456.588	1.617	2116300	WORD	n/a	wordpools/wordpool_categorized_EN.txt	SCOOTER	Vehicles	11	13	[0, 0, 0]	n/a	catFR1	2	R1266J
1458.205	0.966	2117917	WORD_OFF	n/a	n/a	SCOOTER	n/a	11	13	[0, 0, 0]	n/a	catFR1	2	R1266J
1459.171	1.617	2118883	WORD	n/a	wordpools/wordpool_categorized_EN.txt	BIKE	Vehicles	12	13	[0, 0, 0]	n/a	catFR1	2	R1266J
1460.788	0.0	2120500	ENCODING_END	n/a	n/a	n/a	n/a	-999	13	[0, 0, 0]	n/a	catFR1	2	R1266J
1460.788	0.101	2120500	WORD_OFF	n/a	n/a	BIKE	n/a	12	13	[0, 0, 0]	n/a	catFR1	2	R1266J
1460.889	0.0	2120601	DISTRACT_START	n/a	n/a	n/a	n/a	-999	13	[0, 0, 0]	n/a	catFR1	2	R1266J
1460.889	0.015	2120601	START	n/a	n/a	n/a	n/a	-999	14	[-999, -999, -999]	n/a	catFR1	2	R1266J
1460.904	3.067	2120616	PROB	3.031	n/a	n/a	n/a	-999	14	[3, 3, 6]	12.0	catFR1	2	R1266J
1463.971	2.068	2123683	PROB	2.044	n/a	n/a	n/a	-999	14	[1, 1, 7]	9.0	catFR1	2	R1266J
1466.039	7.434	2125751	PROB	7.401	n/a	n/a	n/a	-999	14	[9, 2, 9]	20.0	catFR1	2	R1266J
1473.473	4.835	2133185	PROB	4.799	n/a	n/a	n/a	-999	14	[7, 2, 4]	13.0	catFR1	2	R1266J
1478.308	11.218	2138020	PROB	11.218	n/a	n/a	n/a	-999	14	[7, 7, 9]	23.0	catFR1	2	R1266J
1489.526	0.016	2149238	STOP	n/a	n/a	n/a	n/a	-999	14	[-999, -999, -999]	n/a	catFR1	2	R1266J
1489.542	0.533	2149254	DISTRACT_END	n/a	n/a	n/a	n/a	-999	13	[0, 0, 0]	n/a	catFR1	2	R1266J
1490.075	0.517	2149787	RETRIEVAL_ORIENT	n/a	n/a	n/a	n/a	-999	13	[0, 0, 0]	n/a	catFR1	2	R1266J
1490.592	2.187	2150304	REC_START	n/a	n/a	n/a	n/a	-999	13	[0, 0, 0]	n/a	catFR1	2	R1266J
1492.779	1.129	2152491	REC_WORD	2.187	n/a	CEDAR	Trees	1	13	[0, 0, 0]	n/a	catFR1	2	R1266J
1493.908	3.342	2153620	REC_WORD	3.316	n/a	FOREST	Landscapes	3	13	[0, 0, 0]	n/a	catFR1	2	R1266J
1497.25	6.681	2156962	REC_WORD	6.658	n/a	PLANE	Vehicles	5	13	[0, 0, 0]	n/a	catFR1	2	R1266J
1503.931	1.419	2163643	REC_WORD	13.339	n/a	REDWOOD	n/a	-999	13	[0, 0, 0]	n/a	catFR1	2	R1266J
1505.35	2.973	2165062	REC_WORD_VV	14.758	n/a	<>	n/a	-999	13	[0, 0, 0]	n/a	catFR1	2	R1266J
1508.323	12.279	2168035	REC_WORD_VV	17.731	n/a	<>	n/a	-999	13	[0, 0, 0]	n/a	catFR1	2	R1266J
1520.602	4.244	2180314	REC_END	n/a	n/a	n/a	n/a	-999	13	[0, 0, 0]	n/a	catFR1	2	R1266J
1524.846	0.5	2184558	TRIAL	n/a	n/a	n/a	n/a	-999	14	[0, 0, 0]	n/a	catFR1	2	R1266J
1525.346	10.428	2185058	COUNTDOWN_START	n/a	n/a	n/a	n/a	-999	14	[0, 0, 0]	n/a	catFR1	2	R1266J
1535.774	0.007	2195486	COUNTDOWN_END	n/a	n/a	n/a	n/a	-999	14	[0, 0, 0]	n/a	catFR1	2	R1266J
1535.781	1.616	2195493	ORIENT	n/a	n/a	n/a	n/a	-999	14	[0, 0, 0]	n/a	catFR1	2	R1266J
1537.397	2.034	2197109	ORIENT_OFF	n/a	n/a	n/a	n/a	-999	14	[0, 0, 0]	n/a	catFR1	2	R1266J
1539.431	1.617	2199143	WORD	n/a	wordpools/wordpool_categorized_EN.txt	RATCHET	Tools	1	14	[0, 0, 0]	n/a	catFR1	2	R1266J
1541.048	0.917	2200760	WORD_OFF	n/a	n/a	RATCHET	n/a	1	14	[0, 0, 0]	n/a	catFR1	2	R1266J
1541.965	1.617	2201677	WORD	n/a	wordpools/wordpool_categorized_EN.txt	WRENCH	Tools	2	14	[0, 0, 0]	n/a	catFR1	2	R1266J
1543.582	0.883	2203294	WORD_OFF	n/a	n/a	WRENCH	n/a	2	14	[0, 0, 0]	n/a	catFR1	2	R1266J
1544.465	1.617	2204177	WORD	n/a	wordpools/wordpool_categorized_EN.txt	BINDER	OfficeSupplies	3	14	[0, 0, 0]	n/a	catFR1	2	R1266J
1546.082	0.983	2205794	WORD_OFF	n/a	n/a	BINDER	n/a	3	14	[0, 0, 0]	n/a	catFR1	2	R1266J
1547.065	1.617	2206777	WORD	n/a	wordpools/wordpool_categorized_EN.txt	NOTEBOOK	OfficeSupplies	4	14	[0, 0, 0]	n/a	catFR1	2	R1266J
1548.682	0.85	2208394	WORD_OFF	n/a	n/a	NOTEBOOK	n/a	4	14	[0, 0, 0]	n/a	catFR1	2	R1266J
1549.532	1.617	2209244	WORD	n/a	wordpools/wordpool_categorized_EN.txt	HORSE	FarmAnimals	5	14	[0, 0, 0]	n/a	catFR1	2	R1266J
1551.149	0.934	2210861	WORD_OFF	n/a	n/a	HORSE	n/a	5	14	[0, 0, 0]	n/a	catFR1	2	R1266J
1552.083	1.617	2211795	WORD	n/a	wordpools/wordpool_categorized_EN.txt	HEN	FarmAnimals	6	14	[0, 0, 0]	n/a	catFR1	2	R1266J
1553.7	0.8	2213412	WORD_OFF	n/a	n/a	HEN	n/a	6	14	[0, 0, 0]	n/a	catFR1	2	R1266J
1554.5	1.617	2214212	WORD	n/a	wordpools/wordpool_categorized_EN.txt	HAMMER	Tools	7	14	[0, 0, 0]	n/a	catFR1	2	R1266J
1556.117	0.916	2215829	WORD_OFF	n/a	n/a	HAMMER	n/a	7	14	[0, 0, 0]	n/a	catFR1	2	R1266J
1557.033	1.617	2216745	WORD	n/a	wordpools/wordpool_categorized_EN.txt	DRILL	Tools	8	14	[0, 0, 0]	n/a	catFR1	2	R1266J
1558.65	0.784	2218362	WORD_OFF	n/a	n/a	DRILL	n/a	8	14	[0, 0, 0]	n/a	catFR1	2	R1266J
1559.434	1.617	2219146	WORD	n/a	wordpools/wordpool_categorized_EN.txt	PENCIL	OfficeSupplies	9	14	[0, 0, 0]	n/a	catFR1	2	R1266J
1561.051	0.916	2220763	WORD_OFF	n/a	n/a	PENCIL	n/a	9	14	[0, 0, 0]	n/a	catFR1	2	R1266J
1561.967	1.617	2221679	WORD	n/a	wordpools/wordpool_categorized_EN.txt	MARKER	OfficeSupplies	10	14	[0, 0, 0]	n/a	catFR1	2	R1266J
1563.584	0.917	2223296	WORD_OFF	n/a	n/a	MARKER	n/a	10	14	[0, 0, 0]	n/a	catFR1	2	R1266J
1564.501	1.617	2224213	WORD	n/a	wordpools/wordpool_categorized_EN.txt	GOAT	FarmAnimals	11	14	[0, 0, 0]	n/a	catFR1	2	R1266J
1566.118	0.9	2225830	WORD_OFF	n/a	n/a	GOAT	n/a	11	14	[0, 0, 0]	n/a	catFR1	2	R1266J
1567.018	1.617	2226730	WORD	n/a	wordpools/wordpool_categorized_EN.txt	CALF	FarmAnimals	12	14	[0, 0, 0]	n/a	catFR1	2	R1266J
1568.635	0.0	2228347	ENCODING_END	n/a	n/a	n/a	n/a	-999	14	[0, 0, 0]	n/a	catFR1	2	R1266J
1568.635	0.099	2228347	WORD_OFF	n/a	n/a	CALF	n/a	12	14	[0, 0, 0]	n/a	catFR1	2	R1266J
1568.734	0.0	2228446	DISTRACT_START	n/a	n/a	n/a	n/a	-999	14	[0, 0, 0]	n/a	catFR1	2	R1266J
1568.734	0.018	2228446	START	n/a	n/a	n/a	n/a	-999	15	[-999, -999, -999]	n/a	catFR1	2	R1266J
1568.752	4.367	2228464	PROB	4.34	n/a	n/a	n/a	-999	15	[9, 2, 1]	12.0	catFR1	2	R1266J
1573.119	3.717	2232831	PROB	3.684	n/a	n/a	n/a	-999	15	[3, 2, 6]	11.0	catFR1	2	R1266J
1576.836	6.568	2236548	PROB	6.543	n/a	n/a	n/a	-999	15	[6, 9, 9]	24.0	catFR1	2	R1266J
1583.404	4.333	2243116	PROB	4.303	n/a	n/a	n/a	-999	15	[2, 2, 9]	13.0	catFR1	2	R1266J
1587.737	2.145	2247449	PROB	2.145	n/a	n/a	n/a	-999	15	[1, 1, 1]	3.0	catFR1	2	R1266J
1589.882	0.006	2249594	STOP	n/a	n/a	n/a	n/a	-999	15	[-999, -999, -999]	n/a	catFR1	2	R1266J
1589.888	0.583	2249600	DISTRACT_END	n/a	n/a	n/a	n/a	-999	14	[0, 0, 0]	n/a	catFR1	2	R1266J
1590.471	0.517	2250183	RETRIEVAL_ORIENT	n/a	n/a	n/a	n/a	-999	14	[0, 0, 0]	n/a	catFR1	2	R1266J
1590.988	30.0	2250700	REC_START	n/a	n/a	n/a	n/a	-999	14	[0, 0, 0]	n/a	catFR1	2	R1266J
1620.988	0.012	2280700	REC_WORD_VV	30.0	n/a	<>	n/a	-999	14	[0, 0, 0]	n/a	catFR1	2	R1266J
1621.0	5.959	2280712	REC_END	n/a	n/a	n/a	n/a	-999	14	[0, 0, 0]	n/a	catFR1	2	R1266J
1626.959	0.5	2286671	TRIAL	n/a	n/a	n/a	n/a	-999	15	[0, 0, 0]	n/a	catFR1	2	R1266J
1627.459	10.428	2287171	COUNTDOWN_START	n/a	n/a	n/a	n/a	-999	15	[0, 0, 0]	n/a	catFR1	2	R1266J
1637.887	0.007	2297599	COUNTDOWN_END	n/a	n/a	n/a	n/a	-999	15	[0, 0, 0]	n/a	catFR1	2	R1266J
1637.894	1.617	2297606	ORIENT	n/a	n/a	n/a	n/a	-999	15	[0, 0, 0]	n/a	catFR1	2	R1266J
1639.511	2.3	2299223	ORIENT_OFF	n/a	n/a	n/a	n/a	-999	15	[0, 0, 0]	n/a	catFR1	2	R1266J
1641.811	1.617	2301523	WORD	n/a	wordpools/wordpool_categorized_EN.txt	FOG	Weather	1	15	[0, 0, 0]	n/a	catFR1	2	R1266J
1643.428	0.784	2303140	WORD_OFF	n/a	n/a	FOG	n/a	1	15	[0, 0, 0]	n/a	catFR1	2	R1266J
1644.212	1.616	2303924	WORD	n/a	wordpools/wordpool_categorized_EN.txt	DRIZZLE	Weather	2	15	[0, 0, 0]	n/a	catFR1	2	R1266J
1645.828	0.984	2305540	WORD_OFF	n/a	n/a	DRIZZLE	n/a	2	15	[0, 0, 0]	n/a	catFR1	2	R1266J
1646.812	1.616	2306524	WORD	n/a	wordpools/wordpool_categorized_EN.txt	FINGERS	BodyParts	3	15	[0, 0, 0]	n/a	catFR1	2	R1266J
1648.428	1.001	2308140	WORD_OFF	n/a	n/a	FINGERS	n/a	3	15	[0, 0, 0]	n/a	catFR1	2	R1266J
1649.429	1.617	2309141	WORD	n/a	wordpools/wordpool_categorized_EN.txt	FOOT	BodyParts	4	15	[0, 0, 0]	n/a	catFR1	2	R1266J
1651.046	0.85	2310758	WORD_OFF	n/a	n/a	FOOT	n/a	4	15	[0, 0, 0]	n/a	catFR1	2	R1266J
1651.896	1.617	2311608	WORD	n/a	wordpools/wordpool_categorized_EN.txt	SPARROW	Birds	5	15	[0, 0, 0]	n/a	catFR1	2	R1266J
1653.513	0.883	2313225	WORD_OFF	n/a	n/a	SPARROW	n/a	5	15	[0, 0, 0]	n/a	catFR1	2	R1266J
1654.396	1.617	2314108	WORD	n/a	wordpools/wordpool_categorized_EN.txt	HAWK	Birds	6	15	[0, 0, 0]	n/a	catFR1	2	R1266J
1656.013	0.9	2315725	WORD_OFF	n/a	n/a	HAWK	n/a	6	15	[0, 0, 0]	n/a	catFR1	2	R1266J
1656.913	1.617	2316625	WORD	n/a	wordpools/wordpool_categorized_EN.txt	KNEE	BodyParts	7	15	[0, 0, 0]	n/a	catFR1	2	R1266J
1658.53	0.784	2318242	WORD_OFF	n/a	n/a	KNEE	n/a	7	15	[0, 0, 0]	n/a	catFR1	2	R1266J
1659.314	1.616	2319026	WORD	n/a	wordpools/wordpool_categorized_EN.txt	EAR	BodyParts	8	15	[0, 0, 0]	n/a	catFR1	2	R1266J
1660.93	0.9	2320642	WORD_OFF	n/a	n/a	EAR	n/a	8	15	[0, 0, 0]	n/a	catFR1	2	R1266J
1661.83	1.617	2321542	WORD	n/a	wordpools/wordpool_categorized_EN.txt	THUNDERSTORM	Weather	9	15	[0, 0, 0]	n/a	catFR1	2	R1266J
1663.447	0.934	2323159	WORD_OFF	n/a	n/a	THUNDERSTORM	n/a	9	15	[0, 0, 0]	n/a	catFR1	2	R1266J
1664.381	1.617	2324093	WORD	n/a	wordpools/wordpool_categorized_EN.txt	CLOUD	Weather	10	15	[0, 0, 0]	n/a	catFR1	2	R1266J
1665.998	0.916	2325710	WORD_OFF	n/a	n/a	CLOUD	n/a	10	15	[0, 0, 0]	n/a	catFR1	2	R1266J
1666.914	1.617	2326626	WORD	n/a	wordpools/wordpool_categorized_EN.txt	DUCK	Birds	11	15	[0, 0, 0]	n/a	catFR1	2	R1266J
1668.531	0.9	2328243	WORD_OFF	n/a	n/a	DUCK	n/a	11	15	[0, 0, 0]	n/a	catFR1	2	R1266J
1669.431	1.617	2329143	WORD	n/a	wordpools/wordpool_categorized_EN.txt	ROBIN	Birds	12	15	[0, 0, 0]	n/a	catFR1	2	R1266J
1671.048	0.0	2330760	ENCODING_END	n/a	n/a	n/a	n/a	-999	15	[0, 0, 0]	n/a	catFR1	2	R1266J
1671.048	0.135	2330760	WORD_OFF	n/a	n/a	ROBIN	n/a	12	15	[0, 0, 0]	n/a	catFR1	2	R1266J
1671.183	0.0	2330895	DISTRACT_START	n/a	n/a	n/a	n/a	-999	15	[0, 0, 0]	n/a	catFR1	2	R1266J
1671.183	0.015	2330895	START	n/a	n/a	n/a	n/a	-999	16	[-999, -999, -999]	n/a	catFR1	2	R1266J
1671.198	5.801	2330910	PROB	5.777	n/a	n/a	n/a	-999	16	[9, 9, 3]	21.0	catFR1	2	R1266J
1676.999	9.385	2336711	PROB	9.36	n/a	n/a	n/a	-999	16	[9, 2, 7]	18.0	catFR1	2	R1266J
1686.384	3.266	2346096	PROB	3.23	n/a	n/a	n/a	-999	16	[3, 2, 6]	11.0	catFR1	2	R1266J
1689.65	4.613	2349362	PROB	4.613	n/a	n/a	n/a	-999	16	[8, 5, 1]	14.0	catFR1	2	R1266J
1694.263	0.006	2353975	STOP	n/a	n/a	n/a	n/a	-999	16	[-999, -999, -999]	n/a	catFR1	2	R1266J
1694.269	0.682	2353981	DISTRACT_END	n/a	n/a	n/a	n/a	-999	15	[0, 0, 0]	n/a	catFR1	2	R1266J
1694.951	0.518	2354663	RETRIEVAL_ORIENT	n/a	n/a	n/a	n/a	-999	15	[0, 0, 0]	n/a	catFR1	2	R1266J
1695.469	6.514	2355181	REC_START	n/a	n/a	n/a	n/a	-999	15	[0, 0, 0]	n/a	catFR1	2	R1266J
1701.983	1.0	2361695	REC_WORD_VV	6.514	n/a	<>	n/a	-999	15	[0, 0, 0]	n/a	catFR1	2	R1266J
1702.983	3.166	2362695	REC_WORD_VV	7.514	n/a	<>	n/a	-999	15	[0, 0, 0]	n/a	catFR1	2	R1266J
1706.149	1.0	2365861	REC_WORD_VV	10.68	n/a	<>	n/a	-999	15	[0, 0, 0]	n/a	catFR1	2	R1266J
1707.149	2.086	2366861	REC_WORD_VV	11.68	n/a	<>	n/a	-999	15	[0, 0, 0]	n/a	catFR1	2	R1266J
1709.235	2.297	2368947	REC_WORD_VV	13.766	n/a	<>	n/a	-999	15	[0, 0, 0]	n/a	catFR1	2	R1266J
1711.532	3.51	2371244	REC_WORD_VV	16.063	n/a	<>	n/a	-999	15	[0, 0, 0]	n/a	catFR1	2	R1266J
1715.042	10.437	2374754	REC_WORD_VV	19.573	n/a	<>	n/a	-999	15	[0, 0, 0]	n/a	catFR1	2	R1266J
1725.479	5.778	2385191	REC_END	n/a	n/a	n/a	n/a	-999	15	[0, 0, 0]	n/a	catFR1	2	R1266J
1731.257	0.5	2390969	TRIAL	n/a	n/a	n/a	n/a	-999	16	[0, 0, 0]	n/a	catFR1	2	R1266J
1731.757	10.428	2391469	COUNTDOWN_START	n/a	n/a	n/a	n/a	-999	16	[0, 0, 0]	n/a	catFR1	2	R1266J
1742.185	0.006	2401897	COUNTDOWN_END	n/a	n/a	n/a	n/a	-999	16	[0, 0, 0]	n/a	catFR1	2	R1266J
1742.191	1.617	2401903	ORIENT	n/a	n/a	n/a	n/a	-999	16	[0, 0, 0]	n/a	catFR1	2	R1266J
1743.808	2.35	2403520	ORIENT_OFF	n/a	n/a	n/a	n/a	-999	16	[0, 0, 0]	n/a	catFR1	2	R1266J
1746.158	1.616	2405870	WORD	n/a	wordpools/wordpool_categorized_EN.txt	PHONE	Electronics	1	16	[0, 0, 0]	n/a	catFR1	2	R1266J
1747.774	0.951	2407486	WORD_OFF	n/a	n/a	PHONE	n/a	1	16	[0, 0, 0]	n/a	catFR1	2	R1266J
1748.725	1.617	2408437	WORD	n/a	wordpools/wordpool_categorized_EN.txt	COMPUTER	Electronics	2	16	[0, 0, 0]	n/a	catFR1	2	R1266J
1750.342	0.901	2410054	WORD_OFF	n/a	n/a	COMPUTER	n/a	2	16	[0, 0, 0]	n/a	catFR1	2	R1266J
1751.243	1.616	2410955	WORD	n/a	wordpools/wordpool_categorized_EN.txt	CHIMPANZEE	Zoo	3	16	[0, 0, 0]	n/a	catFR1	2	R1266J
1752.859	0.85	2412571	WORD_OFF	n/a	n/a	CHIMPANZEE	n/a	3	16	[0, 0, 0]	n/a	catFR1	2	R1266J
1753.709	1.617	2413421	WORD	n/a	wordpools/wordpool_categorized_EN.txt	MONKEY	Zoo	4	16	[0, 0, 0]	n/a	catFR1	2	R1266J
1755.326	0.817	2415038	WORD_OFF	n/a	n/a	MONKEY	n/a	4	16	[0, 0, 0]	n/a	catFR1	2	R1266J
1756.143	1.616	2415855	WORD	n/a	wordpools/wordpool_categorized_EN.txt	CAKE	Desserts	5	16	[0, 0, 0]	n/a	catFR1	2	R1266J
1757.759	0.867	2417471	WORD_OFF	n/a	n/a	CAKE	n/a	5	16	[0, 0, 0]	n/a	catFR1	2	R1266J
1758.626	1.618	2418338	WORD	n/a	wordpools/wordpool_categorized_EN.txt	COBBLER	Desserts	6	16	[0, 0, 0]	n/a	catFR1	2	R1266J
1760.244	0.816	2419956	WORD_OFF	n/a	n/a	COBBLER	n/a	6	16	[0, 0, 0]	n/a	catFR1	2	R1266J
1761.06	1.617	2420772	WORD	n/a	wordpools/wordpool_categorized_EN.txt	SCANNER	Electronics	7	16	[0, 0, 0]	n/a	catFR1	2	R1266J
1762.677	1.0	2422389	WORD_OFF	n/a	n/a	SCANNER	n/a	7	16	[0, 0, 0]	n/a	catFR1	2	R1266J
1763.677	1.618	2423389	WORD	n/a	wordpools/wordpool_categorized_EN.txt	PRINTER	Electronics	8	16	[0, 0, 0]	n/a	catFR1	2	R1266J
1765.295	0.815	2425007	WORD_OFF	n/a	n/a	PRINTER	n/a	8	16	[0, 0, 0]	n/a	catFR1	2	R1266J
1766.11	1.617	2425822	WORD	n/a	wordpools/wordpool_categorized_EN.txt	ZEBRA	Zoo	9	16	[0, 0, 0]	n/a	catFR1	2	R1266J
1767.727	0.984	2427439	WORD_OFF	n/a	n/a	ZEBRA	n/a	9	16	[0, 0, 0]	n/a	catFR1	2	R1266J
1768.711	1.616	2428423	WORD	n/a	wordpools/wordpool_categorized_EN.txt	PANDA	Zoo	10	16	[0, 0, 0]	n/a	catFR1	2	R1266J
1770.327	0.902	2430039	WORD_OFF	n/a	n/a	PANDA	n/a	10	16	[0, 0, 0]	n/a	catFR1	2	R1266J
1771.229	1.616	2430941	WORD	n/a	wordpools/wordpool_categorized_EN.txt	FUDGE	Desserts	11	16	[0, 0, 0]	n/a	catFR1	2	R1266J
1772.845	0.833	2432557	WORD_OFF	n/a	n/a	FUDGE	n/a	11	16	[0, 0, 0]	n/a	catFR1	2	R1266J
1773.678	1.618	2433390	WORD	n/a	wordpools/wordpool_categorized_EN.txt	JELLO	Desserts	12	16	[0, 0, 0]	n/a	catFR1	2	R1266J
1775.296	0.0	2435008	ENCODING_END	n/a	n/a	n/a	n/a	-999	16	[0, 0, 0]	n/a	catFR1	2	R1266J
1775.296	0.1	2435008	WORD_OFF	n/a	n/a	JELLO	n/a	12	16	[0, 0, 0]	n/a	catFR1	2	R1266J
1775.396	0.001	2435108	DISTRACT_START	n/a	n/a	n/a	n/a	-999	16	[0, 0, 0]	n/a	catFR1	2	R1266J
1775.397	0.015	2435109	START	n/a	n/a	n/a	n/a	-999	17	[-999, -999, -999]	n/a	catFR1	2	R1266J
1775.412	6.25	2435124	PROB	6.214	n/a	n/a	n/a	-999	17	[7, 9, 2]	18.0	catFR1	2	R1266J
1781.662	2.834	2441374	PROB	2.805	n/a	n/a	n/a	-999	17	[4, 6, 2]	12.0	catFR1	2	R1266J
1784.496	4.718	2444208	PROB	4.69	n/a	n/a	n/a	-999	17	[4, 6, 5]	15.0	catFR1	2	R1266J
1789.214	5.433	2448926	PROB	5.405	n/a	n/a	n/a	-999	17	[3, 4, 9]	16.0	catFR1	2	R1266J
1794.647	4.676	2454359	PROB	4.676	n/a	n/a	n/a	-999	17	[2, 9, 7]	18.0	catFR1	2	R1266J
1799.323	0.009	2459035	STOP	n/a	n/a	n/a	n/a	-999	17	[-999, -999, -999]	n/a	catFR1	2	R1266J
1799.332	0.549	2459044	DISTRACT_END	n/a	n/a	n/a	n/a	-999	16	[0, 0, 0]	n/a	catFR1	2	R1266J
1799.881	0.518	2459593	RETRIEVAL_ORIENT	n/a	n/a	n/a	n/a	-999	16	[0, 0, 0]	n/a	catFR1	2	R1266J
1800.399	2.907	2460111	REC_START	n/a	n/a	n/a	n/a	-999	16	[0, 0, 0]	n/a	catFR1	2	R1266J
1803.306	4.932	2463018	REC_WORD	2.907	n/a	CAKE	Desserts	5	16	[0, 0, 0]	n/a	catFR1	2	R1266J
1808.238	5.244	2467950	REC_WORD	7.839	n/a	CHIMPANZEE	Zoo	3	16	[0, 0, 0]	n/a	catFR1	2	R1266J
1813.482	16.925	2473194	REC_WORD	13.083	n/a	FOOT	n/a	-999	16	[0, 0, 0]	n/a	catFR1	2	R1266J
1830.407	4.162	2490119	REC_END	n/a	n/a	n/a	n/a	-999	16	[0, 0, 0]	n/a	catFR1	2	R1266J
1834.569	0.5	2494281	TRIAL	n/a	n/a	n/a	n/a	-999	17	[0, 0, 0]	n/a	catFR1	2	R1266J
1835.069	10.428	2494781	COUNTDOWN_START	n/a	n/a	n/a	n/a	-999	17	[0, 0, 0]	n/a	catFR1	2	R1266J
1845.497	0.007	2505209	COUNTDOWN_END	n/a	n/a	n/a	n/a	-999	17	[0, 0, 0]	n/a	catFR1	2	R1266J
1845.504	1.616	2505216	ORIENT	n/a	n/a	n/a	n/a	-999	17	[0, 0, 0]	n/a	catFR1	2	R1266J
1847.12	2.068	2506832	ORIENT_OFF	n/a	n/a	n/a	n/a	-999	17	[0, 0, 0]	n/a	catFR1	2	R1266J
1849.188	1.616	2508900	WORD	n/a	wordpools/wordpool_categorized_EN.txt	DESK	Furniture	1	17	[0, 0, 0]	n/a	catFR1	2	R1266J
1850.804	0.801	2510516	WORD_OFF	n/a	n/a	DESK	n/a	1	17	[0, 0, 0]	n/a	catFR1	2	R1266J
1851.605	1.618	2511317	WORD	n/a	wordpools/wordpool_categorized_EN.txt	BOOKCASE	Furniture	2	17	[0, 0, 0]	n/a	catFR1	2	R1266J
1853.223	0.932	2512935	WORD_OFF	n/a	n/a	BOOKCASE	n/a	2	17	[0, 0, 0]	n/a	catFR1	2	R1266J
1854.155	1.617	2513867	WORD	n/a	wordpools/wordpool_categorized_EN.txt	TROMBONE	Instruments	3	17	[0, 0, 0]	n/a	catFR1	2	R1266J
1855.772	0.833	2515484	WORD_OFF	n/a	n/a	TROMBONE	n/a	3	17	[0, 0, 0]	n/a	catFR1	2	R1266J
1856.605	1.618	2516317	WORD	n/a	wordpools/wordpool_categorized_EN.txt	CELLO	Instruments	4	17	[0, 0, 0]	n/a	catFR1	2	R1266J
1858.223	0.816	2517935	WORD_OFF	n/a	n/a	CELLO	n/a	4	17	[0, 0, 0]	n/a	catFR1	2	R1266J
1859.039	1.617	2518751	WORD	n/a	wordpools/wordpool_categorized_EN.txt	PEELER	KitchenTools	5	17	[0, 0, 0]	n/a	catFR1	2	R1266J
1860.656	0.967	2520368	WORD_OFF	n/a	n/a	PEELER	n/a	5	17	[0, 0, 0]	n/a	catFR1	2	R1266J
1861.623	1.617	2521335	WORD	n/a	wordpools/wordpool_categorized_EN.txt	WHISK	KitchenTools	6	17	[0, 0, 0]	n/a	catFR1	2	R1266J
1863.24	0.933	2522952	WORD_OFF	n/a	n/a	WHISK	n/a	6	17	[0, 0, 0]	n/a	catFR1	2	R1266J
1864.173	1.617	2523885	WORD	n/a	wordpools/wordpool_categorized_EN.txt	TABLE	Furniture	7	17	[0, 0, 0]	n/a	catFR1	2	R1266J
1865.79	0.967	2525502	WORD_OFF	n/a	n/a	TABLE	n/a	7	17	[0, 0, 0]	n/a	catFR1	2	R1266J
1866.757	1.616	2526469	WORD	n/a	wordpools/wordpool_categorized_EN.txt	DRESSER	Furniture	8	17	[0, 0, 0]	n/a	catFR1	2	R1266J
1868.373	0.817	2528085	WORD_OFF	n/a	n/a	DRESSER	n/a	8	17	[0, 0, 0]	n/a	catFR1	2	R1266J
1869.19	1.617	2528902	WORD	n/a	wordpools/wordpool_categorized_EN.txt	BANJO	Instruments	9	17	[0, 0, 0]	n/a	catFR1	2	R1266J
1870.807	0.8	2530519	WORD_OFF	n/a	n/a	BANJO	n/a	9	17	[0, 0, 0]	n/a	catFR1	2	R1266J
1871.607	1.618	2531319	WORD	n/a	wordpools/wordpool_categorized_EN.txt	GUITAR	Instruments	10	17	[0, 0, 0]	n/a	catFR1	2	R1266J
1873.225	0.984	2532937	WORD_OFF	n/a	n/a	GUITAR	n/a	10	17	[0, 0, 0]	n/a	catFR1	2	R1266J
1874.209	1.615	2533921	WORD	n/a	wordpools/wordpool_categorized_EN.txt	CORKSCREW	KitchenTools	11	17	[0, 0, 0]	n/a	catFR1	2	R1266J
1875.824	0.867	2535536	WORD_OFF	n/a	n/a	CORKSCREW	n/a	11	17	[0, 0, 0]	n/a	catFR1	2	R1266J
1876.691	1.618	2536403	WORD	n/a	wordpools/wordpool_categorized_EN.txt	TONGS	KitchenTools	12	17	[0, 0, 0]	n/a	catFR1	2	R1266J
1878.309	0.0	2538021	ENCODING_END	n/a	n/a	n/a	n/a	-999	17	[0, 0, 0]	n/a	catFR1	2	R1266J
1878.309	0.099	2538021	WORD_OFF	n/a	n/a	TONGS	n/a	12	17	[0, 0, 0]	n/a	catFR1	2	R1266J
1878.408	0.0	2538120	DISTRACT_START	n/a	n/a	n/a	n/a	-999	17	[0, 0, 0]	n/a	catFR1	2	R1266J
1878.408	0.017	2538120	START	n/a	n/a	n/a	n/a	-999	18	[-999, -999, -999]	n/a	catFR1	2	R1266J
1878.425	8.701	2538137	PROB	8.67	n/a	n/a	n/a	-999	18	[3, 8, 4]	15.0	catFR1	2	R1266J
1887.126	2.8	2546838	PROB	2.776	n/a	n/a	n/a	-999	18	[1, 5, 2]	8.0	catFR1	2	R1266J
1889.926	2.951	2549638	PROB	2.928	n/a	n/a	n/a	-999	18	[6, 1, 6]	13.0	catFR1	2	R1266J
1892.877	7.209	2552589	PROB	7.209	n/a	n/a	n/a	-999	18	[1, 5, 8]	14.0	catFR1	2	R1266J
1900.086	0.008	2559798	STOP	n/a	n/a	n/a	n/a	-999	18	[-999, -999, -999]	n/a	catFR1	2	R1266J
1900.094	0.634	2559806	DISTRACT_END	n/a	n/a	n/a	n/a	-999	17	[0, 0, 0]	n/a	catFR1	2	R1266J
1900.728	0.518	2560440	RETRIEVAL_ORIENT	n/a	n/a	n/a	n/a	-999	17	[0, 0, 0]	n/a	catFR1	2	R1266J
1901.246	1.394	2560958	REC_START	n/a	n/a	n/a	n/a	-999	17	[0, 0, 0]	n/a	catFR1	2	R1266J
1902.64	0.608	2562352	REC_WORD_VV	1.394	n/a	<>	n/a	-999	17	[0, 0, 0]	n/a	catFR1	2	R1266J
1903.248	1.457	2562960	REC_WORD	2.002	n/a	DESK	Furniture	1	17	[0, 0, 0]	n/a	catFR1	2	R1266J
1904.705	2.38	2564417	REC_WORD	3.459	n/a	PHONE	n/a	-999	17	[0, 0, 0]	n/a	catFR1	2	R1266J
1907.085	9.103	2566797	REC_WORD	5.839	n/a	BOOKCASE	Furniture	2	17	[0, 0, 0]	n/a	catFR1	2	R1266J
1916.188	15.07	2575900	REC_WORD	14.942	n/a	CORKSCREW	KitchenTools	11	17	[0, 0, 0]	n/a	catFR1	2	R1266J
1931.258	4.274	2590971	REC_END	n/a	n/a	n/a	n/a	-999	17	[0, 0, 0]	n/a	catFR1	2	R1266J
1935.532	0.5	2595245	TRIAL	n/a	n/a	n/a	n/a	-999	18	[0, 0, 0]	n/a	catFR1	2	R1266J
1936.032	10.428	2595745	COUNTDOWN_START	n/a	n/a	n/a	n/a	-999	18	[0, 0, 0]	n/a	catFR1	2	R1266J
1946.46	0.007	2606173	COUNTDOWN_END	n/a	n/a	n/a	n/a	-999	18	[0, 0, 0]	n/a	catFR1	2	R1266J
1946.467	1.617	2606180	ORIENT	n/a	n/a	n/a	n/a	-999	18	[0, 0, 0]	n/a	catFR1	2	R1266J
1948.084	2.033	2607797	ORIENT_OFF	n/a	n/a	n/a	n/a	-999	18	[0, 0, 0]	n/a	catFR1	2	R1266J
1950.117	1.617	2609830	WORD	n/a	wordpools/wordpool_categorized_EN.txt	LADYBUG	Insects	1	18	[0, 0, 0]	n/a	catFR1	2	R1266J
1951.734	0.95	2611447	WORD_OFF	n/a	n/a	LADYBUG	n/a	1	18	[0, 0, 0]	n/a	catFR1	2	R1266J
1952.684	1.601	2612397	WORD	n/a	wordpools/wordpool_categorized_EN.txt	BEE	Insects	2	18	[0, 0, 0]	n/a	catFR1	2	R1266J
1954.285	0.9	2613998	WORD_OFF	n/a	n/a	BEE	n/a	2	18	[0, 0, 0]	n/a	catFR1	2	R1266J
1955.185	1.617	2614898	WORD	n/a	wordpools/wordpool_categorized_EN.txt	BLENDER	Appliances	3	18	[0, 0, 0]	n/a	catFR1	2	R1266J
1956.802	0.916	2616515	WORD_OFF	n/a	n/a	BLENDER	n/a	3	18	[0, 0, 0]	n/a	catFR1	2	R1266J
1957.718	1.6	2617431	WORD	n/a	wordpools/wordpool_categorized_EN.txt	IRON	Appliances	4	18	[0, 0, 0]	n/a	catFR1	2	R1266J
1959.318	0.784	2619031	WORD_OFF	n/a	n/a	IRON	n/a	4	18	[0, 0, 0]	n/a	catFR1	2	R1266J
1960.102	1.617	2619815	WORD	n/a	wordpools/wordpool_categorized_EN.txt	WHALE	OceanAnimals	5	18	[0, 0, 0]	n/a	catFR1	2	R1266J
1961.719	0.867	2621432	WORD_OFF	n/a	n/a	WHALE	n/a	5	18	[0, 0, 0]	n/a	catFR1	2	R1266J
1962.586	1.618	2622299	WORD	n/a	wordpools/wordpool_categorized_EN.txt	OCTOPUS	OceanAnimals	6	18	[0, 0, 0]	n/a	catFR1	2	R1266J
1964.204	0.982	2623917	WORD_OFF	n/a	n/a	OCTOPUS	n/a	6	18	[0, 0, 0]	n/a	catFR1	2	R1266J
1965.186	1.617	2624899	WORD	n/a	wordpools/wordpool_categorized_EN.txt	FREEZER	Appliances	7	18	[0, 0, 0]	n/a	catFR1	2	R1266J
1966.803	0.883	2626516	WORD_OFF	n/a	n/a	FREEZER	n/a	7	18	[0, 0, 0]	n/a	catFR1	2	R1266J
1967.686	1.618	2627399	WORD	n/a	wordpools/wordpool_categorized_EN.txt	DRYER	Appliances	8	18	[0, 0, 0]	n/a	catFR1	2	R1266J
1969.304	0.766	2629017	WORD_OFF	n/a	n/a	DRYER	n/a	8	18	[0, 0, 0]	n/a	catFR1	2	R1266J
1970.07	1.617	2629783	WORD	n/a	wordpools/wordpool_categorized_EN.txt	ANT	Insects	9	18	[0, 0, 0]	n/a	catFR1	2	R1266J
1971.687	0.783	2631400	WORD_OFF	n/a	n/a	ANT	n/a	9	18	[0, 0, 0]	n/a	catFR1	2	R1266J
1972.47	1.617	2632183	WORD	n/a	wordpools/wordpool_categorized_EN.txt	FLY	Insects	10	18	[0, 0, 0]	n/a	catFR1	2	R1266J
1974.087	0.8	2633800	WORD_OFF	n/a	n/a	FLY	n/a	10	18	[0, 0, 0]	n/a	catFR1	2	R1266J
1974.887	1.617	2634600	WORD	n/a	wordpools/wordpool_categorized_EN.txt	JELLYFISH	OceanAnimals	11	18	[0, 0, 0]	n/a	catFR1	2	R1266J
1976.504	0.883	2636217	WORD_OFF	n/a	n/a	JELLYFISH	n/a	11	18	[0, 0, 0]	n/a	catFR1	2	R1266J
1977.387	1.617	2637100	WORD	n/a	wordpools/wordpool_categorized_EN.txt	CRAB	OceanAnimals	12	18	[0, 0, 0]	n/a	catFR1	2	R1266J
1979.004	0.0	2638717	ENCODING_END	n/a	n/a	n/a	n/a	-999	18	[0, 0, 0]	n/a	catFR1	2	R1266J
1979.004	0.127	2638717	WORD_OFF	n/a	n/a	CRAB	n/a	12	18	[0, 0, 0]	n/a	catFR1	2	R1266J
1979.131	0.0	2638844	DISTRACT_START	n/a	n/a	n/a	n/a	-999	18	[0, 0, 0]	n/a	catFR1	2	R1266J
1979.131	0.006	2638844	START	n/a	n/a	n/a	n/a	-999	19	[-999, -999, -999]	n/a	catFR1	2	R1266J
1979.137	4.785	2638850	PROB	4.761	n/a	n/a	n/a	-999	19	[6, 1, 2]	9.0	catFR1	2	R1266J
1983.922	4.717	2643635	PROB	4.681	n/a	n/a	n/a	-999	19	[4, 8, 5]	17.0	catFR1	2	R1266J
1988.639	2.683	2648352	PROB	2.66	n/a	n/a	n/a	-999	19	[1, 6, 4]	11.0	catFR1	2	R1266J
1991.322	3.118	2651035	PROB	3.079	n/a	n/a	n/a	-999	19	[5, 2, 3]	10.0	catFR1	2	R1266J
1994.44	10.497	2654153	PROB	10.497	n/a	n/a	n/a	-999	19	[8, 6, 6]	20.0	catFR1	2	R1266J
2004.937	0.021	2664650	STOP	n/a	n/a	n/a	n/a	-999	19	[-999, -999, -999]	n/a	catFR1	2	R1266J
2004.958	0.6	2664671	DISTRACT_END	n/a	n/a	n/a	n/a	-999	18	[0, 0, 0]	n/a	catFR1	2	R1266J
2005.558	0.517	2665271	RETRIEVAL_ORIENT	n/a	n/a	n/a	n/a	-999	18	[0, 0, 0]	n/a	catFR1	2	R1266J
2006.075	8.99	2665788	REC_START	n/a	n/a	n/a	n/a	-999	18	[0, 0, 0]	n/a	catFR1	2	R1266J
2015.065	0.558	2674778	REC_WORD_VV	8.99	n/a	<>	n/a	-999	18	[0, 0, 0]	n/a	catFR1	2	R1266J
2015.623	6.078	2675336	REC_WORD	9.548	n/a	LADYBUG	Insects	1	18	[0, 0, 0]	n/a	catFR1	2	R1266J
2021.701	2.079	2681414	REC_WORD	15.626	n/a	IRON	Appliances	4	18	[0, 0, 0]	n/a	catFR1	2	R1266J
2023.78	1.0	2683493	REC_WORD_VV	17.705	n/a	<>	n/a	-999	18	[0, 0, 0]	n/a	catFR1	2	R1266J
2024.78	1.0	2684493	REC_WORD_VV	18.705	n/a	<>	n/a	-999	18	[0, 0, 0]	n/a	catFR1	2	R1266J
2025.78	1.734	2685493	REC_WORD_VV	19.705	n/a	<>	n/a	-999	18	[0, 0, 0]	n/a	catFR1	2	R1266J
2027.514	8.572	2687227	REC_WORD_VV	21.439	n/a	<>	n/a	-999	18	[0, 0, 0]	n/a	catFR1	2	R1266J
2036.086	4.643	2695799	REC_END	n/a	n/a	n/a	n/a	-999	18	[0, 0, 0]	n/a	catFR1	2	R1266J
2040.729	0.5	2700442	TRIAL	n/a	n/a	n/a	n/a	-999	19	[0, 0, 0]	n/a	catFR1	2	R1266J
2041.229	10.428	2700942	COUNTDOWN_START	n/a	n/a	n/a	n/a	-999	19	[0, 0, 0]	n/a	catFR1	2	R1266J
2051.657	0.007	2711370	COUNTDOWN_END	n/a	n/a	n/a	n/a	-999	19	[0, 0, 0]	n/a	catFR1	2	R1266J
2051.664	1.618	2711377	ORIENT	n/a	n/a	n/a	n/a	-999	19	[0, 0, 0]	n/a	catFR1	2	R1266J
2053.282	1.967	2712995	ORIENT_OFF	n/a	n/a	n/a	n/a	-999	19	[0, 0, 0]	n/a	catFR1	2	R1266J
2055.249	1.615	2714962	WORD	n/a	wordpools/wordpool_categorized_EN.txt	CROW	Birds	1	19	[0, 0, 0]	n/a	catFR1	2	R1266J
2056.864	0.767	2716577	WORD_OFF	n/a	n/a	CROW	n/a	1	19	[0, 0, 0]	n/a	catFR1	2	R1266J
2057.631	1.618	2717344	WORD	n/a	wordpools/wordpool_categorized_EN.txt	CARDINAL	Birds	2	19	[0, 0, 0]	n/a	catFR1	2	R1266J
2059.249	0.832	2718962	WORD_OFF	n/a	n/a	CARDINAL	n/a	2	19	[0, 0, 0]	n/a	catFR1	2	R1266J
2060.081	1.617	2719794	WORD	n/a	wordpools/wordpool_categorized_EN.txt	FLOOR	Building	3	19	[0, 0, 0]	n/a	catFR1	2	R1266J
2061.698	0.984	2721411	WORD_OFF	n/a	n/a	FLOOR	n/a	3	19	[0, 0, 0]	n/a	catFR1	2	R1266J
2062.682	1.618	2722395	WORD	n/a	wordpools/wordpool_categorized_EN.txt	DOOR	Building	4	19	[0, 0, 0]	n/a	catFR1	2	R1266J
2064.3	0.832	2724013	WORD_OFF	n/a	n/a	DOOR	n/a	4	19	[0, 0, 0]	n/a	catFR1	2	R1266J
2065.132	1.617	2724845	WORD	n/a	wordpools/wordpool_categorized_EN.txt	DOLPHIN	OceanAnimals	5	19	[0, 0, 0]	n/a	catFR1	2	R1266J
2066.749	0.916	2726462	WORD_OFF	n/a	n/a	DOLPHIN	n/a	5	19	[0, 0, 0]	n/a	catFR1	2	R1266J
2067.665	1.618	2727378	WORD	n/a	wordpools/wordpool_categorized_EN.txt	TURTLE	OceanAnimals	6	19	[0, 0, 0]	n/a	catFR1	2	R1266J
2069.283	1.017	2728996	WORD_OFF	n/a	n/a	TURTLE	n/a	6	19	[0, 0, 0]	n/a	catFR1	2	R1266J
2070.3	1.616	2730013	WORD	n/a	wordpools/wordpool_categorized_EN.txt	ROOM	Building	7	19	[0, 0, 0]	n/a	catFR1	2	R1266J
2071.916	0.9	2731629	WORD_OFF	n/a	n/a	ROOM	n/a	7	19	[0, 0, 0]	n/a	catFR1	2	R1266J
2072.816	1.617	2732529	WORD	n/a	wordpools/wordpool_categorized_EN.txt	ROOF	Building	8	19	[0, 0, 0]	n/a	catFR1	2	R1266J
2074.433	0.768	2734146	WORD_OFF	n/a	n/a	ROOF	n/a	8	19	[0, 0, 0]	n/a	catFR1	2	R1266J
2075.201	1.616	2734914	WORD	n/a	wordpools/wordpool_categorized_EN.txt	DOVE	Birds	9	19	[0, 0, 0]	n/a	catFR1	2	R1266J
2076.817	1.0	2736530	WORD_OFF	n/a	n/a	DOVE	n/a	9	19	[0, 0, 0]	n/a	catFR1	2	R1266J
2077.817	1.617	2737530	WORD	n/a	wordpools/wordpool_categorized_EN.txt	GOOSE	Birds	10	19	[0, 0, 0]	n/a	catFR1	2	R1266J
2079.434	0.884	2739147	WORD_OFF	n/a	n/a	GOOSE	n/a	10	19	[0, 0, 0]	n/a	catFR1	2	R1266J
2080.318	1.616	2740031	WORD	n/a	wordpools/wordpool_categorized_EN.txt	OYSTER	OceanAnimals	11	19	[0, 0, 0]	n/a	catFR1	2	R1266J
2081.934	0.984	2741647	WORD_OFF	n/a	n/a	OYSTER	n/a	11	19	[0, 0, 0]	n/a	catFR1	2	R1266J
2082.918	1.617	2742631	WORD	n/a	wordpools/wordpool_categorized_EN.txt	LOBSTER	OceanAnimals	12	19	[0, 0, 0]	n/a	catFR1	2	R1266J
2084.535	0.0	2744248	ENCODING_END	n/a	n/a	n/a	n/a	-999	19	[0, 0, 0]	n/a	catFR1	2	R1266J
2084.535	0.098	2744248	WORD_OFF	n/a	n/a	LOBSTER	n/a	12	19	[0, 0, 0]	n/a	catFR1	2	R1266J
2084.633	0.001	2744346	DISTRACT_START	n/a	n/a	n/a	n/a	-999	19	[0, 0, 0]	n/a	catFR1	2	R1266J
2084.634	0.017	2744347	START	n/a	n/a	n/a	n/a	-999	20	[-999, -999, -999]	n/a	catFR1	2	R1266J
2084.651	8.168	2744364	PROB	8.13	n/a	n/a	n/a	-999	20	[8, 7, 8]	23.0	catFR1	2	R1266J
2092.819	6.701	2752532	PROB	6.667	n/a	n/a	n/a	-999	20	[8, 5, 3]	16.0	catFR1	2	R1266J
2099.52	10.166	2759233	PROB	10.166	n/a	n/a	n/a	-999	20	[4, 3, 9]	16.0	catFR1	2	R1266J
2109.686	0.019	2769399	STOP	n/a	n/a	n/a	n/a	-999	20	[-999, -999, -999]	n/a	catFR1	2	R1266J
2109.705	0.699	2769418	DISTRACT_END	n/a	n/a	n/a	n/a	-999	19	[0, 0, 0]	n/a	catFR1	2	R1266J
2110.404	0.518	2770117	RETRIEVAL_ORIENT	n/a	n/a	n/a	n/a	-999	19	[0, 0, 0]	n/a	catFR1	2	R1266J
2110.922	1.561	2770635	REC_START	n/a	n/a	n/a	n/a	-999	19	[0, 0, 0]	n/a	catFR1	2	R1266J
2112.483	1.98	2772196	REC_WORD	1.561	n/a	OYSTER	OceanAnimals	11	19	[0, 0, 0]	n/a	catFR1	2	R1266J
2114.463	26.469	2774176	REC_WORD	3.541	n/a	CRAB	n/a	-999	19	[0, 0, 0]	n/a	catFR1	2	R1266J
2140.932	4.894	2800645	REC_END	n/a	n/a	n/a	n/a	-999	19	[0, 0, 0]	n/a	catFR1	2	R1266J
2145.826	0.5	2805539	TRIAL	n/a	n/a	n/a	n/a	-999	20	[0, 0, 0]	n/a	catFR1	2	R1266J
2146.326	10.428	2806039	COUNTDOWN_START	n/a	n/a	n/a	n/a	-999	20	[0, 0, 0]	n/a	catFR1	2	R1266J
2156.754	0.007	2816467	COUNTDOWN_END	n/a	n/a	n/a	n/a	-999	20	[0, 0, 0]	n/a	catFR1	2	R1266J
2156.761	1.616	2816474	ORIENT	n/a	n/a	n/a	n/a	-999	20	[0, 0, 0]	n/a	catFR1	2	R1266J
2158.377	2.2	2818090	ORIENT_OFF	n/a	n/a	n/a	n/a	-999	20	[0, 0, 0]	n/a	catFR1	2	R1266J
2160.577	1.617	2820290	WORD	n/a	wordpools/wordpool_categorized_EN.txt	HAND	BodyParts	1	20	[0, 0, 0]	n/a	catFR1	2	R1266J
2162.194	1.001	2821907	WORD_OFF	n/a	n/a	HAND	n/a	1	20	[0, 0, 0]	n/a	catFR1	2	R1266J
2163.195	1.617	2822908	WORD	n/a	wordpools/wordpool_categorized_EN.txt	TOE	BodyParts	2	20	[0, 0, 0]	n/a	catFR1	2	R1266J
2164.812	0.85	2824525	WORD_OFF	n/a	n/a	TOE	n/a	2	20	[0, 0, 0]	n/a	catFR1	2	R1266J
2165.662	1.617	2825375	WORD	n/a	wordpools/wordpool_categorized_EN.txt	PLIERS	Tools	3	20	[0, 0, 0]	n/a	catFR1	2	R1266J
2167.279	0.967	2826992	WORD_OFF	n/a	n/a	PLIERS	n/a	3	20	[0, 0, 0]	n/a	catFR1	2	R1266J
2168.246	1.616	2827959	WORD	n/a	wordpools/wordpool_categorized_EN.txt	CROWBAR	Tools	4	20	[0, 0, 0]	n/a	catFR1	2	R1266J
2169.862	0.95	2829575	WORD_OFF	n/a	n/a	CROWBAR	n/a	4	20	[0, 0, 0]	n/a	catFR1	2	R1266J
2170.812	1.617	2830525	WORD	n/a	wordpools/wordpool_categorized_EN.txt	SOCKS	Clothing	5	20	[0, 0, 0]	n/a	catFR1	2	R1266J
2172.429	0.785	2832142	WORD_OFF	n/a	n/a	SOCKS	n/a	5	20	[0, 0, 0]	n/a	catFR1	2	R1266J
2173.214	1.616	2832927	WORD	n/a	wordpools/wordpool_categorized_EN.txt	JEANS	Clothing	6	20	[0, 0, 0]	n/a	catFR1	2	R1266J
2174.83	1.016	2834543	WORD_OFF	n/a	n/a	JEANS	n/a	6	20	[0, 0, 0]	n/a	catFR1	2	R1266J
2175.846	1.617	2835559	WORD	n/a	wordpools/wordpool_categorized_EN.txt	SCREWDRIVER	Tools	7	20	[0, 0, 0]	n/a	catFR1	2	R1266J
2177.463	0.784	2837176	WORD_OFF	n/a	n/a	SCREWDRIVER	n/a	7	20	[0, 0, 0]	n/a	catFR1	2	R1266J
2178.247	1.616	2837960	WORD	n/a	wordpools/wordpool_categorized_EN.txt	SAW	Tools	8	20	[0, 0, 0]	n/a	catFR1	2	R1266J
2179.863	0.867	2839576	WORD_OFF	n/a	n/a	SAW	n/a	8	20	[0, 0, 0]	n/a	catFR1	2	R1266J
2180.73	1.617	2840443	WORD	n/a	wordpools/wordpool_categorized_EN.txt	ELBOW	BodyParts	9	20	[0, 0, 0]	n/a	catFR1	2	R1266J
2182.347	0.85	2842060	WORD_OFF	n/a	n/a	ELBOW	n/a	9	20	[0, 0, 0]	n/a	catFR1	2	R1266J
2183.197	1.617	2842910	WORD	n/a	wordpools/wordpool_categorized_EN.txt	EYE	BodyParts	10	20	[0, 0, 0]	n/a	catFR1	2	R1266J
2184.814	0.784	2844527	WORD_OFF	n/a	n/a	EYE	n/a	10	20	[0, 0, 0]	n/a	catFR1	2	R1266J
2185.598	1.617	2845311	WORD	n/a	wordpools/wordpool_categorized_EN.txt	PANTS	Clothing	11	20	[0, 0, 0]	n/a	catFR1	2	R1266J
2187.215	0.766	2846928	WORD_OFF	n/a	n/a	PANTS	n/a	11	20	[0, 0, 0]	n/a	catFR1	2	R1266J
2187.981	1.617	2847694	WORD	n/a	wordpools/wordpool_categorized_EN.txt	SHOES	Clothing	12	20	[0, 0, 0]	n/a	catFR1	2	R1266J
2189.598	0.0	2849311	WORD_OFF	n/a	n/a	SHOES	n/a	12	20	[0, 0, 0]	n/a	catFR1	2	R1266J
2189.598	0.097	2849311	ENCODING_END	n/a	n/a	n/a	n/a	-999	20	[0, 0, 0]	n/a	catFR1	2	R1266J
2189.695	0.0	2849408	DISTRACT_START	n/a	n/a	n/a	n/a	-999	20	[0, 0, 0]	n/a	catFR1	2	R1266J
2189.695	0.02	2849408	START	n/a	n/a	n/a	n/a	-999	21	[-999, -999, -999]	n/a	catFR1	2	R1266J
2189.715	4.617	2849428	PROB	4.583	n/a	n/a	n/a	-999	21	[6, 1, 1]	8.0	catFR1	2	R1266J
2194.332	6.634	2854045	PROB	6.597	n/a	n/a	n/a	-999	21	[9, 3, 5]	17.0	catFR1	2	R1266J
2200.966	4.968	2860679	PROB	4.932	n/a	n/a	n/a	-999	21	[8, 1, 8]	17.0	catFR1	2	R1266J
2205.934	5.277	2865647	PROB	5.277	n/a	n/a	n/a	-999	21	[7, 4, 5]	16.0	catFR1	2	R1266J
2211.211	0.008	2870924	STOP	n/a	n/a	n/a	n/a	-999	21	[-999, -999, -999]	n/a	catFR1	2	R1266J
2211.219	0.532	2870932	DISTRACT_END	n/a	n/a	n/a	n/a	-999	20	[0, 0, 0]	n/a	catFR1	2	R1266J
2211.751	0.518	2871464	RETRIEVAL_ORIENT	n/a	n/a	n/a	n/a	-999	20	[0, 0, 0]	n/a	catFR1	2	R1266J
2212.269	17.026	2871982	REC_START	n/a	n/a	n/a	n/a	-999	20	[0, 0, 0]	n/a	catFR1	2	R1266J
2229.295	1.0	2889008	REC_WORD_VV	17.026	n/a	<>	n/a	-999	20	[0, 0, 0]	n/a	catFR1	2	R1266J
2230.295	11.984	2890008	REC_WORD_VV	18.026	n/a	<>	n/a	-999	20	[0, 0, 0]	n/a	catFR1	2	R1266J
2242.279	4.426	2901992	REC_END	n/a	n/a	n/a	n/a	-999	20	[0, 0, 0]	n/a	catFR1	2	R1266J
2246.705	0.5	2906418	TRIAL	n/a	n/a	n/a	n/a	-999	21	[0, 0, 0]	n/a	catFR1	2	R1266J
2247.205	10.428	2906918	COUNTDOWN_START	n/a	n/a	n/a	n/a	-999	21	[0, 0, 0]	n/a	catFR1	2	R1266J
2257.633	0.007	2917346	COUNTDOWN_END	n/a	n/a	n/a	n/a	-999	21	[0, 0, 0]	n/a	catFR1	2	R1266J
2257.64	1.618	2917353	ORIENT	n/a	n/a	n/a	n/a	-999	21	[0, 0, 0]	n/a	catFR1	2	R1266J
2259.258	2.05	2918971	ORIENT_OFF	n/a	n/a	n/a	n/a	-999	21	[0, 0, 0]	n/a	catFR1	2	R1266J
2261.308	1.616	2921021	WORD	n/a	wordpools/wordpool_categorized_EN.txt	BASS	Instruments	1	21	[0, 0, 0]	n/a	catFR1	2	R1266J
2262.924	0.884	2922637	WORD_OFF	n/a	n/a	BASS	n/a	1	21	[0, 0, 0]	n/a	catFR1	2	R1266J
2263.808	1.616	2923521	WORD	n/a	wordpools/wordpool_categorized_EN.txt	FLUTE	Instruments	2	21	[0, 0, 0]	n/a	catFR1	2	R1266J
2265.424	0.934	2925137	WORD_OFF	n/a	n/a	FLUTE	n/a	2	21	[0, 0, 0]	n/a	catFR1	2	R1266J
2266.358	1.616	2926071	WORD	n/a	wordpools/wordpool_categorized_EN.txt	MIXER	Appliances	3	21	[0, 0, 0]	n/a	catFR1	2	R1266J
2267.974	0.767	2927687	WORD_OFF	n/a	n/a	MIXER	n/a	3	21	[0, 0, 0]	n/a	catFR1	2	R1266J
2268.741	1.617	2928454	WORD	n/a	wordpools/wordpool_categorized_EN.txt	VACUUM	Appliances	4	21	[0, 0, 0]	n/a	catFR1	2	R1266J
2270.358	0.8	2930071	WORD_OFF	n/a	n/a	VACUUM	n/a	4	21	[0, 0, 0]	n/a	catFR1	2	R1266J
2271.158	1.617	2930871	WORD	n/a	wordpools/wordpool_categorized_EN.txt	PIGEON	Birds	5	21	[0, 0, 0]	n/a	catFR1	2	R1266J
2272.775	0.817	2932488	WORD_OFF	n/a	n/a	PIGEON	n/a	5	21	[0, 0, 0]	n/a	catFR1	2	R1266J
2273.592	1.618	2933305	WORD	n/a	wordpools/wordpool_categorized_EN.txt	SEAGULL	Birds	6	21	[0, 0, 0]	n/a	catFR1	2	R1266J
2275.21	1.0	2934923	WORD_OFF	n/a	n/a	SEAGULL	n/a	6	21	[0, 0, 0]	n/a	catFR1	2	R1266J
2276.21	1.616	2935923	WORD	n/a	wordpools/wordpool_categorized_EN.txt	PIANO	Instruments	7	21	[0, 0, 0]	n/a	catFR1	2	R1266J
2277.826	0.867	2937539	WORD_OFF	n/a	n/a	PIANO	n/a	7	21	[0, 0, 0]	n/a	catFR1	2	R1266J
2278.693	1.617	2938406	WORD	n/a	wordpools/wordpool_categorized_EN.txt	ORGAN	Instruments	8	21	[0, 0, 0]	n/a	catFR1	2	R1266J
2280.31	0.951	2940023	WORD_OFF	n/a	n/a	ORGAN	n/a	8	21	[0, 0, 0]	n/a	catFR1	2	R1266J
2281.261	1.616	2940974	WORD	n/a	wordpools/wordpool_categorized_EN.txt	REFRIGERATOR	Appliances	9	21	[0, 0, 0]	n/a	catFR1	2	R1266J
2282.877	0.9	2942590	WORD_OFF	n/a	n/a	REFRIGERATOR	n/a	9	21	[0, 0, 0]	n/a	catFR1	2	R1266J
2283.777	1.617	2943490	WORD	n/a	wordpools/wordpool_categorized_EN.txt	DISHWASHER	Appliances	10	21	[0, 0, 0]	n/a	catFR1	2	R1266J
2285.394	0.983	2945107	WORD_OFF	n/a	n/a	DISHWASHER	n/a	10	21	[0, 0, 0]	n/a	catFR1	2	R1266J
2286.377	1.617	2946090	WORD	n/a	wordpools/wordpool_categorized_EN.txt	BLUEBIRD	Birds	11	21	[0, 0, 0]	n/a	catFR1	2	R1266J
2287.994	0.9	2947707	WORD_OFF	n/a	n/a	BLUEBIRD	n/a	11	21	[0, 0, 0]	n/a	catFR1	2	R1266J
2288.894	1.617	2948607	WORD	n/a	wordpools/wordpool_categorized_EN.txt	FINCH	Birds	12	21	[0, 0, 0]	n/a	catFR1	2	R1266J
2290.511	0.0	2950224	ENCODING_END	n/a	n/a	n/a	n/a	-999	21	[0, 0, 0]	n/a	catFR1	2	R1266J
2290.511	0.125	2950224	WORD_OFF	n/a	n/a	FINCH	n/a	12	21	[0, 0, 0]	n/a	catFR1	2	R1266J
2290.636	0.0	2950349	DISTRACT_START	n/a	n/a	n/a	n/a	-999	21	[0, 0, 0]	n/a	catFR1	2	R1266J
2290.636	0.008	2950349	START	n/a	n/a	n/a	n/a	-999	22	[-999, -999, -999]	n/a	catFR1	2	R1266J
2290.644	6.284	2950357	PROB	6.249	n/a	n/a	n/a	-999	22	[4, 5, 7]	16.0	catFR1	2	R1266J
2296.928	3.434	2956641	PROB	3.405	n/a	n/a	n/a	-999	22	[1, 6, 7]	14.0	catFR1	2	R1266J
2300.362	3.717	2960075	PROB	3.692	n/a	n/a	n/a	-999	22	[1, 8, 3]	12.0	catFR1	2	R1266J
2304.079	7.414	2963792	PROB	7.414	n/a	n/a	n/a	-999	22	[6, 7, 6]	19.0	catFR1	2	R1266J
2311.493	0.021	2971206	STOP	n/a	n/a	n/a	n/a	-999	22	[-999, -999, -999]	n/a	catFR1	2	R1266J
2311.514	0.717	2971227	DISTRACT_END	n/a	n/a	n/a	n/a	-999	21	[0, 0, 0]	n/a	catFR1	2	R1266J
2312.231	0.517	2971944	RETRIEVAL_ORIENT	n/a	n/a	n/a	n/a	-999	21	[0, 0, 0]	n/a	catFR1	2	R1266J
2312.748	0.633	2972461	REC_START	n/a	n/a	n/a	n/a	-999	21	[0, 0, 0]	n/a	catFR1	2	R1266J
2313.381	1.721	2973094	REC_WORD_VV	0.633	n/a	<>	n/a	-999	21	[0, 0, 0]	n/a	catFR1	2	R1266J
2315.102	0.978	2974815	REC_WORD	2.354	n/a	DISHWASHER	Appliances	10	21	[0, 0, 0]	n/a	catFR1	2	R1266J
2316.08	14.351	2975793	REC_WORD	3.332	n/a	REFRIGERATOR	Appliances	9	21	[0, 0, 0]	n/a	catFR1	2	R1266J
2330.431	12.327	2990144	REC_WORD_VV	17.683	n/a	<>	n/a	-999	21	[0, 0, 0]	n/a	catFR1	2	R1266J
2342.758	4.393	3002471	REC_END	n/a	n/a	n/a	n/a	-999	21	[0, 0, 0]	n/a	catFR1	2	R1266J
2347.151	0.5	3006864	TRIAL	n/a	n/a	n/a	n/a	-999	22	[0, 0, 0]	n/a	catFR1	2	R1266J
2347.651	10.428	3007364	COUNTDOWN_START	n/a	n/a	n/a	n/a	-999	22	[0, 0, 0]	n/a	catFR1	2	R1266J
2358.079	0.007	3017792	COUNTDOWN_END	n/a	n/a	n/a	n/a	-999	22	[0, 0, 0]	n/a	catFR1	2	R1266J
2358.086	1.617	3017799	ORIENT	n/a	n/a	n/a	n/a	-999	22	[0, 0, 0]	n/a	catFR1	2	R1266J
2359.703	2.284	3019416	ORIENT_OFF	n/a	n/a	n/a	n/a	-999	22	[0, 0, 0]	n/a	catFR1	2	R1266J
2361.987	1.617	3021700	WORD	n/a	wordpools/wordpool_categorized_EN.txt	COLANDER	KitchenTools	1	22	[0, 0, 0]	n/a	catFR1	2	R1266J
2363.604	1.0	3023317	WORD_OFF	n/a	n/a	COLANDER	n/a	1	22	[0, 0, 0]	n/a	catFR1	2	R1266J
2364.604	1.618	3024317	WORD	n/a	wordpools/wordpool_categorized_EN.txt	GRATER	KitchenTools	2	22	[0, 0, 0]	n/a	catFR1	2	R1266J
2366.222	0.983	3025935	WORD_OFF	n/a	n/a	GRATER	n/a	2	22	[0, 0, 0]	n/a	catFR1	2	R1266J
2367.205	1.616	3026918	WORD	n/a	wordpools/wordpool_categorized_EN.txt	SHRIMP	OceanAnimals	3	22	[0, 0, 0]	n/a	catFR1	2	R1266J
2368.821	0.9	3028534	WORD_OFF	n/a	n/a	SHRIMP	n/a	3	22	[0, 0, 0]	n/a	catFR1	2	R1266J
2369.721	1.617	3029434	WORD	n/a	wordpools/wordpool_categorized_EN.txt	FISH	OceanAnimals	4	22	[0, 0, 0]	n/a	catFR1	2	R1266J
2371.338	0.85	3031051	WORD_OFF	n/a	n/a	FISH	n/a	4	22	[0, 0, 0]	n/a	catFR1	2	R1266J
2372.188	1.617	3031901	WORD	n/a	wordpools/wordpool_categorized_EN.txt	PEN	OfficeSupplies	5	22	[0, 0, 0]	n/a	catFR1	2	R1266J
2373.805	1.0	3033518	WORD_OFF	n/a	n/a	PEN	n/a	5	22	[0, 0, 0]	n/a	catFR1	2	R1266J
2374.805	1.617	3034518	WORD	n/a	wordpools/wordpool_categorized_EN.txt	TAPE	OfficeSupplies	6	22	[0, 0, 0]	n/a	catFR1	2	R1266J
2376.422	0.967	3036135	WORD_OFF	n/a	n/a	TAPE	n/a	6	22	[0, 0, 0]	n/a	catFR1	2	R1266J
2377.389	1.616	3037102	WORD	n/a	wordpools/wordpool_categorized_EN.txt	FORK	KitchenTools	7	22	[0, 0, 0]	n/a	catFR1	2	R1266J
2379.005	0.934	3038718	WORD_OFF	n/a	n/a	FORK	n/a	7	22	[0, 0, 0]	n/a	catFR1	2	R1266J
2379.939	1.617	3039652	WORD	n/a	wordpools/wordpool_categorized_EN.txt	SPOON	KitchenTools	8	22	[0, 0, 0]	n/a	catFR1	2	R1266J
2381.556	0.883	3041269	WORD_OFF	n/a	n/a	SPOON	n/a	8	22	[0, 0, 0]	n/a	catFR1	2	R1266J
2382.439	1.617	3042152	WORD	n/a	wordpools/wordpool_categorized_EN.txt	SQUID	OceanAnimals	9	22	[0, 0, 0]	n/a	catFR1	2	R1266J
2384.056	0.85	3043769	WORD_OFF	n/a	n/a	SQUID	n/a	9	22	[0, 0, 0]	n/a	catFR1	2	R1266J
2384.906	1.617	3044619	WORD	n/a	wordpools/wordpool_categorized_EN.txt	PLANKTON	OceanAnimals	10	22	[0, 0, 0]	n/a	catFR1	2	R1266J
2386.523	0.867	3046236	WORD_OFF	n/a	n/a	PLANKTON	n/a	10	22	[0, 0, 0]	n/a	catFR1	2	R1266J
2387.39	1.617	3047103	WORD	n/a	wordpools/wordpool_categorized_EN.txt	GLUE	OfficeSupplies	11	22	[0, 0, 0]	n/a	catFR1	2	R1266J
2389.007	0.85	3048720	WORD_OFF	n/a	n/a	GLUE	n/a	11	22	[0, 0, 0]	n/a	catFR1	2	R1266J
2389.857	1.617	3049570	WORD	n/a	wordpools/wordpool_categorized_EN.txt	STAPLER	OfficeSupplies	12	22	[0, 0, 0]	n/a	catFR1	2	R1266J
2391.474	0.0	3051187	ENCODING_END	n/a	n/a	n/a	n/a	-999	22	[0, 0, 0]	n/a	catFR1	2	R1266J
2391.474	0.099	3051187	WORD_OFF	n/a	n/a	STAPLER	n/a	12	22	[0, 0, 0]	n/a	catFR1	2	R1266J
2391.573	0.001	3051286	DISTRACT_START	n/a	n/a	n/a	n/a	-999	22	[0, 0, 0]	n/a	catFR1	2	R1266J
2391.574	0.017	3051287	START	n/a	n/a	n/a	n/a	-999	23	[-999, -999, -999]	n/a	catFR1	2	R1266J
2391.591	8.417	3051304	PROB	8.386	n/a	n/a	n/a	-999	23	[5, 9, 7]	21.0	catFR1	2	R1266J
2400.008	3.067	3059721	PROB	3.034	n/a	n/a	n/a	-999	23	[8, 8, 1]	17.0	catFR1	2	R1266J
2403.075	3.568	3062788	PROB	3.542	n/a	n/a	n/a	-999	23	[4, 2, 3]	9.0	catFR1	2	R1266J
2406.643	3.617	3066356	PROB	3.583	n/a	n/a	n/a	-999	23	[2, 8, 7]	17.0	catFR1	2	R1266J
2410.26	3.101	3069973	PROB	3.101	n/a	n/a	n/a	-999	23	[5, 4, 2]	11.0	catFR1	2	R1266J
2413.361	0.016	3073074	STOP	n/a	n/a	n/a	n/a	-999	23	[-999, -999, -999]	n/a	catFR1	2	R1266J
2413.377	0.65	3073090	DISTRACT_END	n/a	n/a	n/a	n/a	-999	22	[0, 0, 0]	n/a	catFR1	2	R1266J
2414.027	0.517	3073740	RETRIEVAL_ORIENT	n/a	n/a	n/a	n/a	-999	22	[0, 0, 0]	n/a	catFR1	2	R1266J
2414.544	1.499	3074257	REC_START	n/a	n/a	n/a	n/a	-999	22	[0, 0, 0]	n/a	catFR1	2	R1266J
