onset	duration	sample	trial_type	response_time	stim_file	item_name	category	serialpos	list	test	answer	experiment	session	subject
0.0	24.562	614	INSTRUCT_START	n/a	n/a	n/a	n/a	-999	-999	[0, 0, 0]	n/a	catFR1	0	R1354E
24.562	106.285	25175	INSTRUCT_END	n/a	n/a	n/a	n/a	-999	-999	[0, 0, 0]	n/a	catFR1	0	R1354E
130.847	8.992	131456	MIC TEST_START	n/a	n/a	n/a	n/a	-999	-999	[0, 0, 0]	n/a	catFR1	0	R1354E
139.839	0.017	140448	MIC TEST_END	n/a	n/a	n/a	n/a	-999	-999	[0, 0, 0]	n/a	catFR1	0	R1354E
139.856	0.0	140465	TRIAL_START	n/a	n/a	n/a	n/a	-999	-1	[0, 0, 0]	n/a	catFR1	0	R1354E
139.856	0.001	140465	TRIAL	n/a	n/a	n/a	n/a	-999	-1	[0, 0, 0]	n/a	catFR1	0	R1354E
139.857	1.425	140466	WAITING_START	n/a	n/a	n/a	n/a	-999	-1	[0, 0, 0]	n/a	catFR1	0	R1354E
141.282	0.001	141891	WAITING_END	n/a	n/a	n/a	n/a	-999	-1	[0, 0, 0]	n/a	catFR1	0	R1354E
141.283	10.428	141892	COUNTDOWN_START	n/a	n/a	n/a	n/a	-999	-1	[0, 0, 0]	n/a	catFR1	0	R1354E
151.711	0.001	152320	COUNTDOWN_END	n/a	n/a	n/a	n/a	-999	-1	[0, 0, 0]	n/a	catFR1	0	R1354E
151.712	1.055	152321	ORIENT_START	n/a	n/a	n/a	n/a	-999	-1	[0, 0, 0]	n/a	catFR1	0	R1354E
152.767	0.001	153376	ORIENT_END	n/a	n/a	n/a	n/a	-999	-1	[0, 0, 0]	n/a	catFR1	0	R1354E
152.768	0.936	153377	ENCODING_START	n/a	n/a	n/a	n/a	-999	-1	[0, 0, 0]	n/a	catFR1	0	R1354E
153.704	1.63	154313	WORD	n/a	n/a	SECOND	n/a	1	-1	[0, 0, 0]	n/a	catFR1	0	R1354E
155.334	0.854	155943	WORD_OFF	n/a	n/a	SECOND	n/a	1	-1	[0, 0, 0]	n/a	catFR1	0	R1354E
156.188	1.613	156796	WORD	n/a	n/a	SILK	n/a	2	-1	[0, 0, 0]	n/a	catFR1	0	R1354E
157.801	1.038	158409	WORD_OFF	n/a	n/a	SILK	n/a	2	-1	[0, 0, 0]	n/a	catFR1	0	R1354E
158.839	1.63	159447	WORD	n/a	n/a	DENIM	n/a	3	-1	[0, 0, 0]	n/a	catFR1	0	R1354E
160.469	0.943	161077	WORD_OFF	n/a	n/a	DENIM	n/a	3	-1	[0, 0, 0]	n/a	catFR1	0	R1354E
161.412	1.624	162020	WORD	n/a	n/a	LEATHER	n/a	4	-1	[0, 0, 0]	n/a	catFR1	0	R1354E
163.036	1.027	163644	WORD_OFF	n/a	n/a	LEATHER	n/a	4	-1	[0, 0, 0]	n/a	catFR1	0	R1354E
164.063	1.623	164671	WORD	n/a	n/a	WOOL	n/a	5	-1	[0, 0, 0]	n/a	catFR1	0	R1354E
165.686	0.849	166294	WORD_OFF	n/a	n/a	WOOL	n/a	5	-1	[0, 0, 0]	n/a	catFR1	0	R1354E
166.535	1.635	167143	WORD	n/a	n/a	MINUTE	n/a	6	-1	[0, 0, 0]	n/a	catFR1	0	R1354E
168.17	1.022	168778	WORD_OFF	n/a	n/a	MINUTE	n/a	6	-1	[0, 0, 0]	n/a	catFR1	0	R1354E
169.192	1.612	169800	WORD	n/a	n/a	HOUR	n/a	7	-1	[0, 0, 0]	n/a	catFR1	0	R1354E
170.804	1.135	171412	WORD_OFF	n/a	n/a	HOUR	n/a	7	-1	[0, 0, 0]	n/a	catFR1	0	R1354E
171.939	1.632	172547	WORD	n/a	n/a	PLUMBER	n/a	8	-1	[0, 0, 0]	n/a	catFR1	0	R1354E
173.571	0.918	174179	WORD_OFF	n/a	n/a	PLUMBER	n/a	8	-1	[0, 0, 0]	n/a	catFR1	0	R1354E
174.489	1.632	175097	WORD	n/a	n/a	TEACHER	n/a	9	-1	[0, 0, 0]	n/a	catFR1	0	R1354E
176.121	0.97	176729	WORD_OFF	n/a	n/a	TEACHER	n/a	9	-1	[0, 0, 0]	n/a	catFR1	0	R1354E
177.091	1.631	177699	WORD	n/a	n/a	FIREMAN	n/a	10	-1	[0, 0, 0]	n/a	catFR1	0	R1354E
178.722	0.798	179330	WORD_OFF	n/a	n/a	FIREMAN	n/a	10	-1	[0, 0, 0]	n/a	catFR1	0	R1354E
179.52	1.636	180128	WORD	n/a	n/a	DAY	n/a	11	-1	[0, 0, 0]	n/a	catFR1	0	R1354E
181.156	0.932	181764	WORD_OFF	n/a	n/a	DAY	n/a	11	-1	[0, 0, 0]	n/a	catFR1	0	R1354E
182.088	1.635	182696	WORD	n/a	n/a	FARMER	n/a	12	-1	[0, 0, 0]	n/a	catFR1	0	R1354E
183.723	0.0	184331	WORD_OFF	n/a	n/a	FARMER	n/a	12	-1	[0, 0, 0]	n/a	catFR1	0	R1354E
183.723	0.0	184331	ENCODING_END	n/a	n/a	n/a	n/a	-999	-1	[0, 0, 0]	n/a	catFR1	0	R1354E
183.723	0.001	184331	DISTRACT_START	n/a	n/a	n/a	n/a	-999	-1	[0, 0, 0]	n/a	catFR1	0	R1354E
183.724	0.015	184332	START	n/a	n/a	n/a	n/a	-999	-1	[-999, -999, -999]	n/a	catFR1	0	R1354E
183.739	45.926	184347	PROB	45.926	n/a	n/a	n/a	-999	-1	[8, 7, 2]	17	catFR1	0	R1354E
229.665	0.016	230271	STOP	n/a	n/a	n/a	n/a	-999	-1	[-999, -999, -999]	n/a	catFR1	0	R1354E
229.681	0.625	230287	DISTRACT_END	n/a	n/a	n/a	n/a	-999	-1	[0, 0, 0]	n/a	catFR1	0	R1354E
230.306	1.625	230912	RETRIEVAL_ORIENT_START	n/a	n/a	n/a	n/a	-999	-1	[0, 0, 0]	n/a	catFR1	0	R1354E
231.931	0.0	232537	RETRIEVAL_ORIENT_END	n/a	n/a	n/a	n/a	-999	-1	[0, 0, 0]	n/a	catFR1	0	R1354E
231.931	3.429	232537	REC_START	n/a	n/a	n/a	n/a	-999	-1	[0, 0, 0]	n/a	catFR1	0	R1354E
235.36	4.499	235966	REC_WORD_VV	4.499	n/a	<>	n/a	-999	-1	[0, 0, 0]	n/a	catFR1	0	R1354E
239.859	1.396	240465	REC_WORD_VV	1.396	n/a	<>	n/a	-999	-1	[0, 0, 0]	n/a	catFR1	0	R1354E
241.255	1.342	241861	REC_WORD	1.342	n/a	SECOND	n/a	1	-1	[0, 0, 0]	n/a	catFR1	0	R1354E
242.597	1.638	243202	REC_WORD	1.638	n/a	SILK	n/a	2	-1	[0, 0, 0]	n/a	catFR1	0	R1354E
244.235	2.477	244840	REC_WORD	2.477	n/a	FIREMAN	n/a	10	-1	[0, 0, 0]	n/a	catFR1	0	R1354E
246.712	10.595	247317	REC_WORD	10.595	n/a	LEATHER	n/a	4	-1	[0, 0, 0]	n/a	catFR1	0	R1354E
257.307	4.635	257912	REC_WORD	4.635	n/a	DENIM	n/a	3	-1	[0, 0, 0]	n/a	catFR1	0	R1354E
261.942	0.0	262547	REC_END	n/a	n/a	n/a	n/a	-999	-1	[0, 0, 0]	n/a	catFR1	0	R1354E
261.942	24.599	262547	PRACTICE_POST_INSTRUCT_START	n/a	n/a	n/a	n/a	-999	-1	[0, 0, 0]	n/a	catFR1	0	R1354E
286.541	0.001	287145	PRACTICE_POST_INSTRUCT_END	n/a	n/a	n/a	n/a	-999	-1	[0, 0, 0]	n/a	catFR1	0	R1354E
286.542	0.026	287146	TRIAL_END	n/a	n/a	n/a	n/a	-999	-1	[0, 0, 0]	n/a	catFR1	0	R1354E
286.568	0.0	287172	TRIAL_START	n/a	n/a	n/a	n/a	-999	1	[0, 0, 0]	n/a	catFR1	0	R1354E
286.568	0.001	287172	TRIAL	n/a	n/a	n/a	n/a	-999	1	[0, 0, 0]	n/a	catFR1	0	R1354E
286.569	2.905	287173	WAITING_START	n/a	n/a	n/a	n/a	-999	1	[0, 0, 0]	n/a	catFR1	0	R1354E
289.474	0.001	290078	WAITING_END	n/a	n/a	n/a	n/a	-999	1	[0, 0, 0]	n/a	catFR1	0	R1354E
289.475	10.429	290079	COUNTDOWN_START	n/a	n/a	n/a	n/a	-999	1	[0, 0, 0]	n/a	catFR1	0	R1354E
299.904	0.0	300507	COUNTDOWN_END	n/a	n/a	n/a	n/a	-999	1	[0, 0, 0]	n/a	catFR1	0	R1354E
299.904	1.122	300507	ORIENT_START	n/a	n/a	n/a	n/a	-999	1	[0, 0, 0]	n/a	catFR1	0	R1354E
301.026	0.001	301629	ORIENT_END	n/a	n/a	n/a	n/a	-999	1	[0, 0, 0]	n/a	catFR1	0	R1354E
301.027	1.017	301630	ENCODING_START	n/a	n/a	n/a	n/a	-999	1	[0, 0, 0]	n/a	catFR1	0	R1354E
302.044	1.633	302647	WORD	n/a	wordpools/wordpool_categorized_EN.txt	ROBIN	Birds	1	1	[0, 0, 0]	n/a	catFR1	0	R1354E
303.677	0.847	304280	WORD_OFF	n/a	n/a	ROBIN	Birds	1	1	[0, 0, 0]	n/a	catFR1	0	R1354E
304.524	1.637	305127	WORD	n/a	wordpools/wordpool_categorized_EN.txt	BLUEBIRD	Birds	2	1	[0, 0, 0]	n/a	catFR1	0	R1354E
306.161	0.774	306764	WORD_OFF	n/a	n/a	BLUEBIRD	Birds	2	1	[0, 0, 0]	n/a	catFR1	0	R1354E
306.935	1.626	307538	WORD	n/a	wordpools/wordpool_categorized_EN.txt	MICROWAVE	Electronics	3	1	[0, 0, 0]	n/a	catFR1	0	R1354E
308.561	0.945	309164	WORD_OFF	n/a	n/a	MICROWAVE	Electronics	3	1	[0, 0, 0]	n/a	catFR1	0	R1354E
309.506	1.622	310109	WORD	n/a	wordpools/wordpool_categorized_EN.txt	RADIO	Electronics	4	1	[0, 0, 0]	n/a	catFR1	0	R1354E
311.128	0.853	311731	WORD_OFF	n/a	n/a	RADIO	Electronics	4	1	[0, 0, 0]	n/a	catFR1	0	R1354E
311.981	1.631	312584	WORD	n/a	wordpools/wordpool_categorized_EN.txt	DOLLHOUSE	Toys	5	1	[0, 0, 0]	n/a	catFR1	0	R1354E
313.612	1.052	314215	WORD_OFF	n/a	n/a	DOLLHOUSE	Toys	5	1	[0, 0, 0]	n/a	catFR1	0	R1354E
314.664	1.632	315267	WORD	n/a	wordpools/wordpool_categorized_EN.txt	BARBIE	Toys	6	1	[0, 0, 0]	n/a	catFR1	0	R1354E
316.296	1.037	316899	WORD_OFF	n/a	n/a	BARBIE	Toys	6	1	[0, 0, 0]	n/a	catFR1	0	R1354E
317.333	1.63	317936	WORD	n/a	wordpools/wordpool_categorized_EN.txt	STEREO	Electronics	7	1	[0, 0, 0]	n/a	catFR1	0	R1354E
318.963	0.947	319566	WORD_OFF	n/a	n/a	STEREO	Electronics	7	1	[0, 0, 0]	n/a	catFR1	0	R1354E
319.91	1.637	320513	WORD	n/a	wordpools/wordpool_categorized_EN.txt	SCANNER	Electronics	8	1	[0, 0, 0]	n/a	catFR1	0	R1354E
321.547	0.769	322150	WORD_OFF	n/a	n/a	SCANNER	Electronics	8	1	[0, 0, 0]	n/a	catFR1	0	R1354E
322.316	1.631	322919	WORD	n/a	wordpools/wordpool_categorized_EN.txt	DOVE	Birds	9	1	[0, 0, 0]	n/a	catFR1	0	R1354E
323.947	0.958	324550	WORD_OFF	n/a	n/a	DOVE	Birds	9	1	[0, 0, 0]	n/a	catFR1	0	R1354E
324.905	1.626	325508	WORD	n/a	wordpools/wordpool_categorized_EN.txt	CARDINAL	Birds	10	1	[0, 0, 0]	n/a	catFR1	0	R1354E
326.531	1.017	327134	WORD_OFF	n/a	n/a	CARDINAL	Birds	10	1	[0, 0, 0]	n/a	catFR1	0	R1354E
327.548	1.633	328151	WORD	n/a	wordpools/wordpool_categorized_EN.txt	BASKETBALL	Toys	11	1	[0, 0, 0]	n/a	catFR1	0	R1354E
329.181	1.15	329783	WORD_OFF	n/a	n/a	BASKETBALL	Toys	11	1	[0, 0, 0]	n/a	catFR1	0	R1354E
330.331	1.634	330933	WORD	n/a	wordpools/wordpool_categorized_EN.txt	FRISBEE	Toys	12	1	[0, 0, 0]	n/a	catFR1	0	R1354E
331.965	0.001	332567	WORD_OFF	n/a	n/a	FRISBEE	Toys	12	1	[0, 0, 0]	n/a	catFR1	0	R1354E
331.966	0.0	332568	ENCODING_END	n/a	n/a	n/a	n/a	-999	1	[0, 0, 0]	n/a	catFR1	0	R1354E
331.966	0.0	332568	DISTRACT_START	n/a	n/a	n/a	n/a	-999	1	[0, 0, 0]	n/a	catFR1	0	R1354E
331.966	0.016	332568	START	n/a	n/a	n/a	n/a	-999	1	[-999, -999, -999]	n/a	catFR1	0	R1354E
331.982	4.634	332584	PROB	4.634	n/a	n/a	n/a	-999	1	[8, 6, 5]	19	catFR1	0	R1354E
336.616	2.95	337218	PROB	2.95	n/a	n/a	n/a	-999	1	[3, 1, 3]	7	catFR1	0	R1354E
339.566	3.017	340168	PROB	3.017	n/a	n/a	n/a	-999	1	[8, 2, 4]	14	catFR1	0	R1354E
342.583	2.768	343185	PROB	2.768	n/a	n/a	n/a	-999	1	[4, 6, 8]	18	catFR1	0	R1354E
345.351	3.284	345953	PROB	3.284	n/a	n/a	n/a	-999	1	[6, 8, 8]	22	catFR1	0	R1354E
348.635	3.413	349237	PROB	3.413	n/a	n/a	n/a	-999	1	[7, 6, 5]	18	catFR1	0	R1354E
352.048	0.021	352650	STOP	n/a	n/a	n/a	n/a	-999	1	[-999, -999, -999]	n/a	catFR1	0	R1354E
352.069	0.609	352671	DISTRACT_END	n/a	n/a	n/a	n/a	-999	1	[0, 0, 0]	n/a	catFR1	0	R1354E
352.678	1.573	353280	RETRIEVAL_ORIENT_START	n/a	n/a	n/a	n/a	-999	1	[0, 0, 0]	n/a	catFR1	0	R1354E
354.251	0.001	354853	RETRIEVAL_ORIENT_END	n/a	n/a	n/a	n/a	-999	1	[0, 0, 0]	n/a	catFR1	0	R1354E
354.252	0.676	354854	REC_START	n/a	n/a	n/a	n/a	-999	1	[0, 0, 0]	n/a	catFR1	0	R1354E
354.928	0.794	355530	REC_WORD_VV	0.794	n/a	<>	n/a	-999	1	[0, 0, 0]	n/a	catFR1	0	R1354E
355.722	1.803	356324	REC_WORD	1.803	n/a	CARDINAL	Birds	10	1	[0, 0, 0]	n/a	catFR1	0	R1354E
357.525	20.911	358126	REC_WORD	20.911	n/a	BASKETBALL	Toys	11	1	[0, 0, 0]	n/a	catFR1	0	R1354E
378.436	5.827	379037	REC_WORD	5.827	n/a	FRISBEE	Toys	12	1	[0, 0, 0]	n/a	catFR1	0	R1354E
384.263	0.0	384864	REC_END	n/a	n/a	n/a	n/a	-999	1	[0, 0, 0]	n/a	catFR1	0	R1354E
384.263	0.03	384864	TRIAL_END	n/a	n/a	n/a	n/a	-999	1	[0, 0, 0]	n/a	catFR1	0	R1354E
384.293	0.001	384894	TRIAL_START	n/a	n/a	n/a	n/a	-999	2	[0, 0, 0]	n/a	catFR1	0	R1354E
384.294	0.0	384895	TRIAL	n/a	n/a	n/a	n/a	-999	2	[0, 0, 0]	n/a	catFR1	0	R1354E
384.294	4.914	384895	WAITING_START	n/a	n/a	n/a	n/a	-999	2	[0, 0, 0]	n/a	catFR1	0	R1354E
389.208	0.0	389808	WAITING_END	n/a	n/a	n/a	n/a	-999	2	[0, 0, 0]	n/a	catFR1	0	R1354E
389.208	10.428	389808	COUNTDOWN_START	n/a	n/a	n/a	n/a	-999	2	[0, 0, 0]	n/a	catFR1	0	R1354E
399.636	0.0	400236	COUNTDOWN_END	n/a	n/a	n/a	n/a	-999	2	[0, 0, 0]	n/a	catFR1	0	R1354E
399.636	1.258	400236	ORIENT_START	n/a	n/a	n/a	n/a	-999	2	[0, 0, 0]	n/a	catFR1	0	R1354E
400.894	0.0	401494	ORIENT_END	n/a	n/a	n/a	n/a	-999	2	[0, 0, 0]	n/a	catFR1	0	R1354E
400.894	0.793	401494	ENCODING_START	n/a	n/a	n/a	n/a	-999	2	[0, 0, 0]	n/a	catFR1	0	R1354E
401.687	1.624	402287	WORD	n/a	wordpools/wordpool_categorized_EN.txt	RUM	Beverages	1	2	[0, 0, 0]	n/a	catFR1	0	R1354E
403.311	0.969	403911	WORD_OFF	n/a	n/a	RUM	Beverages	1	2	[0, 0, 0]	n/a	catFR1	0	R1354E
404.28	1.632	404880	WORD	n/a	wordpools/wordpool_categorized_EN.txt	JUICE	Beverages	2	2	[0, 0, 0]	n/a	catFR1	0	R1354E
405.912	1.028	406512	WORD_OFF	n/a	n/a	JUICE	Beverages	2	2	[0, 0, 0]	n/a	catFR1	0	R1354E
406.94	1.622	407540	WORD	n/a	wordpools/wordpool_categorized_EN.txt	HEAD	BodyParts	3	2	[0, 0, 0]	n/a	catFR1	0	R1354E
408.562	1.101	409162	WORD_OFF	n/a	n/a	HEAD	BodyParts	3	2	[0, 0, 0]	n/a	catFR1	0	R1354E
409.663	1.633	410263	WORD	n/a	wordpools/wordpool_categorized_EN.txt	EAR	BodyParts	4	2	[0, 0, 0]	n/a	catFR1	0	R1354E
411.296	1.119	411896	WORD_OFF	n/a	n/a	EAR	BodyParts	4	2	[0, 0, 0]	n/a	catFR1	0	R1354E
412.415	1.631	413015	WORD	n/a	wordpools/wordpool_categorized_EN.txt	WILLOW	Trees	5	2	[0, 0, 0]	n/a	catFR1	0	R1354E
414.046	0.758	414646	WORD_OFF	n/a	n/a	WILLOW	Trees	5	2	[0, 0, 0]	n/a	catFR1	0	R1354E
414.804	1.626	415404	WORD	n/a	wordpools/wordpool_categorized_EN.txt	SPRUCE	Trees	6	2	[0, 0, 0]	n/a	catFR1	0	R1354E
416.43	1.01	417029	WORD_OFF	n/a	n/a	SPRUCE	Trees	6	2	[0, 0, 0]	n/a	catFR1	0	R1354E
417.44	1.624	418039	WORD	n/a	wordpools/wordpool_categorized_EN.txt	LEMONADE	Beverages	7	2	[0, 0, 0]	n/a	catFR1	0	R1354E
419.064	0.948	419663	WORD_OFF	n/a	n/a	LEMONADE	Beverages	7	2	[0, 0, 0]	n/a	catFR1	0	R1354E
420.012	1.636	420611	WORD	n/a	wordpools/wordpool_categorized_EN.txt	SODA	Beverages	8	2	[0, 0, 0]	n/a	catFR1	0	R1354E
421.648	0.819	422247	WORD_OFF	n/a	n/a	SODA	Beverages	8	2	[0, 0, 0]	n/a	catFR1	0	R1354E
422.467	1.631	423066	WORD	n/a	wordpools/wordpool_categorized_EN.txt	BIRCH	Trees	9	2	[0, 0, 0]	n/a	catFR1	0	R1354E
424.098	0.79	424697	WORD_OFF	n/a	n/a	BIRCH	Trees	9	2	[0, 0, 0]	n/a	catFR1	0	R1354E
424.888	1.627	425487	WORD	n/a	wordpools/wordpool_categorized_EN.txt	WALNUT	Trees	10	2	[0, 0, 0]	n/a	catFR1	0	R1354E
426.515	1.03	427114	WORD_OFF	n/a	n/a	WALNUT	Trees	10	2	[0, 0, 0]	n/a	catFR1	0	R1354E
427.545	1.621	428144	WORD	n/a	wordpools/wordpool_categorized_EN.txt	NOSE	BodyParts	11	2	[0, 0, 0]	n/a	catFR1	0	R1354E
429.166	0.897	429765	WORD_OFF	n/a	n/a	NOSE	BodyParts	11	2	[0, 0, 0]	n/a	catFR1	0	R1354E
430.063	1.636	430662	WORD	n/a	wordpools/wordpool_categorized_EN.txt	HAND	BodyParts	12	2	[0, 0, 0]	n/a	catFR1	0	R1354E
431.699	0.001	432298	WORD_OFF	n/a	n/a	HAND	BodyParts	12	2	[0, 0, 0]	n/a	catFR1	0	R1354E
431.7	0.0	432299	ENCODING_END	n/a	n/a	n/a	n/a	-999	2	[0, 0, 0]	n/a	catFR1	0	R1354E
431.7	0.0	432299	DISTRACT_START	n/a	n/a	n/a	n/a	-999	2	[0, 0, 0]	n/a	catFR1	0	R1354E
431.7	0.016	432299	START	n/a	n/a	n/a	n/a	-999	2	[-999, -999, -999]	n/a	catFR1	0	R1354E
431.716	3.499	432315	PROB	3.499	n/a	n/a	n/a	-999	2	[5, 9, 4]	18	catFR1	0	R1354E
435.215	1.952	435814	PROB	1.952	n/a	n/a	n/a	-999	2	[1, 5, 7]	13	catFR1	0	R1354E
437.167	2.55	437766	PROB	2.55	n/a	n/a	n/a	-999	2	[9, 6, 5]	20	catFR1	0	R1354E
439.717	1.85	440316	PROB	1.85	n/a	n/a	n/a	-999	2	[3, 3, 8]	14	catFR1	0	R1354E
441.567	2.368	442166	PROB	2.368	n/a	n/a	n/a	-999	2	[4, 1, 9]	14	catFR1	0	R1354E
443.935	1.717	444533	PROB	1.717	n/a	n/a	n/a	-999	2	[7, 2, 7]	16	catFR1	0	R1354E
445.652	2.599	446250	PROB	2.599	n/a	n/a	n/a	-999	2	[3, 7, 8]	18	catFR1	0	R1354E
448.251	1.935	448849	PROB	1.935	n/a	n/a	n/a	-999	2	[3, 5, 3]	11	catFR1	0	R1354E
450.186	2.306	450784	PROB	2.306	n/a	n/a	n/a	-999	2	[4, 3, 7]	14	catFR1	0	R1354E
452.492	0.011	453090	STOP	n/a	n/a	n/a	n/a	-999	2	[-999, -999, -999]	n/a	catFR1	0	R1354E
452.503	0.604	453101	DISTRACT_END	n/a	n/a	n/a	n/a	-999	2	[0, 0, 0]	n/a	catFR1	0	R1354E
453.107	1.646	453705	RETRIEVAL_ORIENT_START	n/a	n/a	n/a	n/a	-999	2	[0, 0, 0]	n/a	catFR1	0	R1354E
454.753	0.001	455351	RETRIEVAL_ORIENT_END	n/a	n/a	n/a	n/a	-999	2	[0, 0, 0]	n/a	catFR1	0	R1354E
454.754	0.878	455352	REC_START	n/a	n/a	n/a	n/a	-999	2	[0, 0, 0]	n/a	catFR1	0	R1354E
455.632	1.262	456230	REC_WORD	1.262	n/a	HEAD	BodyParts	3	2	[0, 0, 0]	n/a	catFR1	0	R1354E
456.894	1.493	457492	REC_WORD	1.493	n/a	NOSE	BodyParts	11	2	[0, 0, 0]	n/a	catFR1	0	R1354E
458.387	1.513	458985	REC_WORD	1.513	n/a	EAR	BodyParts	4	2	[0, 0, 0]	n/a	catFR1	0	R1354E
459.9	2.169	460498	REC_WORD	2.169	n/a	HAND	BodyParts	12	2	[0, 0, 0]	n/a	catFR1	0	R1354E
462.069	1.728	462667	REC_WORD	1.728	n/a	SODA	Beverages	8	2	[0, 0, 0]	n/a	catFR1	0	R1354E
463.797	2.952	464395	REC_WORD	2.952	n/a	BIRCH	Trees	9	2	[0, 0, 0]	n/a	catFR1	0	R1354E
466.749	6.194	467347	REC_WORD	6.194	n/a	LEMONADE	Beverages	7	2	[0, 0, 0]	n/a	catFR1	0	R1354E
472.943	11.824	473540	REC_WORD	11.824	n/a	WALNUT	Trees	10	2	[0, 0, 0]	n/a	catFR1	0	R1354E
484.767	0.0	485364	REC_END	n/a	n/a	n/a	n/a	-999	2	[0, 0, 0]	n/a	catFR1	0	R1354E
484.767	0.028	485364	TRIAL_END	n/a	n/a	n/a	n/a	-999	2	[0, 0, 0]	n/a	catFR1	0	R1354E
484.795	0.001	485392	TRIAL_START	n/a	n/a	n/a	n/a	-999	3	[0, 0, 0]	n/a	catFR1	0	R1354E
484.796	0.0	485393	TRIAL	n/a	n/a	n/a	n/a	-999	3	[0, 0, 0]	n/a	catFR1	0	R1354E
484.796	6.28	485393	WAITING_START	n/a	n/a	n/a	n/a	-999	3	[0, 0, 0]	n/a	catFR1	0	R1354E
491.076	0.001	491673	WAITING_END	n/a	n/a	n/a	n/a	-999	3	[0, 0, 0]	n/a	catFR1	0	R1354E
491.077	10.429	491674	COUNTDOWN_START	n/a	n/a	n/a	n/a	-999	3	[0, 0, 0]	n/a	catFR1	0	R1354E
501.506	0.0	502102	COUNTDOWN_END	n/a	n/a	n/a	n/a	-999	3	[0, 0, 0]	n/a	catFR1	0	R1354E
501.506	1.106	502102	ORIENT_START	n/a	n/a	n/a	n/a	-999	3	[0, 0, 0]	n/a	catFR1	0	R1354E
502.612	0.0	503208	ORIENT_END	n/a	n/a	n/a	n/a	-999	3	[0, 0, 0]	n/a	catFR1	0	R1354E
502.612	1.125	503208	ENCODING_START	n/a	n/a	n/a	n/a	-999	3	[0, 0, 0]	n/a	catFR1	0	R1354E
503.737	1.625	504333	WORD	n/a	wordpools/wordpool_categorized_EN.txt	WALL	Building	1	3	[0, 0, 0]	n/a	catFR1	0	R1354E
505.362	1.11	505958	WORD_OFF	n/a	n/a	WALL	Building	1	3	[0, 0, 0]	n/a	catFR1	0	R1354E
506.472	1.624	507068	WORD	n/a	wordpools/wordpool_categorized_EN.txt	ROOF	Building	2	3	[0, 0, 0]	n/a	catFR1	0	R1354E
508.096	0.755	508692	WORD_OFF	n/a	n/a	ROOF	Building	2	3	[0, 0, 0]	n/a	catFR1	0	R1354E
508.851	1.629	509447	WORD	n/a	wordpools/wordpool_categorized_EN.txt	DESK	Furniture	3	3	[0, 0, 0]	n/a	catFR1	0	R1354E
510.48	0.942	511076	WORD_OFF	n/a	n/a	DESK	Furniture	3	3	[0, 0, 0]	n/a	catFR1	0	R1354E
511.422	1.625	512018	WORD	n/a	wordpools/wordpool_categorized_EN.txt	BOOKCASE	Furniture	4	3	[0, 0, 0]	n/a	catFR1	0	R1354E
513.047	1.016	513643	WORD_OFF	n/a	n/a	BOOKCASE	Furniture	4	3	[0, 0, 0]	n/a	catFR1	0	R1354E
514.063	1.635	514659	WORD	n/a	wordpools/wordpool_categorized_EN.txt	HICKORY	Trees	5	3	[0, 0, 0]	n/a	catFR1	0	R1354E
515.698	0.831	516294	WORD_OFF	n/a	n/a	HICKORY	Trees	5	3	[0, 0, 0]	n/a	catFR1	0	R1354E
516.529	1.635	517125	WORD	n/a	wordpools/wordpool_categorized_EN.txt	EVERGREEN	Trees	6	3	[0, 0, 0]	n/a	catFR1	0	R1354E
518.164	0.989	518760	WORD_OFF	n/a	n/a	EVERGREEN	Trees	6	3	[0, 0, 0]	n/a	catFR1	0	R1354E
519.153	1.629	519749	WORD	n/a	wordpools/wordpool_categorized_EN.txt	FOUNDATION	Building	7	3	[0, 0, 0]	n/a	catFR1	0	R1354E
520.782	1.0	521378	WORD_OFF	n/a	n/a	FOUNDATION	Building	7	3	[0, 0, 0]	n/a	catFR1	0	R1354E
521.782	1.633	522378	WORD	n/a	wordpools/wordpool_categorized_EN.txt	BATHROOM	Building	8	3	[0, 0, 0]	n/a	catFR1	0	R1354E
523.415	1.064	524011	WORD_OFF	n/a	n/a	BATHROOM	Building	8	3	[0, 0, 0]	n/a	catFR1	0	R1354E
524.479	1.637	525075	WORD	n/a	wordpools/wordpool_categorized_EN.txt	OAK	Trees	9	3	[0, 0, 0]	n/a	catFR1	0	R1354E
526.116	1.055	526712	WORD_OFF	n/a	n/a	OAK	Trees	9	3	[0, 0, 0]	n/a	catFR1	0	R1354E
527.171	1.629	527767	WORD	n/a	wordpools/wordpool_categorized_EN.txt	ELM	Trees	10	3	[0, 0, 0]	n/a	catFR1	0	R1354E
528.8	0.803	529396	WORD_OFF	n/a	n/a	ELM	Trees	10	3	[0, 0, 0]	n/a	catFR1	0	R1354E
529.603	1.629	530199	WORD	n/a	wordpools/wordpool_categorized_EN.txt	COUCH	Furniture	11	3	[0, 0, 0]	n/a	catFR1	0	R1354E
531.232	0.868	531827	WORD_OFF	n/a	n/a	COUCH	Furniture	11	3	[0, 0, 0]	n/a	catFR1	0	R1354E
532.1	1.634	532695	WORD	n/a	wordpools/wordpool_categorized_EN.txt	SOFA	Furniture	12	3	[0, 0, 0]	n/a	catFR1	0	R1354E
533.734	0.0	534329	WORD_OFF	n/a	n/a	SOFA	Furniture	12	3	[0, 0, 0]	n/a	catFR1	0	R1354E
533.734	0.0	534329	ENCODING_END	n/a	n/a	n/a	n/a	-999	3	[0, 0, 0]	n/a	catFR1	0	R1354E
533.734	0.001	534329	DISTRACT_START	n/a	n/a	n/a	n/a	-999	3	[0, 0, 0]	n/a	catFR1	0	R1354E
533.735	0.015	534330	START	n/a	n/a	n/a	n/a	-999	3	[-999, -999, -999]	n/a	catFR1	0	R1354E
533.75	6.168	534345	PROB	6.168	n/a	n/a	n/a	-999	3	[9, 2, 5]	16	catFR1	0	R1354E
539.918	2.667	540513	PROB	2.667	n/a	n/a	n/a	-999	3	[3, 6, 6]	15	catFR1	0	R1354E
542.585	2.367	543180	PROB	2.367	n/a	n/a	n/a	-999	3	[4, 7, 8]	19	catFR1	0	R1354E
544.952	3.984	545547	PROB	3.984	n/a	n/a	n/a	-999	3	[6, 7, 9]	22	catFR1	0	R1354E
548.936	2.051	549531	PROB	2.051	n/a	n/a	n/a	-999	3	[1, 7, 4]	12	catFR1	0	R1354E
550.987	2.033	551582	PROB	2.033	n/a	n/a	n/a	-999	3	[3, 5, 6]	14	catFR1	0	R1354E
553.02	1.748	553615	PROB	1.748	n/a	n/a	n/a	-999	3	[3, 6, 3]	12	catFR1	0	R1354E
554.768	0.02	555363	STOP	n/a	n/a	n/a	n/a	-999	3	[-999, -999, -999]	n/a	catFR1	0	R1354E
554.788	0.645	555383	DISTRACT_END	n/a	n/a	n/a	n/a	-999	3	[0, 0, 0]	n/a	catFR1	0	R1354E
555.433	1.638	556028	RETRIEVAL_ORIENT_START	n/a	n/a	n/a	n/a	-999	3	[0, 0, 0]	n/a	catFR1	0	R1354E
557.071	0.001	557666	RETRIEVAL_ORIENT_END	n/a	n/a	n/a	n/a	-999	3	[0, 0, 0]	n/a	catFR1	0	R1354E
557.072	0.899	557667	REC_START	n/a	n/a	n/a	n/a	-999	3	[0, 0, 0]	n/a	catFR1	0	R1354E
557.971	0.892	558566	REC_WORD	0.892	n/a	BIRCH	Trees	-999	3	[0, 0, 0]	n/a	catFR1	0	R1354E
558.863	3.953	559457	REC_WORD	3.953	n/a	EVERGREEN	Trees	6	3	[0, 0, 0]	n/a	catFR1	0	R1354E
562.816	1.0	563410	REC_WORD	1.0	n/a	WALL	Building	1	3	[0, 0, 0]	n/a	catFR1	0	R1354E
563.816	1.507	564410	REC_WORD_VV	1.507	n/a	<>	n/a	-999	3	[0, 0, 0]	n/a	catFR1	0	R1354E
565.323	1.728	565917	REC_WORD	1.728	n/a	ROOF	Building	2	3	[0, 0, 0]	n/a	catFR1	0	R1354E
567.051	20.034	567645	REC_WORD	20.034	n/a	BATHROOM	Building	8	3	[0, 0, 0]	n/a	catFR1	0	R1354E
587.085	0.0	587679	REC_END	n/a	n/a	n/a	n/a	-999	3	[0, 0, 0]	n/a	catFR1	0	R1354E
587.085	0.025	587679	TRIAL_END	n/a	n/a	n/a	n/a	-999	3	[0, 0, 0]	n/a	catFR1	0	R1354E
587.11	0.001	587704	TRIAL_START	n/a	n/a	n/a	n/a	-999	4	[0, 0, 0]	n/a	catFR1	0	R1354E
587.111	0.0	587705	TRIAL	n/a	n/a	n/a	n/a	-999	4	[0, 0, 0]	n/a	catFR1	0	R1354E
587.111	5.633	587705	WAITING_START	n/a	n/a	n/a	n/a	-999	4	[0, 0, 0]	n/a	catFR1	0	R1354E
592.744	0.001	593337	WAITING_END	n/a	n/a	n/a	n/a	-999	4	[0, 0, 0]	n/a	catFR1	0	R1354E
592.745	10.428	593338	COUNTDOWN_START	n/a	n/a	n/a	n/a	-999	4	[0, 0, 0]	n/a	catFR1	0	R1354E
603.173	0.001	603766	COUNTDOWN_END	n/a	n/a	n/a	n/a	-999	4	[0, 0, 0]	n/a	catFR1	0	R1354E
603.174	1.104	603767	ORIENT_START	n/a	n/a	n/a	n/a	-999	4	[0, 0, 0]	n/a	catFR1	0	R1354E
604.278	0.001	604871	ORIENT_END	n/a	n/a	n/a	n/a	-999	4	[0, 0, 0]	n/a	catFR1	0	R1354E
604.279	0.861	604872	ENCODING_START	n/a	n/a	n/a	n/a	-999	4	[0, 0, 0]	n/a	catFR1	0	R1354E
605.14	1.623	605733	WORD	n/a	wordpools/wordpool_categorized_EN.txt	MOUNTAIN	Landscapes	1	4	[0, 0, 0]	n/a	catFR1	0	R1354E
606.763	0.788	607356	WORD_OFF	n/a	n/a	MOUNTAIN	Landscapes	1	4	[0, 0, 0]	n/a	catFR1	0	R1354E
607.551	1.629	608144	WORD	n/a	wordpools/wordpool_categorized_EN.txt	STREAM	Landscapes	2	4	[0, 0, 0]	n/a	catFR1	0	R1354E
609.18	1.121	609773	WORD_OFF	n/a	n/a	STREAM	Landscapes	2	4	[0, 0, 0]	n/a	catFR1	0	R1354E
610.301	1.63	610894	WORD	n/a	wordpools/wordpool_categorized_EN.txt	BALL	Toys	3	4	[0, 0, 0]	n/a	catFR1	0	R1354E
611.931	0.868	612524	WORD_OFF	n/a	n/a	BALL	Toys	3	4	[0, 0, 0]	n/a	catFR1	0	R1354E
612.799	1.632	613392	WORD	n/a	wordpools/wordpool_categorized_EN.txt	SLINKY	Toys	4	4	[0, 0, 0]	n/a	catFR1	0	R1354E
614.431	0.858	615024	WORD_OFF	n/a	n/a	SLINKY	Toys	4	4	[0, 0, 0]	n/a	catFR1	0	R1354E
615.289	1.626	615882	WORD	n/a	wordpools/wordpool_categorized_EN.txt	TRUCK	Vehicles	5	4	[0, 0, 0]	n/a	catFR1	0	R1354E
616.915	1.025	617507	WORD_OFF	n/a	n/a	TRUCK	Vehicles	5	4	[0, 0, 0]	n/a	catFR1	0	R1354E
617.94	1.626	618532	WORD	n/a	wordpools/wordpool_categorized_EN.txt	VAN	Vehicles	6	4	[0, 0, 0]	n/a	catFR1	0	R1354E
619.566	0.911	620158	WORD_OFF	n/a	n/a	VAN	Vehicles	6	4	[0, 0, 0]	n/a	catFR1	0	R1354E
620.477	1.622	621069	WORD	n/a	wordpools/wordpool_categorized_EN.txt	DOLL	Toys	7	4	[0, 0, 0]	n/a	catFR1	0	R1354E
622.099	0.961	622691	WORD_OFF	n/a	n/a	DOLL	Toys	7	4	[0, 0, 0]	n/a	catFR1	0	R1354E
623.06	1.623	623652	WORD	n/a	wordpools/wordpool_categorized_EN.txt	MARBLES	Toys	8	4	[0, 0, 0]	n/a	catFR1	0	R1354E
624.683	1.13	625275	WORD_OFF	n/a	n/a	MARBLES	Toys	8	4	[0, 0, 0]	n/a	catFR1	0	R1354E
625.813	1.637	626405	WORD	n/a	wordpools/wordpool_categorized_EN.txt	MOPED	Vehicles	9	4	[0, 0, 0]	n/a	catFR1	0	R1354E
627.45	0.903	628042	WORD_OFF	n/a	n/a	MOPED	Vehicles	9	4	[0, 0, 0]	n/a	catFR1	0	R1354E
628.353	1.631	628945	WORD	n/a	wordpools/wordpool_categorized_EN.txt	PLANE	Vehicles	10	4	[0, 0, 0]	n/a	catFR1	0	R1354E
629.984	0.862	630576	WORD_OFF	n/a	n/a	PLANE	Vehicles	10	4	[0, 0, 0]	n/a	catFR1	0	R1354E
630.846	1.622	631438	WORD	n/a	wordpools/wordpool_categorized_EN.txt	CREEK	Landscapes	11	4	[0, 0, 0]	n/a	catFR1	0	R1354E
632.468	0.813	633060	WORD_OFF	n/a	n/a	CREEK	Landscapes	11	4	[0, 0, 0]	n/a	catFR1	0	R1354E
633.281	1.637	633873	WORD	n/a	wordpools/wordpool_categorized_EN.txt	ISLAND	Landscapes	12	4	[0, 0, 0]	n/a	catFR1	0	R1354E
634.918	0.001	635510	WORD_OFF	n/a	n/a	ISLAND	Landscapes	12	4	[0, 0, 0]	n/a	catFR1	0	R1354E
634.919	0.0	635511	ENCODING_END	n/a	n/a	n/a	n/a	-999	4	[0, 0, 0]	n/a	catFR1	0	R1354E
634.919	0.0	635511	DISTRACT_START	n/a	n/a	n/a	n/a	-999	4	[0, 0, 0]	n/a	catFR1	0	R1354E
634.919	0.016	635511	START	n/a	n/a	n/a	n/a	-999	4	[-999, -999, -999]	n/a	catFR1	0	R1354E
634.935	3.0	635527	PROB	3.0	n/a	n/a	n/a	-999	4	[7, 3, 9]	19	catFR1	0	R1354E
637.935	1.967	638527	PROB	1.967	n/a	n/a	n/a	-999	4	[6, 4, 2]	12	catFR1	0	R1354E
639.902	1.817	640494	PROB	1.817	n/a	n/a	n/a	-999	4	[4, 8, 3]	15	catFR1	0	R1354E
641.719	3.001	642311	PROB	3.001	n/a	n/a	n/a	-999	4	[3, 1, 5]	9	catFR1	0	R1354E
644.72	1.75	645312	PROB	1.75	n/a	n/a	n/a	-999	4	[5, 6, 2]	13	catFR1	0	R1354E
646.47	2.317	647061	PROB	2.317	n/a	n/a	n/a	-999	4	[3, 8, 7]	18	catFR1	0	R1354E
648.787	1.466	649378	PROB	1.466	n/a	n/a	n/a	-999	4	[6, 5, 2]	13	catFR1	0	R1354E
650.253	2.101	650844	PROB	2.101	n/a	n/a	n/a	-999	4	[9, 7, 2]	18	catFR1	0	R1354E
652.354	2.001	652945	PROB	2.001	n/a	n/a	n/a	-999	4	[3, 7, 5]	15	catFR1	0	R1354E
654.355	1.631	654946	PROB	1.631	n/a	n/a	n/a	-999	4	[5, 4, 2]	11	catFR1	0	R1354E
655.986	0.019	656577	STOP	n/a	n/a	n/a	n/a	-999	4	[-999, -999, -999]	n/a	catFR1	0	R1354E
656.005	0.501	656596	DISTRACT_END	n/a	n/a	n/a	n/a	-999	4	[0, 0, 0]	n/a	catFR1	0	R1354E
656.506	1.699	657097	RETRIEVAL_ORIENT_START	n/a	n/a	n/a	n/a	-999	4	[0, 0, 0]	n/a	catFR1	0	R1354E
658.205	0.0	658796	RETRIEVAL_ORIENT_END	n/a	n/a	n/a	n/a	-999	4	[0, 0, 0]	n/a	catFR1	0	R1354E
658.205	0.414	658796	REC_START	n/a	n/a	n/a	n/a	-999	4	[0, 0, 0]	n/a	catFR1	0	R1354E
658.619	0.965	659210	REC_WORD	0.965	n/a	TRUCK	Vehicles	5	4	[0, 0, 0]	n/a	catFR1	0	R1354E
659.584	1.719	660175	REC_WORD	1.719	n/a	VAN	Vehicles	6	4	[0, 0, 0]	n/a	catFR1	0	R1354E
661.303	1.628	661894	REC_WORD	1.628	n/a	PLANE	Vehicles	10	4	[0, 0, 0]	n/a	catFR1	0	R1354E
662.931	2.503	663522	REC_WORD	2.503	n/a	MOUNTAIN	Landscapes	1	4	[0, 0, 0]	n/a	catFR1	0	R1354E
665.434	22.782	666025	REC_WORD	22.782	n/a	STREAM	Landscapes	2	4	[0, 0, 0]	n/a	catFR1	0	R1354E
688.216	0.0	688806	REC_END	n/a	n/a	n/a	n/a	-999	4	[0, 0, 0]	n/a	catFR1	0	R1354E
688.216	0.026	688806	TRIAL_END	n/a	n/a	n/a	n/a	-999	4	[0, 0, 0]	n/a	catFR1	0	R1354E
688.242	0.0	688832	TRIAL_START	n/a	n/a	n/a	n/a	-999	5	[0, 0, 0]	n/a	catFR1	0	R1354E
688.242	0.0	688832	TRIAL	n/a	n/a	n/a	n/a	-999	5	[0, 0, 0]	n/a	catFR1	0	R1354E
688.242	7.237	688832	WAITING_START	n/a	n/a	n/a	n/a	-999	5	[0, 0, 0]	n/a	catFR1	0	R1354E
695.479	0.0	696069	WAITING_END	n/a	n/a	n/a	n/a	-999	5	[0, 0, 0]	n/a	catFR1	0	R1354E
695.479	10.429	696069	COUNTDOWN_START	n/a	n/a	n/a	n/a	-999	5	[0, 0, 0]	n/a	catFR1	0	R1354E
705.908	0.0	706497	COUNTDOWN_END	n/a	n/a	n/a	n/a	-999	5	[0, 0, 0]	n/a	catFR1	0	R1354E
705.908	1.14	706497	ORIENT_START	n/a	n/a	n/a	n/a	-999	5	[0, 0, 0]	n/a	catFR1	0	R1354E
707.048	0.0	707637	ORIENT_END	n/a	n/a	n/a	n/a	-999	5	[0, 0, 0]	n/a	catFR1	0	R1354E
707.048	0.906	707637	ENCODING_START	n/a	n/a	n/a	n/a	-999	5	[0, 0, 0]	n/a	catFR1	0	R1354E
707.954	1.627	708543	WORD	n/a	wordpools/wordpool_categorized_EN.txt	VIOLET	Flowers	1	5	[0, 0, 0]	n/a	catFR1	0	R1354E
709.581	0.931	710170	WORD_OFF	n/a	n/a	VIOLET	Flowers	1	5	[0, 0, 0]	n/a	catFR1	0	R1354E
710.512	1.636	711101	WORD	n/a	wordpools/wordpool_categorized_EN.txt	ORCHID	Flowers	2	5	[0, 0, 0]	n/a	catFR1	0	R1354E
712.148	0.921	712737	WORD_OFF	n/a	n/a	ORCHID	Flowers	2	5	[0, 0, 0]	n/a	catFR1	0	R1354E
713.069	1.63	713658	WORD	n/a	wordpools/wordpool_categorized_EN.txt	TURTLE	OceanAnimals	3	5	[0, 0, 0]	n/a	catFR1	0	R1354E
714.699	0.948	715288	WORD_OFF	n/a	n/a	TURTLE	OceanAnimals	3	5	[0, 0, 0]	n/a	catFR1	0	R1354E
715.647	1.636	716236	WORD	n/a	wordpools/wordpool_categorized_EN.txt	SQUID	OceanAnimals	4	5	[0, 0, 0]	n/a	catFR1	0	R1354E
717.283	1.089	717872	WORD_OFF	n/a	n/a	SQUID	OceanAnimals	4	5	[0, 0, 0]	n/a	catFR1	0	R1354E
718.372	1.628	718961	WORD	n/a	wordpools/wordpool_categorized_EN.txt	PUZZLE	Toys	5	5	[0, 0, 0]	n/a	catFR1	0	R1354E
720.0	1.134	720589	WORD_OFF	n/a	n/a	PUZZLE	Toys	5	5	[0, 0, 0]	n/a	catFR1	0	R1354E
721.134	1.633	721723	WORD	n/a	wordpools/wordpool_categorized_EN.txt	FOOTBALL	Toys	6	5	[0, 0, 0]	n/a	catFR1	0	R1354E
722.767	0.787	723356	WORD_OFF	n/a	n/a	FOOTBALL	Toys	6	5	[0, 0, 0]	n/a	catFR1	0	R1354E
723.554	1.63	724143	WORD	n/a	wordpools/wordpool_categorized_EN.txt	DAFFODIL	Flowers	7	5	[0, 0, 0]	n/a	catFR1	0	R1354E
725.184	0.762	725773	WORD_OFF	n/a	n/a	DAFFODIL	Flowers	7	5	[0, 0, 0]	n/a	catFR1	0	R1354E
725.946	1.622	726535	WORD	n/a	wordpools/wordpool_categorized_EN.txt	ROSE	Flowers	8	5	[0, 0, 0]	n/a	catFR1	0	R1354E
727.568	1.117	728157	WORD_OFF	n/a	n/a	ROSE	Flowers	8	5	[0, 0, 0]	n/a	catFR1	0	R1354E
728.685	1.633	729274	WORD	n/a	wordpools/wordpool_categorized_EN.txt	JELLYFISH	OceanAnimals	9	5	[0, 0, 0]	n/a	catFR1	0	R1354E
730.318	0.884	730907	WORD_OFF	n/a	n/a	JELLYFISH	OceanAnimals	9	5	[0, 0, 0]	n/a	catFR1	0	R1354E
731.202	1.617	731790	WORD	n/a	wordpools/wordpool_categorized_EN.txt	PLANKTON	OceanAnimals	10	5	[0, 0, 0]	n/a	catFR1	0	R1354E
732.819	0.936	733407	WORD_OFF	n/a	n/a	PLANKTON	OceanAnimals	10	5	[0, 0, 0]	n/a	catFR1	0	R1354E
733.755	1.631	734343	WORD	n/a	wordpools/wordpool_categorized_EN.txt	BLOCKS	Toys	11	5	[0, 0, 0]	n/a	catFR1	0	R1354E
735.386	1.129	735974	WORD_OFF	n/a	n/a	BLOCKS	Toys	11	5	[0, 0, 0]	n/a	catFR1	0	R1354E
736.515	1.621	737103	WORD	n/a	wordpools/wordpool_categorized_EN.txt	BASEBALL	Toys	12	5	[0, 0, 0]	n/a	catFR1	0	R1354E
738.136	0.001	738724	WORD_OFF	n/a	n/a	BASEBALL	Toys	12	5	[0, 0, 0]	n/a	catFR1	0	R1354E
738.137	0.0	738725	ENCODING_END	n/a	n/a	n/a	n/a	-999	5	[0, 0, 0]	n/a	catFR1	0	R1354E
738.137	0.0	738725	DISTRACT_START	n/a	n/a	n/a	n/a	-999	5	[0, 0, 0]	n/a	catFR1	0	R1354E
738.137	0.016	738725	START	n/a	n/a	n/a	n/a	-999	5	[-999, -999, -999]	n/a	catFR1	0	R1354E
738.153	1.683	738741	PROB	1.683	n/a	n/a	n/a	-999	5	[2, 2, 1]	5	catFR1	0	R1354E
739.836	1.851	740424	PROB	1.851	n/a	n/a	n/a	-999	5	[6, 6, 3]	15	catFR1	0	R1354E
741.687	2.35	742275	PROB	2.35	n/a	n/a	n/a	-999	5	[3, 4, 7]	14	catFR1	0	R1354E
744.037	1.667	744625	PROB	1.667	n/a	n/a	n/a	-999	5	[8, 3, 8]	19	catFR1	0	R1354E
745.704	2.467	746292	PROB	2.467	n/a	n/a	n/a	-999	5	[9, 2, 7]	18	catFR1	0	R1354E
748.171	1.95	748759	PROB	1.95	n/a	n/a	n/a	-999	5	[7, 3, 4]	14	catFR1	0	R1354E
750.121	2.167	750709	PROB	2.167	n/a	n/a	n/a	-999	5	[6, 5, 8]	19	catFR1	0	R1354E
752.288	1.684	752876	PROB	1.684	n/a	n/a	n/a	-999	5	[1, 4, 8]	13	catFR1	0	R1354E
753.972	1.767	754560	PROB	1.767	n/a	n/a	n/a	-999	5	[9, 9, 3]	21	catFR1	0	R1354E
755.739	2.419	756327	PROB	2.419	n/a	n/a	n/a	-999	5	[1, 2, 7]	10	catFR1	0	R1354E
758.158	0.015	758746	STOP	n/a	n/a	n/a	n/a	-999	5	[-999, -999, -999]	n/a	catFR1	0	R1354E
758.173	0.523	758761	DISTRACT_END	n/a	n/a	n/a	n/a	-999	5	[0, 0, 0]	n/a	catFR1	0	R1354E
758.696	1.56	759284	RETRIEVAL_ORIENT_START	n/a	n/a	n/a	n/a	-999	5	[0, 0, 0]	n/a	catFR1	0	R1354E
760.256	0.0	760843	RETRIEVAL_ORIENT_END	n/a	n/a	n/a	n/a	-999	5	[0, 0, 0]	n/a	catFR1	0	R1354E
760.256	0.756	760843	REC_START	n/a	n/a	n/a	n/a	-999	5	[0, 0, 0]	n/a	catFR1	0	R1354E
761.012	0.753	761599	REC_WORD	0.753	n/a	FOOTBALL	Toys	6	5	[0, 0, 0]	n/a	catFR1	0	R1354E
761.765	1.04	762352	REC_WORD	1.04	n/a	BASEBALL	Toys	12	5	[0, 0, 0]	n/a	catFR1	0	R1354E
762.805	1.134	763392	REC_WORD	1.134	n/a	ORCHID	Flowers	2	5	[0, 0, 0]	n/a	catFR1	0	R1354E
763.939	1.39	764526	REC_WORD	1.39	n/a	ORCHID	Flowers	2	5	[0, 0, 0]	n/a	catFR1	0	R1354E
765.329	23.183	765916	REC_WORD	23.183	n/a	BLOCKS	Toys	11	5	[0, 0, 0]	n/a	catFR1	0	R1354E
788.512	1.756	789099	REC_WORD	1.756	n/a	DAFFODIL	Flowers	7	5	[0, 0, 0]	n/a	catFR1	0	R1354E
790.268	0.0	790854	REC_END	n/a	n/a	n/a	n/a	-999	5	[0, 0, 0]	n/a	catFR1	0	R1354E
790.268	0.027	790854	TRIAL_END	n/a	n/a	n/a	n/a	-999	5	[0, 0, 0]	n/a	catFR1	0	R1354E
790.295	0.0	790881	TRIAL_START	n/a	n/a	n/a	n/a	-999	6	[0, 0, 0]	n/a	catFR1	0	R1354E
790.295	0.0	790881	TRIAL	n/a	n/a	n/a	n/a	-999	6	[0, 0, 0]	n/a	catFR1	0	R1354E
790.295	7.268	790881	WAITING_START	n/a	n/a	n/a	n/a	-999	6	[0, 0, 0]	n/a	catFR1	0	R1354E
797.563	0.001	798149	WAITING_END	n/a	n/a	n/a	n/a	-999	6	[0, 0, 0]	n/a	catFR1	0	R1354E
797.564	10.429	798150	COUNTDOWN_START	n/a	n/a	n/a	n/a	-999	6	[0, 0, 0]	n/a	catFR1	0	R1354E
807.993	0.001	808579	COUNTDOWN_END	n/a	n/a	n/a	n/a	-999	6	[0, 0, 0]	n/a	catFR1	0	R1354E
807.994	1.038	808580	ORIENT_START	n/a	n/a	n/a	n/a	-999	6	[0, 0, 0]	n/a	catFR1	0	R1354E
809.032	0.001	809618	ORIENT_END	n/a	n/a	n/a	n/a	-999	6	[0, 0, 0]	n/a	catFR1	0	R1354E
809.033	0.993	809619	ENCODING_START	n/a	n/a	n/a	n/a	-999	6	[0, 0, 0]	n/a	catFR1	0	R1354E
810.026	1.623	810612	WORD	n/a	wordpools/wordpool_categorized_EN.txt	ROOSTER	FarmAnimals	1	6	[0, 0, 0]	n/a	catFR1	0	R1354E
811.649	1.06	812235	WORD_OFF	n/a	n/a	ROOSTER	FarmAnimals	1	6	[0, 0, 0]	n/a	catFR1	0	R1354E
812.709	1.624	813295	WORD	n/a	wordpools/wordpool_categorized_EN.txt	SHEEP	FarmAnimals	2	6	[0, 0, 0]	n/a	catFR1	0	R1354E
814.333	0.957	814919	WORD_OFF	n/a	n/a	SHEEP	FarmAnimals	2	6	[0, 0, 0]	n/a	catFR1	0	R1354E
815.29	1.627	815876	WORD	n/a	wordpools/wordpool_categorized_EN.txt	SHELF	Furniture	3	6	[0, 0, 0]	n/a	catFR1	0	R1354E
816.917	1.048	817503	WORD_OFF	n/a	n/a	SHELF	Furniture	3	6	[0, 0, 0]	n/a	catFR1	0	R1354E
817.965	1.636	818550	WORD	n/a	wordpools/wordpool_categorized_EN.txt	TABLE	Furniture	4	6	[0, 0, 0]	n/a	catFR1	0	R1354E
819.601	0.946	820186	WORD_OFF	n/a	n/a	TABLE	Furniture	4	6	[0, 0, 0]	n/a	catFR1	0	R1354E
820.547	1.637	821132	WORD	n/a	wordpools/wordpool_categorized_EN.txt	WHISK	KitchenTools	5	6	[0, 0, 0]	n/a	catFR1	0	R1354E
822.184	0.979	822769	WORD_OFF	n/a	n/a	WHISK	KitchenTools	5	6	[0, 0, 0]	n/a	catFR1	0	R1354E
823.163	1.622	823748	WORD	n/a	wordpools/wordpool_categorized_EN.txt	SPOON	KitchenTools	6	6	[0, 0, 0]	n/a	catFR1	0	R1354E
824.785	0.921	825370	WORD_OFF	n/a	n/a	SPOON	KitchenTools	6	6	[0, 0, 0]	n/a	catFR1	0	R1354E
825.706	1.629	826291	WORD	n/a	wordpools/wordpool_categorized_EN.txt	DRESSER	Furniture	7	6	[0, 0, 0]	n/a	catFR1	0	R1354E
827.335	1.073	827920	WORD_OFF	n/a	n/a	DRESSER	Furniture	7	6	[0, 0, 0]	n/a	catFR1	0	R1354E
828.408	1.628	828993	WORD	n/a	wordpools/wordpool_categorized_EN.txt	NIGHTSTAND	Furniture	8	6	[0, 0, 0]	n/a	catFR1	0	R1354E
830.036	0.75	830621	WORD_OFF	n/a	n/a	NIGHTSTAND	Furniture	8	6	[0, 0, 0]	n/a	catFR1	0	R1354E
830.786	1.633	831371	WORD	n/a	wordpools/wordpool_categorized_EN.txt	CHICKEN	FarmAnimals	9	6	[0, 0, 0]	n/a	catFR1	0	R1354E
832.419	0.935	833004	WORD_OFF	n/a	n/a	CHICKEN	FarmAnimals	9	6	[0, 0, 0]	n/a	catFR1	0	R1354E
833.354	1.633	833939	WORD	n/a	wordpools/wordpool_categorized_EN.txt	LAMB	FarmAnimals	10	6	[0, 0, 0]	n/a	catFR1	0	R1354E
834.987	0.957	835572	WORD_OFF	n/a	n/a	LAMB	FarmAnimals	10	6	[0, 0, 0]	n/a	catFR1	0	R1354E
835.944	1.626	836529	WORD	n/a	wordpools/wordpool_categorized_EN.txt	SPATULA	KitchenTools	11	6	[0, 0, 0]	n/a	catFR1	0	R1354E
837.57	1.11	838155	WORD_OFF	n/a	n/a	SPATULA	KitchenTools	11	6	[0, 0, 0]	n/a	catFR1	0	R1354E
838.68	1.624	839265	WORD	n/a	wordpools/wordpool_categorized_EN.txt	COLANDER	KitchenTools	12	6	[0, 0, 0]	n/a	catFR1	0	R1354E
840.304	0.0	840889	WORD_OFF	n/a	n/a	COLANDER	KitchenTools	12	6	[0, 0, 0]	n/a	catFR1	0	R1354E
840.304	0.001	840889	ENCODING_END	n/a	n/a	n/a	n/a	-999	6	[0, 0, 0]	n/a	catFR1	0	R1354E
840.305	0.0	840890	DISTRACT_START	n/a	n/a	n/a	n/a	-999	6	[0, 0, 0]	n/a	catFR1	0	R1354E
840.305	0.016	840890	START	n/a	n/a	n/a	n/a	-999	6	[-999, -999, -999]	n/a	catFR1	0	R1354E
840.321	6.301	840906	PROB	6.301	n/a	n/a	n/a	-999	6	[7, 8, 5]	20	catFR1	0	R1354E
846.622	2.8	847206	PROB	2.8	n/a	n/a	n/a	-999	6	[8, 6, 3]	17	catFR1	0	R1354E
849.422	2.467	850006	PROB	2.467	n/a	n/a	n/a	-999	6	[6, 3, 8]	17	catFR1	0	R1354E
851.889	2.534	852473	PROB	2.534	n/a	n/a	n/a	-999	6	[7, 1, 9]	17	catFR1	0	R1354E
854.423	2.367	855007	PROB	2.367	n/a	n/a	n/a	-999	6	[1, 7, 8]	16	catFR1	0	R1354E
856.79	2.667	857374	PROB	2.667	n/a	n/a	n/a	-999	6	[6, 8, 3]	17	catFR1	0	R1354E
859.457	1.867	860041	PROB	1.867	n/a	n/a	n/a	-999	6	[6, 8, 1]	15	catFR1	0	R1354E
861.324	0.017	861908	STOP	n/a	n/a	n/a	n/a	-999	6	[-999, -999, -999]	n/a	catFR1	0	R1354E
861.341	0.574	861925	DISTRACT_END	n/a	n/a	n/a	n/a	-999	6	[0, 0, 0]	n/a	catFR1	0	R1354E
861.915	1.543	862499	RETRIEVAL_ORIENT_START	n/a	n/a	n/a	n/a	-999	6	[0, 0, 0]	n/a	catFR1	0	R1354E
863.458	0.001	864042	RETRIEVAL_ORIENT_END	n/a	n/a	n/a	n/a	-999	6	[0, 0, 0]	n/a	catFR1	0	R1354E
863.459	0.242	864043	REC_START	n/a	n/a	n/a	n/a	-999	6	[0, 0, 0]	n/a	catFR1	0	R1354E
863.701	0.635	864285	REC_WORD_VV	0.635	n/a	<>	n/a	-999	6	[0, 0, 0]	n/a	catFR1	0	R1354E
864.336	1.0	864920	REC_WORD	1.0	n/a	CHICKEN	FarmAnimals	9	6	[0, 0, 0]	n/a	catFR1	0	R1354E
865.336	0.439	865920	REC_WORD_VV	0.439	n/a	<>	n/a	-999	6	[0, 0, 0]	n/a	catFR1	0	R1354E
865.775	1.684	866359	REC_WORD	1.684	n/a	ROOSTER	FarmAnimals	1	6	[0, 0, 0]	n/a	catFR1	0	R1354E
867.459	1.433	868043	REC_WORD	1.433	n/a	LAMB	FarmAnimals	10	6	[0, 0, 0]	n/a	catFR1	0	R1354E
868.892	1.0	869476	REC_WORD	1.0	n/a	SPATULA	KitchenTools	11	6	[0, 0, 0]	n/a	catFR1	0	R1354E
869.892	7.694	870476	REC_WORD_VV	7.694	n/a	<>	n/a	-999	6	[0, 0, 0]	n/a	catFR1	0	R1354E
877.586	1.906	878169	REC_WORD	1.906	n/a	SPATULA	KitchenTools	11	6	[0, 0, 0]	n/a	catFR1	0	R1354E
879.492	13.978	880075	REC_WORD_VV	13.978	n/a	<>	n/a	-999	6	[0, 0, 0]	n/a	catFR1	0	R1354E
893.47	0.0	894053	REC_END	n/a	n/a	n/a	n/a	-999	6	[0, 0, 0]	n/a	catFR1	0	R1354E
893.47	0.028	894053	TRIAL_END	n/a	n/a	n/a	n/a	-999	6	[0, 0, 0]	n/a	catFR1	0	R1354E
893.498	0.001	894081	TRIAL_START	n/a	n/a	n/a	n/a	-999	7	[0, 0, 0]	n/a	catFR1	0	R1354E
893.499	0.0	894082	TRIAL	n/a	n/a	n/a	n/a	-999	7	[0, 0, 0]	n/a	catFR1	0	R1354E
893.499	3.215	894082	WAITING_START	n/a	n/a	n/a	n/a	-999	7	[0, 0, 0]	n/a	catFR1	0	R1354E
896.714	0.0	897297	WAITING_END	n/a	n/a	n/a	n/a	-999	7	[0, 0, 0]	n/a	catFR1	0	R1354E
896.714	10.429	897297	COUNTDOWN_START	n/a	n/a	n/a	n/a	-999	7	[0, 0, 0]	n/a	catFR1	0	R1354E
907.143	0.0	907725	COUNTDOWN_END	n/a	n/a	n/a	n/a	-999	7	[0, 0, 0]	n/a	catFR1	0	R1354E
907.143	1.055	907725	ORIENT_START	n/a	n/a	n/a	n/a	-999	7	[0, 0, 0]	n/a	catFR1	0	R1354E
908.198	0.001	908780	ORIENT_END	n/a	n/a	n/a	n/a	-999	7	[0, 0, 0]	n/a	catFR1	0	R1354E
908.199	0.927	908781	ENCODING_START	n/a	n/a	n/a	n/a	-999	7	[0, 0, 0]	n/a	catFR1	0	R1354E
909.126	1.624	909708	WORD	n/a	wordpools/wordpool_categorized_EN.txt	HAWK	Birds	1	7	[0, 0, 0]	n/a	catFR1	0	R1354E
910.75	1.028	911332	WORD_OFF	n/a	n/a	HAWK	Birds	1	7	[0, 0, 0]	n/a	catFR1	0	R1354E
911.778	1.622	912360	WORD	n/a	wordpools/wordpool_categorized_EN.txt	PIGEON	Birds	2	7	[0, 0, 0]	n/a	catFR1	0	R1354E
913.4	1.095	913982	WORD_OFF	n/a	n/a	PIGEON	Birds	2	7	[0, 0, 0]	n/a	catFR1	0	R1354E
914.495	1.622	915077	WORD	n/a	wordpools/wordpool_categorized_EN.txt	SHORTS	Clothing	3	7	[0, 0, 0]	n/a	catFR1	0	R1354E
916.117	0.847	916699	WORD_OFF	n/a	n/a	SHORTS	Clothing	3	7	[0, 0, 0]	n/a	catFR1	0	R1354E
916.964	1.62	917546	WORD	n/a	wordpools/wordpool_categorized_EN.txt	BLOUSE	Clothing	4	7	[0, 0, 0]	n/a	catFR1	0	R1354E
918.584	0.786	919166	WORD_OFF	n/a	n/a	BLOUSE	Clothing	4	7	[0, 0, 0]	n/a	catFR1	0	R1354E
919.37	1.632	919952	WORD	n/a	wordpools/wordpool_categorized_EN.txt	PIE	Desserts	5	7	[0, 0, 0]	n/a	catFR1	0	R1354E
921.002	0.952	921584	WORD_OFF	n/a	n/a	PIE	Desserts	5	7	[0, 0, 0]	n/a	catFR1	0	R1354E
921.954	1.631	922536	WORD	n/a	wordpools/wordpool_categorized_EN.txt	PASTRY	Desserts	6	7	[0, 0, 0]	n/a	catFR1	0	R1354E
923.585	0.783	924167	WORD_OFF	n/a	n/a	PASTRY	Desserts	6	7	[0, 0, 0]	n/a	catFR1	0	R1354E
924.368	1.634	924950	WORD	n/a	wordpools/wordpool_categorized_EN.txt	GOOSE	Birds	7	7	[0, 0, 0]	n/a	catFR1	0	R1354E
926.002	0.858	926584	WORD_OFF	n/a	n/a	GOOSE	Birds	7	7	[0, 0, 0]	n/a	catFR1	0	R1354E
926.86	1.626	927442	WORD	n/a	wordpools/wordpool_categorized_EN.txt	CROW	Birds	8	7	[0, 0, 0]	n/a	catFR1	0	R1354E
928.486	1.045	929068	WORD_OFF	n/a	n/a	CROW	Birds	8	7	[0, 0, 0]	n/a	catFR1	0	R1354E
929.531	1.622	930113	WORD	n/a	wordpools/wordpool_categorized_EN.txt	FUDGE	Desserts	9	7	[0, 0, 0]	n/a	catFR1	0	R1354E
931.153	1.074	931735	WORD_OFF	n/a	n/a	FUDGE	Desserts	9	7	[0, 0, 0]	n/a	catFR1	0	R1354E
932.227	1.627	932809	WORD	n/a	wordpools/wordpool_categorized_EN.txt	COOKIE	Desserts	10	7	[0, 0, 0]	n/a	catFR1	0	R1354E
933.854	1.116	934435	WORD_OFF	n/a	n/a	COOKIE	Desserts	10	7	[0, 0, 0]	n/a	catFR1	0	R1354E
934.97	1.634	935551	WORD	n/a	wordpools/wordpool_categorized_EN.txt	DRESS	Clothing	11	7	[0, 0, 0]	n/a	catFR1	0	R1354E
936.604	0.974	937185	WORD_OFF	n/a	n/a	DRESS	Clothing	11	7	[0, 0, 0]	n/a	catFR1	0	R1354E
937.578	1.626	938159	WORD	n/a	wordpools/wordpool_categorized_EN.txt	UNDERWEAR	Clothing	12	7	[0, 0, 0]	n/a	catFR1	0	R1354E
939.204	0.0	939785	WORD_OFF	n/a	n/a	UNDERWEAR	Clothing	12	7	[0, 0, 0]	n/a	catFR1	0	R1354E
939.204	0.0	939785	ENCODING_END	n/a	n/a	n/a	n/a	-999	7	[0, 0, 0]	n/a	catFR1	0	R1354E
939.204	0.001	939785	DISTRACT_START	n/a	n/a	n/a	n/a	-999	7	[0, 0, 0]	n/a	catFR1	0	R1354E
939.205	0.015	939786	START	n/a	n/a	n/a	n/a	-999	7	[-999, -999, -999]	n/a	catFR1	0	R1354E
939.22	1.885	939801	PROB	1.885	n/a	n/a	n/a	-999	7	[6, 1, 6]	13	catFR1	0	R1354E
941.105	1.633	941686	PROB	1.633	n/a	n/a	n/a	-999	7	[2, 2, 8]	12	catFR1	0	R1354E
942.738	1.867	943319	PROB	1.867	n/a	n/a	n/a	-999	7	[3, 4, 3]	10	catFR1	0	R1354E
944.605	2.918	945186	PROB	2.918	n/a	n/a	n/a	-999	7	[9, 6, 8]	23	catFR1	0	R1354E
947.523	1.85	948104	PROB	1.85	n/a	n/a	n/a	-999	7	[4, 3, 8]	15	catFR1	0	R1354E
949.373	1.634	949954	PROB	1.634	n/a	n/a	n/a	-999	7	[7, 5, 3]	15	catFR1	0	R1354E
951.007	2.167	951588	PROB	2.167	n/a	n/a	n/a	-999	7	[2, 7, 5]	14	catFR1	0	R1354E
953.174	2.65	953755	PROB	2.65	n/a	n/a	n/a	-999	7	[9, 6, 9]	24	catFR1	0	R1354E
955.824	1.75	956405	PROB	1.75	n/a	n/a	n/a	-999	7	[5, 2, 7]	14	catFR1	0	R1354E
957.574	6.606	958155	PROB	6.606	n/a	n/a	n/a	-999	7	[9, 9, 7]	25	catFR1	0	R1354E
964.18	0.011	964760	STOP	n/a	n/a	n/a	n/a	-999	7	[-999, -999, -999]	n/a	catFR1	0	R1354E
964.191	0.508	964771	DISTRACT_END	n/a	n/a	n/a	n/a	-999	7	[0, 0, 0]	n/a	catFR1	0	R1354E
964.699	1.661	965279	RETRIEVAL_ORIENT_START	n/a	n/a	n/a	n/a	-999	7	[0, 0, 0]	n/a	catFR1	0	R1354E
966.36	0.0	966940	RETRIEVAL_ORIENT_END	n/a	n/a	n/a	n/a	-999	7	[0, 0, 0]	n/a	catFR1	0	R1354E
966.36	0.56	966940	REC_START	n/a	n/a	n/a	n/a	-999	7	[0, 0, 0]	n/a	catFR1	0	R1354E
966.92	1.581	967500	REC_WORD	1.581	n/a	HAWK	Birds	1	7	[0, 0, 0]	n/a	catFR1	0	R1354E
968.501	1.0	969081	REC_WORD	1.0	n/a	SHORTS	Clothing	3	7	[0, 0, 0]	n/a	catFR1	0	R1354E
969.501	0.861	970081	REC_WORD_VV	0.861	n/a	<>	n/a	-999	7	[0, 0, 0]	n/a	catFR1	0	R1354E
970.362	1.669	970942	REC_WORD	1.669	n/a	UNDERWEAR	Clothing	12	7	[0, 0, 0]	n/a	catFR1	0	R1354E
972.031	1.579	972611	REC_WORD	1.579	n/a	PIE	Desserts	5	7	[0, 0, 0]	n/a	catFR1	0	R1354E
973.61	1.0	974190	REC_WORD	1.0	n/a	FUDGE	Desserts	9	7	[0, 0, 0]	n/a	catFR1	0	R1354E
974.61	0.827	975190	REC_WORD_VV	0.827	n/a	<>	n/a	-999	7	[0, 0, 0]	n/a	catFR1	0	R1354E
975.437	20.933	976017	REC_WORD	20.933	n/a	BLOUSE	Clothing	4	7	[0, 0, 0]	n/a	catFR1	0	R1354E
996.37	0.001	996949	REC_END	n/a	n/a	n/a	n/a	-999	7	[0, 0, 0]	n/a	catFR1	0	R1354E
996.371	0.025	996950	TRIAL_END	n/a	n/a	n/a	n/a	-999	7	[0, 0, 0]	n/a	catFR1	0	R1354E
996.396	0.0	996975	TRIAL_START	n/a	n/a	n/a	n/a	-999	8	[0, 0, 0]	n/a	catFR1	0	R1354E
996.396	0.0	996975	TRIAL	n/a	n/a	n/a	n/a	-999	8	[0, 0, 0]	n/a	catFR1	0	R1354E
996.396	10.587	996975	WAITING_START	n/a	n/a	n/a	n/a	-999	8	[0, 0, 0]	n/a	catFR1	0	R1354E
1006.983	0.001	1007562	WAITING_END	n/a	n/a	n/a	n/a	-999	8	[0, 0, 0]	n/a	catFR1	0	R1354E
1006.984	10.429	1007563	COUNTDOWN_START	n/a	n/a	n/a	n/a	-999	8	[0, 0, 0]	n/a	catFR1	0	R1354E
1017.413	0.0	1017992	COUNTDOWN_END	n/a	n/a	n/a	n/a	-999	8	[0, 0, 0]	n/a	catFR1	0	R1354E
1017.413	1.106	1017992	ORIENT_START	n/a	n/a	n/a	n/a	-999	8	[0, 0, 0]	n/a	catFR1	0	R1354E
1018.519	0.0	1019098	ORIENT_END	n/a	n/a	n/a	n/a	-999	8	[0, 0, 0]	n/a	catFR1	0	R1354E
1018.519	0.947	1019098	ENCODING_START	n/a	n/a	n/a	n/a	-999	8	[0, 0, 0]	n/a	catFR1	0	R1354E
1019.466	1.636	1020044	WORD	n/a	wordpools/wordpool_categorized_EN.txt	TONGS	KitchenTools	1	8	[0, 0, 0]	n/a	catFR1	0	R1354E
1021.102	0.835	1021680	WORD_OFF	n/a	n/a	TONGS	KitchenTools	1	8	[0, 0, 0]	n/a	catFR1	0	R1354E
1021.937	1.633	1022515	WORD	n/a	wordpools/wordpool_categorized_EN.txt	GRATER	KitchenTools	2	8	[0, 0, 0]	n/a	catFR1	0	R1354E
1023.57	0.968	1024148	WORD_OFF	n/a	n/a	GRATER	KitchenTools	2	8	[0, 0, 0]	n/a	catFR1	0	R1354E
1024.538	1.632	1025116	WORD	n/a	wordpools/wordpool_categorized_EN.txt	FISH	OceanAnimals	3	8	[0, 0, 0]	n/a	catFR1	0	R1354E
1026.17	0.901	1026748	WORD_OFF	n/a	n/a	FISH	OceanAnimals	3	8	[0, 0, 0]	n/a	catFR1	0	R1354E
1027.071	1.633	1027649	WORD	n/a	wordpools/wordpool_categorized_EN.txt	OCTOPUS	OceanAnimals	4	8	[0, 0, 0]	n/a	catFR1	0	R1354E
1028.704	0.905	1029282	WORD_OFF	n/a	n/a	OCTOPUS	OceanAnimals	4	8	[0, 0, 0]	n/a	catFR1	0	R1354E
1029.609	1.628	1030187	WORD	n/a	wordpools/wordpool_categorized_EN.txt	RULER	OfficeSupplies	5	8	[0, 0, 0]	n/a	catFR1	0	R1354E
1031.237	1.031	1031815	WORD_OFF	n/a	n/a	RULER	OfficeSupplies	5	8	[0, 0, 0]	n/a	catFR1	0	R1354E
1032.268	1.637	1032846	WORD	n/a	wordpools/wordpool_categorized_EN.txt	PENCIL	OfficeSupplies	6	8	[0, 0, 0]	n/a	catFR1	0	R1354E
1033.905	1.047	1034483	WORD_OFF	n/a	n/a	PENCIL	OfficeSupplies	6	8	[0, 0, 0]	n/a	catFR1	0	R1354E
1034.952	1.636	1035530	WORD	n/a	wordpools/wordpool_categorized_EN.txt	CORKSCREW	KitchenTools	7	8	[0, 0, 0]	n/a	catFR1	0	R1354E
1036.588	0.843	1037166	WORD_OFF	n/a	n/a	CORKSCREW	KitchenTools	7	8	[0, 0, 0]	n/a	catFR1	0	R1354E
1037.431	1.625	1038009	WORD	n/a	wordpools/wordpool_categorized_EN.txt	PEELER	KitchenTools	8	8	[0, 0, 0]	n/a	catFR1	0	R1354E
1039.056	0.949	1039634	WORD_OFF	n/a	n/a	PEELER	KitchenTools	8	8	[0, 0, 0]	n/a	catFR1	0	R1354E
1040.005	1.634	1040583	WORD	n/a	wordpools/wordpool_categorized_EN.txt	WHALE	OceanAnimals	9	8	[0, 0, 0]	n/a	catFR1	0	R1354E
1041.639	0.781	1042217	WORD_OFF	n/a	n/a	WHALE	OceanAnimals	9	8	[0, 0, 0]	n/a	catFR1	0	R1354E
1042.42	1.636	1042998	WORD	n/a	wordpools/wordpool_categorized_EN.txt	SHRIMP	OceanAnimals	10	8	[0, 0, 0]	n/a	catFR1	0	R1354E
1044.056	0.876	1044634	WORD_OFF	n/a	n/a	SHRIMP	OceanAnimals	10	8	[0, 0, 0]	n/a	catFR1	0	R1354E
1044.932	1.625	1045510	WORD	n/a	wordpools/wordpool_categorized_EN.txt	FOLDER	OfficeSupplies	11	8	[0, 0, 0]	n/a	catFR1	0	R1354E
1046.557	1.026	1047135	WORD_OFF	n/a	n/a	FOLDER	OfficeSupplies	11	8	[0, 0, 0]	n/a	catFR1	0	R1354E
1047.583	1.623	1048160	WORD	n/a	wordpools/wordpool_categorized_EN.txt	NOTEBOOK	OfficeSupplies	12	8	[0, 0, 0]	n/a	catFR1	0	R1354E
1049.206	0.001	1049783	WORD_OFF	n/a	n/a	NOTEBOOK	OfficeSupplies	12	8	[0, 0, 0]	n/a	catFR1	0	R1354E
1049.207	0.0	1049784	ENCODING_END	n/a	n/a	n/a	n/a	-999	8	[0, 0, 0]	n/a	catFR1	0	R1354E
1049.207	0.0	1049784	DISTRACT_START	n/a	n/a	n/a	n/a	-999	8	[0, 0, 0]	n/a	catFR1	0	R1354E
1049.207	0.016	1049784	START	n/a	n/a	n/a	n/a	-999	8	[-999, -999, -999]	n/a	catFR1	0	R1354E
1049.223	3.118	1049800	PROB	3.118	n/a	n/a	n/a	-999	8	[8, 9, 5]	22	catFR1	0	R1354E
1052.341	2.367	1052918	PROB	2.367	n/a	n/a	n/a	-999	8	[4, 4, 8]	16	catFR1	0	R1354E
1054.708	2.516	1055285	PROB	2.516	n/a	n/a	n/a	-999	8	[8, 1, 6]	17	catFR1	0	R1354E
1057.224	3.051	1057801	PROB	3.051	n/a	n/a	n/a	-999	8	[8, 1, 7]	16	catFR1	0	R1354E
1060.275	2.601	1060852	PROB	2.601	n/a	n/a	n/a	-999	8	[6, 7, 9]	22	catFR1	0	R1354E
1062.876	2.534	1063453	PROB	2.534	n/a	n/a	n/a	-999	8	[8, 3, 6]	15	catFR1	0	R1354E
1065.41	2.85	1065987	PROB	2.85	n/a	n/a	n/a	-999	8	[4, 1, 9]	14	catFR1	0	R1354E
1068.26	1.791	1068837	PROB	1.791	n/a	n/a	n/a	-999	8	[4, 3, 1]	8	catFR1	0	R1354E
1070.051	0.01	1070628	STOP	n/a	n/a	n/a	n/a	-999	8	[-999, -999, -999]	n/a	catFR1	0	R1354E
1070.061	0.518	1070638	DISTRACT_END	n/a	n/a	n/a	n/a	-999	8	[0, 0, 0]	n/a	catFR1	0	R1354E
1070.579	1.698	1071156	RETRIEVAL_ORIENT_START	n/a	n/a	n/a	n/a	-999	8	[0, 0, 0]	n/a	catFR1	0	R1354E
1072.277	0.0	1072854	RETRIEVAL_ORIENT_END	n/a	n/a	n/a	n/a	-999	8	[0, 0, 0]	n/a	catFR1	0	R1354E
1072.277	0.954	1072854	REC_START	n/a	n/a	n/a	n/a	-999	8	[0, 0, 0]	n/a	catFR1	0	R1354E
1073.231	0.88	1073808	REC_WORD	0.88	n/a	TONGS	KitchenTools	1	8	[0, 0, 0]	n/a	catFR1	0	R1354E
1074.111	1.488	1074688	REC_WORD	1.488	n/a	GRATER	KitchenTools	2	8	[0, 0, 0]	n/a	catFR1	0	R1354E
1075.599	6.744	1076176	REC_WORD	6.744	n/a	SHRIMP	OceanAnimals	10	8	[0, 0, 0]	n/a	catFR1	0	R1354E
1082.343	19.947	1082919	REC_WORD_VV	19.947	n/a	<>	n/a	-999	8	[0, 0, 0]	n/a	catFR1	0	R1354E
1102.29	0.0	1102866	REC_END	n/a	n/a	n/a	n/a	-999	8	[0, 0, 0]	n/a	catFR1	0	R1354E
1102.29	0.025	1102866	TRIAL_END	n/a	n/a	n/a	n/a	-999	8	[0, 0, 0]	n/a	catFR1	0	R1354E
1102.315	0.001	1102891	TRIAL_START	n/a	n/a	n/a	n/a	-999	9	[0, 0, 0]	n/a	catFR1	0	R1354E
1102.316	0.0	1102892	TRIAL	n/a	n/a	n/a	n/a	-999	9	[0, 0, 0]	n/a	catFR1	0	R1354E
1102.316	10.069	1102892	WAITING_START	n/a	n/a	n/a	n/a	-999	9	[0, 0, 0]	n/a	catFR1	0	R1354E
1112.385	0.001	1112960	WAITING_END	n/a	n/a	n/a	n/a	-999	9	[0, 0, 0]	n/a	catFR1	0	R1354E
1112.386	10.428	1112961	COUNTDOWN_START	n/a	n/a	n/a	n/a	-999	9	[0, 0, 0]	n/a	catFR1	0	R1354E
1122.814	0.0	1123389	COUNTDOWN_END	n/a	n/a	n/a	n/a	-999	9	[0, 0, 0]	n/a	catFR1	0	R1354E
1122.814	1.09	1123389	ORIENT_START	n/a	n/a	n/a	n/a	-999	9	[0, 0, 0]	n/a	catFR1	0	R1354E
1123.904	0.0	1124479	ORIENT_END	n/a	n/a	n/a	n/a	-999	9	[0, 0, 0]	n/a	catFR1	0	R1354E
1123.904	0.755	1124479	ENCODING_START	n/a	n/a	n/a	n/a	-999	9	[0, 0, 0]	n/a	catFR1	0	R1354E
1124.659	1.629	1125234	WORD	n/a	wordpools/wordpool_categorized_EN.txt	KNEE	BodyParts	1	9	[0, 0, 0]	n/a	catFR1	0	R1354E
1126.288	0.852	1126863	WORD_OFF	n/a	n/a	KNEE	BodyParts	1	9	[0, 0, 0]	n/a	catFR1	0	R1354E
1127.14	1.631	1127715	WORD	n/a	wordpools/wordpool_categorized_EN.txt	ELBOW	BodyParts	2	9	[0, 0, 0]	n/a	catFR1	0	R1354E
1128.771	0.783	1129346	WORD_OFF	n/a	n/a	ELBOW	BodyParts	2	9	[0, 0, 0]	n/a	catFR1	0	R1354E
1129.554	1.634	1130129	WORD	n/a	wordpools/wordpool_categorized_EN.txt	MAPLE	Trees	3	9	[0, 0, 0]	n/a	catFR1	0	R1354E
1131.188	1.072	1131763	WORD_OFF	n/a	n/a	MAPLE	Trees	3	9	[0, 0, 0]	n/a	catFR1	0	R1354E
1132.26	1.629	1132835	WORD	n/a	wordpools/wordpool_categorized_EN.txt	CEDAR	Trees	4	9	[0, 0, 0]	n/a	catFR1	0	R1354E
1133.889	0.862	1134463	WORD_OFF	n/a	n/a	CEDAR	Trees	4	9	[0, 0, 0]	n/a	catFR1	0	R1354E
1134.751	1.638	1135325	WORD	n/a	wordpools/wordpool_categorized_EN.txt	ONION	Vegetables	5	9	[0, 0, 0]	n/a	catFR1	0	R1354E
1136.389	0.773	1136963	WORD_OFF	n/a	n/a	ONION	Vegetables	5	9	[0, 0, 0]	n/a	catFR1	0	R1354E
1137.162	1.628	1137736	WORD	n/a	wordpools/wordpool_categorized_EN.txt	BROCCOLI	Vegetables	6	9	[0, 0, 0]	n/a	catFR1	0	R1354E
1138.79	0.799	1139364	WORD_OFF	n/a	n/a	BROCCOLI	Vegetables	6	9	[0, 0, 0]	n/a	catFR1	0	R1354E
1139.589	1.633	1140163	WORD	n/a	wordpools/wordpool_categorized_EN.txt	FINGERS	BodyParts	7	9	[0, 0, 0]	n/a	catFR1	0	R1354E
1141.222	0.77	1141796	WORD_OFF	n/a	n/a	FINGERS	BodyParts	7	9	[0, 0, 0]	n/a	catFR1	0	R1354E
1141.992	1.632	1142566	WORD	n/a	wordpools/wordpool_categorized_EN.txt	LEG	BodyParts	8	9	[0, 0, 0]	n/a	catFR1	0	R1354E
1143.624	0.814	1144198	WORD_OFF	n/a	n/a	LEG	BodyParts	8	9	[0, 0, 0]	n/a	catFR1	0	R1354E
1144.438	1.636	1145012	WORD	n/a	wordpools/wordpool_categorized_EN.txt	CORN	Vegetables	9	9	[0, 0, 0]	n/a	catFR1	0	R1354E
1146.074	1.058	1146648	WORD_OFF	n/a	n/a	CORN	Vegetables	9	9	[0, 0, 0]	n/a	catFR1	0	R1354E
1147.132	1.626	1147706	WORD	n/a	wordpools/wordpool_categorized_EN.txt	CAULIFLOWER	Vegetables	10	9	[0, 0, 0]	n/a	catFR1	0	R1354E
1148.758	0.768	1149332	WORD_OFF	n/a	n/a	CAULIFLOWER	Vegetables	10	9	[0, 0, 0]	n/a	catFR1	0	R1354E
1149.526	1.633	1150100	WORD	n/a	wordpools/wordpool_categorized_EN.txt	PINE	Trees	11	9	[0, 0, 0]	n/a	catFR1	0	R1354E
1151.159	1.123	1151733	WORD_OFF	n/a	n/a	PINE	Trees	11	9	[0, 0, 0]	n/a	catFR1	0	R1354E
1152.282	1.627	1152856	WORD	n/a	wordpools/wordpool_categorized_EN.txt	CYPRESS	Trees	12	9	[0, 0, 0]	n/a	catFR1	0	R1354E
1153.909	0.001	1154483	WORD_OFF	n/a	n/a	CYPRESS	Trees	12	9	[0, 0, 0]	n/a	catFR1	0	R1354E
1153.91	0.0	1154484	ENCODING_END	n/a	n/a	n/a	n/a	-999	9	[0, 0, 0]	n/a	catFR1	0	R1354E
1153.91	0.0	1154484	DISTRACT_START	n/a	n/a	n/a	n/a	-999	9	[0, 0, 0]	n/a	catFR1	0	R1354E
1153.91	0.015	1154484	START	n/a	n/a	n/a	n/a	-999	9	[-999, -999, -999]	n/a	catFR1	0	R1354E
1153.925	4.135	1154499	PROB	4.135	n/a	n/a	n/a	-999	9	[8, 9, 3]	20	catFR1	0	R1354E
1158.06	1.483	1158634	PROB	1.483	n/a	n/a	n/a	-999	9	[1, 2, 3]	6	catFR1	0	R1354E
1159.543	2.451	1160117	PROB	2.451	n/a	n/a	n/a	-999	9	[4, 2, 3]	9	catFR1	0	R1354E
1161.994	1.783	1162568	PROB	1.783	n/a	n/a	n/a	-999	9	[8, 2, 6]	16	catFR1	0	R1354E
1163.777	2.301	1164350	PROB	2.301	n/a	n/a	n/a	-999	9	[2, 5, 1]	8	catFR1	0	R1354E
1166.078	2.333	1166651	PROB	2.333	n/a	n/a	n/a	-999	9	[6, 8, 3]	17	catFR1	0	R1354E
1168.411	2.201	1168984	PROB	2.201	n/a	n/a	n/a	-999	9	[7, 2, 9]	18	catFR1	0	R1354E
1170.612	2.117	1171185	PROB	2.117	n/a	n/a	n/a	-999	9	[6, 8, 5]	19	catFR1	0	R1354E
1172.729	1.72	1173302	PROB	1.72	n/a	n/a	n/a	-999	9	[9, 8, 2]	19	catFR1	0	R1354E
1174.449	0.014	1175022	STOP	n/a	n/a	n/a	n/a	-999	9	[-999, -999, -999]	n/a	catFR1	0	R1354E
1174.463	0.509	1175036	DISTRACT_END	n/a	n/a	n/a	n/a	-999	9	[0, 0, 0]	n/a	catFR1	0	R1354E
1174.972	1.708	1175545	RETRIEVAL_ORIENT_START	n/a	n/a	n/a	n/a	-999	9	[0, 0, 0]	n/a	catFR1	0	R1354E
1176.68	0.0	1177253	RETRIEVAL_ORIENT_END	n/a	n/a	n/a	n/a	-999	9	[0, 0, 0]	n/a	catFR1	0	R1354E
1176.68	0.651	1177253	REC_START	n/a	n/a	n/a	n/a	-999	9	[0, 0, 0]	n/a	catFR1	0	R1354E
1177.331	1.157	1177904	REC_WORD	1.157	n/a	KNEE	BodyParts	1	9	[0, 0, 0]	n/a	catFR1	0	R1354E
1178.488	1.02	1179061	REC_WORD	1.02	n/a	LEG	BodyParts	8	9	[0, 0, 0]	n/a	catFR1	0	R1354E
1179.508	6.284	1180081	REC_WORD	6.284	n/a	ELBOW	BodyParts	2	9	[0, 0, 0]	n/a	catFR1	0	R1354E
1185.792	1.0	1186365	REC_WORD	1.0	n/a	CYPRESS	Trees	12	9	[0, 0, 0]	n/a	catFR1	0	R1354E
1186.792	19.9	1187365	REC_WORD_VV	19.9	n/a	<>	n/a	-999	9	[0, 0, 0]	n/a	catFR1	0	R1354E
1206.692	0.0	1207264	REC_END	n/a	n/a	n/a	n/a	-999	9	[0, 0, 0]	n/a	catFR1	0	R1354E
1206.692	0.026	1207264	TRIAL_END	n/a	n/a	n/a	n/a	-999	9	[0, 0, 0]	n/a	catFR1	0	R1354E
1206.718	0.0	1207290	TRIAL_START	n/a	n/a	n/a	n/a	-999	10	[0, 0, 0]	n/a	catFR1	0	R1354E
1206.718	0.0	1207290	TRIAL	n/a	n/a	n/a	n/a	-999	10	[0, 0, 0]	n/a	catFR1	0	R1354E
1206.718	9.786	1207290	WAITING_START	n/a	n/a	n/a	n/a	-999	10	[0, 0, 0]	n/a	catFR1	0	R1354E
1216.504	0.0	1217076	WAITING_END	n/a	n/a	n/a	n/a	-999	10	[0, 0, 0]	n/a	catFR1	0	R1354E
1216.504	10.429	1217076	COUNTDOWN_START	n/a	n/a	n/a	n/a	-999	10	[0, 0, 0]	n/a	catFR1	0	R1354E
1226.933	0.0	1227504	COUNTDOWN_END	n/a	n/a	n/a	n/a	-999	10	[0, 0, 0]	n/a	catFR1	0	R1354E
1226.933	1.139	1227504	ORIENT_START	n/a	n/a	n/a	n/a	-999	10	[0, 0, 0]	n/a	catFR1	0	R1354E
1228.072	0.0	1228643	ORIENT_END	n/a	n/a	n/a	n/a	-999	10	[0, 0, 0]	n/a	catFR1	0	R1354E
1228.072	1.025	1228643	ENCODING_START	n/a	n/a	n/a	n/a	-999	10	[0, 0, 0]	n/a	catFR1	0	R1354E
1229.097	1.625	1229668	WORD	n/a	wordpools/wordpool_categorized_EN.txt	EYE	BodyParts	1	10	[0, 0, 0]	n/a	catFR1	0	R1354E
1230.722	0.904	1231293	WORD_OFF	n/a	n/a	EYE	BodyParts	1	10	[0, 0, 0]	n/a	catFR1	0	R1354E
1231.626	1.629	1232197	WORD	n/a	wordpools/wordpool_categorized_EN.txt	TOE	BodyParts	2	10	[0, 0, 0]	n/a	catFR1	0	R1354E
1233.255	0.828	1233826	WORD_OFF	n/a	n/a	TOE	BodyParts	2	10	[0, 0, 0]	n/a	catFR1	0	R1354E
1234.083	1.624	1234654	WORD	n/a	wordpools/wordpool_categorized_EN.txt	ORANGE	Fruit	3	10	[0, 0, 0]	n/a	catFR1	0	R1354E
1235.707	0.786	1236278	WORD_OFF	n/a	n/a	ORANGE	Fruit	3	10	[0, 0, 0]	n/a	catFR1	0	R1354E
1236.493	1.631	1237064	WORD	n/a	wordpools/wordpool_categorized_EN.txt	PEAR	Fruit	4	10	[0, 0, 0]	n/a	catFR1	0	R1354E
1238.124	1.127	1238695	WORD_OFF	n/a	n/a	PEAR	Fruit	4	10	[0, 0, 0]	n/a	catFR1	0	R1354E
1239.251	1.623	1239822	WORD	n/a	wordpools/wordpool_categorized_EN.txt	CABINET	Furniture	5	10	[0, 0, 0]	n/a	catFR1	0	R1354E
1240.874	1.138	1241445	WORD_OFF	n/a	n/a	CABINET	Furniture	5	10	[0, 0, 0]	n/a	catFR1	0	R1354E
1242.012	1.629	1242583	WORD	n/a	wordpools/wordpool_categorized_EN.txt	RECLINER	Furniture	6	10	[0, 0, 0]	n/a	catFR1	0	R1354E
1243.641	1.018	1244212	WORD_OFF	n/a	n/a	RECLINER	Furniture	6	10	[0, 0, 0]	n/a	catFR1	0	R1354E
1244.659	1.633	1245230	WORD	n/a	wordpools/wordpool_categorized_EN.txt	ARM	BodyParts	7	10	[0, 0, 0]	n/a	catFR1	0	R1354E
1246.292	0.936	1246863	WORD_OFF	n/a	n/a	ARM	BodyParts	7	10	[0, 0, 0]	n/a	catFR1	0	R1354E
1247.228	1.631	1247799	WORD	n/a	wordpools/wordpool_categorized_EN.txt	FOOT	BodyParts	8	10	[0, 0, 0]	n/a	catFR1	0	R1354E
1248.859	0.887	1249429	WORD_OFF	n/a	n/a	FOOT	BodyParts	8	10	[0, 0, 0]	n/a	catFR1	0	R1354E
1249.746	1.63	1250316	WORD	n/a	wordpools/wordpool_categorized_EN.txt	APPLE	Fruit	9	10	[0, 0, 0]	n/a	catFR1	0	R1354E
1251.376	1.14	1251946	WORD_OFF	n/a	n/a	APPLE	Fruit	9	10	[0, 0, 0]	n/a	catFR1	0	R1354E
1252.516	1.627	1253086	WORD	n/a	wordpools/wordpool_categorized_EN.txt	GRAPE	Fruit	10	10	[0, 0, 0]	n/a	catFR1	0	R1354E
1254.143	0.816	1254713	WORD_OFF	n/a	n/a	GRAPE	Fruit	10	10	[0, 0, 0]	n/a	catFR1	0	R1354E
1254.959	1.635	1255529	WORD	n/a	wordpools/wordpool_categorized_EN.txt	CHAIR	Furniture	11	10	[0, 0, 0]	n/a	catFR1	0	R1354E
1256.594	0.754	1257164	WORD_OFF	n/a	n/a	CHAIR	Furniture	11	10	[0, 0, 0]	n/a	catFR1	0	R1354E
1257.348	1.629	1257918	WORD	n/a	wordpools/wordpool_categorized_EN.txt	BED	Furniture	12	10	[0, 0, 0]	n/a	catFR1	0	R1354E
1258.977	0.001	1259547	WORD_OFF	n/a	n/a	BED	Furniture	12	10	[0, 0, 0]	n/a	catFR1	0	R1354E
1258.978	0.0	1259548	ENCODING_END	n/a	n/a	n/a	n/a	-999	10	[0, 0, 0]	n/a	catFR1	0	R1354E
1258.978	0.0	1259548	DISTRACT_START	n/a	n/a	n/a	n/a	-999	10	[0, 0, 0]	n/a	catFR1	0	R1354E
1258.978	0.016	1259548	START	n/a	n/a	n/a	n/a	-999	10	[-999, -999, -999]	n/a	catFR1	0	R1354E
1258.994	3.216	1259564	PROB	3.216	n/a	n/a	n/a	-999	10	[8, 3, 9]	20	catFR1	0	R1354E
1262.21	2.368	1262780	PROB	2.368	n/a	n/a	n/a	-999	10	[3, 5, 1]	9	catFR1	0	R1354E
1264.578	2.067	1265148	PROB	2.067	n/a	n/a	n/a	-999	10	[8, 9, 5]	22	catFR1	0	R1354E
1266.645	1.4	1267215	PROB	1.4	n/a	n/a	n/a	-999	10	[3, 3, 4]	10	catFR1	0	R1354E
1268.045	2.216	1268615	PROB	2.216	n/a	n/a	n/a	-999	10	[6, 9, 2]	17	catFR1	0	R1354E
1270.261	1.802	1270831	PROB	1.802	n/a	n/a	n/a	-999	10	[9, 4, 7]	20	catFR1	0	R1354E
1272.063	1.934	1272633	PROB	1.934	n/a	n/a	n/a	-999	10	[9, 9, 6]	24	catFR1	0	R1354E
1273.997	2.067	1274567	PROB	2.067	n/a	n/a	n/a	-999	10	[4, 6, 3]	13	catFR1	0	R1354E
1276.064	1.266	1276634	PROB	1.266	n/a	n/a	n/a	-999	10	[6, 1, 1]	8	catFR1	0	R1354E
1277.33	2.443	1277900	PROB	2.443	n/a	n/a	n/a	-999	10	[8, 3, 6]	17	catFR1	0	R1354E
1279.773	0.008	1280342	STOP	n/a	n/a	n/a	n/a	-999	10	[-999, -999, -999]	n/a	catFR1	0	R1354E
1279.781	0.595	1280350	DISTRACT_END	n/a	n/a	n/a	n/a	-999	10	[0, 0, 0]	n/a	catFR1	0	R1354E
1280.376	1.589	1280945	RETRIEVAL_ORIENT_START	n/a	n/a	n/a	n/a	-999	10	[0, 0, 0]	n/a	catFR1	0	R1354E
1281.965	0.0	1282534	RETRIEVAL_ORIENT_END	n/a	n/a	n/a	n/a	-999	10	[0, 0, 0]	n/a	catFR1	0	R1354E
1281.965	0.487	1282534	REC_START	n/a	n/a	n/a	n/a	-999	10	[0, 0, 0]	n/a	catFR1	0	R1354E
1282.452	0.924	1283021	REC_WORD	0.924	n/a	CHAIR	Furniture	11	10	[0, 0, 0]	n/a	catFR1	0	R1354E
1283.376	1.754	1283945	REC_WORD	1.754	n/a	RECLINER	Furniture	6	10	[0, 0, 0]	n/a	catFR1	0	R1354E
1285.13	0.985	1285699	REC_WORD	0.985	n/a	PEAR	Fruit	4	10	[0, 0, 0]	n/a	catFR1	0	R1354E
1286.115	25.862	1286684	REC_WORD	25.862	n/a	ORANGE	Fruit	3	10	[0, 0, 0]	n/a	catFR1	0	R1354E
1311.977	0.0	1312545	REC_END	n/a	n/a	n/a	n/a	-999	10	[0, 0, 0]	n/a	catFR1	0	R1354E
1311.977	0.025	1312545	TRIAL_END	n/a	n/a	n/a	n/a	-999	10	[0, 0, 0]	n/a	catFR1	0	R1354E
1312.002	0.001	1312570	TRIAL_START	n/a	n/a	n/a	n/a	-999	11	[0, 0, 0]	n/a	catFR1	0	R1354E
1312.003	0.0	1312571	TRIAL	n/a	n/a	n/a	n/a	-999	11	[0, 0, 0]	n/a	catFR1	0	R1354E
1312.003	4.084	1312571	WAITING_START	n/a	n/a	n/a	n/a	-999	11	[0, 0, 0]	n/a	catFR1	0	R1354E
1316.087	0.001	1316655	WAITING_END	n/a	n/a	n/a	n/a	-999	11	[0, 0, 0]	n/a	catFR1	0	R1354E
1316.088	10.429	1316656	COUNTDOWN_START	n/a	n/a	n/a	n/a	-999	11	[0, 0, 0]	n/a	catFR1	0	R1354E
1326.517	0.0	1327085	COUNTDOWN_END	n/a	n/a	n/a	n/a	-999	11	[0, 0, 0]	n/a	catFR1	0	R1354E
1326.517	1.039	1327085	ORIENT_START	n/a	n/a	n/a	n/a	-999	11	[0, 0, 0]	n/a	catFR1	0	R1354E
1327.556	0.0	1328124	ORIENT_END	n/a	n/a	n/a	n/a	-999	11	[0, 0, 0]	n/a	catFR1	0	R1354E
1327.556	0.852	1328124	ENCODING_START	n/a	n/a	n/a	n/a	-999	11	[0, 0, 0]	n/a	catFR1	0	R1354E
1328.408	1.632	1328976	WORD	n/a	wordpools/wordpool_categorized_EN.txt	HEADPHONES	Electronics	1	11	[0, 0, 0]	n/a	catFR1	0	R1354E
1330.04	0.87	1330608	WORD_OFF	n/a	n/a	HEADPHONES	Electronics	1	11	[0, 0, 0]	n/a	catFR1	0	R1354E
1330.91	1.63	1331478	WORD	n/a	wordpools/wordpool_categorized_EN.txt	TELEVISION	Electronics	2	11	[0, 0, 0]	n/a	catFR1	0	R1354E
1332.54	0.909	1333108	WORD_OFF	n/a	n/a	TELEVISION	Electronics	2	11	[0, 0, 0]	n/a	catFR1	0	R1354E
1333.449	1.625	1334017	WORD	n/a	wordpools/wordpool_categorized_EN.txt	CELERY	Vegetables	3	11	[0, 0, 0]	n/a	catFR1	0	R1354E
1335.074	0.89	1335641	WORD_OFF	n/a	n/a	CELERY	Vegetables	3	11	[0, 0, 0]	n/a	catFR1	0	R1354E
1335.964	1.627	1336531	WORD	n/a	wordpools/wordpool_categorized_EN.txt	PEAS	Vegetables	4	11	[0, 0, 0]	n/a	catFR1	0	R1354E
1337.591	1.08	1338158	WORD_OFF	n/a	n/a	PEAS	Vegetables	4	11	[0, 0, 0]	n/a	catFR1	0	R1354E
1338.671	1.637	1339238	WORD	n/a	wordpools/wordpool_categorized_EN.txt	THUNDER	Weather	5	11	[0, 0, 0]	n/a	catFR1	0	R1354E
1340.308	1.003	1340875	WORD_OFF	n/a	n/a	THUNDER	Weather	5	11	[0, 0, 0]	n/a	catFR1	0	R1354E
1341.311	1.631	1341878	WORD	n/a	wordpools/wordpool_categorized_EN.txt	FOG	Weather	6	11	[0, 0, 0]	n/a	catFR1	0	R1354E
1342.942	1.07	1343509	WORD_OFF	n/a	n/a	FOG	Weather	6	11	[0, 0, 0]	n/a	catFR1	0	R1354E
1344.012	1.631	1344579	WORD	n/a	wordpools/wordpool_categorized_EN.txt	CABBAGE	Vegetables	7	11	[0, 0, 0]	n/a	catFR1	0	R1354E
1345.643	0.826	1346210	WORD_OFF	n/a	n/a	CABBAGE	Vegetables	7	11	[0, 0, 0]	n/a	catFR1	0	R1354E
1346.469	1.624	1347036	WORD	n/a	wordpools/wordpool_categorized_EN.txt	CUCUMBER	Vegetables	8	11	[0, 0, 0]	n/a	catFR1	0	R1354E
1348.093	0.888	1348660	WORD_OFF	n/a	n/a	CUCUMBER	Vegetables	8	11	[0, 0, 0]	n/a	catFR1	0	R1354E
1348.981	1.629	1349548	WORD	n/a	wordpools/wordpool_categorized_EN.txt	CALCULATOR	Electronics	9	11	[0, 0, 0]	n/a	catFR1	0	R1354E
1350.61	1.074	1351177	WORD_OFF	n/a	n/a	CALCULATOR	Electronics	9	11	[0, 0, 0]	n/a	catFR1	0	R1354E
1351.684	1.627	1352251	WORD	n/a	wordpools/wordpool_categorized_EN.txt	TABLET	Electronics	10	11	[0, 0, 0]	n/a	catFR1	0	R1354E
1353.311	1.007	1353878	WORD_OFF	n/a	n/a	TABLET	Electronics	10	11	[0, 0, 0]	n/a	catFR1	0	R1354E
1354.318	1.626	1354885	WORD	n/a	wordpools/wordpool_categorized_EN.txt	LIGHTNING	Weather	11	11	[0, 0, 0]	n/a	catFR1	0	R1354E
1355.944	1.054	1356511	WORD_OFF	n/a	n/a	LIGHTNING	Weather	11	11	[0, 0, 0]	n/a	catFR1	0	R1354E
1356.998	1.63	1357565	WORD	n/a	wordpools/wordpool_categorized_EN.txt	SNOW	Weather	12	11	[0, 0, 0]	n/a	catFR1	0	R1354E
1358.628	0.001	1359195	WORD_OFF	n/a	n/a	SNOW	Weather	12	11	[0, 0, 0]	n/a	catFR1	0	R1354E
1358.629	0.0	1359196	ENCODING_END	n/a	n/a	n/a	n/a	-999	11	[0, 0, 0]	n/a	catFR1	0	R1354E
1358.629	0.0	1359196	DISTRACT_START	n/a	n/a	n/a	n/a	-999	11	[0, 0, 0]	n/a	catFR1	0	R1354E
1358.629	0.016	1359196	START	n/a	n/a	n/a	n/a	-999	11	[-999, -999, -999]	n/a	catFR1	0	R1354E
1358.645	2.599	1359212	PROB	2.599	n/a	n/a	n/a	-999	11	[4, 3, 5]	12	catFR1	0	R1354E
1361.244	1.651	1361811	PROB	1.651	n/a	n/a	n/a	-999	11	[2, 5, 2]	9	catFR1	0	R1354E
1362.895	1.484	1363462	PROB	1.484	n/a	n/a	n/a	-999	11	[8, 8, 3]	19	catFR1	0	R1354E
1364.379	1.95	1364945	PROB	1.95	n/a	n/a	n/a	-999	11	[5, 3, 8]	16	catFR1	0	R1354E
1366.329	3.051	1366895	PROB	3.051	n/a	n/a	n/a	-999	11	[9, 8, 9]	26	catFR1	0	R1354E
1369.38	1.267	1369946	PROB	1.267	n/a	n/a	n/a	-999	11	[3, 3, 3]	9	catFR1	0	R1354E
1370.647	1.867	1371213	PROB	1.867	n/a	n/a	n/a	-999	11	[9, 1, 3]	13	catFR1	0	R1354E
1372.514	1.45	1373080	PROB	1.45	n/a	n/a	n/a	-999	11	[6, 2, 2]	10	catFR1	0	R1354E
1373.964	1.984	1374530	PROB	1.984	n/a	n/a	n/a	-999	11	[7, 6, 7]	20	catFR1	0	R1354E
1375.948	1.9	1376514	PROB	1.9	n/a	n/a	n/a	-999	11	[7, 2, 5]	14	catFR1	0	R1354E
1377.848	1.841	1378414	PROB	1.841	n/a	n/a	n/a	-999	11	[2, 2, 3]	7	catFR1	0	R1354E
1379.689	0.01	1380255	STOP	n/a	n/a	n/a	n/a	-999	11	[-999, -999, -999]	n/a	catFR1	0	R1354E
1379.699	0.567	1380265	DISTRACT_END	n/a	n/a	n/a	n/a	-999	11	[0, 0, 0]	n/a	catFR1	0	R1354E
1380.266	1.616	1380832	RETRIEVAL_ORIENT_START	n/a	n/a	n/a	n/a	-999	11	[0, 0, 0]	n/a	catFR1	0	R1354E
1381.882	0.001	1382448	RETRIEVAL_ORIENT_END	n/a	n/a	n/a	n/a	-999	11	[0, 0, 0]	n/a	catFR1	0	R1354E
1381.883	1.067	1382449	REC_START	n/a	n/a	n/a	n/a	-999	11	[0, 0, 0]	n/a	catFR1	0	R1354E
1382.95	0.929	1383516	REC_WORD	0.929	n/a	CABBAGE	Vegetables	7	11	[0, 0, 0]	n/a	catFR1	0	R1354E
1383.879	0.507	1384445	REC_WORD	0.507	n/a	LIGHTNING	Weather	11	11	[0, 0, 0]	n/a	catFR1	0	R1354E
1384.386	2.118	1384952	REC_WORD	2.118	n/a	CELL	n/a	-999	11	[0, 0, 0]	n/a	catFR1	0	R1354E
1386.504	1.473	1387070	REC_WORD	1.473	n/a	CABBAGE	Vegetables	7	11	[0, 0, 0]	n/a	catFR1	0	R1354E
1387.977	23.917	1388543	REC_WORD	23.917	n/a	CELERY	Vegetables	3	11	[0, 0, 0]	n/a	catFR1	0	R1354E
1411.894	0.0	1412459	REC_END	n/a	n/a	n/a	n/a	-999	11	[0, 0, 0]	n/a	catFR1	0	R1354E
1411.894	0.025	1412459	TRIAL_END	n/a	n/a	n/a	n/a	-999	11	[0, 0, 0]	n/a	catFR1	0	R1354E
1411.919	0.001	1412484	TRIAL_START	n/a	n/a	n/a	n/a	-999	12	[0, 0, 0]	n/a	catFR1	0	R1354E
1411.92	0.0	1412485	TRIAL	n/a	n/a	n/a	n/a	-999	12	[0, 0, 0]	n/a	catFR1	0	R1354E
1411.92	13.187	1412485	WAITING_START	n/a	n/a	n/a	n/a	-999	12	[0, 0, 0]	n/a	catFR1	0	R1354E
1425.107	0.0	1425671	WAITING_END	n/a	n/a	n/a	n/a	-999	12	[0, 0, 0]	n/a	catFR1	0	R1354E
1425.107	10.428	1425671	COUNTDOWN_START	n/a	n/a	n/a	n/a	-999	12	[0, 0, 0]	n/a	catFR1	0	R1354E
1435.535	0.0	1436099	COUNTDOWN_END	n/a	n/a	n/a	n/a	-999	12	[0, 0, 0]	n/a	catFR1	0	R1354E
1435.535	1.107	1436099	ORIENT_START	n/a	n/a	n/a	n/a	-999	12	[0, 0, 0]	n/a	catFR1	0	R1354E
1436.642	0.0	1437206	ORIENT_END	n/a	n/a	n/a	n/a	-999	12	[0, 0, 0]	n/a	catFR1	0	R1354E
1436.642	0.758	1437206	ENCODING_START	n/a	n/a	n/a	n/a	-999	12	[0, 0, 0]	n/a	catFR1	0	R1354E
1437.4	1.626	1437964	WORD	n/a	wordpools/wordpool_categorized_EN.txt	PANTS	Clothing	1	12	[0, 0, 0]	n/a	catFR1	0	R1354E
1439.026	0.898	1439590	WORD_OFF	n/a	n/a	PANTS	Clothing	1	12	[0, 0, 0]	n/a	catFR1	0	R1354E
1439.924	1.635	1440488	WORD	n/a	wordpools/wordpool_categorized_EN.txt	SOCKS	Clothing	2	12	[0, 0, 0]	n/a	catFR1	0	R1354E
1441.559	0.972	1442123	WORD_OFF	n/a	n/a	SOCKS	Clothing	2	12	[0, 0, 0]	n/a	catFR1	0	R1354E
1442.531	1.629	1443095	WORD	n/a	wordpools/wordpool_categorized_EN.txt	BEACH	Landscapes	3	12	[0, 0, 0]	n/a	catFR1	0	R1354E
1444.16	0.893	1444724	WORD_OFF	n/a	n/a	BEACH	Landscapes	3	12	[0, 0, 0]	n/a	catFR1	0	R1354E
1445.053	1.624	1445617	WORD	n/a	wordpools/wordpool_categorized_EN.txt	HILLS	Landscapes	4	12	[0, 0, 0]	n/a	catFR1	0	R1354E
1446.677	0.808	1447241	WORD_OFF	n/a	n/a	HILLS	Landscapes	4	12	[0, 0, 0]	n/a	catFR1	0	R1354E
1447.485	1.626	1448049	WORD	n/a	wordpools/wordpool_categorized_EN.txt	SCOOTER	Vehicles	5	12	[0, 0, 0]	n/a	catFR1	0	R1354E
1449.111	0.87	1449675	WORD_OFF	n/a	n/a	SCOOTER	Vehicles	5	12	[0, 0, 0]	n/a	catFR1	0	R1354E
1449.981	1.63	1450544	WORD	n/a	wordpools/wordpool_categorized_EN.txt	BIKE	Vehicles	6	12	[0, 0, 0]	n/a	catFR1	0	R1354E
1451.611	0.754	1452174	WORD_OFF	n/a	n/a	BIKE	Vehicles	6	12	[0, 0, 0]	n/a	catFR1	0	R1354E
1452.365	1.63	1452928	WORD	n/a	wordpools/wordpool_categorized_EN.txt	SKIRT	Clothing	7	12	[0, 0, 0]	n/a	catFR1	0	R1354E
1453.995	0.788	1454558	WORD_OFF	n/a	n/a	SKIRT	Clothing	7	12	[0, 0, 0]	n/a	catFR1	0	R1354E
1454.783	1.629	1455346	WORD	n/a	wordpools/wordpool_categorized_EN.txt	SHIRT	Clothing	8	12	[0, 0, 0]	n/a	catFR1	0	R1354E
1456.412	0.865	1456975	WORD_OFF	n/a	n/a	SHIRT	Clothing	8	12	[0, 0, 0]	n/a	catFR1	0	R1354E
1457.277	1.636	1457840	WORD	n/a	wordpools/wordpool_categorized_EN.txt	CAR	Vehicles	9	12	[0, 0, 0]	n/a	catFR1	0	R1354E
1458.913	0.982	1459476	WORD_OFF	n/a	n/a	CAR	Vehicles	9	12	[0, 0, 0]	n/a	catFR1	0	R1354E
1459.895	1.635	1460458	WORD	n/a	wordpools/wordpool_categorized_EN.txt	BUS	Vehicles	10	12	[0, 0, 0]	n/a	catFR1	0	R1354E
1461.53	0.987	1462093	WORD_OFF	n/a	n/a	BUS	Vehicles	10	12	[0, 0, 0]	n/a	catFR1	0	R1354E
1462.517	1.63	1463080	WORD	n/a	wordpools/wordpool_categorized_EN.txt	FOREST	Landscapes	11	12	[0, 0, 0]	n/a	catFR1	0	R1354E
1464.147	1.097	1464710	WORD_OFF	n/a	n/a	FOREST	Landscapes	11	12	[0, 0, 0]	n/a	catFR1	0	R1354E
1465.244	1.62	1465807	WORD	n/a	wordpools/wordpool_categorized_EN.txt	LAKE	Landscapes	12	12	[0, 0, 0]	n/a	catFR1	0	R1354E
1466.864	0.0	1467427	WORD_OFF	n/a	n/a	LAKE	Landscapes	12	12	[0, 0, 0]	n/a	catFR1	0	R1354E
1466.864	0.001	1467427	ENCODING_END	n/a	n/a	n/a	n/a	-999	12	[0, 0, 0]	n/a	catFR1	0	R1354E
1466.865	0.0	1467428	DISTRACT_START	n/a	n/a	n/a	n/a	-999	12	[0, 0, 0]	n/a	catFR1	0	R1354E
1466.865	0.015	1467428	START	n/a	n/a	n/a	n/a	-999	12	[-999, -999, -999]	n/a	catFR1	0	R1354E
1466.88	2.366	1467443	PROB	2.366	n/a	n/a	n/a	-999	12	[5, 8, 1]	14	catFR1	0	R1354E
1469.246	2.218	1469809	PROB	2.218	n/a	n/a	n/a	-999	12	[7, 6, 4]	17	catFR1	0	R1354E
1471.464	5.485	1472027	PROB	5.485	n/a	n/a	n/a	-999	12	[9, 8, 5]	20	catFR1	0	R1354E
1476.949	3.417	1477512	PROB	3.417	n/a	n/a	n/a	-999	12	[2, 1, 8]	11	catFR1	0	R1354E
1480.366	6.484	1480928	PROB	6.484	n/a	n/a	n/a	-999	12	[8, 7, 8]	23	catFR1	0	R1354E
1486.85	2.239	1487412	PROB	2.239	n/a	n/a	n/a	-999	12	[9, 6, 4]	19	catFR1	0	R1354E
1489.089	0.012	1489651	STOP	n/a	n/a	n/a	n/a	-999	12	[-999, -999, -999]	n/a	catFR1	0	R1354E
1489.101	0.685	1489663	DISTRACT_END	n/a	n/a	n/a	n/a	-999	12	[0, 0, 0]	n/a	catFR1	0	R1354E
1489.786	1.549	1490348	RETRIEVAL_ORIENT_START	n/a	n/a	n/a	n/a	-999	12	[0, 0, 0]	n/a	catFR1	0	R1354E
1491.335	0.0	1491897	RETRIEVAL_ORIENT_END	n/a	n/a	n/a	n/a	-999	12	[0, 0, 0]	n/a	catFR1	0	R1354E
1491.335	2.579	1491897	REC_START	n/a	n/a	n/a	n/a	-999	12	[0, 0, 0]	n/a	catFR1	0	R1354E
1493.914	0.749	1494476	REC_WORD	0.749	n/a	CAR	Vehicles	9	12	[0, 0, 0]	n/a	catFR1	0	R1354E
1494.663	1.307	1495225	REC_WORD	1.307	n/a	SKIRT	Clothing	7	12	[0, 0, 0]	n/a	catFR1	0	R1354E
1495.97	0.705	1496532	REC_WORD	0.705	n/a	BUS	Vehicles	10	12	[0, 0, 0]	n/a	catFR1	0	R1354E
1496.675	1.0	1497237	REC_WORD	1.0	n/a	FOREST	Landscapes	11	12	[0, 0, 0]	n/a	catFR1	0	R1354E
1497.675	0.926	1498237	REC_WORD_VV	0.926	n/a	<>	n/a	-999	12	[0, 0, 0]	n/a	catFR1	0	R1354E
1498.601	6.348	1499163	REC_WORD	6.348	n/a	LAKE	Landscapes	12	12	[0, 0, 0]	n/a	catFR1	0	R1354E
1504.949	16.398	1505511	REC_WORD	16.398	n/a	RIVER	n/a	-999	12	[0, 0, 0]	n/a	catFR1	0	R1354E
1521.347	0.0	1521908	REC_END	n/a	n/a	n/a	n/a	-999	12	[0, 0, 0]	n/a	catFR1	0	R1354E
1521.347	0.026	1521908	TRIAL_END	n/a	n/a	n/a	n/a	-999	12	[0, 0, 0]	n/a	catFR1	0	R1354E
1521.373	0.0	1521934	TRIAL_START	n/a	n/a	n/a	n/a	-999	13	[0, 0, 0]	n/a	catFR1	0	R1354E
1521.373	0.0	1521934	TRIAL	n/a	n/a	n/a	n/a	-999	13	[0, 0, 0]	n/a	catFR1	0	R1354E
1521.373	17.254	1521934	WAITING_START	n/a	n/a	n/a	n/a	-999	13	[0, 0, 0]	n/a	catFR1	0	R1354E
1538.627	0.0	1539187	WAITING_END	n/a	n/a	n/a	n/a	-999	13	[0, 0, 0]	n/a	catFR1	0	R1354E
1538.627	10.429	1539187	COUNTDOWN_START	n/a	n/a	n/a	n/a	-999	13	[0, 0, 0]	n/a	catFR1	0	R1354E
1549.056	0.0	1549616	COUNTDOWN_END	n/a	n/a	n/a	n/a	-999	13	[0, 0, 0]	n/a	catFR1	0	R1354E
1549.056	1.056	1549616	ORIENT_START	n/a	n/a	n/a	n/a	-999	13	[0, 0, 0]	n/a	catFR1	0	R1354E
1550.112	0.0	1550672	ORIENT_END	n/a	n/a	n/a	n/a	-999	13	[0, 0, 0]	n/a	catFR1	0	R1354E
1550.112	0.84	1550672	ENCODING_START	n/a	n/a	n/a	n/a	-999	13	[0, 0, 0]	n/a	catFR1	0	R1354E
1550.952	1.627	1551512	WORD	n/a	wordpools/wordpool_categorized_EN.txt	SHOES	Clothing	1	13	[0, 0, 0]	n/a	catFR1	0	R1354E
1552.579	0.972	1553139	WORD_OFF	n/a	n/a	SHOES	Clothing	1	13	[0, 0, 0]	n/a	catFR1	0	R1354E
1553.551	1.628	1554111	WORD	n/a	wordpools/wordpool_categorized_EN.txt	COAT	Clothing	2	13	[0, 0, 0]	n/a	catFR1	0	R1354E
1555.179	1.138	1555739	WORD_OFF	n/a	n/a	COAT	Clothing	2	13	[0, 0, 0]	n/a	catFR1	0	R1354E
1556.317	1.629	1556877	WORD	n/a	wordpools/wordpool_categorized_EN.txt	CRAB	OceanAnimals	3	13	[0, 0, 0]	n/a	catFR1	0	R1354E
1557.946	0.897	1558506	WORD_OFF	n/a	n/a	CRAB	OceanAnimals	3	13	[0, 0, 0]	n/a	catFR1	0	R1354E
1558.843	1.637	1559403	WORD	n/a	wordpools/wordpool_categorized_EN.txt	LOBSTER	OceanAnimals	4	13	[0, 0, 0]	n/a	catFR1	0	R1354E
1560.48	1.121	1561040	WORD_OFF	n/a	n/a	LOBSTER	OceanAnimals	4	13	[0, 0, 0]	n/a	catFR1	0	R1354E
1561.601	1.629	1562161	WORD	n/a	wordpools/wordpool_categorized_EN.txt	ELEPHANT	Zoo	5	13	[0, 0, 0]	n/a	catFR1	0	R1354E
1563.23	0.757	1563790	WORD_OFF	n/a	n/a	ELEPHANT	Zoo	5	13	[0, 0, 0]	n/a	catFR1	0	R1354E
1563.987	1.628	1564547	WORD	n/a	wordpools/wordpool_categorized_EN.txt	GORILLA	Zoo	6	13	[0, 0, 0]	n/a	catFR1	0	R1354E
1565.615	0.934	1566174	WORD_OFF	n/a	n/a	GORILLA	Zoo	6	13	[0, 0, 0]	n/a	catFR1	0	R1354E
1566.549	1.633	1567108	WORD	n/a	wordpools/wordpool_categorized_EN.txt	DOLPHIN	OceanAnimals	7	13	[0, 0, 0]	n/a	catFR1	0	R1354E
1568.182	0.936	1568741	WORD_OFF	n/a	n/a	DOLPHIN	OceanAnimals	7	13	[0, 0, 0]	n/a	catFR1	0	R1354E
1569.118	1.631	1569677	WORD	n/a	wordpools/wordpool_categorized_EN.txt	OYSTER	OceanAnimals	8	13	[0, 0, 0]	n/a	catFR1	0	R1354E
1570.749	1.012	1571308	WORD_OFF	n/a	n/a	OYSTER	OceanAnimals	8	13	[0, 0, 0]	n/a	catFR1	0	R1354E
1571.761	1.621	1572320	WORD	n/a	wordpools/wordpool_categorized_EN.txt	JEANS	Clothing	9	13	[0, 0, 0]	n/a	catFR1	0	R1354E
1573.382	0.959	1573941	WORD_OFF	n/a	n/a	JEANS	Clothing	9	13	[0, 0, 0]	n/a	catFR1	0	R1354E
1574.341	1.625	1574900	WORD	n/a	wordpools/wordpool_categorized_EN.txt	JACKET	Clothing	10	13	[0, 0, 0]	n/a	catFR1	0	R1354E
1575.966	0.822	1576525	WORD_OFF	n/a	n/a	JACKET	Clothing	10	13	[0, 0, 0]	n/a	catFR1	0	R1354E
1576.788	1.629	1577347	WORD	n/a	wordpools/wordpool_categorized_EN.txt	BEAR	Zoo	11	13	[0, 0, 0]	n/a	catFR1	0	R1354E
1578.417	0.797	1578976	WORD_OFF	n/a	n/a	BEAR	Zoo	11	13	[0, 0, 0]	n/a	catFR1	0	R1354E
1579.214	1.636	1579773	WORD	n/a	wordpools/wordpool_categorized_EN.txt	LION	Zoo	12	13	[0, 0, 0]	n/a	catFR1	0	R1354E
1580.85	0.001	1581409	WORD_OFF	n/a	n/a	LION	Zoo	12	13	[0, 0, 0]	n/a	catFR1	0	R1354E
1580.851	0.0	1581410	ENCODING_END	n/a	n/a	n/a	n/a	-999	13	[0, 0, 0]	n/a	catFR1	0	R1354E
1580.851	0.0	1581410	DISTRACT_START	n/a	n/a	n/a	n/a	-999	13	[0, 0, 0]	n/a	catFR1	0	R1354E
1580.851	0.016	1581410	START	n/a	n/a	n/a	n/a	-999	13	[-999, -999, -999]	n/a	catFR1	0	R1354E
1580.867	2.817	1581426	PROB	2.817	n/a	n/a	n/a	-999	13	[9, 5, 9]	23	catFR1	0	R1354E
1583.684	2.467	1584243	PROB	2.467	n/a	n/a	n/a	-999	13	[8, 6, 7]	21	catFR1	0	R1354E
1586.151	1.817	1586710	PROB	1.817	n/a	n/a	n/a	-999	13	[2, 9, 4]	15	catFR1	0	R1354E
1587.968	1.334	1588527	PROB	1.334	n/a	n/a	n/a	-999	13	[1, 9, 1]	11	catFR1	0	R1354E
1589.302	1.717	1589861	PROB	1.717	n/a	n/a	n/a	-999	13	[5, 8, 9]	22	catFR1	0	R1354E
1591.019	2.417	1591578	PROB	2.417	n/a	n/a	n/a	-999	13	[4, 3, 4]	11	catFR1	0	R1354E
1593.436	1.45	1593995	PROB	1.45	n/a	n/a	n/a	-999	13	[2, 1, 3]	6	catFR1	0	R1354E
1594.886	2.034	1595444	PROB	2.034	n/a	n/a	n/a	-999	13	[5, 4, 8]	17	catFR1	0	R1354E
1596.92	1.733	1597478	PROB	1.733	n/a	n/a	n/a	-999	13	[9, 4, 1]	14	catFR1	0	R1354E
1598.653	2.238	1599211	PROB	2.238	n/a	n/a	n/a	-999	13	[8, 1, 9]	18	catFR1	0	R1354E
1600.891	0.013	1601449	STOP	n/a	n/a	n/a	n/a	-999	13	[-999, -999, -999]	n/a	catFR1	0	R1354E
1600.904	0.68	1601462	DISTRACT_END	n/a	n/a	n/a	n/a	-999	13	[0, 0, 0]	n/a	catFR1	0	R1354E
1601.584	1.57	1602142	RETRIEVAL_ORIENT_START	n/a	n/a	n/a	n/a	-999	13	[0, 0, 0]	n/a	catFR1	0	R1354E
1603.154	0.001	1603712	RETRIEVAL_ORIENT_END	n/a	n/a	n/a	n/a	-999	13	[0, 0, 0]	n/a	catFR1	0	R1354E
1603.155	1.116	1603713	REC_START	n/a	n/a	n/a	n/a	-999	13	[0, 0, 0]	n/a	catFR1	0	R1354E
1604.271	1.068	1604829	REC_WORD	1.068	n/a	SHRIMP	OceanAnimals	-999	13	[0, 0, 0]	n/a	catFR1	0	R1354E
1605.339	1.218	1605897	REC_WORD	1.218	n/a	LOBSTER	OceanAnimals	4	13	[0, 0, 0]	n/a	catFR1	0	R1354E
1606.557	21.478	1607115	REC_WORD	21.478	n/a	OYSTER	OceanAnimals	8	13	[0, 0, 0]	n/a	catFR1	0	R1354E
1628.035	1.801	1628592	REC_WORD	1.801	n/a	GORILLA	Zoo	6	13	[0, 0, 0]	n/a	catFR1	0	R1354E
1629.836	3.331	1630393	REC_WORD	3.331	n/a	ELEPHANT	Zoo	5	13	[0, 0, 0]	n/a	catFR1	0	R1354E
1633.167	0.001	1633724	REC_END	n/a	n/a	n/a	n/a	-999	13	[0, 0, 0]	n/a	catFR1	0	R1354E
1633.168	0.025	1633725	TRIAL_END	n/a	n/a	n/a	n/a	-999	13	[0, 0, 0]	n/a	catFR1	0	R1354E
1633.193	0.0	1633750	TRIAL_START	n/a	n/a	n/a	n/a	-999	14	[0, 0, 0]	n/a	catFR1	0	R1354E
1633.193	0.0	1633750	TRIAL	n/a	n/a	n/a	n/a	-999	14	[0, 0, 0]	n/a	catFR1	0	R1354E
1633.193	7.785	1633750	WAITING_START	n/a	n/a	n/a	n/a	-999	14	[0, 0, 0]	n/a	catFR1	0	R1354E
1640.978	0.0	1641535	WAITING_END	n/a	n/a	n/a	n/a	-999	14	[0, 0, 0]	n/a	catFR1	0	R1354E
1640.978	10.428	1641535	COUNTDOWN_START	n/a	n/a	n/a	n/a	-999	14	[0, 0, 0]	n/a	catFR1	0	R1354E
1651.406	0.0	1651962	COUNTDOWN_END	n/a	n/a	n/a	n/a	-999	14	[0, 0, 0]	n/a	catFR1	0	R1354E
1651.406	1.124	1651962	ORIENT_START	n/a	n/a	n/a	n/a	-999	14	[0, 0, 0]	n/a	catFR1	0	R1354E
1652.53	0.0	1653086	ORIENT_END	n/a	n/a	n/a	n/a	-999	14	[0, 0, 0]	n/a	catFR1	0	R1354E
1652.53	0.991	1653086	ENCODING_START	n/a	n/a	n/a	n/a	-999	14	[0, 0, 0]	n/a	catFR1	0	R1354E
1653.521	1.626	1654077	WORD	n/a	wordpools/wordpool_categorized_EN.txt	HALLWAY	Building	1	14	[0, 0, 0]	n/a	catFR1	0	R1354E
1655.147	1.136	1655703	WORD_OFF	n/a	n/a	HALLWAY	Building	1	14	[0, 0, 0]	n/a	catFR1	0	R1354E
1656.283	1.631	1656839	WORD	n/a	wordpools/wordpool_categorized_EN.txt	STAIRS	Building	2	14	[0, 0, 0]	n/a	catFR1	0	R1354E
1657.914	1.091	1658470	WORD_OFF	n/a	n/a	STAIRS	Building	2	14	[0, 0, 0]	n/a	catFR1	0	R1354E
1659.005	1.626	1659561	WORD	n/a	wordpools/wordpool_categorized_EN.txt	BUTTERFLY	Insects	3	14	[0, 0, 0]	n/a	catFR1	0	R1354E
1660.631	0.966	1661187	WORD_OFF	n/a	n/a	BUTTERFLY	Insects	3	14	[0, 0, 0]	n/a	catFR1	0	R1354E
1661.597	1.634	1662153	WORD	n/a	wordpools/wordpool_categorized_EN.txt	SPIDER	Insects	4	14	[0, 0, 0]	n/a	catFR1	0	R1354E
1663.231	1.009	1663787	WORD_OFF	n/a	n/a	SPIDER	Insects	4	14	[0, 0, 0]	n/a	catFR1	0	R1354E
1664.24	1.625	1664796	WORD	n/a	wordpools/wordpool_categorized_EN.txt	WOODS	Landscapes	5	14	[0, 0, 0]	n/a	catFR1	0	R1354E
1665.865	0.998	1666421	WORD_OFF	n/a	n/a	WOODS	Landscapes	5	14	[0, 0, 0]	n/a	catFR1	0	R1354E
1666.863	1.636	1667419	WORD	n/a	wordpools/wordpool_categorized_EN.txt	RIVER	Landscapes	6	14	[0, 0, 0]	n/a	catFR1	0	R1354E
1668.499	0.864	1669055	WORD_OFF	n/a	n/a	RIVER	Landscapes	6	14	[0, 0, 0]	n/a	catFR1	0	R1354E
1669.363	1.637	1669919	WORD	n/a	wordpools/wordpool_categorized_EN.txt	DOOR	Building	7	14	[0, 0, 0]	n/a	catFR1	0	R1354E
1671.0	0.773	1671556	WORD_OFF	n/a	n/a	DOOR	Building	7	14	[0, 0, 0]	n/a	catFR1	0	R1354E
1671.773	1.627	1672329	WORD	n/a	wordpools/wordpool_categorized_EN.txt	ROOM	Building	8	14	[0, 0, 0]	n/a	catFR1	0	R1354E
1673.4	0.913	1673956	WORD_OFF	n/a	n/a	ROOM	Building	8	14	[0, 0, 0]	n/a	catFR1	0	R1354E
1674.313	1.638	1674869	WORD	n/a	wordpools/wordpool_categorized_EN.txt	VALLEY	Landscapes	9	14	[0, 0, 0]	n/a	catFR1	0	R1354E
1675.951	0.903	1676507	WORD_OFF	n/a	n/a	VALLEY	Landscapes	9	14	[0, 0, 0]	n/a	catFR1	0	R1354E
1676.854	1.63	1677410	WORD	n/a	wordpools/wordpool_categorized_EN.txt	OCEAN	Landscapes	10	14	[0, 0, 0]	n/a	catFR1	0	R1354E
1678.484	0.822	1679040	WORD_OFF	n/a	n/a	OCEAN	Landscapes	10	14	[0, 0, 0]	n/a	catFR1	0	R1354E
1679.306	1.629	1679862	WORD	n/a	wordpools/wordpool_categorized_EN.txt	BEE	Insects	11	14	[0, 0, 0]	n/a	catFR1	0	R1354E
1680.935	1.039	1681490	WORD_OFF	n/a	n/a	BEE	Insects	11	14	[0, 0, 0]	n/a	catFR1	0	R1354E
1681.974	1.628	1682529	WORD	n/a	wordpools/wordpool_categorized_EN.txt	ANT	Insects	12	14	[0, 0, 0]	n/a	catFR1	0	R1354E
1683.602	0.0	1684157	WORD_OFF	n/a	n/a	ANT	Insects	12	14	[0, 0, 0]	n/a	catFR1	0	R1354E
1683.602	0.0	1684157	ENCODING_END	n/a	n/a	n/a	n/a	-999	14	[0, 0, 0]	n/a	catFR1	0	R1354E
1683.602	0.001	1684157	DISTRACT_START	n/a	n/a	n/a	n/a	-999	14	[0, 0, 0]	n/a	catFR1	0	R1354E
1683.603	0.015	1684158	START	n/a	n/a	n/a	n/a	-999	14	[-999, -999, -999]	n/a	catFR1	0	R1354E
1683.618	2.151	1684173	PROB	2.151	n/a	n/a	n/a	-999	14	[3, 4, 5]	12	catFR1	0	R1354E
1685.769	2.233	1686324	PROB	2.233	n/a	n/a	n/a	-999	14	[4, 7, 4]	15	catFR1	0	R1354E
1688.002	2.266	1688557	PROB	2.266	n/a	n/a	n/a	-999	14	[4, 2, 3]	9	catFR1	0	R1354E
1690.268	2.252	1690823	PROB	2.252	n/a	n/a	n/a	-999	14	[3, 2, 5]	11	catFR1	0	R1354E
1692.52	1.732	1693075	PROB	1.732	n/a	n/a	n/a	-999	14	[8, 8, 8]	24	catFR1	0	R1354E
1694.252	2.452	1694807	PROB	2.452	n/a	n/a	n/a	-999	14	[5, 2, 6]	13	catFR1	0	R1354E
1696.704	2.084	1697259	PROB	2.084	n/a	n/a	n/a	-999	14	[1, 5, 7]	13	catFR1	0	R1354E
1698.788	4.5	1699343	PROB	4.5	n/a	n/a	n/a	-999	14	[3, 8, 4]	15	catFR1	0	R1354E
1703.288	2.382	1703843	PROB	2.382	n/a	n/a	n/a	-999	14	[5, 8, 7]	20	catFR1	0	R1354E
1705.67	0.019	1706225	STOP	n/a	n/a	n/a	n/a	-999	14	[-999, -999, -999]	n/a	catFR1	0	R1354E
1705.689	0.567	1706244	DISTRACT_END	n/a	n/a	n/a	n/a	-999	14	[0, 0, 0]	n/a	catFR1	0	R1354E
1706.256	1.65	1706811	RETRIEVAL_ORIENT_START	n/a	n/a	n/a	n/a	-999	14	[0, 0, 0]	n/a	catFR1	0	R1354E
1707.906	0.0	1708461	RETRIEVAL_ORIENT_END	n/a	n/a	n/a	n/a	-999	14	[0, 0, 0]	n/a	catFR1	0	R1354E
1707.906	12.006	1708461	REC_START	n/a	n/a	n/a	n/a	-999	14	[0, 0, 0]	n/a	catFR1	0	R1354E
1719.912	18.006	1720466	REC_WORD	18.006	n/a	RIVER	Landscapes	6	14	[0, 0, 0]	n/a	catFR1	0	R1354E
1737.918	0.001	1738471	REC_END	n/a	n/a	n/a	n/a	-999	14	[0, 0, 0]	n/a	catFR1	0	R1354E
1737.919	0.025	1738472	TRIAL_END	n/a	n/a	n/a	n/a	-999	14	[0, 0, 0]	n/a	catFR1	0	R1354E
1737.944	0.0	1738497	TRIAL_START	n/a	n/a	n/a	n/a	-999	15	[0, 0, 0]	n/a	catFR1	0	R1354E
1737.944	0.0	1738497	TRIAL	n/a	n/a	n/a	n/a	-999	15	[0, 0, 0]	n/a	catFR1	0	R1354E
1737.944	28.255	1738497	WAITING_START	n/a	n/a	n/a	n/a	-999	15	[0, 0, 0]	n/a	catFR1	0	R1354E
1766.199	0.0	1766751	WAITING_END	n/a	n/a	n/a	n/a	-999	15	[0, 0, 0]	n/a	catFR1	0	R1354E
1766.199	10.428	1766751	COUNTDOWN_START	n/a	n/a	n/a	n/a	-999	15	[0, 0, 0]	n/a	catFR1	0	R1354E
1776.627	0.001	1777179	COUNTDOWN_END	n/a	n/a	n/a	n/a	-999	15	[0, 0, 0]	n/a	catFR1	0	R1354E
1776.628	1.09	1777180	ORIENT_START	n/a	n/a	n/a	n/a	-999	15	[0, 0, 0]	n/a	catFR1	0	R1354E
1777.718	0.001	1778270	ORIENT_END	n/a	n/a	n/a	n/a	-999	15	[0, 0, 0]	n/a	catFR1	0	R1354E
1777.719	0.828	1778271	ENCODING_START	n/a	n/a	n/a	n/a	-999	15	[0, 0, 0]	n/a	catFR1	0	R1354E
1778.547	1.622	1779099	WORD	n/a	wordpools/wordpool_categorized_EN.txt	MOTH	Insects	1	15	[0, 0, 0]	n/a	catFR1	0	R1354E
1780.169	1.139	1780721	WORD_OFF	n/a	n/a	MOTH	Insects	1	15	[0, 0, 0]	n/a	catFR1	0	R1354E
1781.308	1.628	1781860	WORD	n/a	wordpools/wordpool_categorized_EN.txt	GNAT	Insects	2	15	[0, 0, 0]	n/a	catFR1	0	R1354E
1782.936	1.14	1783488	WORD_OFF	n/a	n/a	GNAT	Insects	2	15	[0, 0, 0]	n/a	catFR1	0	R1354E
1784.076	1.627	1784628	WORD	n/a	wordpools/wordpool_categorized_EN.txt	CROWBAR	Tools	3	15	[0, 0, 0]	n/a	catFR1	0	R1354E
1785.703	1.033	1786255	WORD_OFF	n/a	n/a	CROWBAR	Tools	3	15	[0, 0, 0]	n/a	catFR1	0	R1354E
1786.736	1.634	1787288	WORD	n/a	wordpools/wordpool_categorized_EN.txt	SAW	Tools	4	15	[0, 0, 0]	n/a	catFR1	0	R1354E
1788.37	0.993	1788922	WORD_OFF	n/a	n/a	SAW	Tools	4	15	[0, 0, 0]	n/a	catFR1	0	R1354E
1789.363	1.624	1789915	WORD	n/a	wordpools/wordpool_categorized_EN.txt	MONKEY	Zoo	5	15	[0, 0, 0]	n/a	catFR1	0	R1354E
1790.987	0.95	1791539	WORD_OFF	n/a	n/a	MONKEY	Zoo	5	15	[0, 0, 0]	n/a	catFR1	0	R1354E
1791.937	1.634	1792489	WORD	n/a	wordpools/wordpool_categorized_EN.txt	CHIMPANZEE	Zoo	6	15	[0, 0, 0]	n/a	catFR1	0	R1354E
1793.571	0.897	1794123	WORD_OFF	n/a	n/a	CHIMPANZEE	Zoo	6	15	[0, 0, 0]	n/a	catFR1	0	R1354E
1794.468	1.637	1795020	WORD	n/a	wordpools/wordpool_categorized_EN.txt	FLY	Insects	7	15	[0, 0, 0]	n/a	catFR1	0	R1354E
1796.105	1.046	1796656	WORD_OFF	n/a	n/a	FLY	Insects	7	15	[0, 0, 0]	n/a	catFR1	0	R1354E
1797.151	1.638	1797702	WORD	n/a	wordpools/wordpool_categorized_EN.txt	BEETLE	Insects	8	15	[0, 0, 0]	n/a	catFR1	0	R1354E
1798.789	0.87	1799340	WORD_OFF	n/a	n/a	BEETLE	Insects	8	15	[0, 0, 0]	n/a	catFR1	0	R1354E
1799.659	1.63	1800210	WORD	n/a	wordpools/wordpool_categorized_EN.txt	CHEETAH	Zoo	9	15	[0, 0, 0]	n/a	catFR1	0	R1354E
1801.289	0.938	1801840	WORD_OFF	n/a	n/a	CHEETAH	Zoo	9	15	[0, 0, 0]	n/a	catFR1	0	R1354E
1802.227	1.613	1802778	WORD	n/a	wordpools/wordpool_categorized_EN.txt	GIRAFFE	Zoo	10	15	[0, 0, 0]	n/a	catFR1	0	R1354E
1803.84	0.85	1804391	WORD_OFF	n/a	n/a	GIRAFFE	Zoo	10	15	[0, 0, 0]	n/a	catFR1	0	R1354E
1804.69	1.633	1805241	WORD	n/a	wordpools/wordpool_categorized_EN.txt	SHOVEL	Tools	11	15	[0, 0, 0]	n/a	catFR1	0	R1354E
1806.323	0.906	1806874	WORD_OFF	n/a	n/a	SHOVEL	Tools	11	15	[0, 0, 0]	n/a	catFR1	0	R1354E
1807.229	1.628	1807780	WORD	n/a	wordpools/wordpool_categorized_EN.txt	SANDER	Tools	12	15	[0, 0, 0]	n/a	catFR1	0	R1354E
1808.857	0.0	1809408	WORD_OFF	n/a	n/a	SANDER	Tools	12	15	[0, 0, 0]	n/a	catFR1	0	R1354E
1808.857	0.001	1809408	ENCODING_END	n/a	n/a	n/a	n/a	-999	15	[0, 0, 0]	n/a	catFR1	0	R1354E
1808.858	0.0	1809409	DISTRACT_START	n/a	n/a	n/a	n/a	-999	15	[0, 0, 0]	n/a	catFR1	0	R1354E
1808.858	0.016	1809409	START	n/a	n/a	n/a	n/a	-999	15	[-999, -999, -999]	n/a	catFR1	0	R1354E
1808.874	2.1	1809425	PROB	2.1	n/a	n/a	n/a	-999	15	[8, 3, 7]	18	catFR1	0	R1354E
1810.974	4.517	1811525	PROB	4.517	n/a	n/a	n/a	-999	15	[8, 9, 7]	24	catFR1	0	R1354E
1815.491	1.284	1816042	PROB	1.284	n/a	n/a	n/a	-999	15	[1, 3, 1]	5	catFR1	0	R1354E
1816.775	1.384	1817326	PROB	1.384	n/a	n/a	n/a	-999	15	[9, 3, 9]	21	catFR1	0	R1354E
1818.159	1.183	1818710	PROB	1.183	n/a	n/a	n/a	-999	15	[2, 1, 2]	5	catFR1	0	R1354E
1819.342	1.717	1819893	PROB	1.717	n/a	n/a	n/a	-999	15	[9, 6, 3]	18	catFR1	0	R1354E
1821.059	1.3	1821610	PROB	1.3	n/a	n/a	n/a	-999	15	[6, 1, 1]	8	catFR1	0	R1354E
1822.359	6.335	1822910	PROB	6.335	n/a	n/a	n/a	-999	15	[6, 2, 8]	16	catFR1	0	R1354E
1828.694	1.475	1829244	PROB	1.475	n/a	n/a	n/a	-999	15	[5, 2, 5]	12	catFR1	0	R1354E
1830.169	0.008	1830719	STOP	n/a	n/a	n/a	n/a	-999	15	[-999, -999, -999]	n/a	catFR1	0	R1354E
1830.177	0.694	1830727	DISTRACT_END	n/a	n/a	n/a	n/a	-999	15	[0, 0, 0]	n/a	catFR1	0	R1354E
1830.871	1.574	1831421	RETRIEVAL_ORIENT_START	n/a	n/a	n/a	n/a	-999	15	[0, 0, 0]	n/a	catFR1	0	R1354E
1832.445	0.0	1832995	RETRIEVAL_ORIENT_END	n/a	n/a	n/a	n/a	-999	15	[0, 0, 0]	n/a	catFR1	0	R1354E
1832.445	0.522	1832995	REC_START	n/a	n/a	n/a	n/a	-999	15	[0, 0, 0]	n/a	catFR1	0	R1354E
1832.967	0.737	1833517	REC_WORD	0.737	n/a	SHOVEL	Tools	11	15	[0, 0, 0]	n/a	catFR1	0	R1354E
1833.704	1.024	1834254	REC_WORD	1.024	n/a	GIRAFFE	Zoo	10	15	[0, 0, 0]	n/a	catFR1	0	R1354E
1834.728	4.063	1835278	REC_WORD	4.063	n/a	SANDER	Tools	12	15	[0, 0, 0]	n/a	catFR1	0	R1354E
1838.791	7.095	1839341	REC_WORD	7.095	n/a	CHIMPANZEE	Zoo	6	15	[0, 0, 0]	n/a	catFR1	0	R1354E
1845.886	3.967	1846436	REC_WORD	3.967	n/a	GNAT	Insects	2	15	[0, 0, 0]	n/a	catFR1	0	R1354E
1849.853	12.606	1850403	REC_WORD	12.606	n/a	MOTH	Insects	1	15	[0, 0, 0]	n/a	catFR1	0	R1354E
1862.459	0.001	1863008	REC_END	n/a	n/a	n/a	n/a	-999	15	[0, 0, 0]	n/a	catFR1	0	R1354E
1862.46	0.026	1863009	TRIAL_END	n/a	n/a	n/a	n/a	-999	15	[0, 0, 0]	n/a	catFR1	0	R1354E
1862.486	0.0	1863035	TRIAL_START	n/a	n/a	n/a	n/a	-999	16	[0, 0, 0]	n/a	catFR1	0	R1354E
1862.486	0.0	1863035	TRIAL	n/a	n/a	n/a	n/a	-999	16	[0, 0, 0]	n/a	catFR1	0	R1354E
1862.486	5.032	1863035	WAITING_START	n/a	n/a	n/a	n/a	-999	16	[0, 0, 0]	n/a	catFR1	0	R1354E
1867.518	0.0	1868067	WAITING_END	n/a	n/a	n/a	n/a	-999	16	[0, 0, 0]	n/a	catFR1	0	R1354E
1867.518	10.428	1868067	COUNTDOWN_START	n/a	n/a	n/a	n/a	-999	16	[0, 0, 0]	n/a	catFR1	0	R1354E
1877.946	0.0	1878495	COUNTDOWN_END	n/a	n/a	n/a	n/a	-999	16	[0, 0, 0]	n/a	catFR1	0	R1354E
1877.946	1.057	1878495	ORIENT_START	n/a	n/a	n/a	n/a	-999	16	[0, 0, 0]	n/a	catFR1	0	R1354E
1879.003	0.0	1879552	ORIENT_END	n/a	n/a	n/a	n/a	-999	16	[0, 0, 0]	n/a	catFR1	0	R1354E
1879.003	1.026	1879552	ENCODING_START	n/a	n/a	n/a	n/a	-999	16	[0, 0, 0]	n/a	catFR1	0	R1354E
1880.029	1.624	1880578	WORD	n/a	wordpools/wordpool_categorized_EN.txt	DAISY	Flowers	1	16	[0, 0, 0]	n/a	catFR1	0	R1354E
1881.653	0.943	1882201	WORD_OFF	n/a	n/a	DAISY	Flowers	1	16	[0, 0, 0]	n/a	catFR1	0	R1354E
1882.596	1.623	1883144	WORD	n/a	wordpools/wordpool_categorized_EN.txt	TULIP	Flowers	2	16	[0, 0, 0]	n/a	catFR1	0	R1354E
1884.219	0.877	1884767	WORD_OFF	n/a	n/a	TULIP	Flowers	2	16	[0, 0, 0]	n/a	catFR1	0	R1354E
1885.096	1.625	1885644	WORD	n/a	wordpools/wordpool_categorized_EN.txt	STAPLER	OfficeSupplies	3	16	[0, 0, 0]	n/a	catFR1	0	R1354E
1886.721	1.127	1887269	WORD_OFF	n/a	n/a	STAPLER	OfficeSupplies	3	16	[0, 0, 0]	n/a	catFR1	0	R1354E
1887.848	1.623	1888396	WORD	n/a	wordpools/wordpool_categorized_EN.txt	ERASER	OfficeSupplies	4	16	[0, 0, 0]	n/a	catFR1	0	R1354E
1889.471	0.937	1890019	WORD_OFF	n/a	n/a	ERASER	OfficeSupplies	4	16	[0, 0, 0]	n/a	catFR1	0	R1354E
1890.408	1.631	1890956	WORD	n/a	wordpools/wordpool_categorized_EN.txt	CLOUD	Weather	5	16	[0, 0, 0]	n/a	catFR1	0	R1354E
1892.039	1.071	1892587	WORD_OFF	n/a	n/a	CLOUD	Weather	5	16	[0, 0, 0]	n/a	catFR1	0	R1354E
1893.11	1.629	1893658	WORD	n/a	wordpools/wordpool_categorized_EN.txt	THUNDERSTORM	Weather	6	16	[0, 0, 0]	n/a	catFR1	0	R1354E
1894.739	1.135	1895287	WORD_OFF	n/a	n/a	THUNDERSTORM	Weather	6	16	[0, 0, 0]	n/a	catFR1	0	R1354E
1895.874	1.632	1896422	WORD	n/a	wordpools/wordpool_categorized_EN.txt	LILAC	Flowers	7	16	[0, 0, 0]	n/a	catFR1	0	R1354E
1897.506	1.001	1898054	WORD_OFF	n/a	n/a	LILAC	Flowers	7	16	[0, 0, 0]	n/a	catFR1	0	R1354E
1898.507	1.633	1899055	WORD	n/a	wordpools/wordpool_categorized_EN.txt	CARNATION	Flowers	8	16	[0, 0, 0]	n/a	catFR1	0	R1354E
1900.14	0.759	1900688	WORD_OFF	n/a	n/a	CARNATION	Flowers	8	16	[0, 0, 0]	n/a	catFR1	0	R1354E
1900.899	1.625	1901447	WORD	n/a	wordpools/wordpool_categorized_EN.txt	MARKER	OfficeSupplies	9	16	[0, 0, 0]	n/a	catFR1	0	R1354E
1902.524	0.981	1903072	WORD_OFF	n/a	n/a	MARKER	OfficeSupplies	9	16	[0, 0, 0]	n/a	catFR1	0	R1354E
1903.505	1.636	1904053	WORD	n/a	wordpools/wordpool_categorized_EN.txt	GLUE	OfficeSupplies	10	16	[0, 0, 0]	n/a	catFR1	0	R1354E
1905.141	1.086	1905689	WORD_OFF	n/a	n/a	GLUE	OfficeSupplies	10	16	[0, 0, 0]	n/a	catFR1	0	R1354E
1906.227	1.631	1906775	WORD	n/a	wordpools/wordpool_categorized_EN.txt	DRIZZLE	Weather	11	16	[0, 0, 0]	n/a	catFR1	0	R1354E
1907.858	0.856	1908406	WORD_OFF	n/a	n/a	DRIZZLE	Weather	11	16	[0, 0, 0]	n/a	catFR1	0	R1354E
1908.714	1.628	1909262	WORD	n/a	wordpools/wordpool_categorized_EN.txt	TORNADO	Weather	12	16	[0, 0, 0]	n/a	catFR1	0	R1354E
1910.342	0.0	1910889	WORD_OFF	n/a	n/a	TORNADO	Weather	12	16	[0, 0, 0]	n/a	catFR1	0	R1354E
1910.342	0.0	1910889	ENCODING_END	n/a	n/a	n/a	n/a	-999	16	[0, 0, 0]	n/a	catFR1	0	R1354E
1910.342	0.0	1910889	DISTRACT_START	n/a	n/a	n/a	n/a	-999	16	[0, 0, 0]	n/a	catFR1	0	R1354E
1910.342	0.016	1910889	START	n/a	n/a	n/a	n/a	-999	16	[-999, -999, -999]	n/a	catFR1	0	R1354E
1910.358	2.55	1910905	PROB	2.55	n/a	n/a	n/a	-999	16	[4, 7, 7]	18	catFR1	0	R1354E
1912.908	1.384	1913455	PROB	1.384	n/a	n/a	n/a	-999	16	[5, 1, 5]	11	catFR1	0	R1354E
1914.292	3.351	1914839	PROB	3.351	n/a	n/a	n/a	-999	16	[9, 8, 9]	26	catFR1	0	R1354E
1917.643	1.933	1918190	PROB	1.933	n/a	n/a	n/a	-999	16	[1, 7, 9]	17	catFR1	0	R1354E
1919.576	1.967	1920123	PROB	1.967	n/a	n/a	n/a	-999	16	[5, 8, 5]	18	catFR1	0	R1354E
1921.543	1.601	1922090	PROB	1.601	n/a	n/a	n/a	-999	16	[6, 5, 1]	12	catFR1	0	R1354E
1923.144	3.066	1923691	PROB	3.066	n/a	n/a	n/a	-999	16	[7, 6, 5]	18	catFR1	0	R1354E
1926.21	4.703	1926757	PROB	4.703	n/a	n/a	n/a	-999	16	[3, 2, 3]	8	catFR1	0	R1354E
1930.913	0.015	1931460	STOP	n/a	n/a	n/a	n/a	-999	16	[-999, -999, -999]	n/a	catFR1	0	R1354E
1930.928	0.633	1931475	DISTRACT_END	n/a	n/a	n/a	n/a	-999	16	[0, 0, 0]	n/a	catFR1	0	R1354E
1931.561	1.717	1932108	RETRIEVAL_ORIENT_START	n/a	n/a	n/a	n/a	-999	16	[0, 0, 0]	n/a	catFR1	0	R1354E
1933.278	0.0	1933825	RETRIEVAL_ORIENT_END	n/a	n/a	n/a	n/a	-999	16	[0, 0, 0]	n/a	catFR1	0	R1354E
1933.278	0.459	1933825	REC_START	n/a	n/a	n/a	n/a	-999	16	[0, 0, 0]	n/a	catFR1	0	R1354E
1933.737	1.133	1934284	REC_WORD	1.133	n/a	TORNADO	Weather	12	16	[0, 0, 0]	n/a	catFR1	0	R1354E
1934.87	2.275	1935417	REC_WORD	2.275	n/a	DRIZZLE	Weather	11	16	[0, 0, 0]	n/a	catFR1	0	R1354E
1937.145	3.855	1937692	REC_WORD	3.855	n/a	THUNDERSTORM	Weather	6	16	[0, 0, 0]	n/a	catFR1	0	R1354E
1941.0	10.661	1941546	REC_WORD	10.661	n/a	CARNATION	Flowers	8	16	[0, 0, 0]	n/a	catFR1	0	R1354E
1951.661	11.631	1952207	REC_WORD	11.631	n/a	TULIP	Flowers	2	16	[0, 0, 0]	n/a	catFR1	0	R1354E
1963.292	0.0	1963838	REC_END	n/a	n/a	n/a	n/a	-999	16	[0, 0, 0]	n/a	catFR1	0	R1354E
1963.292	0.026	1963838	TRIAL_END	n/a	n/a	n/a	n/a	-999	16	[0, 0, 0]	n/a	catFR1	0	R1354E
1963.318	0.0	1963864	TRIAL_START	n/a	n/a	n/a	n/a	-999	17	[0, 0, 0]	n/a	catFR1	0	R1354E
1963.318	0.0	1963864	TRIAL	n/a	n/a	n/a	n/a	-999	17	[0, 0, 0]	n/a	catFR1	0	R1354E
1963.318	4.584	1963864	WAITING_START	n/a	n/a	n/a	n/a	-999	17	[0, 0, 0]	n/a	catFR1	0	R1354E
1967.902	0.0	1968447	WAITING_END	n/a	n/a	n/a	n/a	-999	17	[0, 0, 0]	n/a	catFR1	0	R1354E
1967.902	10.429	1968447	COUNTDOWN_START	n/a	n/a	n/a	n/a	-999	17	[0, 0, 0]	n/a	catFR1	0	R1354E
1978.331	0.0	1978876	COUNTDOWN_END	n/a	n/a	n/a	n/a	-999	17	[0, 0, 0]	n/a	catFR1	0	R1354E
1978.331	1.089	1978876	ORIENT_START	n/a	n/a	n/a	n/a	-999	17	[0, 0, 0]	n/a	catFR1	0	R1354E
1979.42	0.001	1979965	ORIENT_END	n/a	n/a	n/a	n/a	-999	17	[0, 0, 0]	n/a	catFR1	0	R1354E
1979.421	1.046	1979966	ENCODING_START	n/a	n/a	n/a	n/a	-999	17	[0, 0, 0]	n/a	catFR1	0	R1354E
1980.467	1.637	1981012	WORD	n/a	wordpools/wordpool_categorized_EN.txt	BINDER	OfficeSupplies	1	17	[0, 0, 0]	n/a	catFR1	0	R1354E
1982.104	0.839	1982649	WORD_OFF	n/a	n/a	BINDER	OfficeSupplies	1	17	[0, 0, 0]	n/a	catFR1	0	R1354E
1982.943	1.628	1983488	WORD	n/a	wordpools/wordpool_categorized_EN.txt	PEN	OfficeSupplies	2	17	[0, 0, 0]	n/a	catFR1	0	R1354E
1984.571	0.777	1985116	WORD_OFF	n/a	n/a	PEN	OfficeSupplies	2	17	[0, 0, 0]	n/a	catFR1	0	R1354E
1985.348	1.624	1985893	WORD	n/a	wordpools/wordpool_categorized_EN.txt	CARROT	Vegetables	3	17	[0, 0, 0]	n/a	catFR1	0	R1354E
1986.972	1.023	1987517	WORD_OFF	n/a	n/a	CARROT	Vegetables	3	17	[0, 0, 0]	n/a	catFR1	0	R1354E
1987.995	1.627	1988540	WORD	n/a	wordpools/wordpool_categorized_EN.txt	POTATO	Vegetables	4	17	[0, 0, 0]	n/a	catFR1	0	R1354E
1989.622	1.013	1990167	WORD_OFF	n/a	n/a	POTATO	Vegetables	4	17	[0, 0, 0]	n/a	catFR1	0	R1354E
1990.635	1.637	1991180	WORD	n/a	wordpools/wordpool_categorized_EN.txt	MOTORCYCLE	Vehicles	5	17	[0, 0, 0]	n/a	catFR1	0	R1354E
1992.272	0.862	1992817	WORD_OFF	n/a	n/a	MOTORCYCLE	Vehicles	5	17	[0, 0, 0]	n/a	catFR1	0	R1354E
1993.134	1.622	1993679	WORD	n/a	wordpools/wordpool_categorized_EN.txt	JEEP	Vehicles	6	17	[0, 0, 0]	n/a	catFR1	0	R1354E
1994.756	0.956	1995301	WORD_OFF	n/a	n/a	JEEP	Vehicles	6	17	[0, 0, 0]	n/a	catFR1	0	R1354E
1995.712	1.628	1996257	WORD	n/a	wordpools/wordpool_categorized_EN.txt	LETTUCE	Vegetables	7	17	[0, 0, 0]	n/a	catFR1	0	R1354E
1997.34	1.03	1997884	WORD_OFF	n/a	n/a	LETTUCE	Vegetables	7	17	[0, 0, 0]	n/a	catFR1	0	R1354E
1998.37	1.637	1998914	WORD	n/a	wordpools/wordpool_categorized_EN.txt	SPINACH	Vegetables	8	17	[0, 0, 0]	n/a	catFR1	0	R1354E
2000.007	0.842	2000551	WORD_OFF	n/a	n/a	SPINACH	Vegetables	8	17	[0, 0, 0]	n/a	catFR1	0	R1354E
2000.849	1.625	2001393	WORD	n/a	wordpools/wordpool_categorized_EN.txt	BOAT	Vehicles	9	17	[0, 0, 0]	n/a	catFR1	0	R1354E
2002.474	0.922	2003018	WORD_OFF	n/a	n/a	BOAT	Vehicles	9	17	[0, 0, 0]	n/a	catFR1	0	R1354E
2003.396	1.629	2003940	WORD	n/a	wordpools/wordpool_categorized_EN.txt	TRAIN	Vehicles	10	17	[0, 0, 0]	n/a	catFR1	0	R1354E
2005.025	0.76	2005569	WORD_OFF	n/a	n/a	TRAIN	Vehicles	10	17	[0, 0, 0]	n/a	catFR1	0	R1354E
2005.785	1.624	2006329	WORD	n/a	wordpools/wordpool_categorized_EN.txt	PAPER	OfficeSupplies	11	17	[0, 0, 0]	n/a	catFR1	0	R1354E
2007.409	0.805	2007953	WORD_OFF	n/a	n/a	PAPER	OfficeSupplies	11	17	[0, 0, 0]	n/a	catFR1	0	R1354E
2008.214	1.628	2008758	WORD	n/a	wordpools/wordpool_categorized_EN.txt	TAPE	OfficeSupplies	12	17	[0, 0, 0]	n/a	catFR1	0	R1354E
2009.842	0.001	2010386	WORD_OFF	n/a	n/a	TAPE	OfficeSupplies	12	17	[0, 0, 0]	n/a	catFR1	0	R1354E
2009.843	0.0	2010387	ENCODING_END	n/a	n/a	n/a	n/a	-999	17	[0, 0, 0]	n/a	catFR1	0	R1354E
2009.843	0.0	2010387	DISTRACT_START	n/a	n/a	n/a	n/a	-999	17	[0, 0, 0]	n/a	catFR1	0	R1354E
2009.843	0.016	2010387	START	n/a	n/a	n/a	n/a	-999	17	[-999, -999, -999]	n/a	catFR1	0	R1354E
2009.859	2.767	2010403	PROB	2.767	n/a	n/a	n/a	-999	17	[3, 4, 5]	12	catFR1	0	R1354E
2012.626	2.017	2013170	PROB	2.017	n/a	n/a	n/a	-999	17	[6, 6, 7]	19	catFR1	0	R1354E
2014.643	2.9	2015187	PROB	2.9	n/a	n/a	n/a	-999	17	[5, 6, 2]	13	catFR1	0	R1354E
2017.543	1.484	2018087	PROB	1.484	n/a	n/a	n/a	-999	17	[7, 4, 1]	12	catFR1	0	R1354E
2019.027	2.567	2019571	PROB	2.567	n/a	n/a	n/a	-999	17	[8, 9, 5]	22	catFR1	0	R1354E
2021.594	2.666	2022138	PROB	2.666	n/a	n/a	n/a	-999	17	[5, 2, 3]	10	catFR1	0	R1354E
2024.26	2.068	2024804	PROB	2.068	n/a	n/a	n/a	-999	17	[5, 6, 3]	14	catFR1	0	R1354E
2026.328	1.617	2026871	PROB	1.617	n/a	n/a	n/a	-999	17	[8, 1, 7]	16	catFR1	0	R1354E
2027.945	2.004	2028488	PROB	2.004	n/a	n/a	n/a	-999	17	[6, 7, 6]	19	catFR1	0	R1354E
2029.949	0.015	2030492	STOP	n/a	n/a	n/a	n/a	-999	17	[-999, -999, -999]	n/a	catFR1	0	R1354E
2029.964	0.64	2030507	DISTRACT_END	n/a	n/a	n/a	n/a	-999	17	[0, 0, 0]	n/a	catFR1	0	R1354E
2030.604	1.658	2031147	RETRIEVAL_ORIENT_START	n/a	n/a	n/a	n/a	-999	17	[0, 0, 0]	n/a	catFR1	0	R1354E
2032.262	0.0	2032805	RETRIEVAL_ORIENT_END	n/a	n/a	n/a	n/a	-999	17	[0, 0, 0]	n/a	catFR1	0	R1354E
2032.262	1.276	2032805	REC_START	n/a	n/a	n/a	n/a	-999	17	[0, 0, 0]	n/a	catFR1	0	R1354E
2033.538	1.098	2034081	REC_WORD	1.098	n/a	BOAT	Vehicles	9	17	[0, 0, 0]	n/a	catFR1	0	R1354E
2034.636	1.393	2035179	REC_WORD	1.393	n/a	TRAIN	Vehicles	10	17	[0, 0, 0]	n/a	catFR1	0	R1354E
2036.029	3.319	2036572	REC_WORD	3.319	n/a	PAPER	OfficeSupplies	11	17	[0, 0, 0]	n/a	catFR1	0	R1354E
2039.348	22.925	2039891	REC_WORD	22.925	n/a	TAPE	OfficeSupplies	12	17	[0, 0, 0]	n/a	catFR1	0	R1354E
2062.273	0.0	2062815	REC_END	n/a	n/a	n/a	n/a	-999	17	[0, 0, 0]	n/a	catFR1	0	R1354E
2062.273	0.026	2062815	TRIAL_END	n/a	n/a	n/a	n/a	-999	17	[0, 0, 0]	n/a	catFR1	0	R1354E
2062.299	0.0	2062841	TRIAL_START	n/a	n/a	n/a	n/a	-999	18	[0, 0, 0]	n/a	catFR1	0	R1354E
2062.299	0.001	2062841	TRIAL	n/a	n/a	n/a	n/a	-999	18	[0, 0, 0]	n/a	catFR1	0	R1354E
2062.3	9.32	2062842	WAITING_START	n/a	n/a	n/a	n/a	-999	18	[0, 0, 0]	n/a	catFR1	0	R1354E
2071.62	0.0	2072162	WAITING_END	n/a	n/a	n/a	n/a	-999	18	[0, 0, 0]	n/a	catFR1	0	R1354E
2071.62	10.428	2072162	COUNTDOWN_START	n/a	n/a	n/a	n/a	-999	18	[0, 0, 0]	n/a	catFR1	0	R1354E
2082.048	0.0	2082590	COUNTDOWN_END	n/a	n/a	n/a	n/a	-999	18	[0, 0, 0]	n/a	catFR1	0	R1354E
2082.048	1.206	2082590	ORIENT_START	n/a	n/a	n/a	n/a	-999	18	[0, 0, 0]	n/a	catFR1	0	R1354E
2083.254	0.0	2083795	ORIENT_END	n/a	n/a	n/a	n/a	-999	18	[0, 0, 0]	n/a	catFR1	0	R1354E
2083.254	1.065	2083795	ENCODING_START	n/a	n/a	n/a	n/a	-999	18	[0, 0, 0]	n/a	catFR1	0	R1354E
2084.319	1.637	2084860	WORD	n/a	wordpools/wordpool_categorized_EN.txt	GOAT	FarmAnimals	1	18	[0, 0, 0]	n/a	catFR1	0	R1354E
2085.956	0.845	2086497	WORD_OFF	n/a	n/a	GOAT	FarmAnimals	1	18	[0, 0, 0]	n/a	catFR1	0	R1354E
2086.801	1.622	2087342	WORD	n/a	wordpools/wordpool_categorized_EN.txt	PIG	FarmAnimals	2	18	[0, 0, 0]	n/a	catFR1	0	R1354E
2088.423	0.759	2088964	WORD_OFF	n/a	n/a	PIG	FarmAnimals	2	18	[0, 0, 0]	n/a	catFR1	0	R1354E
2089.182	1.625	2089723	WORD	n/a	wordpools/wordpool_categorized_EN.txt	HURRICANE	Weather	3	18	[0, 0, 0]	n/a	catFR1	0	R1354E
2090.807	0.766	2091348	WORD_OFF	n/a	n/a	HURRICANE	Weather	3	18	[0, 0, 0]	n/a	catFR1	0	R1354E
2091.573	1.633	2092114	WORD	n/a	wordpools/wordpool_categorized_EN.txt	HUMIDITY	Weather	4	18	[0, 0, 0]	n/a	catFR1	0	R1354E
2093.206	0.845	2093747	WORD_OFF	n/a	n/a	HUMIDITY	Weather	4	18	[0, 0, 0]	n/a	catFR1	0	R1354E
2094.051	1.623	2094592	WORD	n/a	wordpools/wordpool_categorized_EN.txt	TIGER	Zoo	5	18	[0, 0, 0]	n/a	catFR1	0	R1354E
2095.674	1.144	2096215	WORD_OFF	n/a	n/a	TIGER	Zoo	5	18	[0, 0, 0]	n/a	catFR1	0	R1354E
2096.818	1.623	2097359	WORD	n/a	wordpools/wordpool_categorized_EN.txt	ZEBRA	Zoo	6	18	[0, 0, 0]	n/a	catFR1	0	R1354E
2098.441	1.008	2098982	WORD_OFF	n/a	n/a	ZEBRA	Zoo	6	18	[0, 0, 0]	n/a	catFR1	0	R1354E
2099.449	1.626	2099990	WORD	n/a	wordpools/wordpool_categorized_EN.txt	CALF	FarmAnimals	7	18	[0, 0, 0]	n/a	catFR1	0	R1354E
2101.075	0.826	2101616	WORD_OFF	n/a	n/a	CALF	FarmAnimals	7	18	[0, 0, 0]	n/a	catFR1	0	R1354E
2101.901	1.624	2102442	WORD	n/a	wordpools/wordpool_categorized_EN.txt	TURKEY	FarmAnimals	8	18	[0, 0, 0]	n/a	catFR1	0	R1354E
2103.525	0.929	2104066	WORD_OFF	n/a	n/a	TURKEY	FarmAnimals	8	18	[0, 0, 0]	n/a	catFR1	0	R1354E
2104.454	1.622	2104995	WORD	n/a	wordpools/wordpool_categorized_EN.txt	RAIN	Weather	9	18	[0, 0, 0]	n/a	catFR1	0	R1354E
2106.076	0.879	2106617	WORD_OFF	n/a	n/a	RAIN	Weather	9	18	[0, 0, 0]	n/a	catFR1	0	R1354E
2106.955	1.621	2107496	WORD	n/a	wordpools/wordpool_categorized_EN.txt	WIND	Weather	10	18	[0, 0, 0]	n/a	catFR1	0	R1354E
2108.576	1.056	2109117	WORD_OFF	n/a	n/a	WIND	Weather	10	18	[0, 0, 0]	n/a	catFR1	0	R1354E
2109.632	1.627	2110173	WORD	n/a	wordpools/wordpool_categorized_EN.txt	PANDA	Zoo	11	18	[0, 0, 0]	n/a	catFR1	0	R1354E
2111.259	0.914	2111799	WORD_OFF	n/a	n/a	PANDA	Zoo	11	18	[0, 0, 0]	n/a	catFR1	0	R1354E
2112.173	1.638	2112713	WORD	n/a	wordpools/wordpool_categorized_EN.txt	ORANGUTAN	Zoo	12	18	[0, 0, 0]	n/a	catFR1	0	R1354E
2113.811	0.0	2114351	WORD_OFF	n/a	n/a	ORANGUTAN	Zoo	12	18	[0, 0, 0]	n/a	catFR1	0	R1354E
