onset	duration	sample	trial_type	response_time	stim_file	item_name	category	serialpos	list	test	answer	experiment	session	subject
0.0	0.009	121605	SESS_START	n/a	n/a	n/a	n/a	-999	0	[0, 0, 0]	n/a	catFR1	0	R1678T
0.009	73.344	121614	TRIAL	n/a	n/a	n/a	n/a	-999	-1	[0, 0, 0]	n/a	catFR1	0	R1678T
73.353	10.0	194958	COUNTDOWN	n/a	n/a	n/a	n/a	-999	-1	[0, 0, 0]	n/a	catFR1	0	R1678T
83.801	1.902	205406	ENCODING_START	n/a	n/a	n/a	n/a	-999	-1	[0, 0, 0]	n/a	catFR1	0	R1678T
85.703	1.6	207308	WORD	n/a	n/a	SOFA	Furniture	1	-1	[0, 0, 0]	n/a	catFR1	0	R1678T
88.135	1.6	209740	WORD	n/a	n/a	CABINET	Furniture	2	-1	[0, 0, 0]	n/a	catFR1	0	R1678T
90.517	1.6	212122	WORD	n/a	n/a	WALL	Building	3	-1	[0, 0, 0]	n/a	catFR1	0	R1678T
92.902	1.6	214507	WORD	n/a	n/a	BATHROOM	Building	4	-1	[0, 0, 0]	n/a	catFR1	0	R1678T
95.318	1.6	216923	WORD	n/a	n/a	OCEAN	Landscapes	5	-1	[0, 0, 0]	n/a	catFR1	0	R1678T
97.685	1.6	219290	WORD	n/a	n/a	FOREST	Landscapes	6	-1	[0, 0, 0]	n/a	catFR1	0	R1678T
100.151	1.6	221756	WORD	n/a	n/a	BED	Furniture	7	-1	[0, 0, 0]	n/a	catFR1	0	R1678T
102.6	1.6	224205	WORD	n/a	n/a	TABLE	Furniture	8	-1	[0, 0, 0]	n/a	catFR1	0	R1678T
105.184	1.6	226789	WORD	n/a	n/a	DOOR	Building	9	-1	[0, 0, 0]	n/a	catFR1	0	R1678T
107.7	1.6	229305	WORD	n/a	n/a	HALLWAY	Building	10	-1	[0, 0, 0]	n/a	catFR1	0	R1678T
110.301	1.6	231906	WORD	n/a	n/a	CREEK	Landscapes	11	-1	[0, 0, 0]	n/a	catFR1	0	R1678T
112.883	1.6	234488	WORD	n/a	n/a	STREAM	Landscapes	12	-1	[0, 0, 0]	n/a	catFR1	0	R1678T
114.485	0.001	236090	PROB	8.399	n/a	n/a	n/a	-999	0	[3, 2, 8]	13.0	catFR1	0	R1678T
114.486	8.415	236091	DISTRACT_START	n/a	n/a	n/a	n/a	-999	0	[0, 0, 0]	n/a	catFR1	0	R1678T
122.901	6.883	244506	PROB	6.866	n/a	n/a	n/a	-999	0	[8, 4, 5]	17.0	catFR1	0	R1678T
129.784	7.186	251389	PROB	4.949	n/a	n/a	n/a	-999	0	[3, 1, 5]	9.0	catFR1	0	R1678T
136.97	3.053	258575	REC_START	n/a	n/a	n/a	n/a	-999	-1	[0, 0, 0]	n/a	catFR1	0	R1678T
140.023	2.558	261628	REC_WORD	3.053	n/a	SOFA	Furniture	1	-1	[0, 0, 0]	n/a	catFR1	0	R1678T
142.581	1.7	264186	REC_WORD	5.611	n/a	CABINET	Furniture	2	-1	[0, 0, 0]	n/a	catFR1	0	R1678T
144.281	2.036	265886	REC_WORD	7.311	n/a	WALL	Building	3	-1	[0, 0, 0]	n/a	catFR1	0	R1678T
146.317	3.16	267922	REC_WORD	9.347	n/a	HALLWAY	Building	10	-1	[0, 0, 0]	n/a	catFR1	0	R1678T
149.477	2.48	271082	REC_WORD	12.507	n/a	CREEK	Landscapes	11	-1	[0, 0, 0]	n/a	catFR1	0	R1678T
151.957	3.053	273562	REC_WORD	14.987	n/a	STREAM	Landscapes	12	-1	[0, 0, 0]	n/a	catFR1	0	R1678T
155.01	12.11	276615	REC_WORD	18.04	n/a	CHAIR	n/a	-999	-1	[0, 0, 0]	n/a	catFR1	0	R1678T
167.12	40.976	288725	TRIAL	n/a	n/a	n/a	n/a	-999	1	[0, 0, 0]	n/a	catFR1	0	R1678T
208.096	10.0	329701	COUNTDOWN	n/a	n/a	n/a	n/a	-999	1	[0, 0, 0]	n/a	catFR1	0	R1678T
218.446	2.133	340051	ENCODING_START	n/a	n/a	n/a	n/a	-999	1	[0, 0, 0]	n/a	catFR1	0	R1678T
220.579	1.6	342184	WORD	n/a	wordpools/wordpool_categorized_EN.txt	GOAT	FarmAnimals	1	1	[0, 0, 0]	n/a	catFR1	0	R1678T
223.129	1.6	344734	WORD	n/a	wordpools/wordpool_categorized_EN.txt	TURKEY	FarmAnimals	2	1	[0, 0, 0]	n/a	catFR1	0	R1678T
225.696	1.6	347301	WORD	n/a	wordpools/wordpool_categorized_EN.txt	JELLYFISH	OceanAnimals	3	1	[0, 0, 0]	n/a	catFR1	0	R1678T
228.211	1.6	349816	WORD	n/a	wordpools/wordpool_categorized_EN.txt	OCTOPUS	OceanAnimals	4	1	[0, 0, 0]	n/a	catFR1	0	R1678T
230.728	1.6	352333	WORD	n/a	wordpools/wordpool_categorized_EN.txt	BLENDER	Appliances	5	1	[0, 0, 0]	n/a	catFR1	0	R1678T
233.278	1.6	354883	WORD	n/a	wordpools/wordpool_categorized_EN.txt	DRYER	Appliances	6	1	[0, 0, 0]	n/a	catFR1	0	R1678T
235.762	1.6	357367	WORD	n/a	wordpools/wordpool_categorized_EN.txt	LOBSTER	OceanAnimals	7	1	[0, 0, 0]	n/a	catFR1	0	R1678T
238.361	1.6	359966	WORD	n/a	wordpools/wordpool_categorized_EN.txt	SQUID	OceanAnimals	8	1	[0, 0, 0]	n/a	catFR1	0	R1678T
240.927	1.6	362532	WORD	n/a	wordpools/wordpool_categorized_EN.txt	BULL	FarmAnimals	9	1	[0, 0, 0]	n/a	catFR1	0	R1678T
243.345	1.6	364950	WORD	n/a	wordpools/wordpool_categorized_EN.txt	CHICKEN	FarmAnimals	10	1	[0, 0, 0]	n/a	catFR1	0	R1678T
245.895	1.6	367500	WORD	n/a	wordpools/wordpool_categorized_EN.txt	STOVE	Appliances	11	1	[0, 0, 0]	n/a	catFR1	0	R1678T
248.511	1.6	370116	WORD	n/a	wordpools/wordpool_categorized_EN.txt	MIXER	Appliances	12	1	[0, 0, 0]	n/a	catFR1	0	R1678T
250.128	0.0	371733	DISTRACT_START	n/a	n/a	n/a	n/a	-999	1	[0, 0, 0]	n/a	catFR1	0	R1678T
250.128	3.949	371733	PROB	3.933	n/a	n/a	n/a	-999	1	[8, 2, 1]	11.0	catFR1	0	R1678T
254.077	4.201	375682	PROB	4.184	n/a	n/a	n/a	-999	1	[2, 4, 3]	9.0	catFR1	0	R1678T
258.278	4.05	379883	PROB	4.033	n/a	n/a	n/a	-999	1	[2, 3, 3]	8.0	catFR1	0	R1678T
262.328	5.234	383933	PROB	5.216	n/a	n/a	n/a	-999	1	[3, 5, 3]	11.0	catFR1	0	R1678T
267.562	14.868	389167	PROB	12.648	n/a	n/a	n/a	-999	1	[2, 1, 5]	8.0	catFR1	0	R1678T
282.43	1.327	404035	REC_START	n/a	n/a	n/a	n/a	-999	1	[0, 0, 0]	n/a	catFR1	0	R1678T
283.757	1.439	405362	REC_WORD	1.327	n/a	GOAT	FarmAnimals	1	1	[0, 0, 0]	n/a	catFR1	0	R1678T
285.196	1.078	406801	REC_WORD	2.766	n/a	OCTOPUS	OceanAnimals	4	1	[0, 0, 0]	n/a	catFR1	0	R1678T
286.274	1.872	407879	REC_WORD	3.844	n/a	JELLYFISH	OceanAnimals	3	1	[0, 0, 0]	n/a	catFR1	0	R1678T
288.146	4.101	409751	REC_WORD_VV	5.716	n/a	<>	n/a	-999	1	[0, 0, 0]	n/a	catFR1	0	R1678T
292.247	5.204	413852	REC_WORD_VV	9.817	n/a	<>	n/a	-999	1	[0, 0, 0]	n/a	catFR1	0	R1678T
297.451	2.479	419056	REC_WORD	15.021	n/a	CHICKEN	FarmAnimals	10	1	[0, 0, 0]	n/a	catFR1	0	R1678T
299.93	3.991	421535	REC_WORD	17.5	n/a	BARN	n/a	-999	1	[0, 0, 0]	n/a	catFR1	0	R1678T
303.921	3.123	425526	REC_WORD	21.491	n/a	HORSE	n/a	-999	1	[0, 0, 0]	n/a	catFR1	0	R1678T
307.044	1.0	428649	REC_WORD	24.614	n/a	SOFA	Furniture	-999	1	[0, 0, 0]	n/a	catFR1	0	R1678T
308.044	1.0	429649	REC_WORD_VV	25.614	n/a	<>	n/a	-999	1	[0, 0, 0]	n/a	catFR1	0	R1678T
309.044	2.473	430649	REC_WORD_VV	26.614	n/a	<>	n/a	-999	1	[0, 0, 0]	n/a	catFR1	0	R1678T
311.517	1.06	433122	REC_WORD	29.087	n/a	COOK	n/a	-999	1	[0, 0, 0]	n/a	catFR1	0	R1678T
312.577	82.677	434182	TRIAL	n/a	n/a	n/a	n/a	-999	2	[0, 0, 0]	n/a	catFR1	0	R1678T
395.254	10.0	516859	COUNTDOWN	n/a	n/a	n/a	n/a	-999	2	[0, 0, 0]	n/a	catFR1	0	R1678T
405.603	2.15	527208	ENCODING_START	n/a	n/a	n/a	n/a	-999	2	[0, 0, 0]	n/a	catFR1	0	R1678T
407.753	1.6	529358	WORD	n/a	wordpools/wordpool_categorized_EN.txt	TRUMPET	Instruments	1	2	[0, 0, 0]	n/a	catFR1	0	R1678T
410.32	1.6	531925	WORD	n/a	wordpools/wordpool_categorized_EN.txt	PIANO	Instruments	2	2	[0, 0, 0]	n/a	catFR1	0	R1678T
412.786	1.6	534391	WORD	n/a	wordpools/wordpool_categorized_EN.txt	WHALE	OceanAnimals	3	2	[0, 0, 0]	n/a	catFR1	0	R1678T
415.269	1.6	536874	WORD	n/a	wordpools/wordpool_categorized_EN.txt	FISH	OceanAnimals	4	2	[0, 0, 0]	n/a	catFR1	0	R1678T
417.736	1.6	539341	WORD	n/a	wordpools/wordpool_categorized_EN.txt	SOCKS	Clothing	5	2	[0, 0, 0]	n/a	catFR1	0	R1678T
420.219	1.6	541824	WORD	n/a	wordpools/wordpool_categorized_EN.txt	SHIRT	Clothing	6	2	[0, 0, 0]	n/a	catFR1	0	R1678T
422.669	1.6	544274	WORD	n/a	wordpools/wordpool_categorized_EN.txt	PLANKTON	OceanAnimals	7	2	[0, 0, 0]	n/a	catFR1	0	R1678T
425.269	1.6	546874	WORD	n/a	wordpools/wordpool_categorized_EN.txt	DOLPHIN	OceanAnimals	8	2	[0, 0, 0]	n/a	catFR1	0	R1678T
427.719	1.6	549324	WORD	n/a	wordpools/wordpool_categorized_EN.txt	DRUM	Instruments	9	2	[0, 0, 0]	n/a	catFR1	0	R1678T
430.236	1.6	551841	WORD	n/a	wordpools/wordpool_categorized_EN.txt	VIOLIN	Instruments	10	2	[0, 0, 0]	n/a	catFR1	0	R1678T
432.652	1.6	554257	WORD	n/a	wordpools/wordpool_categorized_EN.txt	SHOES	Clothing	11	2	[0, 0, 0]	n/a	catFR1	0	R1678T
435.068	1.6	556673	WORD	n/a	wordpools/wordpool_categorized_EN.txt	SKIRT	Clothing	12	2	[0, 0, 0]	n/a	catFR1	0	R1678T
436.669	0.001	558274	DISTRACT_START	n/a	n/a	n/a	n/a	-999	2	[0, 0, 0]	n/a	catFR1	0	R1678T
436.67	4.332	558275	PROB	4.316	n/a	n/a	n/a	-999	2	[5, 2, 5]	12.0	catFR1	0	R1678T
441.002	6.984	562607	PROB	6.966	n/a	n/a	n/a	-999	2	[7, 2, 1]	10.0	catFR1	0	R1678T
447.986	5.367	569591	PROB	5.349	n/a	n/a	n/a	-999	2	[3, 2, 8]	13.0	catFR1	0	R1678T
453.353	13.334	574958	PROB	11.182	n/a	n/a	n/a	-999	2	[3, 5, 4]	12.0	catFR1	0	R1678T
466.687	0.771	588292	REC_START	n/a	n/a	n/a	n/a	-999	2	[0, 0, 0]	n/a	catFR1	0	R1678T
467.458	0.647	589063	REC_WORD	0.771	n/a	TRUMPET	Instruments	1	2	[0, 0, 0]	n/a	catFR1	0	R1678T
468.105	0.988	589710	REC_WORD	1.418	n/a	PIANO	Instruments	2	2	[0, 0, 0]	n/a	catFR1	0	R1678T
469.093	1.096	590698	REC_WORD	2.406	n/a	WHALE	OceanAnimals	3	2	[0, 0, 0]	n/a	catFR1	0	R1678T
470.189	1.6	591794	REC_WORD	3.502	n/a	FISH	OceanAnimals	4	2	[0, 0, 0]	n/a	catFR1	0	R1678T
471.789	2.608	593394	REC_WORD_VV	5.102	n/a	<>	n/a	-999	2	[0, 0, 0]	n/a	catFR1	0	R1678T
474.397	6.036	596002	REC_WORD	7.71	n/a	PLANKTON	OceanAnimals	7	2	[0, 0, 0]	n/a	catFR1	0	R1678T
480.433	16.392	602038	REC_WORD	13.746	n/a	DOLPHIN	OceanAnimals	8	2	[0, 0, 0]	n/a	catFR1	0	R1678T
496.825	4.962	618430	TRIAL	n/a	n/a	n/a	n/a	-999	3	[0, 0, 0]	n/a	catFR1	0	R1678T
501.787	10.0	623392	COUNTDOWN	n/a	n/a	n/a	n/a	-999	3	[0, 0, 0]	n/a	catFR1	0	R1678T
512.148	1.983	633753	ENCODING_START	n/a	n/a	n/a	n/a	-999	3	[0, 0, 0]	n/a	catFR1	0	R1678T
514.131	1.6	635736	WORD	n/a	wordpools/wordpool_categorized_EN.txt	CALF	FarmAnimals	1	3	[0, 0, 0]	n/a	catFR1	0	R1678T
516.698	1.6	638303	WORD	n/a	wordpools/wordpool_categorized_EN.txt	HEN	FarmAnimals	2	3	[0, 0, 0]	n/a	catFR1	0	R1678T
519.248	1.6	640853	WORD	n/a	wordpools/wordpool_categorized_EN.txt	PANDA	Zoo	3	3	[0, 0, 0]	n/a	catFR1	0	R1678T
521.732	1.6	643337	WORD	n/a	wordpools/wordpool_categorized_EN.txt	ORANGUTAN	Zoo	4	3	[0, 0, 0]	n/a	catFR1	0	R1678T
524.298	1.6	645903	WORD	n/a	wordpools/wordpool_categorized_EN.txt	RADIO	Electronics	5	3	[0, 0, 0]	n/a	catFR1	0	R1678T
526.864	1.6	648469	WORD	n/a	wordpools/wordpool_categorized_EN.txt	PHONE	Electronics	6	3	[0, 0, 0]	n/a	catFR1	0	R1678T
529.465	1.6	651070	WORD	n/a	wordpools/wordpool_categorized_EN.txt	SHEEP	FarmAnimals	7	3	[0, 0, 0]	n/a	catFR1	0	R1678T
531.914	1.6	653519	WORD	n/a	wordpools/wordpool_categorized_EN.txt	LAMB	FarmAnimals	8	3	[0, 0, 0]	n/a	catFR1	0	R1678T
534.413	1.6	656018	WORD	n/a	wordpools/wordpool_categorized_EN.txt	LION	Zoo	9	3	[0, 0, 0]	n/a	catFR1	0	R1678T
536.83	1.6	658435	WORD	n/a	wordpools/wordpool_categorized_EN.txt	CHIMPANZEE	Zoo	10	3	[0, 0, 0]	n/a	catFR1	0	R1678T
539.264	1.6	660869	WORD	n/a	wordpools/wordpool_categorized_EN.txt	PRINTER	Electronics	11	3	[0, 0, 0]	n/a	catFR1	0	R1678T
541.68	1.6	663285	WORD	n/a	wordpools/wordpool_categorized_EN.txt	CALCULATOR	Electronics	12	3	[0, 0, 0]	n/a	catFR1	0	R1678T
543.281	0.0	664886	DISTRACT_START	n/a	n/a	n/a	n/a	-999	3	[0, 0, 0]	n/a	catFR1	0	R1678T
543.281	4.517	664886	PROB	4.499	n/a	n/a	n/a	-999	3	[2, 1, 1]	4.0	catFR1	0	R1678T
547.798	10.55	669403	PROB	10.532	n/a	n/a	n/a	-999	3	[7, 6, 3]	16.0	catFR1	0	R1678T
558.348	4.833	679953	PROB	4.816	n/a	n/a	n/a	-999	3	[5, 2, 2]	9.0	catFR1	0	R1678T
563.181	34.962	684786	PROB	-32.755	n/a	n/a	n/a	-999	3	[5, 2, 8]	15.0	catFR1	0	R1678T
598.143	1.265	719748	REC_START	n/a	n/a	n/a	n/a	-999	3	[0, 0, 0]	n/a	catFR1	0	R1678T
599.408	0.748	721013	REC_WORD_VV	1.265	n/a	<>	n/a	-999	3	[0, 0, 0]	n/a	catFR1	0	R1678T
600.156	8.992	721761	REC_WORD	2.013	n/a	CALF	FarmAnimals	1	3	[0, 0, 0]	n/a	catFR1	0	R1678T
609.148	6.341	730753	REC_WORD	11.005	n/a	HORSE	n/a	-999	3	[0, 0, 0]	n/a	catFR1	0	R1678T
615.489	6.573	737094	REC_WORD	17.346	n/a	HORSE	n/a	-999	3	[0, 0, 0]	n/a	catFR1	0	R1678T
622.062	6.095	743667	REC_WORD	23.919	n/a	HEN	FarmAnimals	2	3	[0, 0, 0]	n/a	catFR1	0	R1678T
628.157	0.124	749762	REC_WORD	30.014	n/a	CHICKEN	FarmAnimals	-999	3	[0, 0, 0]	n/a	catFR1	0	R1678T
628.281	9.128	749886	TRIAL	n/a	n/a	n/a	n/a	-999	4	[0, 0, 0]	n/a	catFR1	0	R1678T
637.409	10.0	759014	COUNTDOWN	n/a	n/a	n/a	n/a	-999	4	[0, 0, 0]	n/a	catFR1	0	R1678T
647.76	2.016	769365	ENCODING_START	n/a	n/a	n/a	n/a	-999	4	[0, 0, 0]	n/a	catFR1	0	R1678T
649.776	1.6	771381	WORD	n/a	wordpools/wordpool_categorized_EN.txt	DUCK	Birds	1	4	[0, 0, 0]	n/a	catFR1	0	R1678T
652.376	1.6	773981	WORD	n/a	wordpools/wordpool_categorized_EN.txt	CARDINAL	Birds	2	4	[0, 0, 0]	n/a	catFR1	0	R1678T
654.826	1.6	776431	WORD	n/a	wordpools/wordpool_categorized_EN.txt	CHAIR	Furniture	3	4	[0, 0, 0]	n/a	catFR1	0	R1678T
657.274	1.6	778879	WORD	n/a	wordpools/wordpool_categorized_EN.txt	DESK	Furniture	4	4	[0, 0, 0]	n/a	catFR1	0	R1678T
659.641	1.6	781246	WORD	n/a	wordpools/wordpool_categorized_EN.txt	CABBAGE	Vegetables	5	4	[0, 0, 0]	n/a	catFR1	0	R1678T
662.125	1.6	783730	WORD	n/a	wordpools/wordpool_categorized_EN.txt	CUCUMBER	Vegetables	6	4	[0, 0, 0]	n/a	catFR1	0	R1678T
664.609	1.6	786214	WORD	n/a	wordpools/wordpool_categorized_EN.txt	GOOSE	Birds	7	4	[0, 0, 0]	n/a	catFR1	0	R1678T
667.192	1.6	788797	WORD	n/a	wordpools/wordpool_categorized_EN.txt	DOVE	Birds	8	4	[0, 0, 0]	n/a	catFR1	0	R1678T
669.591	1.6	791196	WORD	n/a	wordpools/wordpool_categorized_EN.txt	CORN	Vegetables	9	4	[0, 0, 0]	n/a	catFR1	0	R1678T
672.024	1.6	793629	WORD	n/a	wordpools/wordpool_categorized_EN.txt	LETTUCE	Vegetables	10	4	[0, 0, 0]	n/a	catFR1	0	R1678T
674.458	1.6	796063	WORD	n/a	wordpools/wordpool_categorized_EN.txt	RECLINER	Furniture	11	4	[0, 0, 0]	n/a	catFR1	0	R1678T
676.958	1.6	798563	WORD	n/a	wordpools/wordpool_categorized_EN.txt	COUCH	Furniture	12	4	[0, 0, 0]	n/a	catFR1	0	R1678T
678.575	0.0	800180	DISTRACT_START	n/a	n/a	n/a	n/a	-999	4	[0, 0, 0]	n/a	catFR1	0	R1678T
678.575	4.15	800180	PROB	4.133	n/a	n/a	n/a	-999	4	[5, 5, 1]	11.0	catFR1	0	R1678T
682.725	4.634	804330	PROB	4.615	n/a	n/a	n/a	-999	4	[7, 3, 1]	11.0	catFR1	0	R1678T
687.359	5.598	808964	PROB	5.581	n/a	n/a	n/a	-999	4	[5, 8, 2]	15.0	catFR1	0	R1678T
692.957	5.4	814562	PROB	5.383	n/a	n/a	n/a	-999	4	[2, 1, 7]	10.0	catFR1	0	R1678T
698.357	5.466	819962	PROB	3.15	n/a	n/a	n/a	-999	4	[4, 6, 2]	12.0	catFR1	0	R1678T
703.823	0.91	825428	REC_START	n/a	n/a	n/a	n/a	-999	4	[0, 0, 0]	n/a	catFR1	0	R1678T
704.733	1.037	826338	REC_WORD	0.91	n/a	COUCH	Furniture	12	4	[0, 0, 0]	n/a	catFR1	0	R1678T
705.77	1.576	827375	REC_WORD	1.947	n/a	CARDINAL	Birds	2	4	[0, 0, 0]	n/a	catFR1	0	R1678T
707.346	9.046	828951	REC_WORD_VV	3.523	n/a	<>	n/a	-999	4	[0, 0, 0]	n/a	catFR1	0	R1678T
716.392	5.386	837997	REC_WORD	12.569	n/a	KALE	n/a	-999	4	[0, 0, 0]	n/a	catFR1	0	R1678T
721.778	12.185	843383	REC_WORD	17.955	n/a	HORN	n/a	-999	4	[0, 0, 0]	n/a	catFR1	0	R1678T
733.963	6.075	855568	TRIAL	n/a	n/a	n/a	n/a	-999	5	[0, 0, 0]	n/a	catFR1	0	R1678T
740.038	10.0	861643	COUNTDOWN	n/a	n/a	n/a	n/a	-999	5	[0, 0, 0]	n/a	catFR1	0	R1678T
750.388	2.1	871993	ENCODING_START	n/a	n/a	n/a	n/a	-999	5	[0, 0, 0]	n/a	catFR1	0	R1678T
752.488	1.6	874093	WORD	n/a	wordpools/wordpool_categorized_EN.txt	OAK	Trees	1	5	[0, 0, 0]	n/a	catFR1	0	R1678T
755.054	1.6	876659	WORD	n/a	wordpools/wordpool_categorized_EN.txt	CYPRESS	Trees	2	5	[0, 0, 0]	n/a	catFR1	0	R1678T
757.605	1.6	879210	WORD	n/a	wordpools/wordpool_categorized_EN.txt	GIRAFFE	Zoo	3	5	[0, 0, 0]	n/a	catFR1	0	R1678T
759.988	1.6	881593	WORD	n/a	wordpools/wordpool_categorized_EN.txt	GORILLA	Zoo	4	5	[0, 0, 0]	n/a	catFR1	0	R1678T
762.355	1.6	883960	WORD	n/a	wordpools/wordpool_categorized_EN.txt	OYSTER	OceanAnimals	5	5	[0, 0, 0]	n/a	catFR1	0	R1678T
764.938	1.6	886543	WORD	n/a	wordpools/wordpool_categorized_EN.txt	SHRIMP	OceanAnimals	6	5	[0, 0, 0]	n/a	catFR1	0	R1678T
767.387	1.6	888992	WORD	n/a	wordpools/wordpool_categorized_EN.txt	WILLOW	Trees	7	5	[0, 0, 0]	n/a	catFR1	0	R1678T
769.82	1.6	891425	WORD	n/a	wordpools/wordpool_categorized_EN.txt	EVERGREEN	Trees	8	5	[0, 0, 0]	n/a	catFR1	0	R1678T
772.421	1.6	894026	WORD	n/a	wordpools/wordpool_categorized_EN.txt	MONKEY	Zoo	9	5	[0, 0, 0]	n/a	catFR1	0	R1678T
774.936	1.6	896541	WORD	n/a	wordpools/wordpool_categorized_EN.txt	ELEPHANT	Zoo	10	5	[0, 0, 0]	n/a	catFR1	0	R1678T
777.521	1.6	899126	WORD	n/a	wordpools/wordpool_categorized_EN.txt	CRAB	OceanAnimals	11	5	[0, 0, 0]	n/a	catFR1	0	R1678T
779.952	1.6	901557	WORD	n/a	wordpools/wordpool_categorized_EN.txt	TURTLE	OceanAnimals	12	5	[0, 0, 0]	n/a	catFR1	0	R1678T
781.553	0.001	903158	PROB	5.333	n/a	n/a	n/a	-999	5	[7, 7, 4]	18.0	catFR1	0	R1678T
781.554	5.349	903159	DISTRACT_START	n/a	n/a	n/a	n/a	-999	5	[0, 0, 0]	n/a	catFR1	0	R1678T
786.903	5.217	908508	PROB	5.199	n/a	n/a	n/a	-999	5	[1, 3, 8]	12.0	catFR1	0	R1678T
792.12	4.617	913725	PROB	4.599	n/a	n/a	n/a	-999	5	[5, 8, 3]	16.0	catFR1	0	R1678T
796.737	11.087	918342	PROB	8.899	n/a	n/a	n/a	-999	5	[8, 3, 2]	13.0	catFR1	0	R1678T
807.824	0.566	929429	REC_START	n/a	n/a	n/a	n/a	-999	5	[0, 0, 0]	n/a	catFR1	0	R1678T
808.39	1.154	929995	REC_WORD	0.566	n/a	OAK	Trees	1	5	[0, 0, 0]	n/a	catFR1	0	R1678T
809.544	2.025	931149	REC_WORD	1.72	n/a	CYPRESS	Trees	2	5	[0, 0, 0]	n/a	catFR1	0	R1678T
811.569	2.85	933174	REC_WORD_VV	3.745	n/a	<>	n/a	-999	5	[0, 0, 0]	n/a	catFR1	0	R1678T
814.419	3.201	936024	REC_WORD_VV	6.595	n/a	<>	n/a	-999	5	[0, 0, 0]	n/a	catFR1	0	R1678T
817.62	12.894	939225	REC_WORD	9.796	n/a	EVERGREEN	Trees	8	5	[0, 0, 0]	n/a	catFR1	0	R1678T
830.514	7.45	952119	REC_WORD	22.69	n/a	GRASS	n/a	-999	5	[0, 0, 0]	n/a	catFR1	0	R1678T
837.964	6.87	959569	TRIAL	n/a	n/a	n/a	n/a	-999	6	[0, 0, 0]	n/a	catFR1	0	R1678T
844.834	10.0	966439	COUNTDOWN	n/a	n/a	n/a	n/a	-999	6	[0, 0, 0]	n/a	catFR1	0	R1678T
855.182	2.051	976787	ENCODING_START	n/a	n/a	n/a	n/a	-999	6	[0, 0, 0]	n/a	catFR1	0	R1678T
857.233	1.6	978838	WORD	n/a	wordpools/wordpool_categorized_EN.txt	COTTON	Fabric	1	6	[0, 0, 0]	n/a	catFR1	0	R1678T
859.666	1.6	981271	WORD	n/a	wordpools/wordpool_categorized_EN.txt	SILK	Fabric	2	6	[0, 0, 0]	n/a	catFR1	0	R1678T
862.183	1.6	983788	WORD	n/a	wordpools/wordpool_categorized_EN.txt	HURRICANE	Weather	3	6	[0, 0, 0]	n/a	catFR1	0	R1678T
864.782	1.6	986387	WORD	n/a	wordpools/wordpool_categorized_EN.txt	HUMIDITY	Weather	4	6	[0, 0, 0]	n/a	catFR1	0	R1678T
867.266	1.6	988871	WORD	n/a	wordpools/wordpool_categorized_EN.txt	COLANDER	KitchenTools	5	6	[0, 0, 0]	n/a	catFR1	0	R1678T
869.865	1.6	991470	WORD	n/a	wordpools/wordpool_categorized_EN.txt	PEELER	KitchenTools	6	6	[0, 0, 0]	n/a	catFR1	0	R1678T
872.365	1.6	993970	WORD	n/a	wordpools/wordpool_categorized_EN.txt	DRIZZLE	Weather	7	6	[0, 0, 0]	n/a	catFR1	0	R1678T
874.799	1.6	996404	WORD	n/a	wordpools/wordpool_categorized_EN.txt	WIND	Weather	8	6	[0, 0, 0]	n/a	catFR1	0	R1678T
877.233	1.6	998838	WORD	n/a	wordpools/wordpool_categorized_EN.txt	KNIFE	KitchenTools	9	6	[0, 0, 0]	n/a	catFR1	0	R1678T
879.682	1.6	1001287	WORD	n/a	wordpools/wordpool_categorized_EN.txt	SPATULA	KitchenTools	10	6	[0, 0, 0]	n/a	catFR1	0	R1678T
882.248	1.6	1003853	WORD	n/a	wordpools/wordpool_categorized_EN.txt	SUEDE	Fabric	11	6	[0, 0, 0]	n/a	catFR1	0	R1678T
884.782	1.6	1006387	WORD	n/a	wordpools/wordpool_categorized_EN.txt	SPANDEX	Fabric	12	6	[0, 0, 0]	n/a	catFR1	0	R1678T
886.4	0.0	1008005	DISTRACT_START	n/a	n/a	n/a	n/a	-999	6	[0, 0, 0]	n/a	catFR1	0	R1678T
886.4	6.916	1008005	PROB	6.899	n/a	n/a	n/a	-999	6	[2, 4, 8]	14.0	catFR1	0	R1678T
893.316	5.681	1014921	PROB	5.665	n/a	n/a	n/a	-999	6	[6, 7, 4]	17.0	catFR1	0	R1678T
898.997	10.346	1020602	PROB	7.917	n/a	n/a	n/a	-999	6	[3, 5, 2]	10.0	catFR1	0	R1678T
909.343	5.27	1030948	REC_START	n/a	n/a	n/a	n/a	-999	6	[0, 0, 0]	n/a	catFR1	0	R1678T
914.613	5.745	1036218	REC_WORD_VV	5.27	n/a	<>	n/a	-999	6	[0, 0, 0]	n/a	catFR1	0	R1678T
920.358	8.428	1041963	REC_WORD_VV	11.015	n/a	<>	n/a	-999	6	[0, 0, 0]	n/a	catFR1	0	R1678T
928.786	1.0	1050391	REC_WORD_VV	19.443	n/a	<>	n/a	-999	6	[0, 0, 0]	n/a	catFR1	0	R1678T
929.786	1.0	1051391	REC_WORD_VV	20.443	n/a	<>	n/a	-999	6	[0, 0, 0]	n/a	catFR1	0	R1678T
930.786	4.035	1052391	REC_WORD_VV	21.443	n/a	<>	n/a	-999	6	[0, 0, 0]	n/a	catFR1	0	R1678T
934.821	1.0	1056426	REC_WORD_VV	25.478	n/a	<>	n/a	-999	6	[0, 0, 0]	n/a	catFR1	0	R1678T
935.821	3.672	1057426	REC_WORD_VV	26.478	n/a	<>	n/a	-999	6	[0, 0, 0]	n/a	catFR1	0	R1678T
939.493	13.368	1061098	TRIAL	n/a	n/a	n/a	n/a	-999	7	[0, 0, 0]	n/a	catFR1	0	R1678T
952.861	10.0	1074466	COUNTDOWN	n/a	n/a	n/a	n/a	-999	7	[0, 0, 0]	n/a	catFR1	0	R1678T
963.228	2.116	1084833	ENCODING_START	n/a	n/a	n/a	n/a	-999	7	[0, 0, 0]	n/a	catFR1	0	R1678T
965.344	1.6	1086949	WORD	n/a	wordpools/wordpool_categorized_EN.txt	BINDER	OfficeSupplies	1	7	[0, 0, 0]	n/a	catFR1	0	R1678T
967.861	1.6	1089466	WORD	n/a	wordpools/wordpool_categorized_EN.txt	RULER	OfficeSupplies	2	7	[0, 0, 0]	n/a	catFR1	0	R1678T
970.362	1.6	1091967	WORD	n/a	wordpools/wordpool_categorized_EN.txt	CROWBAR	Tools	3	7	[0, 0, 0]	n/a	catFR1	0	R1678T
972.944	1.6	1094549	WORD	n/a	wordpools/wordpool_categorized_EN.txt	RATCHET	Tools	4	7	[0, 0, 0]	n/a	catFR1	0	R1678T
975.544	1.6	1097149	WORD	n/a	wordpools/wordpool_categorized_EN.txt	TABLET	Electronics	5	7	[0, 0, 0]	n/a	catFR1	0	R1678T
978.161	1.6	1099766	WORD	n/a	wordpools/wordpool_categorized_EN.txt	COMPUTER	Electronics	6	7	[0, 0, 0]	n/a	catFR1	0	R1678T
980.645	1.6	1102250	WORD	n/a	wordpools/wordpool_categorized_EN.txt	NOTEBOOK	OfficeSupplies	7	7	[0, 0, 0]	n/a	catFR1	0	R1678T
983.061	1.6	1104666	WORD	n/a	wordpools/wordpool_categorized_EN.txt	TAPE	OfficeSupplies	8	7	[0, 0, 0]	n/a	catFR1	0	R1678T
985.46	1.6	1107065	WORD	n/a	wordpools/wordpool_categorized_EN.txt	MICROWAVE	Electronics	9	7	[0, 0, 0]	n/a	catFR1	0	R1678T
987.861	1.6	1109466	WORD	n/a	wordpools/wordpool_categorized_EN.txt	SCANNER	Electronics	10	7	[0, 0, 0]	n/a	catFR1	0	R1678T
990.342	1.6	1111947	WORD	n/a	wordpools/wordpool_categorized_EN.txt	SCREWDRIVER	Tools	11	7	[0, 0, 0]	n/a	catFR1	0	R1678T
992.728	1.6	1114333	WORD	n/a	wordpools/wordpool_categorized_EN.txt	HAMMER	Tools	12	7	[0, 0, 0]	n/a	catFR1	0	R1678T
994.344	0.0	1115949	DISTRACT_START	n/a	n/a	n/a	n/a	-999	7	[0, 0, 0]	n/a	catFR1	0	R1678T
994.344	14.233	1115949	PROB	14.215	n/a	n/a	n/a	-999	7	[1, 8, 7]	16.0	catFR1	0	R1678T
1008.577	9.534	1130182	PROB	7.448	n/a	n/a	n/a	-999	7	[3, 4, 6]	13.0	catFR1	0	R1678T
1018.111	0.545	1139716	REC_START	n/a	n/a	n/a	n/a	-999	7	[0, 0, 0]	n/a	catFR1	0	R1678T
1018.656	1.179	1140261	REC_WORD	0.545	n/a	HAMMER	Tools	12	7	[0, 0, 0]	n/a	catFR1	0	R1678T
1019.835	4.491	1141440	REC_WORD	1.724	n/a	NOTEBOOK	OfficeSupplies	7	7	[0, 0, 0]	n/a	catFR1	0	R1678T
1024.326	1.0	1145931	REC_WORD	6.215	n/a	SCREWDRIVER	Tools	11	7	[0, 0, 0]	n/a	catFR1	0	R1678T
1025.326	3.637	1146931	REC_WORD_VV	7.215	n/a	<>	n/a	-999	7	[0, 0, 0]	n/a	catFR1	0	R1678T
1028.963	7.258	1150568	REC_WORD	10.852	n/a	RULER	OfficeSupplies	2	7	[0, 0, 0]	n/a	catFR1	0	R1678T
1036.221	12.032	1157826	REC_WORD_VV	18.11	n/a	<>	n/a	-999	7	[0, 0, 0]	n/a	catFR1	0	R1678T
1048.253	3.438	1169858	TRIAL	n/a	n/a	n/a	n/a	-999	8	[0, 0, 0]	n/a	catFR1	0	R1678T
1051.691	10.0	1173296	COUNTDOWN	n/a	n/a	n/a	n/a	-999	8	[0, 0, 0]	n/a	catFR1	0	R1678T
1062.057	1.949	1183662	ENCODING_START	n/a	n/a	n/a	n/a	-999	8	[0, 0, 0]	n/a	catFR1	0	R1678T
1064.006	1.6	1185611	WORD	n/a	wordpools/wordpool_categorized_EN.txt	DENIM	Fabric	1	8	[0, 0, 0]	n/a	catFR1	0	R1678T
1066.373	1.6	1187978	WORD	n/a	wordpools/wordpool_categorized_EN.txt	LEATHER	Fabric	2	8	[0, 0, 0]	n/a	catFR1	0	R1678T
1068.923	1.6	1190528	WORD	n/a	wordpools/wordpool_categorized_EN.txt	MAPLE	Trees	3	8	[0, 0, 0]	n/a	catFR1	0	R1678T
1071.423	1.6	1193028	WORD	n/a	wordpools/wordpool_categorized_EN.txt	PINE	Trees	4	8	[0, 0, 0]	n/a	catFR1	0	R1678T
1074.023	1.6	1195628	WORD	n/a	wordpools/wordpool_categorized_EN.txt	MOPED	Vehicles	5	8	[0, 0, 0]	n/a	catFR1	0	R1678T
1076.406	1.6	1198011	WORD	n/a	wordpools/wordpool_categorized_EN.txt	CAR	Vehicles	6	8	[0, 0, 0]	n/a	catFR1	0	R1678T
1078.889	1.6	1200494	WORD	n/a	wordpools/wordpool_categorized_EN.txt	ELM	Trees	7	8	[0, 0, 0]	n/a	catFR1	0	R1678T
1081.34	1.6	1202945	WORD	n/a	wordpools/wordpool_categorized_EN.txt	SPRUCE	Trees	8	8	[0, 0, 0]	n/a	catFR1	0	R1678T
1083.807	1.6	1205412	WORD	n/a	wordpools/wordpool_categorized_EN.txt	VELVET	Fabric	9	8	[0, 0, 0]	n/a	catFR1	0	R1678T
1086.389	1.6	1207994	WORD	n/a	wordpools/wordpool_categorized_EN.txt	NYLON	Fabric	10	8	[0, 0, 0]	n/a	catFR1	0	R1678T
1088.973	1.6	1210578	WORD	n/a	wordpools/wordpool_categorized_EN.txt	BIKE	Vehicles	11	8	[0, 0, 0]	n/a	catFR1	0	R1678T
1091.439	1.6	1213044	WORD	n/a	wordpools/wordpool_categorized_EN.txt	TRAIN	Vehicles	12	8	[0, 0, 0]	n/a	catFR1	0	R1678T
1093.04	0.001	1214645	PROB	8.532	n/a	n/a	n/a	-999	8	[7, 5, 3]	15.0	catFR1	0	R1678T
1093.041	8.548	1214646	DISTRACT_START	n/a	n/a	n/a	n/a	-999	8	[0, 0, 0]	n/a	catFR1	0	R1678T
1101.589	4.467	1223194	PROB	4.449	n/a	n/a	n/a	-999	8	[6, 6, 5]	17.0	catFR1	0	R1678T
1106.056	25.743	1227661	PROB	23.547	n/a	n/a	n/a	-999	8	[5, 3, 1]	9.0	catFR1	0	R1678T
1131.799	11.67	1253404	REC_START	n/a	n/a	n/a	n/a	-999	8	[0, 0, 0]	n/a	catFR1	0	R1678T
1143.469	1.485	1265074	REC_WORD_VV	11.67	n/a	<>	n/a	-999	8	[0, 0, 0]	n/a	catFR1	0	R1678T
1144.954	4.221	1266559	REC_WORD	13.155	n/a	HAMMER	Tools	-999	8	[0, 0, 0]	n/a	catFR1	0	R1678T
1149.175	12.777	1270780	REC_WORD_VV	17.376	n/a	<>	n/a	-999	8	[0, 0, 0]	n/a	catFR1	0	R1678T
1161.952	9.433	1283557	TRIAL	n/a	n/a	n/a	n/a	-999	9	[0, 0, 0]	n/a	catFR1	0	R1678T
1171.385	10.0	1292990	COUNTDOWN	n/a	n/a	n/a	n/a	-999	9	[0, 0, 0]	n/a	catFR1	0	R1678T
1181.735	2.117	1303340	ENCODING_START	n/a	n/a	n/a	n/a	-999	9	[0, 0, 0]	n/a	catFR1	0	R1678T
1183.852	1.6	1305457	WORD	n/a	wordpools/wordpool_categorized_EN.txt	REFRIGERATOR	Appliances	1	9	[0, 0, 0]	n/a	catFR1	0	R1678T
1186.218	1.6	1307823	WORD	n/a	wordpools/wordpool_categorized_EN.txt	FREEZER	Appliances	2	9	[0, 0, 0]	n/a	catFR1	0	R1678T
1188.768	1.6	1310373	WORD	n/a	wordpools/wordpool_categorized_EN.txt	WOOL	Fabric	3	9	[0, 0, 0]	n/a	catFR1	0	R1678T
1191.352	1.6	1312957	WORD	n/a	wordpools/wordpool_categorized_EN.txt	LINEN	Fabric	4	9	[0, 0, 0]	n/a	catFR1	0	R1678T
1193.851	1.6	1315456	WORD	n/a	wordpools/wordpool_categorized_EN.txt	LEVEL	Tools	5	9	[0, 0, 0]	n/a	catFR1	0	R1678T
1196.434	1.6	1318039	WORD	n/a	wordpools/wordpool_categorized_EN.txt	PLIERS	Tools	6	9	[0, 0, 0]	n/a	catFR1	0	R1678T
1198.817	1.6	1320422	WORD	n/a	wordpools/wordpool_categorized_EN.txt	IRON	Appliances	7	9	[0, 0, 0]	n/a	catFR1	0	R1678T
1201.301	1.6	1322906	WORD	n/a	wordpools/wordpool_categorized_EN.txt	DISHWASHER	Appliances	8	9	[0, 0, 0]	n/a	catFR1	0	R1678T
1203.817	1.6	1325422	WORD	n/a	wordpools/wordpool_categorized_EN.txt	FLEECE	Fabric	9	9	[0, 0, 0]	n/a	catFR1	0	R1678T
1206.367	1.6	1327972	WORD	n/a	wordpools/wordpool_categorized_EN.txt	SATIN	Fabric	10	9	[0, 0, 0]	n/a	catFR1	0	R1678T
1208.934	1.6	1330539	WORD	n/a	wordpools/wordpool_categorized_EN.txt	SANDER	Tools	11	9	[0, 0, 0]	n/a	catFR1	0	R1678T
1211.567	1.6	1333172	WORD	n/a	wordpools/wordpool_categorized_EN.txt	SHOVEL	Tools	12	9	[0, 0, 0]	n/a	catFR1	0	R1678T
1213.167	0.001	1334772	PROB	6.432	n/a	n/a	n/a	-999	9	[6, 1, 4]	11.0	catFR1	0	R1678T
1213.168	6.449	1334773	DISTRACT_START	n/a	n/a	n/a	n/a	-999	9	[0, 0, 0]	n/a	catFR1	0	R1678T
1219.617	5.316	1341222	PROB	5.298	n/a	n/a	n/a	-999	9	[8, 5, 4]	17.0	catFR1	0	R1678T
1224.933	3.934	1346538	PROB	3.916	n/a	n/a	n/a	-999	9	[5, 2, 1]	8.0	catFR1	0	R1678T
1228.867	7.99	1350472	PROB	5.715	n/a	n/a	n/a	-999	9	[6, 1, 4]	11.0	catFR1	0	R1678T
1236.857	2.015	1358462	REC_START	n/a	n/a	n/a	n/a	-999	9	[0, 0, 0]	n/a	catFR1	0	R1678T
1238.872	1.0	1360477	REC_WORD	2.015	n/a	SANDER	Tools	11	9	[0, 0, 0]	n/a	catFR1	0	R1678T
1239.872	0.306	1361477	REC_WORD_VV	3.015	n/a	<>	n/a	-999	9	[0, 0, 0]	n/a	catFR1	0	R1678T
1240.178	2.972	1361783	REC_WORD	3.321	n/a	SHOVEL	Tools	12	9	[0, 0, 0]	n/a	catFR1	0	R1678T
1243.15	1.629	1364755	REC_WORD_VV	6.293	n/a	<>	n/a	-999	9	[0, 0, 0]	n/a	catFR1	0	R1678T
1244.779	3.102	1366384	REC_WORD	7.922	n/a	WOOL	Fabric	3	9	[0, 0, 0]	n/a	catFR1	0	R1678T
1247.881	6.973	1369486	REC_WORD	11.024	n/a	SHOVEL	Tools	12	9	[0, 0, 0]	n/a	catFR1	0	R1678T
1254.854	12.162	1376459	REC_WORD_VV	17.997	n/a	<>	n/a	-999	9	[0, 0, 0]	n/a	catFR1	0	R1678T
1267.016	11.547	1388621	TRIAL	n/a	n/a	n/a	n/a	-999	10	[0, 0, 0]	n/a	catFR1	0	R1678T
1278.563	10.0	1400168	COUNTDOWN	n/a	n/a	n/a	n/a	-999	10	[0, 0, 0]	n/a	catFR1	0	R1678T
1288.93	2.033	1410535	ENCODING_START	n/a	n/a	n/a	n/a	-999	10	[0, 0, 0]	n/a	catFR1	0	R1678T
1290.963	1.6	1412568	WORD	n/a	wordpools/wordpool_categorized_EN.txt	SHORTS	Clothing	1	10	[0, 0, 0]	n/a	catFR1	0	R1678T
1293.33	1.6	1414935	WORD	n/a	wordpools/wordpool_categorized_EN.txt	BLOUSE	Clothing	2	10	[0, 0, 0]	n/a	catFR1	0	R1678T
1295.763	1.6	1417368	WORD	n/a	wordpools/wordpool_categorized_EN.txt	PAPER	OfficeSupplies	3	10	[0, 0, 0]	n/a	catFR1	0	R1678T
1298.297	1.6	1419902	WORD	n/a	wordpools/wordpool_categorized_EN.txt	MARKER	OfficeSupplies	4	10	[0, 0, 0]	n/a	catFR1	0	R1678T
1300.846	1.6	1422451	WORD	n/a	wordpools/wordpool_categorized_EN.txt	SPINACH	Vegetables	5	10	[0, 0, 0]	n/a	catFR1	0	R1678T
1303.396	1.6	1425001	WORD	n/a	wordpools/wordpool_categorized_EN.txt	CELERY	Vegetables	6	10	[0, 0, 0]	n/a	catFR1	0	R1678T
1305.879	1.6	1427484	WORD	n/a	wordpools/wordpool_categorized_EN.txt	FOLDER	OfficeSupplies	7	10	[0, 0, 0]	n/a	catFR1	0	R1678T
1308.362	1.6	1429967	WORD	n/a	wordpools/wordpool_categorized_EN.txt	PEN	OfficeSupplies	8	10	[0, 0, 0]	n/a	catFR1	0	R1678T
1310.929	1.6	1432534	WORD	n/a	wordpools/wordpool_categorized_EN.txt	POTATO	Vegetables	9	10	[0, 0, 0]	n/a	catFR1	0	R1678T
1313.428	1.6	1435033	WORD	n/a	wordpools/wordpool_categorized_EN.txt	ONION	Vegetables	10	10	[0, 0, 0]	n/a	catFR1	0	R1678T
1316.012	1.6	1437617	WORD	n/a	wordpools/wordpool_categorized_EN.txt	JACKET	Clothing	11	10	[0, 0, 0]	n/a	catFR1	0	R1678T
1318.396	1.6	1440001	WORD	n/a	wordpools/wordpool_categorized_EN.txt	DRESS	Clothing	12	10	[0, 0, 0]	n/a	catFR1	0	R1678T
1320.012	0.001	1441617	PROB	12.432	n/a	n/a	n/a	-999	10	[3, 4, 6]	13.0	catFR1	0	R1678T
1320.013	12.448	1441618	DISTRACT_START	n/a	n/a	n/a	n/a	-999	10	[0, 0, 0]	n/a	catFR1	0	R1678T
1332.461	3.801	1454066	PROB	3.783	n/a	n/a	n/a	-999	10	[7, 1, 1]	9.0	catFR1	0	R1678T
1336.262	11.009	1457867	PROB	8.749	n/a	n/a	n/a	-999	10	[8, 1, 1]	10.0	catFR1	0	R1678T
1347.271	3.258	1468876	REC_START	n/a	n/a	n/a	n/a	-999	10	[0, 0, 0]	n/a	catFR1	0	R1678T
1350.529	13.363	1472134	REC_WORD_VV	3.258	n/a	<>	n/a	-999	10	[0, 0, 0]	n/a	catFR1	0	R1678T
1363.892	13.532	1485497	REC_WORD_VV	16.621	n/a	<>	n/a	-999	10	[0, 0, 0]	n/a	catFR1	0	R1678T
1377.424	23.716	1499029	TRIAL	n/a	n/a	n/a	n/a	-999	11	[0, 0, 0]	n/a	catFR1	0	R1678T
1401.14	10.0	1522745	COUNTDOWN	n/a	n/a	n/a	n/a	-999	11	[0, 0, 0]	n/a	catFR1	0	R1678T
1411.492	2.165	1533097	ENCODING_START	n/a	n/a	n/a	n/a	-999	11	[0, 0, 0]	n/a	catFR1	0	R1678T
1413.657	1.6	1535262	WORD	n/a	wordpools/wordpool_categorized_EN.txt	PIG	FarmAnimals	1	11	[0, 0, 0]	n/a	catFR1	0	R1678T
1416.074	1.6	1537679	WORD	n/a	wordpools/wordpool_categorized_EN.txt	ROOSTER	FarmAnimals	2	11	[0, 0, 0]	n/a	catFR1	0	R1678T
1418.607	1.6	1540212	WORD	n/a	wordpools/wordpool_categorized_EN.txt	WOODS	Landscapes	3	11	[0, 0, 0]	n/a	catFR1	0	R1678T
1421.023	1.6	1542628	WORD	n/a	wordpools/wordpool_categorized_EN.txt	VALLEY	Landscapes	4	11	[0, 0, 0]	n/a	catFR1	0	R1678T
1423.408	1.6	1545013	WORD	n/a	wordpools/wordpool_categorized_EN.txt	STAPLER	OfficeSupplies	5	11	[0, 0, 0]	n/a	catFR1	0	R1678T
1425.941	1.6	1547546	WORD	n/a	wordpools/wordpool_categorized_EN.txt	PENCIL	OfficeSupplies	6	11	[0, 0, 0]	n/a	catFR1	0	R1678T
1428.307	1.6	1549912	WORD	n/a	wordpools/wordpool_categorized_EN.txt	HORSE	FarmAnimals	7	11	[0, 0, 0]	n/a	catFR1	0	R1678T
1430.891	1.6	1552496	WORD	n/a	wordpools/wordpool_categorized_EN.txt	COW	FarmAnimals	8	11	[0, 0, 0]	n/a	catFR1	0	R1678T
1433.324	1.6	1554929	WORD	n/a	wordpools/wordpool_categorized_EN.txt	ISLAND	Landscapes	9	11	[0, 0, 0]	n/a	catFR1	0	R1678T
1435.856	1.6	1557461	WORD	n/a	wordpools/wordpool_categorized_EN.txt	LAKE	Landscapes	10	11	[0, 0, 0]	n/a	catFR1	0	R1678T
1438.307	1.6	1559912	WORD	n/a	wordpools/wordpool_categorized_EN.txt	GLUE	OfficeSupplies	11	11	[0, 0, 0]	n/a	catFR1	0	R1678T
1440.74	1.6	1562345	WORD	n/a	wordpools/wordpool_categorized_EN.txt	ERASER	OfficeSupplies	12	11	[0, 0, 0]	n/a	catFR1	0	R1678T
1442.357	0.0	1563962	DISTRACT_START	n/a	n/a	n/a	n/a	-999	11	[0, 0, 0]	n/a	catFR1	0	R1678T
1442.357	6.95	1563962	PROB	6.932	n/a	n/a	n/a	-999	11	[3, 4, 5]	12.0	catFR1	0	R1678T
1449.307	5.532	1570912	PROB	5.516	n/a	n/a	n/a	-999	11	[4, 3, 1]	8.0	catFR1	0	R1678T
1454.839	4.734	1576444	PROB	4.715	n/a	n/a	n/a	-999	11	[3, 1, 5]	9.0	catFR1	0	R1678T
1459.573	19.229	1581178	PROB	16.898	n/a	n/a	n/a	-999	11	[4, 7, 2]	13.0	catFR1	0	R1678T
1478.802	1.052	1600407	REC_START	n/a	n/a	n/a	n/a	-999	11	[0, 0, 0]	n/a	catFR1	0	R1678T
1479.854	1.607	1601459	REC_WORD	1.052	n/a	PIG	FarmAnimals	1	11	[0, 0, 0]	n/a	catFR1	0	R1678T
1481.461	4.372	1603066	REC_WORD	2.659	n/a	ROOSTER	FarmAnimals	2	11	[0, 0, 0]	n/a	catFR1	0	R1678T
1485.833	4.071	1607438	REC_WORD	7.031	n/a	SHOVEL	Tools	-999	11	[0, 0, 0]	n/a	catFR1	0	R1678T
1489.904	8.353	1611509	REC_WORD	11.102	n/a	COW	FarmAnimals	8	11	[0, 0, 0]	n/a	catFR1	0	R1678T
1498.257	7.664	1619862	REC_WORD	19.455	n/a	FARM	n/a	-999	11	[0, 0, 0]	n/a	catFR1	0	R1678T
1505.921	3.039	1627526	REC_WORD	27.119	n/a	LAKE	Landscapes	10	11	[0, 0, 0]	n/a	catFR1	0	R1678T
1508.96	5.377	1630565	TRIAL	n/a	n/a	n/a	n/a	-999	12	[0, 0, 0]	n/a	catFR1	0	R1678T
1514.337	10.0	1635942	COUNTDOWN	n/a	n/a	n/a	n/a	-999	12	[0, 0, 0]	n/a	catFR1	0	R1678T
1524.687	2.182	1646292	ENCODING_START	n/a	n/a	n/a	n/a	-999	12	[0, 0, 0]	n/a	catFR1	0	R1678T
1526.869	1.6	1648474	WORD	n/a	wordpools/wordpool_categorized_EN.txt	PANTS	Clothing	1	12	[0, 0, 0]	n/a	catFR1	0	R1678T
1529.469	1.6	1651074	WORD	n/a	wordpools/wordpool_categorized_EN.txt	COAT	Clothing	2	12	[0, 0, 0]	n/a	catFR1	0	R1678T
1531.952	1.6	1653557	WORD	n/a	wordpools/wordpool_categorized_EN.txt	HILLS	Landscapes	3	12	[0, 0, 0]	n/a	catFR1	0	R1678T
1534.503	1.6	1656108	WORD	n/a	wordpools/wordpool_categorized_EN.txt	RIVER	Landscapes	4	12	[0, 0, 0]	n/a	catFR1	0	R1678T
1537.084	1.6	1658689	WORD	n/a	wordpools/wordpool_categorized_EN.txt	SPEAKER	Electronics	5	12	[0, 0, 0]	n/a	catFR1	0	R1678T
1539.552	1.6	1661157	WORD	n/a	wordpools/wordpool_categorized_EN.txt	HEADPHONES	Electronics	6	12	[0, 0, 0]	n/a	catFR1	0	R1678T
1542.069	1.6	1663674	WORD	n/a	wordpools/wordpool_categorized_EN.txt	UNDERWEAR	Clothing	7	12	[0, 0, 0]	n/a	catFR1	0	R1678T
1544.453	1.6	1666058	WORD	n/a	wordpools/wordpool_categorized_EN.txt	JEANS	Clothing	8	12	[0, 0, 0]	n/a	catFR1	0	R1678T
1546.852	1.6	1668457	WORD	n/a	wordpools/wordpool_categorized_EN.txt	MOUNTAIN	Landscapes	9	12	[0, 0, 0]	n/a	catFR1	0	R1678T
1549.451	1.6	1671056	WORD	n/a	wordpools/wordpool_categorized_EN.txt	BEACH	Landscapes	10	12	[0, 0, 0]	n/a	catFR1	0	R1678T
1552.052	1.6	1673657	WORD	n/a	wordpools/wordpool_categorized_EN.txt	TELEVISION	Electronics	11	12	[0, 0, 0]	n/a	catFR1	0	R1678T
1554.585	1.6	1676190	WORD	n/a	wordpools/wordpool_categorized_EN.txt	STEREO	Electronics	12	12	[0, 0, 0]	n/a	catFR1	0	R1678T
1556.186	0.0	1677791	DISTRACT_START	n/a	n/a	n/a	n/a	-999	12	[0, 0, 0]	n/a	catFR1	0	R1678T
1556.186	8.966	1677791	PROB	8.949	n/a	n/a	n/a	-999	12	[1, 5, 8]	14.0	catFR1	0	R1678T
1565.152	5.2	1686757	PROB	5.182	n/a	n/a	n/a	-999	12	[3, 2, 3]	11.0	catFR1	0	R1678T
1570.352	10.732	1691957	PROB	8.482	n/a	n/a	n/a	-999	12	[7, 4, 4]	15.0	catFR1	0	R1678T
1581.084	1.742	1702689	REC_START	n/a	n/a	n/a	n/a	-999	12	[0, 0, 0]	n/a	catFR1	0	R1678T
1582.826	2.489	1704431	REC_WORD	1.742	n/a	BEACH	Landscapes	10	12	[0, 0, 0]	n/a	catFR1	0	R1678T
1585.315	2.685	1706920	REC_WORD_VV	4.231	n/a	<>	n/a	-999	12	[0, 0, 0]	n/a	catFR1	0	R1678T
1588.0	6.627	1709605	REC_WORD	6.916	n/a	RIVER	Landscapes	4	12	[0, 0, 0]	n/a	catFR1	0	R1678T
1594.627	16.61	1716232	REC_WORD_VV	13.543	n/a	<>	n/a	-999	12	[0, 0, 0]	n/a	catFR1	0	R1678T
1611.237	0.0	1732842	SESS_END	n/a	n/a	n/a	n/a	-999	12	[0, 0, 0]	n/a	catFR1	0	R1678T
