onset	duration	sample	trial_type	response_time	stim_file	item_name	category	serialpos	list	test	answer	experiment	session	subject
0.0	0.009	121605	SESS_START	n/a	n/a	n/a	n/a	-999	0	[0, 0, 0]	n/a	catFR1	0	R1678T
0.009	73.344	121614	TRIAL	n/a	n/a	n/a	n/a	-999	-1	[0, 0, 0]	n/a	catFR1	0	R1678T
73.353	10.448	194958	COUNTDOWN	n/a	n/a	n/a	n/a	-999	-1	[0, 0, 0]	n/a	catFR1	0	R1678T
83.801	1.902	205406	ENCODING_START	n/a	n/a	n/a	n/a	-999	-1	[0, 0, 0]	n/a	catFR1	0	R1678T
85.703	2.432	207308	WORD	n/a	n/a	SOFA	Furniture	1	-1	[0, 0, 0]	n/a	catFR1	0	R1678T
88.135	2.382	209740	WORD	n/a	n/a	CABINET	Furniture	2	-1	[0, 0, 0]	n/a	catFR1	0	R1678T
90.517	2.385	212122	WORD	n/a	n/a	WALL	Building	3	-1	[0, 0, 0]	n/a	catFR1	0	R1678T
92.902	2.416	214507	WORD	n/a	n/a	BATHROOM	Building	4	-1	[0, 0, 0]	n/a	catFR1	0	R1678T
95.318	2.367	216923	WORD	n/a	n/a	OCEAN	Landscapes	5	-1	[0, 0, 0]	n/a	catFR1	0	R1678T
97.685	2.466	219290	WORD	n/a	n/a	FOREST	Landscapes	6	-1	[0, 0, 0]	n/a	catFR1	0	R1678T
100.151	2.449	221756	WORD	n/a	n/a	BED	Furniture	7	-1	[0, 0, 0]	n/a	catFR1	0	R1678T
102.6	2.584	224205	WORD	n/a	n/a	TABLE	Furniture	8	-1	[0, 0, 0]	n/a	catFR1	0	R1678T
105.184	2.516	226789	WORD	n/a	n/a	DOOR	Building	9	-1	[0, 0, 0]	n/a	catFR1	0	R1678T
107.7	2.601	229305	WORD	n/a	n/a	HALLWAY	Building	10	-1	[0, 0, 0]	n/a	catFR1	0	R1678T
110.301	2.582	231906	WORD	n/a	n/a	CREEK	Landscapes	11	-1	[0, 0, 0]	n/a	catFR1	0	R1678T
112.883	1.602	234488	WORD	n/a	n/a	STREAM	Landscapes	12	-1	[0, 0, 0]	n/a	catFR1	0	R1678T
114.485	0.001	236090	PROB	0.001	n/a	n/a	n/a	-999	0	[3, 2, 8]	13	catFR1	0	R1678T
114.486	8.415	236091	DISTRACT_START	n/a	n/a	n/a	n/a	-999	0	[0, 0, 0]	n/a	catFR1	0	R1678T
122.901	6.883	244506	PROB	6.883	n/a	n/a	n/a	-999	0	[8, 4, 5]	17	catFR1	0	R1678T
129.784	7.186	251389	PROB	7.186	n/a	n/a	n/a	-999	0	[3, 1, 5]	9	catFR1	0	R1678T
136.97	3.053	258575	REC_START	n/a	n/a	n/a	n/a	-999	-1	[0, 0, 0]	n/a	catFR1	0	R1678T
140.023	2.558	261628	REC_WORD	2.558	n/a	SOFA	Furniture	1	-1	[0, 0, 0]	n/a	catFR1	0	R1678T
142.581	1.7	264186	REC_WORD	1.7	n/a	CABINET	Furniture	2	-1	[0, 0, 0]	n/a	catFR1	0	R1678T
144.281	2.036	265886	REC_WORD	2.036	n/a	WALL	Building	3	-1	[0, 0, 0]	n/a	catFR1	0	R1678T
146.317	3.16	267922	REC_WORD	3.16	n/a	HALLWAY	Building	10	-1	[0, 0, 0]	n/a	catFR1	0	R1678T
149.477	2.48	271082	REC_WORD	2.48	n/a	CREEK	Landscapes	11	-1	[0, 0, 0]	n/a	catFR1	0	R1678T
151.957	3.053	273562	REC_WORD	3.053	n/a	STREAM	Landscapes	12	-1	[0, 0, 0]	n/a	catFR1	0	R1678T
155.01	12.11	276615	REC_WORD	12.11	n/a	CHAIR	n/a	-999	-1	[0, 0, 0]	n/a	catFR1	0	R1678T
167.12	40.976	288725	TRIAL	n/a	n/a	n/a	n/a	-999	1	[0, 0, 0]	n/a	catFR1	0	R1678T
208.096	10.35	329701	COUNTDOWN	n/a	n/a	n/a	n/a	-999	1	[0, 0, 0]	n/a	catFR1	0	R1678T
218.446	2.133	340051	ENCODING_START	n/a	n/a	n/a	n/a	-999	1	[0, 0, 0]	n/a	catFR1	0	R1678T
220.579	2.55	342184	WORD	n/a	wordpools/wordpool_categorized_EN.txt	GOAT	FarmAnimals	1	1	[0, 0, 0]	n/a	catFR1	0	R1678T
223.129	2.567	344734	WORD	n/a	wordpools/wordpool_categorized_EN.txt	TURKEY	FarmAnimals	2	1	[0, 0, 0]	n/a	catFR1	0	R1678T
225.696	2.515	347301	WORD	n/a	wordpools/wordpool_categorized_EN.txt	JELLYFISH	OceanAnimals	3	1	[0, 0, 0]	n/a	catFR1	0	R1678T
228.211	2.517	349816	WORD	n/a	wordpools/wordpool_categorized_EN.txt	OCTOPUS	OceanAnimals	4	1	[0, 0, 0]	n/a	catFR1	0	R1678T
230.728	2.55	352333	WORD	n/a	wordpools/wordpool_categorized_EN.txt	BLENDER	Appliances	5	1	[0, 0, 0]	n/a	catFR1	0	R1678T
233.278	2.484	354883	WORD	n/a	wordpools/wordpool_categorized_EN.txt	DRYER	Appliances	6	1	[0, 0, 0]	n/a	catFR1	0	R1678T
235.762	2.599	357367	WORD	n/a	wordpools/wordpool_categorized_EN.txt	LOBSTER	OceanAnimals	7	1	[0, 0, 0]	n/a	catFR1	0	R1678T
238.361	2.566	359966	WORD	n/a	wordpools/wordpool_categorized_EN.txt	SQUID	OceanAnimals	8	1	[0, 0, 0]	n/a	catFR1	0	R1678T
240.927	2.418	362532	WORD	n/a	wordpools/wordpool_categorized_EN.txt	BULL	FarmAnimals	9	1	[0, 0, 0]	n/a	catFR1	0	R1678T
243.345	2.55	364950	WORD	n/a	wordpools/wordpool_categorized_EN.txt	CHICKEN	FarmAnimals	10	1	[0, 0, 0]	n/a	catFR1	0	R1678T
245.895	2.616	367500	WORD	n/a	wordpools/wordpool_categorized_EN.txt	STOVE	Appliances	11	1	[0, 0, 0]	n/a	catFR1	0	R1678T
248.511	1.617	370116	WORD	n/a	wordpools/wordpool_categorized_EN.txt	MIXER	Appliances	12	1	[0, 0, 0]	n/a	catFR1	0	R1678T
250.128	0.0	371733	DISTRACT_START	n/a	n/a	n/a	n/a	-999	1	[0, 0, 0]	n/a	catFR1	0	R1678T
250.128	3.949	371733	PROB	3.949	n/a	n/a	n/a	-999	1	[8, 2, 1]	11	catFR1	0	R1678T
254.077	4.201	375682	PROB	4.201	n/a	n/a	n/a	-999	1	[2, 4, 3]	9	catFR1	0	R1678T
258.278	4.05	379883	PROB	4.05	n/a	n/a	n/a	-999	1	[2, 3, 3]	8	catFR1	0	R1678T
262.328	5.234	383933	PROB	5.234	n/a	n/a	n/a	-999	1	[3, 5, 3]	11	catFR1	0	R1678T
267.562	14.868	389167	PROB	14.868	n/a	n/a	n/a	-999	1	[2, 1, 5]	8	catFR1	0	R1678T
282.43	1.327	404035	REC_START	n/a	n/a	n/a	n/a	-999	1	[0, 0, 0]	n/a	catFR1	0	R1678T
283.757	1.439	405362	REC_WORD	1.439	n/a	GOAT	FarmAnimals	1	1	[0, 0, 0]	n/a	catFR1	0	R1678T
285.196	1.078	406801	REC_WORD	1.078	n/a	OCTOPUS	OceanAnimals	4	1	[0, 0, 0]	n/a	catFR1	0	R1678T
286.274	1.872	407879	REC_WORD	1.872	n/a	JELLYFISH	OceanAnimals	3	1	[0, 0, 0]	n/a	catFR1	0	R1678T
288.146	4.101	409751	REC_WORD_VV	4.101	n/a	<>	n/a	-999	1	[0, 0, 0]	n/a	catFR1	0	R1678T
292.247	5.204	413852	REC_WORD_VV	5.204	n/a	<>	n/a	-999	1	[0, 0, 0]	n/a	catFR1	0	R1678T
297.451	2.479	419056	REC_WORD	2.479	n/a	CHICKEN	FarmAnimals	10	1	[0, 0, 0]	n/a	catFR1	0	R1678T
299.93	3.991	421535	REC_WORD	3.991	n/a	BARN	n/a	-999	1	[0, 0, 0]	n/a	catFR1	0	R1678T
303.921	3.123	425526	REC_WORD	3.123	n/a	HORSE	n/a	-999	1	[0, 0, 0]	n/a	catFR1	0	R1678T
307.044	1.0	428649	REC_WORD	1.0	n/a	SOFA	Furniture	-999	1	[0, 0, 0]	n/a	catFR1	0	R1678T
308.044	1.0	429649	REC_WORD_VV	1.0	n/a	<>	n/a	-999	1	[0, 0, 0]	n/a	catFR1	0	R1678T
309.044	2.473	430649	REC_WORD_VV	2.473	n/a	<>	n/a	-999	1	[0, 0, 0]	n/a	catFR1	0	R1678T
311.517	1.06	433122	REC_WORD	1.06	n/a	COOK	n/a	-999	1	[0, 0, 0]	n/a	catFR1	0	R1678T
312.577	82.677	434182	TRIAL	n/a	n/a	n/a	n/a	-999	2	[0, 0, 0]	n/a	catFR1	0	R1678T
395.254	10.349	516859	COUNTDOWN	n/a	n/a	n/a	n/a	-999	2	[0, 0, 0]	n/a	catFR1	0	R1678T
405.603	2.15	527208	ENCODING_START	n/a	n/a	n/a	n/a	-999	2	[0, 0, 0]	n/a	catFR1	0	R1678T
407.753	2.567	529358	WORD	n/a	wordpools/wordpool_categorized_EN.txt	TRUMPET	Instruments	1	2	[0, 0, 0]	n/a	catFR1	0	R1678T
410.32	2.466	531925	WORD	n/a	wordpools/wordpool_categorized_EN.txt	PIANO	Instruments	2	2	[0, 0, 0]	n/a	catFR1	0	R1678T
412.786	2.483	534391	WORD	n/a	wordpools/wordpool_categorized_EN.txt	WHALE	OceanAnimals	3	2	[0, 0, 0]	n/a	catFR1	0	R1678T
415.269	2.467	536874	WORD	n/a	wordpools/wordpool_categorized_EN.txt	FISH	OceanAnimals	4	2	[0, 0, 0]	n/a	catFR1	0	R1678T
417.736	2.483	539341	WORD	n/a	wordpools/wordpool_categorized_EN.txt	SOCKS	Clothing	5	2	[0, 0, 0]	n/a	catFR1	0	R1678T
420.219	2.45	541824	WORD	n/a	wordpools/wordpool_categorized_EN.txt	SHIRT	Clothing	6	2	[0, 0, 0]	n/a	catFR1	0	R1678T
422.669	2.6	544274	WORD	n/a	wordpools/wordpool_categorized_EN.txt	PLANKTON	OceanAnimals	7	2	[0, 0, 0]	n/a	catFR1	0	R1678T
425.269	2.45	546874	WORD	n/a	wordpools/wordpool_categorized_EN.txt	DOLPHIN	OceanAnimals	8	2	[0, 0, 0]	n/a	catFR1	0	R1678T
427.719	2.517	549324	WORD	n/a	wordpools/wordpool_categorized_EN.txt	DRUM	Instruments	9	2	[0, 0, 0]	n/a	catFR1	0	R1678T
430.236	2.416	551841	WORD	n/a	wordpools/wordpool_categorized_EN.txt	VIOLIN	Instruments	10	2	[0, 0, 0]	n/a	catFR1	0	R1678T
432.652	2.416	554257	WORD	n/a	wordpools/wordpool_categorized_EN.txt	SHOES	Clothing	11	2	[0, 0, 0]	n/a	catFR1	0	R1678T
435.068	1.601	556673	WORD	n/a	wordpools/wordpool_categorized_EN.txt	SKIRT	Clothing	12	2	[0, 0, 0]	n/a	catFR1	0	R1678T
436.669	0.001	558274	DISTRACT_START	n/a	n/a	n/a	n/a	-999	2	[0, 0, 0]	n/a	catFR1	0	R1678T
436.67	4.332	558275	PROB	4.332	n/a	n/a	n/a	-999	2	[5, 2, 5]	12	catFR1	0	R1678T
441.002	6.984	562607	PROB	6.984	n/a	n/a	n/a	-999	2	[7, 2, 1]	10	catFR1	0	R1678T
447.986	5.367	569591	PROB	5.367	n/a	n/a	n/a	-999	2	[3, 2, 8]	13	catFR1	0	R1678T
453.353	13.334	574958	PROB	13.334	n/a	n/a	n/a	-999	2	[3, 5, 4]	12	catFR1	0	R1678T
466.687	0.771	588292	REC_START	n/a	n/a	n/a	n/a	-999	2	[0, 0, 0]	n/a	catFR1	0	R1678T
467.458	0.647	589063	REC_WORD	0.647	n/a	TRUMPET	Instruments	1	2	[0, 0, 0]	n/a	catFR1	0	R1678T
468.105	0.988	589710	REC_WORD	0.988	n/a	PIANO	Instruments	2	2	[0, 0, 0]	n/a	catFR1	0	R1678T
469.093	1.096	590698	REC_WORD	1.096	n/a	WHALE	OceanAnimals	3	2	[0, 0, 0]	n/a	catFR1	0	R1678T
470.189	1.6	591794	REC_WORD	1.6	n/a	FISH	OceanAnimals	4	2	[0, 0, 0]	n/a	catFR1	0	R1678T
471.789	2.608	593394	REC_WORD_VV	2.608	n/a	<>	n/a	-999	2	[0, 0, 0]	n/a	catFR1	0	R1678T
474.397	6.036	596002	REC_WORD	6.036	n/a	PLANKTON	OceanAnimals	7	2	[0, 0, 0]	n/a	catFR1	0	R1678T
480.433	16.392	602038	REC_WORD	16.392	n/a	DOLPHIN	OceanAnimals	8	2	[0, 0, 0]	n/a	catFR1	0	R1678T
496.825	4.962	618430	TRIAL	n/a	n/a	n/a	n/a	-999	3	[0, 0, 0]	n/a	catFR1	0	R1678T
501.787	10.361	623392	COUNTDOWN	n/a	n/a	n/a	n/a	-999	3	[0, 0, 0]	n/a	catFR1	0	R1678T
512.148	1.983	633753	ENCODING_START	n/a	n/a	n/a	n/a	-999	3	[0, 0, 0]	n/a	catFR1	0	R1678T
514.131	2.567	635736	WORD	n/a	wordpools/wordpool_categorized_EN.txt	CALF	FarmAnimals	1	3	[0, 0, 0]	n/a	catFR1	0	R1678T
516.698	2.55	638303	WORD	n/a	wordpools/wordpool_categorized_EN.txt	HEN	FarmAnimals	2	3	[0, 0, 0]	n/a	catFR1	0	R1678T
519.248	2.484	640853	WORD	n/a	wordpools/wordpool_categorized_EN.txt	PANDA	Zoo	3	3	[0, 0, 0]	n/a	catFR1	0	R1678T
521.732	2.566	643337	WORD	n/a	wordpools/wordpool_categorized_EN.txt	ORANGUTAN	Zoo	4	3	[0, 0, 0]	n/a	catFR1	0	R1678T
524.298	2.566	645903	WORD	n/a	wordpools/wordpool_categorized_EN.txt	RADIO	Electronics	5	3	[0, 0, 0]	n/a	catFR1	0	R1678T
526.864	2.601	648469	WORD	n/a	wordpools/wordpool_categorized_EN.txt	PHONE	Electronics	6	3	[0, 0, 0]	n/a	catFR1	0	R1678T
529.465	2.449	651070	WORD	n/a	wordpools/wordpool_categorized_EN.txt	SHEEP	FarmAnimals	7	3	[0, 0, 0]	n/a	catFR1	0	R1678T
531.914	2.499	653519	WORD	n/a	wordpools/wordpool_categorized_EN.txt	LAMB	FarmAnimals	8	3	[0, 0, 0]	n/a	catFR1	0	R1678T
534.413	2.417	656018	WORD	n/a	wordpools/wordpool_categorized_EN.txt	LION	Zoo	9	3	[0, 0, 0]	n/a	catFR1	0	R1678T
536.83	2.434	658435	WORD	n/a	wordpools/wordpool_categorized_EN.txt	CHIMPANZEE	Zoo	10	3	[0, 0, 0]	n/a	catFR1	0	R1678T
539.264	2.416	660869	WORD	n/a	wordpools/wordpool_categorized_EN.txt	PRINTER	Electronics	11	3	[0, 0, 0]	n/a	catFR1	0	R1678T
541.68	1.601	663285	WORD	n/a	wordpools/wordpool_categorized_EN.txt	CALCULATOR	Electronics	12	3	[0, 0, 0]	n/a	catFR1	0	R1678T
543.281	0.0	664886	DISTRACT_START	n/a	n/a	n/a	n/a	-999	3	[0, 0, 0]	n/a	catFR1	0	R1678T
543.281	4.517	664886	PROB	4.517	n/a	n/a	n/a	-999	3	[2, 1, 1]	4	catFR1	0	R1678T
547.798	10.55	669403	PROB	10.55	n/a	n/a	n/a	-999	3	[7, 6, 3]	16	catFR1	0	R1678T
558.348	4.833	679953	PROB	4.833	n/a	n/a	n/a	-999	3	[5, 2, 2]	9	catFR1	0	R1678T
563.181	34.962	684786	PROB	34.962	n/a	n/a	n/a	-999	3	[5, 2, 8]	15	catFR1	0	R1678T
598.143	1.265	719748	REC_START	n/a	n/a	n/a	n/a	-999	3	[0, 0, 0]	n/a	catFR1	0	R1678T
599.408	0.748	721013	REC_WORD_VV	0.748	n/a	<>	n/a	-999	3	[0, 0, 0]	n/a	catFR1	0	R1678T
600.156	8.992	721761	REC_WORD	8.992	n/a	CALF	FarmAnimals	1	3	[0, 0, 0]	n/a	catFR1	0	R1678T
609.148	6.341	730753	REC_WORD	6.341	n/a	HORSE	n/a	-999	3	[0, 0, 0]	n/a	catFR1	0	R1678T
615.489	6.573	737094	REC_WORD	6.573	n/a	HORSE	n/a	-999	3	[0, 0, 0]	n/a	catFR1	0	R1678T
622.062	6.095	743667	REC_WORD	6.095	n/a	HEN	FarmAnimals	2	3	[0, 0, 0]	n/a	catFR1	0	R1678T
628.157	0.124	749762	REC_WORD	0.124	n/a	CHICKEN	FarmAnimals	-999	3	[0, 0, 0]	n/a	catFR1	0	R1678T
628.281	9.128	749886	TRIAL	n/a	n/a	n/a	n/a	-999	4	[0, 0, 0]	n/a	catFR1	0	R1678T
637.409	10.351	759014	COUNTDOWN	n/a	n/a	n/a	n/a	-999	4	[0, 0, 0]	n/a	catFR1	0	R1678T
647.76	2.016	769365	ENCODING_START	n/a	n/a	n/a	n/a	-999	4	[0, 0, 0]	n/a	catFR1	0	R1678T
649.776	2.6	771381	WORD	n/a	wordpools/wordpool_categorized_EN.txt	DUCK	Birds	1	4	[0, 0, 0]	n/a	catFR1	0	R1678T
652.376	2.45	773981	WORD	n/a	wordpools/wordpool_categorized_EN.txt	CARDINAL	Birds	2	4	[0, 0, 0]	n/a	catFR1	0	R1678T
654.826	2.448	776431	WORD	n/a	wordpools/wordpool_categorized_EN.txt	CHAIR	Furniture	3	4	[0, 0, 0]	n/a	catFR1	0	R1678T
657.274	2.367	778879	WORD	n/a	wordpools/wordpool_categorized_EN.txt	DESK	Furniture	4	4	[0, 0, 0]	n/a	catFR1	0	R1678T
659.641	2.484	781246	WORD	n/a	wordpools/wordpool_categorized_EN.txt	CABBAGE	Vegetables	5	4	[0, 0, 0]	n/a	catFR1	0	R1678T
662.125	2.484	783730	WORD	n/a	wordpools/wordpool_categorized_EN.txt	CUCUMBER	Vegetables	6	4	[0, 0, 0]	n/a	catFR1	0	R1678T
664.609	2.583	786214	WORD	n/a	wordpools/wordpool_categorized_EN.txt	GOOSE	Birds	7	4	[0, 0, 0]	n/a	catFR1	0	R1678T
667.192	2.399	788797	WORD	n/a	wordpools/wordpool_categorized_EN.txt	DOVE	Birds	8	4	[0, 0, 0]	n/a	catFR1	0	R1678T
669.591	2.433	791196	WORD	n/a	wordpools/wordpool_categorized_EN.txt	CORN	Vegetables	9	4	[0, 0, 0]	n/a	catFR1	0	R1678T
672.024	2.434	793629	WORD	n/a	wordpools/wordpool_categorized_EN.txt	LETTUCE	Vegetables	10	4	[0, 0, 0]	n/a	catFR1	0	R1678T
674.458	2.5	796063	WORD	n/a	wordpools/wordpool_categorized_EN.txt	RECLINER	Furniture	11	4	[0, 0, 0]	n/a	catFR1	0	R1678T
676.958	1.617	798563	WORD	n/a	wordpools/wordpool_categorized_EN.txt	COUCH	Furniture	12	4	[0, 0, 0]	n/a	catFR1	0	R1678T
678.575	0.0	800180	DISTRACT_START	n/a	n/a	n/a	n/a	-999	4	[0, 0, 0]	n/a	catFR1	0	R1678T
678.575	4.15	800180	PROB	4.15	n/a	n/a	n/a	-999	4	[5, 5, 1]	11	catFR1	0	R1678T
682.725	4.634	804330	PROB	4.634	n/a	n/a	n/a	-999	4	[7, 3, 1]	11	catFR1	0	R1678T
687.359	5.598	808964	PROB	5.598	n/a	n/a	n/a	-999	4	[5, 8, 2]	15	catFR1	0	R1678T
692.957	5.4	814562	PROB	5.4	n/a	n/a	n/a	-999	4	[2, 1, 7]	10	catFR1	0	R1678T
698.357	5.466	819962	PROB	5.466	n/a	n/a	n/a	-999	4	[4, 6, 2]	12	catFR1	0	R1678T
703.823	0.91	825428	REC_START	n/a	n/a	n/a	n/a	-999	4	[0, 0, 0]	n/a	catFR1	0	R1678T
704.733	1.037	826338	REC_WORD	1.037	n/a	COUCH	Furniture	12	4	[0, 0, 0]	n/a	catFR1	0	R1678T
705.77	1.576	827375	REC_WORD	1.576	n/a	CARDINAL	Birds	2	4	[0, 0, 0]	n/a	catFR1	0	R1678T
707.346	9.046	828951	REC_WORD_VV	9.046	n/a	<>	n/a	-999	4	[0, 0, 0]	n/a	catFR1	0	R1678T
716.392	5.386	837997	REC_WORD	5.386	n/a	KALE	n/a	-999	4	[0, 0, 0]	n/a	catFR1	0	R1678T
721.778	12.185	843383	REC_WORD	12.185	n/a	HORN	n/a	-999	4	[0, 0, 0]	n/a	catFR1	0	R1678T
733.963	6.075	855568	TRIAL	n/a	n/a	n/a	n/a	-999	5	[0, 0, 0]	n/a	catFR1	0	R1678T
740.038	10.35	861643	COUNTDOWN	n/a	n/a	n/a	n/a	-999	5	[0, 0, 0]	n/a	catFR1	0	R1678T
750.388	2.1	871993	ENCODING_START	n/a	n/a	n/a	n/a	-999	5	[0, 0, 0]	n/a	catFR1	0	R1678T
752.488	2.566	874093	WORD	n/a	wordpools/wordpool_categorized_EN.txt	OAK	Trees	1	5	[0, 0, 0]	n/a	catFR1	0	R1678T
755.054	2.551	876659	WORD	n/a	wordpools/wordpool_categorized_EN.txt	CYPRESS	Trees	2	5	[0, 0, 0]	n/a	catFR1	0	R1678T
757.605	2.383	879210	WORD	n/a	wordpools/wordpool_categorized_EN.txt	GIRAFFE	Zoo	3	5	[0, 0, 0]	n/a	catFR1	0	R1678T
759.988	2.367	881593	WORD	n/a	wordpools/wordpool_categorized_EN.txt	GORILLA	Zoo	4	5	[0, 0, 0]	n/a	catFR1	0	R1678T
762.355	2.583	883960	WORD	n/a	wordpools/wordpool_categorized_EN.txt	OYSTER	OceanAnimals	5	5	[0, 0, 0]	n/a	catFR1	0	R1678T
764.938	2.449	886543	WORD	n/a	wordpools/wordpool_categorized_EN.txt	SHRIMP	OceanAnimals	6	5	[0, 0, 0]	n/a	catFR1	0	R1678T
767.387	2.433	888992	WORD	n/a	wordpools/wordpool_categorized_EN.txt	WILLOW	Trees	7	5	[0, 0, 0]	n/a	catFR1	0	R1678T
769.82	2.601	891425	WORD	n/a	wordpools/wordpool_categorized_EN.txt	EVERGREEN	Trees	8	5	[0, 0, 0]	n/a	catFR1	0	R1678T
772.421	2.515	894026	WORD	n/a	wordpools/wordpool_categorized_EN.txt	MONKEY	Zoo	9	5	[0, 0, 0]	n/a	catFR1	0	R1678T
774.936	2.585	896541	WORD	n/a	wordpools/wordpool_categorized_EN.txt	ELEPHANT	Zoo	10	5	[0, 0, 0]	n/a	catFR1	0	R1678T
777.521	2.431	899126	WORD	n/a	wordpools/wordpool_categorized_EN.txt	CRAB	OceanAnimals	11	5	[0, 0, 0]	n/a	catFR1	0	R1678T
779.952	1.601	901557	WORD	n/a	wordpools/wordpool_categorized_EN.txt	TURTLE	OceanAnimals	12	5	[0, 0, 0]	n/a	catFR1	0	R1678T
781.553	0.001	903158	PROB	0.001	n/a	n/a	n/a	-999	5	[7, 7, 4]	18	catFR1	0	R1678T
781.554	5.349	903159	DISTRACT_START	n/a	n/a	n/a	n/a	-999	5	[0, 0, 0]	n/a	catFR1	0	R1678T
786.903	5.217	908508	PROB	5.217	n/a	n/a	n/a	-999	5	[1, 3, 8]	12	catFR1	0	R1678T
792.12	4.617	913725	PROB	4.617	n/a	n/a	n/a	-999	5	[5, 8, 3]	16	catFR1	0	R1678T
796.737	11.087	918342	PROB	11.087	n/a	n/a	n/a	-999	5	[8, 3, 2]	13	catFR1	0	R1678T
807.824	0.566	929429	REC_START	n/a	n/a	n/a	n/a	-999	5	[0, 0, 0]	n/a	catFR1	0	R1678T
808.39	1.154	929995	REC_WORD	1.154	n/a	OAK	Trees	1	5	[0, 0, 0]	n/a	catFR1	0	R1678T
809.544	2.025	931149	REC_WORD	2.025	n/a	CYPRESS	Trees	2	5	[0, 0, 0]	n/a	catFR1	0	R1678T
811.569	2.85	933174	REC_WORD_VV	2.85	n/a	<>	n/a	-999	5	[0, 0, 0]	n/a	catFR1	0	R1678T
814.419	3.201	936024	REC_WORD_VV	3.201	n/a	<>	n/a	-999	5	[0, 0, 0]	n/a	catFR1	0	R1678T
817.62	12.894	939225	REC_WORD	12.894	n/a	EVERGREEN	Trees	8	5	[0, 0, 0]	n/a	catFR1	0	R1678T
830.514	7.45	952119	REC_WORD	7.45	n/a	GRASS	n/a	-999	5	[0, 0, 0]	n/a	catFR1	0	R1678T
837.964	6.87	959569	TRIAL	n/a	n/a	n/a	n/a	-999	6	[0, 0, 0]	n/a	catFR1	0	R1678T
844.834	10.348	966439	COUNTDOWN	n/a	n/a	n/a	n/a	-999	6	[0, 0, 0]	n/a	catFR1	0	R1678T
855.182	2.051	976787	ENCODING_START	n/a	n/a	n/a	n/a	-999	6	[0, 0, 0]	n/a	catFR1	0	R1678T
857.233	2.433	978838	WORD	n/a	wordpools/wordpool_categorized_EN.txt	COTTON	Fabric	1	6	[0, 0, 0]	n/a	catFR1	0	R1678T
859.666	2.517	981271	WORD	n/a	wordpools/wordpool_categorized_EN.txt	SILK	Fabric	2	6	[0, 0, 0]	n/a	catFR1	0	R1678T
862.183	2.599	983788	WORD	n/a	wordpools/wordpool_categorized_EN.txt	HURRICANE	Weather	3	6	[0, 0, 0]	n/a	catFR1	0	R1678T
864.782	2.484	986387	WORD	n/a	wordpools/wordpool_categorized_EN.txt	HUMIDITY	Weather	4	6	[0, 0, 0]	n/a	catFR1	0	R1678T
867.266	2.599	988871	WORD	n/a	wordpools/wordpool_categorized_EN.txt	COLANDER	KitchenTools	5	6	[0, 0, 0]	n/a	catFR1	0	R1678T
869.865	2.5	991470	WORD	n/a	wordpools/wordpool_categorized_EN.txt	PEELER	KitchenTools	6	6	[0, 0, 0]	n/a	catFR1	0	R1678T
872.365	2.434	993970	WORD	n/a	wordpools/wordpool_categorized_EN.txt	DRIZZLE	Weather	7	6	[0, 0, 0]	n/a	catFR1	0	R1678T
874.799	2.434	996404	WORD	n/a	wordpools/wordpool_categorized_EN.txt	WIND	Weather	8	6	[0, 0, 0]	n/a	catFR1	0	R1678T
877.233	2.449	998838	WORD	n/a	wordpools/wordpool_categorized_EN.txt	KNIFE	KitchenTools	9	6	[0, 0, 0]	n/a	catFR1	0	R1678T
879.682	2.566	1001287	WORD	n/a	wordpools/wordpool_categorized_EN.txt	SPATULA	KitchenTools	10	6	[0, 0, 0]	n/a	catFR1	0	R1678T
882.248	2.534	1003853	WORD	n/a	wordpools/wordpool_categorized_EN.txt	SUEDE	Fabric	11	6	[0, 0, 0]	n/a	catFR1	0	R1678T
884.782	1.618	1006387	WORD	n/a	wordpools/wordpool_categorized_EN.txt	SPANDEX	Fabric	12	6	[0, 0, 0]	n/a	catFR1	0	R1678T
886.4	0.0	1008005	DISTRACT_START	n/a	n/a	n/a	n/a	-999	6	[0, 0, 0]	n/a	catFR1	0	R1678T
886.4	6.916	1008005	PROB	6.916	n/a	n/a	n/a	-999	6	[2, 4, 8]	14	catFR1	0	R1678T
893.316	5.681	1014921	PROB	5.681	n/a	n/a	n/a	-999	6	[6, 7, 4]	17	catFR1	0	R1678T
898.997	10.346	1020602	PROB	10.346	n/a	n/a	n/a	-999	6	[3, 5, 2]	10	catFR1	0	R1678T
909.343	5.27	1030948	REC_START	n/a	n/a	n/a	n/a	-999	6	[0, 0, 0]	n/a	catFR1	0	R1678T
914.613	5.745	1036218	REC_WORD_VV	5.745	n/a	<>	n/a	-999	6	[0, 0, 0]	n/a	catFR1	0	R1678T
920.358	8.428	1041963	REC_WORD_VV	8.428	n/a	<>	n/a	-999	6	[0, 0, 0]	n/a	catFR1	0	R1678T
928.786	1.0	1050391	REC_WORD_VV	1.0	n/a	<>	n/a	-999	6	[0, 0, 0]	n/a	catFR1	0	R1678T
929.786	1.0	1051391	REC_WORD_VV	1.0	n/a	<>	n/a	-999	6	[0, 0, 0]	n/a	catFR1	0	R1678T
930.786	4.035	1052391	REC_WORD_VV	4.035	n/a	<>	n/a	-999	6	[0, 0, 0]	n/a	catFR1	0	R1678T
934.821	1.0	1056426	REC_WORD_VV	1.0	n/a	<>	n/a	-999	6	[0, 0, 0]	n/a	catFR1	0	R1678T
935.821	3.672	1057426	REC_WORD_VV	3.672	n/a	<>	n/a	-999	6	[0, 0, 0]	n/a	catFR1	0	R1678T
939.493	13.368	1061098	TRIAL	n/a	n/a	n/a	n/a	-999	7	[0, 0, 0]	n/a	catFR1	0	R1678T
952.861	10.367	1074466	COUNTDOWN	n/a	n/a	n/a	n/a	-999	7	[0, 0, 0]	n/a	catFR1	0	R1678T
963.228	2.116	1084833	ENCODING_START	n/a	n/a	n/a	n/a	-999	7	[0, 0, 0]	n/a	catFR1	0	R1678T
965.344	2.517	1086949	WORD	n/a	wordpools/wordpool_categorized_EN.txt	BINDER	OfficeSupplies	1	7	[0, 0, 0]	n/a	catFR1	0	R1678T
967.861	2.501	1089466	WORD	n/a	wordpools/wordpool_categorized_EN.txt	RULER	OfficeSupplies	2	7	[0, 0, 0]	n/a	catFR1	0	R1678T
970.362	2.582	1091967	WORD	n/a	wordpools/wordpool_categorized_EN.txt	CROWBAR	Tools	3	7	[0, 0, 0]	n/a	catFR1	0	R1678T
972.944	2.6	1094549	WORD	n/a	wordpools/wordpool_categorized_EN.txt	RATCHET	Tools	4	7	[0, 0, 0]	n/a	catFR1	0	R1678T
975.544	2.617	1097149	WORD	n/a	wordpools/wordpool_categorized_EN.txt	TABLET	Electronics	5	7	[0, 0, 0]	n/a	catFR1	0	R1678T
978.161	2.484	1099766	WORD	n/a	wordpools/wordpool_categorized_EN.txt	COMPUTER	Electronics	6	7	[0, 0, 0]	n/a	catFR1	0	R1678T
980.645	2.416	1102250	WORD	n/a	wordpools/wordpool_categorized_EN.txt	NOTEBOOK	OfficeSupplies	7	7	[0, 0, 0]	n/a	catFR1	0	R1678T
983.061	2.399	1104666	WORD	n/a	wordpools/wordpool_categorized_EN.txt	TAPE	OfficeSupplies	8	7	[0, 0, 0]	n/a	catFR1	0	R1678T
985.46	2.401	1107065	WORD	n/a	wordpools/wordpool_categorized_EN.txt	MICROWAVE	Electronics	9	7	[0, 0, 0]	n/a	catFR1	0	R1678T
987.861	2.481	1109466	WORD	n/a	wordpools/wordpool_categorized_EN.txt	SCANNER	Electronics	10	7	[0, 0, 0]	n/a	catFR1	0	R1678T
990.342	2.386	1111947	WORD	n/a	wordpools/wordpool_categorized_EN.txt	SCREWDRIVER	Tools	11	7	[0, 0, 0]	n/a	catFR1	0	R1678T
992.728	1.616	1114333	WORD	n/a	wordpools/wordpool_categorized_EN.txt	HAMMER	Tools	12	7	[0, 0, 0]	n/a	catFR1	0	R1678T
994.344	0.0	1115949	DISTRACT_START	n/a	n/a	n/a	n/a	-999	7	[0, 0, 0]	n/a	catFR1	0	R1678T
994.344	14.233	1115949	PROB	14.233	n/a	n/a	n/a	-999	7	[1, 8, 7]	16	catFR1	0	R1678T
1008.577	9.534	1130182	PROB	9.534	n/a	n/a	n/a	-999	7	[3, 4, 6]	13	catFR1	0	R1678T
1018.111	0.545	1139716	REC_START	n/a	n/a	n/a	n/a	-999	7	[0, 0, 0]	n/a	catFR1	0	R1678T
1018.656	1.179	1140261	REC_WORD	1.179	n/a	HAMMER	Tools	12	7	[0, 0, 0]	n/a	catFR1	0	R1678T
1019.835	4.491	1141440	REC_WORD	4.491	n/a	NOTEBOOK	OfficeSupplies	7	7	[0, 0, 0]	n/a	catFR1	0	R1678T
1024.326	1.0	1145931	REC_WORD	1.0	n/a	SCREWDRIVER	Tools	11	7	[0, 0, 0]	n/a	catFR1	0	R1678T
1025.326	3.637	1146931	REC_WORD_VV	3.637	n/a	<>	n/a	-999	7	[0, 0, 0]	n/a	catFR1	0	R1678T
1028.963	7.258	1150568	REC_WORD	7.258	n/a	RULER	OfficeSupplies	2	7	[0, 0, 0]	n/a	catFR1	0	R1678T
1036.221	12.032	1157826	REC_WORD_VV	12.032	n/a	<>	n/a	-999	7	[0, 0, 0]	n/a	catFR1	0	R1678T
1048.253	3.438	1169858	TRIAL	n/a	n/a	n/a	n/a	-999	8	[0, 0, 0]	n/a	catFR1	0	R1678T
1051.691	10.366	1173296	COUNTDOWN	n/a	n/a	n/a	n/a	-999	8	[0, 0, 0]	n/a	catFR1	0	R1678T
1062.057	1.949	1183662	ENCODING_START	n/a	n/a	n/a	n/a	-999	8	[0, 0, 0]	n/a	catFR1	0	R1678T
1064.006	2.367	1185611	WORD	n/a	wordpools/wordpool_categorized_EN.txt	DENIM	Fabric	1	8	[0, 0, 0]	n/a	catFR1	0	R1678T
1066.373	2.55	1187978	WORD	n/a	wordpools/wordpool_categorized_EN.txt	LEATHER	Fabric	2	8	[0, 0, 0]	n/a	catFR1	0	R1678T
1068.923	2.5	1190528	WORD	n/a	wordpools/wordpool_categorized_EN.txt	MAPLE	Trees	3	8	[0, 0, 0]	n/a	catFR1	0	R1678T
1071.423	2.6	1193028	WORD	n/a	wordpools/wordpool_categorized_EN.txt	PINE	Trees	4	8	[0, 0, 0]	n/a	catFR1	0	R1678T
1074.023	2.383	1195628	WORD	n/a	wordpools/wordpool_categorized_EN.txt	MOPED	Vehicles	5	8	[0, 0, 0]	n/a	catFR1	0	R1678T
1076.406	2.483	1198011	WORD	n/a	wordpools/wordpool_categorized_EN.txt	CAR	Vehicles	6	8	[0, 0, 0]	n/a	catFR1	0	R1678T
1078.889	2.451	1200494	WORD	n/a	wordpools/wordpool_categorized_EN.txt	ELM	Trees	7	8	[0, 0, 0]	n/a	catFR1	0	R1678T
1081.34	2.467	1202945	WORD	n/a	wordpools/wordpool_categorized_EN.txt	SPRUCE	Trees	8	8	[0, 0, 0]	n/a	catFR1	0	R1678T
1083.807	2.582	1205412	WORD	n/a	wordpools/wordpool_categorized_EN.txt	VELVET	Fabric	9	8	[0, 0, 0]	n/a	catFR1	0	R1678T
1086.389	2.584	1207994	WORD	n/a	wordpools/wordpool_categorized_EN.txt	NYLON	Fabric	10	8	[0, 0, 0]	n/a	catFR1	0	R1678T
1088.973	2.466	1210578	WORD	n/a	wordpools/wordpool_categorized_EN.txt	BIKE	Vehicles	11	8	[0, 0, 0]	n/a	catFR1	0	R1678T
1091.439	1.601	1213044	WORD	n/a	wordpools/wordpool_categorized_EN.txt	TRAIN	Vehicles	12	8	[0, 0, 0]	n/a	catFR1	0	R1678T
1093.04	0.001	1214645	PROB	0.001	n/a	n/a	n/a	-999	8	[7, 5, 3]	15	catFR1	0	R1678T
1093.041	8.548	1214646	DISTRACT_START	n/a	n/a	n/a	n/a	-999	8	[0, 0, 0]	n/a	catFR1	0	R1678T
1101.589	4.467	1223194	PROB	4.467	n/a	n/a	n/a	-999	8	[6, 6, 5]	17	catFR1	0	R1678T
1106.056	25.743	1227661	PROB	25.743	n/a	n/a	n/a	-999	8	[5, 3, 1]	9	catFR1	0	R1678T
1131.799	11.67	1253404	REC_START	n/a	n/a	n/a	n/a	-999	8	[0, 0, 0]	n/a	catFR1	0	R1678T
1143.469	1.485	1265074	REC_WORD_VV	1.485	n/a	<>	n/a	-999	8	[0, 0, 0]	n/a	catFR1	0	R1678T
1144.954	4.221	1266559	REC_WORD	4.221	n/a	HAMMER	Tools	-999	8	[0, 0, 0]	n/a	catFR1	0	R1678T
1149.175	12.777	1270780	REC_WORD_VV	12.777	n/a	<>	n/a	-999	8	[0, 0, 0]	n/a	catFR1	0	R1678T
1161.952	9.433	1283557	TRIAL	n/a	n/a	n/a	n/a	-999	9	[0, 0, 0]	n/a	catFR1	0	R1678T
1171.385	10.35	1292990	COUNTDOWN	n/a	n/a	n/a	n/a	-999	9	[0, 0, 0]	n/a	catFR1	0	R1678T
1181.735	2.117	1303340	ENCODING_START	n/a	n/a	n/a	n/a	-999	9	[0, 0, 0]	n/a	catFR1	0	R1678T
1183.852	2.366	1305457	WORD	n/a	wordpools/wordpool_categorized_EN.txt	REFRIGERATOR	Appliances	1	9	[0, 0, 0]	n/a	catFR1	0	R1678T
1186.218	2.55	1307823	WORD	n/a	wordpools/wordpool_categorized_EN.txt	FREEZER	Appliances	2	9	[0, 0, 0]	n/a	catFR1	0	R1678T
1188.768	2.584	1310373	WORD	n/a	wordpools/wordpool_categorized_EN.txt	WOOL	Fabric	3	9	[0, 0, 0]	n/a	catFR1	0	R1678T
1191.352	2.499	1312957	WORD	n/a	wordpools/wordpool_categorized_EN.txt	LINEN	Fabric	4	9	[0, 0, 0]	n/a	catFR1	0	R1678T
1193.851	2.583	1315456	WORD	n/a	wordpools/wordpool_categorized_EN.txt	LEVEL	Tools	5	9	[0, 0, 0]	n/a	catFR1	0	R1678T
1196.434	2.383	1318039	WORD	n/a	wordpools/wordpool_categorized_EN.txt	PLIERS	Tools	6	9	[0, 0, 0]	n/a	catFR1	0	R1678T
1198.817	2.484	1320422	WORD	n/a	wordpools/wordpool_categorized_EN.txt	IRON	Appliances	7	9	[0, 0, 0]	n/a	catFR1	0	R1678T
1201.301	2.516	1322906	WORD	n/a	wordpools/wordpool_categorized_EN.txt	DISHWASHER	Appliances	8	9	[0, 0, 0]	n/a	catFR1	0	R1678T
1203.817	2.55	1325422	WORD	n/a	wordpools/wordpool_categorized_EN.txt	FLEECE	Fabric	9	9	[0, 0, 0]	n/a	catFR1	0	R1678T
1206.367	2.567	1327972	WORD	n/a	wordpools/wordpool_categorized_EN.txt	SATIN	Fabric	10	9	[0, 0, 0]	n/a	catFR1	0	R1678T
1208.934	2.633	1330539	WORD	n/a	wordpools/wordpool_categorized_EN.txt	SANDER	Tools	11	9	[0, 0, 0]	n/a	catFR1	0	R1678T
1211.567	1.6	1333172	WORD	n/a	wordpools/wordpool_categorized_EN.txt	SHOVEL	Tools	12	9	[0, 0, 0]	n/a	catFR1	0	R1678T
1213.167	0.001	1334772	PROB	0.001	n/a	n/a	n/a	-999	9	[6, 1, 4]	11	catFR1	0	R1678T
1213.168	6.449	1334773	DISTRACT_START	n/a	n/a	n/a	n/a	-999	9	[0, 0, 0]	n/a	catFR1	0	R1678T
1219.617	5.316	1341222	PROB	5.316	n/a	n/a	n/a	-999	9	[8, 5, 4]	17	catFR1	0	R1678T
1224.933	3.934	1346538	PROB	3.934	n/a	n/a	n/a	-999	9	[5, 2, 1]	8	catFR1	0	R1678T
1228.867	7.99	1350472	PROB	7.99	n/a	n/a	n/a	-999	9	[6, 1, 4]	11	catFR1	0	R1678T
1236.857	2.015	1358462	REC_START	n/a	n/a	n/a	n/a	-999	9	[0, 0, 0]	n/a	catFR1	0	R1678T
1238.872	1.0	1360477	REC_WORD	1.0	n/a	SANDER	Tools	11	9	[0, 0, 0]	n/a	catFR1	0	R1678T
1239.872	0.306	1361477	REC_WORD_VV	0.306	n/a	<>	n/a	-999	9	[0, 0, 0]	n/a	catFR1	0	R1678T
1240.178	2.972	1361783	REC_WORD	2.972	n/a	SHOVEL	Tools	12	9	[0, 0, 0]	n/a	catFR1	0	R1678T
1243.15	1.629	1364755	REC_WORD_VV	1.629	n/a	<>	n/a	-999	9	[0, 0, 0]	n/a	catFR1	0	R1678T
1244.779	3.102	1366384	REC_WORD	3.102	n/a	WOOL	Fabric	3	9	[0, 0, 0]	n/a	catFR1	0	R1678T
1247.881	6.973	1369486	REC_WORD	6.973	n/a	SHOVEL	Tools	12	9	[0, 0, 0]	n/a	catFR1	0	R1678T
1254.854	12.162	1376459	REC_WORD_VV	12.162	n/a	<>	n/a	-999	9	[0, 0, 0]	n/a	catFR1	0	R1678T
1267.016	11.547	1388621	TRIAL	n/a	n/a	n/a	n/a	-999	10	[0, 0, 0]	n/a	catFR1	0	R1678T
1278.563	10.367	1400168	COUNTDOWN	n/a	n/a	n/a	n/a	-999	10	[0, 0, 0]	n/a	catFR1	0	R1678T
1288.93	2.033	1410535	ENCODING_START	n/a	n/a	n/a	n/a	-999	10	[0, 0, 0]	n/a	catFR1	0	R1678T
1290.963	2.367	1412568	WORD	n/a	wordpools/wordpool_categorized_EN.txt	SHORTS	Clothing	1	10	[0, 0, 0]	n/a	catFR1	0	R1678T
1293.33	2.433	1414935	WORD	n/a	wordpools/wordpool_categorized_EN.txt	BLOUSE	Clothing	2	10	[0, 0, 0]	n/a	catFR1	0	R1678T
1295.763	2.534	1417368	WORD	n/a	wordpools/wordpool_categorized_EN.txt	PAPER	OfficeSupplies	3	10	[0, 0, 0]	n/a	catFR1	0	R1678T
1298.297	2.549	1419902	WORD	n/a	wordpools/wordpool_categorized_EN.txt	MARKER	OfficeSupplies	4	10	[0, 0, 0]	n/a	catFR1	0	R1678T
1300.846	2.55	1422451	WORD	n/a	wordpools/wordpool_categorized_EN.txt	SPINACH	Vegetables	5	10	[0, 0, 0]	n/a	catFR1	0	R1678T
1303.396	2.483	1425001	WORD	n/a	wordpools/wordpool_categorized_EN.txt	CELERY	Vegetables	6	10	[0, 0, 0]	n/a	catFR1	0	R1678T
1305.879	2.483	1427484	WORD	n/a	wordpools/wordpool_categorized_EN.txt	FOLDER	OfficeSupplies	7	10	[0, 0, 0]	n/a	catFR1	0	R1678T
1308.362	2.567	1429967	WORD	n/a	wordpools/wordpool_categorized_EN.txt	PEN	OfficeSupplies	8	10	[0, 0, 0]	n/a	catFR1	0	R1678T
1310.929	2.499	1432534	WORD	n/a	wordpools/wordpool_categorized_EN.txt	POTATO	Vegetables	9	10	[0, 0, 0]	n/a	catFR1	0	R1678T
1313.428	2.584	1435033	WORD	n/a	wordpools/wordpool_categorized_EN.txt	ONION	Vegetables	10	10	[0, 0, 0]	n/a	catFR1	0	R1678T
1316.012	2.384	1437617	WORD	n/a	wordpools/wordpool_categorized_EN.txt	JACKET	Clothing	11	10	[0, 0, 0]	n/a	catFR1	0	R1678T
1318.396	1.616	1440001	WORD	n/a	wordpools/wordpool_categorized_EN.txt	DRESS	Clothing	12	10	[0, 0, 0]	n/a	catFR1	0	R1678T
1320.012	0.001	1441617	PROB	0.001	n/a	n/a	n/a	-999	10	[3, 4, 6]	13	catFR1	0	R1678T
1320.013	12.448	1441618	DISTRACT_START	n/a	n/a	n/a	n/a	-999	10	[0, 0, 0]	n/a	catFR1	0	R1678T
1332.461	3.801	1454066	PROB	3.801	n/a	n/a	n/a	-999	10	[7, 1, 1]	9	catFR1	0	R1678T
1336.262	11.009	1457867	PROB	11.009	n/a	n/a	n/a	-999	10	[8, 1, 1]	10	catFR1	0	R1678T
1347.271	3.258	1468876	REC_START	n/a	n/a	n/a	n/a	-999	10	[0, 0, 0]	n/a	catFR1	0	R1678T
1350.529	13.363	1472134	REC_WORD_VV	13.363	n/a	<>	n/a	-999	10	[0, 0, 0]	n/a	catFR1	0	R1678T
1363.892	13.532	1485497	REC_WORD_VV	13.532	n/a	<>	n/a	-999	10	[0, 0, 0]	n/a	catFR1	0	R1678T
1377.424	23.716	1499029	TRIAL	n/a	n/a	n/a	n/a	-999	11	[0, 0, 0]	n/a	catFR1	0	R1678T
1401.14	10.352	1522745	COUNTDOWN	n/a	n/a	n/a	n/a	-999	11	[0, 0, 0]	n/a	catFR1	0	R1678T
1411.492	2.165	1533097	ENCODING_START	n/a	n/a	n/a	n/a	-999	11	[0, 0, 0]	n/a	catFR1	0	R1678T
1413.657	2.417	1535262	WORD	n/a	wordpools/wordpool_categorized_EN.txt	PIG	FarmAnimals	1	11	[0, 0, 0]	n/a	catFR1	0	R1678T
1416.074	2.533	1537679	WORD	n/a	wordpools/wordpool_categorized_EN.txt	ROOSTER	FarmAnimals	2	11	[0, 0, 0]	n/a	catFR1	0	R1678T
1418.607	2.416	1540212	WORD	n/a	wordpools/wordpool_categorized_EN.txt	WOODS	Landscapes	3	11	[0, 0, 0]	n/a	catFR1	0	R1678T
1421.023	2.385	1542628	WORD	n/a	wordpools/wordpool_categorized_EN.txt	VALLEY	Landscapes	4	11	[0, 0, 0]	n/a	catFR1	0	R1678T
1423.408	2.533	1545013	WORD	n/a	wordpools/wordpool_categorized_EN.txt	STAPLER	OfficeSupplies	5	11	[0, 0, 0]	n/a	catFR1	0	R1678T
1425.941	2.366	1547546	WORD	n/a	wordpools/wordpool_categorized_EN.txt	PENCIL	OfficeSupplies	6	11	[0, 0, 0]	n/a	catFR1	0	R1678T
1428.307	2.584	1549912	WORD	n/a	wordpools/wordpool_categorized_EN.txt	HORSE	FarmAnimals	7	11	[0, 0, 0]	n/a	catFR1	0	R1678T
1430.891	2.433	1552496	WORD	n/a	wordpools/wordpool_categorized_EN.txt	COW	FarmAnimals	8	11	[0, 0, 0]	n/a	catFR1	0	R1678T
1433.324	2.532	1554929	WORD	n/a	wordpools/wordpool_categorized_EN.txt	ISLAND	Landscapes	9	11	[0, 0, 0]	n/a	catFR1	0	R1678T
1435.856	2.451	1557461	WORD	n/a	wordpools/wordpool_categorized_EN.txt	LAKE	Landscapes	10	11	[0, 0, 0]	n/a	catFR1	0	R1678T
1438.307	2.433	1559912	WORD	n/a	wordpools/wordpool_categorized_EN.txt	GLUE	OfficeSupplies	11	11	[0, 0, 0]	n/a	catFR1	0	R1678T
1440.74	1.617	1562345	WORD	n/a	wordpools/wordpool_categorized_EN.txt	ERASER	OfficeSupplies	12	11	[0, 0, 0]	n/a	catFR1	0	R1678T
1442.357	0.0	1563962	DISTRACT_START	n/a	n/a	n/a	n/a	-999	11	[0, 0, 0]	n/a	catFR1	0	R1678T
1442.357	6.95	1563962	PROB	6.95	n/a	n/a	n/a	-999	11	[3, 4, 5]	12	catFR1	0	R1678T
1449.307	5.532	1570912	PROB	5.532	n/a	n/a	n/a	-999	11	[4, 3, 1]	8	catFR1	0	R1678T
1454.839	4.734	1576444	PROB	4.734	n/a	n/a	n/a	-999	11	[3, 1, 5]	9	catFR1	0	R1678T
1459.573	19.229	1581178	PROB	19.229	n/a	n/a	n/a	-999	11	[4, 7, 2]	13	catFR1	0	R1678T
1478.802	1.052	1600407	REC_START	n/a	n/a	n/a	n/a	-999	11	[0, 0, 0]	n/a	catFR1	0	R1678T
1479.854	1.607	1601459	REC_WORD	1.607	n/a	PIG	FarmAnimals	1	11	[0, 0, 0]	n/a	catFR1	0	R1678T
1481.461	4.372	1603066	REC_WORD	4.372	n/a	ROOSTER	FarmAnimals	2	11	[0, 0, 0]	n/a	catFR1	0	R1678T
1485.833	4.071	1607438	REC_WORD	4.071	n/a	SHOVEL	Tools	-999	11	[0, 0, 0]	n/a	catFR1	0	R1678T
1489.904	8.353	1611509	REC_WORD	8.353	n/a	COW	FarmAnimals	8	11	[0, 0, 0]	n/a	catFR1	0	R1678T
1498.257	7.664	1619862	REC_WORD	7.664	n/a	FARM	n/a	-999	11	[0, 0, 0]	n/a	catFR1	0	R1678T
1505.921	3.039	1627526	REC_WORD	3.039	n/a	LAKE	Landscapes	10	11	[0, 0, 0]	n/a	catFR1	0	R1678T
1508.96	5.377	1630565	TRIAL	n/a	n/a	n/a	n/a	-999	12	[0, 0, 0]	n/a	catFR1	0	R1678T
1514.337	10.35	1635942	COUNTDOWN	n/a	n/a	n/a	n/a	-999	12	[0, 0, 0]	n/a	catFR1	0	R1678T
1524.687	2.182	1646292	ENCODING_START	n/a	n/a	n/a	n/a	-999	12	[0, 0, 0]	n/a	catFR1	0	R1678T
1526.869	2.6	1648474	WORD	n/a	wordpools/wordpool_categorized_EN.txt	PANTS	Clothing	1	12	[0, 0, 0]	n/a	catFR1	0	R1678T
1529.469	2.483	1651074	WORD	n/a	wordpools/wordpool_categorized_EN.txt	COAT	Clothing	2	12	[0, 0, 0]	n/a	catFR1	0	R1678T
1531.952	2.551	1653557	WORD	n/a	wordpools/wordpool_categorized_EN.txt	HILLS	Landscapes	3	12	[0, 0, 0]	n/a	catFR1	0	R1678T
1534.503	2.581	1656108	WORD	n/a	wordpools/wordpool_categorized_EN.txt	RIVER	Landscapes	4	12	[0, 0, 0]	n/a	catFR1	0	R1678T
1537.084	2.468	1658689	WORD	n/a	wordpools/wordpool_categorized_EN.txt	SPEAKER	Electronics	5	12	[0, 0, 0]	n/a	catFR1	0	R1678T
1539.552	2.517	1661157	WORD	n/a	wordpools/wordpool_categorized_EN.txt	HEADPHONES	Electronics	6	12	[0, 0, 0]	n/a	catFR1	0	R1678T
1542.069	2.384	1663674	WORD	n/a	wordpools/wordpool_categorized_EN.txt	UNDERWEAR	Clothing	7	12	[0, 0, 0]	n/a	catFR1	0	R1678T
1544.453	2.399	1666058	WORD	n/a	wordpools/wordpool_categorized_EN.txt	JEANS	Clothing	8	12	[0, 0, 0]	n/a	catFR1	0	R1678T
1546.852	2.599	1668457	WORD	n/a	wordpools/wordpool_categorized_EN.txt	MOUNTAIN	Landscapes	9	12	[0, 0, 0]	n/a	catFR1	0	R1678T
1549.451	2.601	1671056	WORD	n/a	wordpools/wordpool_categorized_EN.txt	BEACH	Landscapes	10	12	[0, 0, 0]	n/a	catFR1	0	R1678T
1552.052	2.533	1673657	WORD	n/a	wordpools/wordpool_categorized_EN.txt	TELEVISION	Electronics	11	12	[0, 0, 0]	n/a	catFR1	0	R1678T
1554.585	1.601	1676190	WORD	n/a	wordpools/wordpool_categorized_EN.txt	STEREO	Electronics	12	12	[0, 0, 0]	n/a	catFR1	0	R1678T
1556.186	0.0	1677791	DISTRACT_START	n/a	n/a	n/a	n/a	-999	12	[0, 0, 0]	n/a	catFR1	0	R1678T
1556.186	8.966	1677791	PROB	8.966	n/a	n/a	n/a	-999	12	[1, 5, 8]	14	catFR1	0	R1678T
1565.152	5.2	1686757	PROB	5.2	n/a	n/a	n/a	-999	12	[3, 2, 3]	11	catFR1	0	R1678T
1570.352	10.732	1691957	PROB	10.732	n/a	n/a	n/a	-999	12	[7, 4, 4]	15	catFR1	0	R1678T
1581.084	1.742	1702689	REC_START	n/a	n/a	n/a	n/a	-999	12	[0, 0, 0]	n/a	catFR1	0	R1678T
1582.826	2.489	1704431	REC_WORD	2.489	n/a	BEACH	Landscapes	10	12	[0, 0, 0]	n/a	catFR1	0	R1678T
1585.315	2.685	1706920	REC_WORD_VV	2.685	n/a	<>	n/a	-999	12	[0, 0, 0]	n/a	catFR1	0	R1678T
1588.0	6.627	1709605	REC_WORD	6.627	n/a	RIVER	Landscapes	4	12	[0, 0, 0]	n/a	catFR1	0	R1678T
1594.627	16.61	1716232	REC_WORD_VV	16.61	n/a	<>	n/a	-999	12	[0, 0, 0]	n/a	catFR1	0	R1678T
1611.237	0.0	1732842	SESS_END	n/a	n/a	n/a	n/a	-999	12	[0, 0, 0]	n/a	catFR1	0	R1678T
