onset	duration	sample	trial_type	response_time	stim_file	item_name	category	serialpos	list	test	answer	experiment	session	subject
0.0	165.227	64806	INSTRUCT_START	n/a	n/a	n/a	n/a	-999	-999	[0, 0, 0]	n/a	catFR1	0	R1683A
165.227	75.19	230034	INSTRUCT_END	n/a	n/a	n/a	n/a	-999	-999	[0, 0, 0]	n/a	catFR1	0	R1683A
240.417	10.354	305230	COUNTDOWN_START	n/a	n/a	n/a	n/a	-999	-999	[0, 0, 0]	n/a	catFR1	0	R1683A
250.771	0.001	315575	COUNTDOWN_END	n/a	n/a	n/a	n/a	-999	-999	[0, 0, 0]	n/a	catFR1	0	R1683A
250.772	1.978	315586	ENCODING_START	n/a	n/a	n/a	n/a	-999	-1	[0, 0, 0]	n/a	catFR1	0	R1683A
252.75	1.6	317559	WORD	n/a	n/a	MOTH	Insects	1	-1	[0, 0, 0]	n/a	catFR1	0	R1683A
254.35	0.879	319162	WORD_OFF	n/a	n/a	MOTH	Insects	1	-1	[0, 0, 0]	n/a	catFR1	0	R1683A
255.229	1.601	320034	WORD	n/a	n/a	ANT	Insects	2	-1	[0, 0, 0]	n/a	catFR1	0	R1683A
256.83	0.823	321636	WORD_OFF	n/a	n/a	ANT	Insects	2	-1	[0, 0, 0]	n/a	catFR1	0	R1683A
257.653	1.601	322465	WORD	n/a	n/a	FORK	KitchenTools	3	-1	[0, 0, 0]	n/a	catFR1	0	R1683A
259.254	0.875	324067	WORD_OFF	n/a	n/a	FORK	KitchenTools	3	-1	[0, 0, 0]	n/a	catFR1	0	R1683A
260.129	1.601	324939	WORD	n/a	n/a	SPOON	KitchenTools	4	-1	[0, 0, 0]	n/a	catFR1	0	R1683A
261.73	0.774	326542	WORD_OFF	n/a	n/a	SPOON	KitchenTools	4	-1	[0, 0, 0]	n/a	catFR1	0	R1683A
262.504	1.602	327316	WORD	n/a	n/a	FOUNDATION	Building	5	-1	[0, 0, 0]	n/a	catFR1	0	R1683A
264.106	0.774	328918	WORD_OFF	n/a	n/a	FOUNDATION	Building	5	-1	[0, 0, 0]	n/a	catFR1	0	R1683A
264.88	1.608	329692	WORD	n/a	n/a	WINDOW	Building	6	-1	[0, 0, 0]	n/a	catFR1	0	R1683A
266.488	0.882	331295	WORD_OFF	n/a	n/a	WINDOW	Building	6	-1	[0, 0, 0]	n/a	catFR1	0	R1683A
267.37	1.608	332178	WORD	n/a	n/a	GRATER	KitchenTools	7	-1	[0, 0, 0]	n/a	catFR1	0	R1683A
268.978	0.767	333791	WORD_OFF	n/a	n/a	GRATER	KitchenTools	7	-1	[0, 0, 0]	n/a	catFR1	0	R1683A
269.745	1.602	334554	WORD	n/a	n/a	STRAINER	KitchenTools	8	-1	[0, 0, 0]	n/a	catFR1	0	R1683A
271.347	0.973	336156	WORD_OFF	n/a	n/a	STRAINER	KitchenTools	8	-1	[0, 0, 0]	n/a	catFR1	0	R1683A
272.32	1.61	337127	WORD	n/a	n/a	DOOR	Building	9	-1	[0, 0, 0]	n/a	catFR1	0	R1683A
273.93	0.908	338740	WORD_OFF	n/a	n/a	DOOR	Building	9	-1	[0, 0, 0]	n/a	catFR1	0	R1683A
274.838	1.607	339645	WORD	n/a	n/a	ROOM	Building	10	-1	[0, 0, 0]	n/a	catFR1	0	R1683A
276.445	0.818	341258	WORD_OFF	n/a	n/a	ROOM	Building	10	-1	[0, 0, 0]	n/a	catFR1	0	R1683A
277.263	1.608	342076	WORD	n/a	n/a	BUTTERFLY	Insects	11	-1	[0, 0, 0]	n/a	catFR1	0	R1683A
278.871	0.768	343678	WORD_OFF	n/a	n/a	BUTTERFLY	Insects	11	-1	[0, 0, 0]	n/a	catFR1	0	R1683A
279.639	1.607	344452	WORD	n/a	n/a	BEETLE	Insects	12	-1	[0, 0, 0]	n/a	catFR1	0	R1683A
281.246	0.003	346055	WORD_OFF	n/a	n/a	BEETLE	Insects	12	-1	[0, 0, 0]	n/a	catFR1	0	R1683A
281.249	0.0	346055	ENCODING_END	n/a	n/a	n/a	n/a	-999	-1	[0, 0, 0]	n/a	catFR1	0	R1683A
281.249	0.0	346055	DISTRACT_START	n/a	n/a	n/a	n/a	-999	-1	[0, 0, 0]	n/a	catFR1	0	R1683A
281.249	0.002	346062	START	n/a	n/a	n/a	n/a	-999	-1	[-999, -999, -999]	n/a	catFR1	0	R1683A
281.251	8.771	346064	PROB	8.771	n/a	n/a	n/a	-999	-1	[4, 8, 7]	19	catFR1	0	R1683A
290.022	12.707	354835	PROB	12.707	n/a	n/a	n/a	-999	-1	[6, 2, 5]	13	catFR1	0	R1683A
302.729	0.0	367541	DISTRACT_END	n/a	n/a	n/a	n/a	-999	-1	[0, 0, 0]	n/a	catFR1	0	R1683A
302.729	2.277	367542	STOP	n/a	n/a	n/a	n/a	-999	-1	[-999, -999, -999]	n/a	catFR1	0	R1683A
305.006	4.294	369819	REC_START	n/a	n/a	n/a	n/a	-999	-1	[0, 0, 0]	n/a	catFR1	0	R1683A
309.3	2.177	374113	REC_WORD_VV	2.177	n/a	<>	n/a	-999	-1	[0, 0, 0]	n/a	catFR1	0	R1683A
311.477	0.753	376290	REC_WORD_VV	0.753	n/a	<>	n/a	-999	-1	[0, 0, 0]	n/a	catFR1	0	R1683A
312.23	1.252	377043	REC_WORD	1.252	n/a	MOTH	Insects	1	-1	[0, 0, 0]	n/a	catFR1	0	R1683A
313.482	2.879	378295	REC_WORD	2.879	n/a	ANT	Insects	2	-1	[0, 0, 0]	n/a	catFR1	0	R1683A
316.361	1.375	381174	REC_WORD	1.375	n/a	BEETLE	Insects	12	-1	[0, 0, 0]	n/a	catFR1	0	R1683A
317.736	1.293	382549	REC_WORD	1.293	n/a	BUTTERFLY	Insects	11	-1	[0, 0, 0]	n/a	catFR1	0	R1683A
319.029	2.376	383842	REC_WORD	2.376	n/a	STRAINER	KitchenTools	8	-1	[0, 0, 0]	n/a	catFR1	0	R1683A
321.405	1.193	386218	REC_WORD	1.193	n/a	FORK	KitchenTools	3	-1	[0, 0, 0]	n/a	catFR1	0	R1683A
322.598	1.362	387411	REC_WORD	1.362	n/a	SPOON	KitchenTools	4	-1	[0, 0, 0]	n/a	catFR1	0	R1683A
323.96	2.558	388773	REC_WORD	2.558	n/a	FOUNDATION	Building	5	-1	[0, 0, 0]	n/a	catFR1	0	R1683A
326.518	5.075	391331	REC_WORD	5.075	n/a	WINDOW	Building	6	-1	[0, 0, 0]	n/a	catFR1	0	R1683A
331.593	1.0	396406	REC_WORD_VV	1.0	n/a	<>	n/a	-999	-1	[0, 0, 0]	n/a	catFR1	0	R1683A
332.593	2.247	397406	REC_WORD_VV	2.247	n/a	<>	n/a	-999	-1	[0, 0, 0]	n/a	catFR1	0	R1683A
334.84	0.311	399653	REC_WORD_VV	0.311	n/a	<>	n/a	-999	-1	[0, 0, 0]	n/a	catFR1	0	R1683A
335.151	20.05	399961	REC_END	n/a	n/a	n/a	n/a	-999	-1	[0, 0, 0]	n/a	catFR1	0	R1683A
355.201	10.344	420008	COUNTDOWN_START	n/a	n/a	n/a	n/a	-999	1	[0, 0, 0]	n/a	catFR1	0	R1683A
365.545	0.001	430353	COUNTDOWN_END	n/a	n/a	n/a	n/a	-999	1	[0, 0, 0]	n/a	catFR1	0	R1683A
365.546	2.001	430353	ENCODING_START	n/a	n/a	n/a	n/a	-999	1	[0, 0, 0]	n/a	catFR1	0	R1683A
367.547	1.6	432359	WORD	n/a	wordpools/wordpool_categorized_EN.txt	LAMB	FarmAnimals	1	1	[0, 0, 0]	n/a	catFR1	0	R1683A
369.147	0.95	433950	WORD_OFF	n/a	n/a	LAMB	FarmAnimals	1	1	[0, 0, 0]	n/a	catFR1	0	R1683A
370.097	1.608	434909	WORD	n/a	wordpools/wordpool_categorized_EN.txt	HEN	FarmAnimals	2	1	[0, 0, 0]	n/a	catFR1	0	R1683A
371.705	0.9	436512	WORD_OFF	n/a	n/a	HEN	FarmAnimals	2	1	[0, 0, 0]	n/a	catFR1	0	R1683A
372.605	1.6	437417	WORD	n/a	wordpools/wordpool_categorized_EN.txt	PENCIL	OfficeSupplies	3	1	[0, 0, 0]	n/a	catFR1	0	R1683A
374.205	0.984	439008	WORD_OFF	n/a	n/a	PENCIL	OfficeSupplies	3	1	[0, 0, 0]	n/a	catFR1	0	R1683A
375.189	1.607	440000	WORD	n/a	wordpools/wordpool_categorized_EN.txt	GLUE	OfficeSupplies	4	1	[0, 0, 0]	n/a	catFR1	0	R1683A
376.796	0.966	441603	WORD_OFF	n/a	n/a	GLUE	OfficeSupplies	4	1	[0, 0, 0]	n/a	catFR1	0	R1683A
377.762	1.601	442573	WORD	n/a	wordpools/wordpool_categorized_EN.txt	RATCHET	Tools	5	1	[0, 0, 0]	n/a	catFR1	0	R1683A
379.363	0.991	444175	WORD_OFF	n/a	n/a	RATCHET	Tools	5	1	[0, 0, 0]	n/a	catFR1	0	R1683A
380.354	1.601	445156	WORD	n/a	wordpools/wordpool_categorized_EN.txt	LEVEL	Tools	6	1	[0, 0, 0]	n/a	catFR1	0	R1683A
381.955	0.857	446759	WORD_OFF	n/a	n/a	LEVEL	Tools	6	1	[0, 0, 0]	n/a	catFR1	0	R1683A
382.812	1.601	447620	WORD	n/a	wordpools/wordpool_categorized_EN.txt	CALF	FarmAnimals	7	1	[0, 0, 0]	n/a	catFR1	0	R1683A
384.413	0.759	449223	WORD_OFF	n/a	n/a	CALF	FarmAnimals	7	1	[0, 0, 0]	n/a	catFR1	0	R1683A
385.172	1.608	449986	WORD	n/a	wordpools/wordpool_categorized_EN.txt	COW	FarmAnimals	8	1	[0, 0, 0]	n/a	catFR1	0	R1683A
386.78	0.883	451588	WORD_OFF	n/a	n/a	COW	FarmAnimals	8	1	[0, 0, 0]	n/a	catFR1	0	R1683A
387.663	1.601	452471	WORD	n/a	wordpools/wordpool_categorized_EN.txt	BINDER	OfficeSupplies	9	1	[0, 0, 0]	n/a	catFR1	0	R1683A
389.264	0.875	454074	WORD_OFF	n/a	n/a	BINDER	OfficeSupplies	9	1	[0, 0, 0]	n/a	catFR1	0	R1683A
390.139	1.6	454946	WORD	n/a	wordpools/wordpool_categorized_EN.txt	RULER	OfficeSupplies	10	1	[0, 0, 0]	n/a	catFR1	0	R1683A
391.739	0.875	456548	WORD_OFF	n/a	n/a	RULER	OfficeSupplies	10	1	[0, 0, 0]	n/a	catFR1	0	R1683A
392.614	1.606	457420	WORD	n/a	wordpools/wordpool_categorized_EN.txt	AXE	Tools	11	1	[0, 0, 0]	n/a	catFR1	0	R1683A
394.22	0.834	459034	WORD_OFF	n/a	n/a	AXE	Tools	11	1	[0, 0, 0]	n/a	catFR1	0	R1683A
395.054	1.6	459862	WORD	n/a	wordpools/wordpool_categorized_EN.txt	HAMMER	Tools	12	1	[0, 0, 0]	n/a	catFR1	0	R1683A
396.654	0.003	461465	WORD_OFF	n/a	n/a	HAMMER	Tools	12	1	[0, 0, 0]	n/a	catFR1	0	R1683A
396.657	0.0	461465	ENCODING_END	n/a	n/a	n/a	n/a	-999	1	[0, 0, 0]	n/a	catFR1	0	R1683A
396.657	0.0	461465	DISTRACT_START	n/a	n/a	n/a	n/a	-999	1	[0, 0, 0]	n/a	catFR1	0	R1683A
396.655	0.002	461467	PROB	0.002	n/a	n/a	n/a	-999	1	[6, 3, 8]	18	catFR1	0	R1683A
396.657	8.022	461469	START	n/a	n/a	n/a	n/a	-999	1	[-999, -999, -999]	n/a	catFR1	0	R1683A
404.679	9.326	469491	PROB	9.326	n/a	n/a	n/a	-999	1	[8, 5, 8]	21	catFR1	0	R1683A
414.005	18.542	478817	PROB	18.542	n/a	n/a	n/a	-999	1	[5, 3, 4]	12	catFR1	0	R1683A
432.547	0.0	497351	DISTRACT_END	n/a	n/a	n/a	n/a	-999	1	[0, 0, 0]	n/a	catFR1	0	R1683A
432.547	2.216	497359	STOP	n/a	n/a	n/a	n/a	-999	1	[-999, -999, -999]	n/a	catFR1	0	R1683A
434.763	3.609	499575	REC_START	n/a	n/a	n/a	n/a	-999	1	[0, 0, 0]	n/a	catFR1	0	R1683A
438.372	4.288	503184	REC_WORD	4.288	n/a	HAM	n/a	-999	1	[0, 0, 0]	n/a	catFR1	0	R1683A
442.66	1.099	507472	REC_WORD	1.099	n/a	HEN	FarmAnimals	2	1	[0, 0, 0]	n/a	catFR1	0	R1683A
443.759	0.551	508571	REC_WORD_VV	0.551	n/a	<>	n/a	-999	1	[0, 0, 0]	n/a	catFR1	0	R1683A
444.31	0.386	509122	REC_WORD	0.386	n/a	HAM	n/a	-999	1	[0, 0, 0]	n/a	catFR1	0	R1683A
444.696	0.484	509508	REC_WORD	0.484	n/a	HEN	FarmAnimals	2	1	[0, 0, 0]	n/a	catFR1	0	R1683A
445.18	1.693	509992	REC_WORD_VV	1.693	n/a	<>	n/a	-999	1	[0, 0, 0]	n/a	catFR1	0	R1683A
446.873	1.198	511685	REC_WORD_VV	1.198	n/a	<>	n/a	-999	1	[0, 0, 0]	n/a	catFR1	0	R1683A
448.071	1.746	512883	REC_WORD	1.746	n/a	LAMB	FarmAnimals	1	1	[0, 0, 0]	n/a	catFR1	0	R1683A
449.817	1.842	514629	REC_WORD	1.842	n/a	PENCIL	OfficeSupplies	3	1	[0, 0, 0]	n/a	catFR1	0	R1683A
451.659	3.466	516471	REC_WORD	3.466	n/a	RATCHET	Tools	5	1	[0, 0, 0]	n/a	catFR1	0	R1683A
455.125	6.407	519937	REC_WORD	6.407	n/a	DOOR	Building	-999	1	[0, 0, 0]	n/a	catFR1	0	R1683A
461.532	1.0	526344	REC_WORD_VV	1.0	n/a	<>	n/a	-999	1	[0, 0, 0]	n/a	catFR1	0	R1683A
462.532	2.371	527344	REC_WORD_VV	2.371	n/a	<>	n/a	-999	1	[0, 0, 0]	n/a	catFR1	0	R1683A
464.903	7.628	529705	REC_END	n/a	n/a	n/a	n/a	-999	1	[0, 0, 0]	n/a	catFR1	0	R1683A
472.531	10.34	537336	COUNTDOWN_START	n/a	n/a	n/a	n/a	-999	1	[0, 0, 0]	n/a	catFR1	0	R1683A
482.871	0.0	547681	COUNTDOWN_END	n/a	n/a	n/a	n/a	-999	1	[0, 0, 0]	n/a	catFR1	0	R1683A
482.871	2.234	547681	ENCODING_START	n/a	n/a	n/a	n/a	-999	2	[0, 0, 0]	n/a	catFR1	0	R1683A
485.105	1.608	549916	WORD	n/a	wordpools/wordpool_categorized_EN.txt	PIE	Desserts	1	2	[0, 0, 0]	n/a	catFR1	0	R1683A
486.713	0.834	551518	WORD_OFF	n/a	n/a	PIE	Desserts	1	2	[0, 0, 0]	n/a	catFR1	0	R1683A
487.547	1.608	552358	WORD	n/a	wordpools/wordpool_categorized_EN.txt	MOUSSE	Desserts	2	2	[0, 0, 0]	n/a	catFR1	0	R1683A
489.155	0.775	553960	WORD_OFF	n/a	n/a	MOUSSE	Desserts	2	2	[0, 0, 0]	n/a	catFR1	0	R1683A
489.93	1.606	554734	WORD	n/a	wordpools/wordpool_categorized_EN.txt	OAK	Trees	3	2	[0, 0, 0]	n/a	catFR1	0	R1683A
491.536	0.976	556348	WORD_OFF	n/a	n/a	OAK	Trees	3	2	[0, 0, 0]	n/a	catFR1	0	R1683A
492.512	1.608	557318	WORD	n/a	wordpools/wordpool_categorized_EN.txt	ELM	Trees	4	2	[0, 0, 0]	n/a	catFR1	0	R1683A
494.12	0.95	558931	WORD_OFF	n/a	n/a	ELM	Trees	4	2	[0, 0, 0]	n/a	catFR1	0	R1683A
495.07	1.601	559880	WORD	n/a	wordpools/wordpool_categorized_EN.txt	REFRIGERATOR	Appliances	5	2	[0, 0, 0]	n/a	catFR1	0	R1683A
496.671	0.841	561482	WORD_OFF	n/a	n/a	REFRIGERATOR	Appliances	5	2	[0, 0, 0]	n/a	catFR1	0	R1683A
497.512	1.601	562321	WORD	n/a	wordpools/wordpool_categorized_EN.txt	WASHER	Appliances	6	2	[0, 0, 0]	n/a	catFR1	0	R1683A
499.113	0.999	563924	WORD_OFF	n/a	n/a	WASHER	Appliances	6	2	[0, 0, 0]	n/a	catFR1	0	R1683A
500.112	1.61	564916	WORD	n/a	wordpools/wordpool_categorized_EN.txt	PASTRY	Desserts	7	2	[0, 0, 0]	n/a	catFR1	0	R1683A
501.722	0.875	566529	WORD_OFF	n/a	n/a	PASTRY	Desserts	7	2	[0, 0, 0]	n/a	catFR1	0	R1683A
502.597	1.608	567401	WORD	n/a	wordpools/wordpool_categorized_EN.txt	CHEESECAKE	Desserts	8	2	[0, 0, 0]	n/a	catFR1	0	R1683A
504.205	0.982	569015	WORD_OFF	n/a	n/a	CHEESECAKE	Desserts	8	2	[0, 0, 0]	n/a	catFR1	0	R1683A
505.187	1.602	569996	WORD	n/a	wordpools/wordpool_categorized_EN.txt	STOVE	Appliances	9	2	[0, 0, 0]	n/a	catFR1	0	R1683A
506.789	0.858	571598	WORD_OFF	n/a	n/a	STOVE	Appliances	9	2	[0, 0, 0]	n/a	catFR1	0	R1683A
507.647	1.607	572459	WORD	n/a	wordpools/wordpool_categorized_EN.txt	VACUUM	Appliances	10	2	[0, 0, 0]	n/a	catFR1	0	R1683A
509.254	0.966	574062	WORD_OFF	n/a	n/a	VACUUM	Appliances	10	2	[0, 0, 0]	n/a	catFR1	0	R1683A
510.22	1.6	575032	WORD	n/a	wordpools/wordpool_categorized_EN.txt	CYPRESS	Trees	11	2	[0, 0, 0]	n/a	catFR1	0	R1683A
511.82	0.829	576624	WORD_OFF	n/a	n/a	CYPRESS	Trees	11	2	[0, 0, 0]	n/a	catFR1	0	R1683A
512.649	1.596	577452	WORD	n/a	wordpools/wordpool_categorized_EN.txt	MAPLE	Trees	12	2	[0, 0, 0]	n/a	catFR1	0	R1683A
514.245	0.003	579055	WORD_OFF	n/a	n/a	MAPLE	Trees	12	2	[0, 0, 0]	n/a	catFR1	0	R1683A
514.248	0.0	579055	ENCODING_END	n/a	n/a	n/a	n/a	-999	2	[0, 0, 0]	n/a	catFR1	0	R1683A
514.248	0.0	579055	DISTRACT_START	n/a	n/a	n/a	n/a	-999	2	[0, 0, 0]	n/a	catFR1	0	R1683A
514.246	0.002	579058	PROB	0.002	n/a	n/a	n/a	-999	2	[3, 3, 4]	10	catFR1	0	R1683A
514.248	4.548	579060	START	n/a	n/a	n/a	n/a	-999	2	[-999, -999, -999]	n/a	catFR1	0	R1683A
518.796	4.259	583608	PROB	4.259	n/a	n/a	n/a	-999	2	[4, 8, 8]	20	catFR1	0	R1683A
523.055	4.983	587867	PROB	4.983	n/a	n/a	n/a	-999	2	[7, 1, 4]	12	catFR1	0	R1683A
528.038	4.633	592850	PROB	4.633	n/a	n/a	n/a	-999	2	[2, 7, 1]	10	catFR1	0	R1683A
532.671	5.808	597483	PROB	5.808	n/a	n/a	n/a	-999	2	[4, 6, 8]	18	catFR1	0	R1683A
538.479	0.0	603288	DISTRACT_END	n/a	n/a	n/a	n/a	-999	2	[0, 0, 0]	n/a	catFR1	0	R1683A
538.479	2.326	603291	STOP	n/a	n/a	n/a	n/a	-999	2	[-999, -999, -999]	n/a	catFR1	0	R1683A
540.805	1.268	605610	REC_START	n/a	n/a	n/a	n/a	-999	2	[0, 0, 0]	n/a	catFR1	0	R1683A
542.073	1.0	606885	REC_WORD	1.0	n/a	CYPRESS	Trees	11	2	[0, 0, 0]	n/a	catFR1	0	R1683A
543.073	0.695	607885	REC_WORD_VV	0.695	n/a	<>	n/a	-999	2	[0, 0, 0]	n/a	catFR1	0	R1683A
543.768	1.503	608580	REC_WORD	1.503	n/a	PIE	Desserts	1	2	[0, 0, 0]	n/a	catFR1	0	R1683A
545.271	2.081	610083	REC_WORD	2.081	n/a	MOUSSE	Desserts	2	2	[0, 0, 0]	n/a	catFR1	0	R1683A
547.352	1.4	612164	REC_WORD	1.4	n/a	CHEESECAKE	Desserts	8	2	[0, 0, 0]	n/a	catFR1	0	R1683A
548.752	6.598	613564	REC_WORD	6.598	n/a	PASTRY	Desserts	7	2	[0, 0, 0]	n/a	catFR1	0	R1683A
555.35	5.602	620162	REC_WORD_VV	5.602	n/a	<>	n/a	-999	2	[0, 0, 0]	n/a	catFR1	0	R1683A
560.952	7.383	625764	REC_WORD	7.383	n/a	WASHER	Appliances	6	2	[0, 0, 0]	n/a	catFR1	0	R1683A
568.335	2.223	633147	REC_WORD_VV	2.223	n/a	<>	n/a	-999	2	[0, 0, 0]	n/a	catFR1	0	R1683A
570.558	0.393	635370	REC_WORD_VV	0.393	n/a	<>	n/a	-999	2	[0, 0, 0]	n/a	catFR1	0	R1683A
570.951	5.554	635762	REC_END	n/a	n/a	n/a	n/a	-999	2	[0, 0, 0]	n/a	catFR1	0	R1683A
576.505	10.34	641311	COUNTDOWN_START	n/a	n/a	n/a	n/a	-999	2	[0, 0, 0]	n/a	catFR1	0	R1683A
586.845	0.0	651656	COUNTDOWN_END	n/a	n/a	n/a	n/a	-999	2	[0, 0, 0]	n/a	catFR1	0	R1683A
586.845	2.183	651656	ENCODING_START	n/a	n/a	n/a	n/a	-999	3	[0, 0, 0]	n/a	catFR1	0	R1683A
589.028	1.602	653836	WORD	n/a	wordpools/wordpool_categorized_EN.txt	BED	Furniture	1	3	[0, 0, 0]	n/a	catFR1	0	R1683A
590.63	0.791	655439	WORD_OFF	n/a	n/a	BED	Furniture	1	3	[0, 0, 0]	n/a	catFR1	0	R1683A
591.421	1.601	656234	WORD	n/a	wordpools/wordpool_categorized_EN.txt	CABINET	Furniture	2	3	[0, 0, 0]	n/a	catFR1	0	R1683A
593.022	0.906	657826	WORD_OFF	n/a	n/a	CABINET	Furniture	2	3	[0, 0, 0]	n/a	catFR1	0	R1683A
593.928	1.6	658731	WORD	n/a	wordpools/wordpool_categorized_EN.txt	DOLL	Toys	3	3	[0, 0, 0]	n/a	catFR1	0	R1683A
595.528	0.844	660333	WORD_OFF	n/a	n/a	DOLL	Toys	3	3	[0, 0, 0]	n/a	catFR1	0	R1683A
596.372	1.608	661183	WORD	n/a	wordpools/wordpool_categorized_EN.txt	BARBIE	Toys	4	3	[0, 0, 0]	n/a	catFR1	0	R1683A
597.98	0.957	662786	WORD_OFF	n/a	n/a	BARBIE	Toys	4	3	[0, 0, 0]	n/a	catFR1	0	R1683A
598.937	1.602	663745	WORD	n/a	wordpools/wordpool_categorized_EN.txt	PINE	Trees	5	3	[0, 0, 0]	n/a	catFR1	0	R1683A
600.539	0.883	665348	WORD_OFF	n/a	n/a	PINE	Trees	5	3	[0, 0, 0]	n/a	catFR1	0	R1683A
601.422	1.6	666231	WORD	n/a	wordpools/wordpool_categorized_EN.txt	WILLOW	Trees	6	3	[0, 0, 0]	n/a	catFR1	0	R1683A
603.022	0.807	667833	WORD_OFF	n/a	n/a	WILLOW	Trees	6	3	[0, 0, 0]	n/a	catFR1	0	R1683A
603.829	1.609	668640	WORD	n/a	wordpools/wordpool_categorized_EN.txt	SOFA	Furniture	7	3	[0, 0, 0]	n/a	catFR1	0	R1683A
605.438	0.892	670242	WORD_OFF	n/a	n/a	SOFA	Furniture	7	3	[0, 0, 0]	n/a	catFR1	0	R1683A
606.33	1.6	671136	WORD	n/a	wordpools/wordpool_categorized_EN.txt	NIGHTSTAND	Furniture	8	3	[0, 0, 0]	n/a	catFR1	0	R1683A
607.93	0.95	672739	WORD_OFF	n/a	n/a	NIGHTSTAND	Furniture	8	3	[0, 0, 0]	n/a	catFR1	0	R1683A
608.88	1.608	673687	WORD	n/a	wordpools/wordpool_categorized_EN.txt	FRISBEE	Toys	9	3	[0, 0, 0]	n/a	catFR1	0	R1683A
610.488	0.933	675300	WORD_OFF	n/a	n/a	FRISBEE	Toys	9	3	[0, 0, 0]	n/a	catFR1	0	R1683A
611.421	1.601	676227	WORD	n/a	wordpools/wordpool_categorized_EN.txt	SLINKY	Toys	10	3	[0, 0, 0]	n/a	catFR1	0	R1683A
613.022	0.941	677829	WORD_OFF	n/a	n/a	SLINKY	Toys	10	3	[0, 0, 0]	n/a	catFR1	0	R1683A
613.963	1.607	678767	WORD	n/a	wordpools/wordpool_categorized_EN.txt	CEDAR	Trees	11	3	[0, 0, 0]	n/a	catFR1	0	R1683A
615.57	0.867	680380	WORD_OFF	n/a	n/a	CEDAR	Trees	11	3	[0, 0, 0]	n/a	catFR1	0	R1683A
616.437	1.609	681241	WORD	n/a	wordpools/wordpool_categorized_EN.txt	BIRCH	Trees	12	3	[0, 0, 0]	n/a	catFR1	0	R1683A
618.046	0.003	682855	WORD_OFF	n/a	n/a	BIRCH	Trees	12	3	[0, 0, 0]	n/a	catFR1	0	R1683A
618.049	0.0	682855	ENCODING_END	n/a	n/a	n/a	n/a	-999	3	[0, 0, 0]	n/a	catFR1	0	R1683A
618.049	0.0	682855	DISTRACT_START	n/a	n/a	n/a	n/a	-999	3	[0, 0, 0]	n/a	catFR1	0	R1683A
618.047	0.002	682858	PROB	0.002	n/a	n/a	n/a	-999	3	[3, 1, 8]	12	catFR1	0	R1683A
618.049	5.15	682860	START	n/a	n/a	n/a	n/a	-999	3	[-999, -999, -999]	n/a	catFR1	0	R1683A
623.199	3.513	688010	PROB	3.513	n/a	n/a	n/a	-999	3	[6, 1, 4]	11	catFR1	0	R1683A
626.712	5.935	691523	PROB	5.935	n/a	n/a	n/a	-999	3	[2, 1, 7]	10	catFR1	0	R1683A
632.647	5.377	697458	PROB	5.377	n/a	n/a	n/a	-999	3	[7, 4, 2]	13	catFR1	0	R1683A
638.024	5.896	702835	PROB	5.896	n/a	n/a	n/a	-999	3	[3, 1, 4]	8	catFR1	0	R1683A
643.92	0.0	708723	DISTRACT_END	n/a	n/a	n/a	n/a	-999	3	[0, 0, 0]	n/a	catFR1	0	R1683A
643.92	2.168	708731	STOP	n/a	n/a	n/a	n/a	-999	3	[-999, -999, -999]	n/a	catFR1	0	R1683A
646.088	2.758	710892	REC_START	n/a	n/a	n/a	n/a	-999	3	[0, 0, 0]	n/a	catFR1	0	R1683A
648.846	1.735	713657	REC_WORD_VV	1.735	n/a	<>	n/a	-999	3	[0, 0, 0]	n/a	catFR1	0	R1683A
650.581	1.514	715392	REC_WORD	1.514	n/a	CEDAR	Trees	11	3	[0, 0, 0]	n/a	catFR1	0	R1683A
652.095	4.91	716906	REC_WORD	4.91	n/a	WILLOW	Trees	6	3	[0, 0, 0]	n/a	catFR1	0	R1683A
657.005	1.0	721816	REC_WORD	1.0	n/a	NIGHTSTAND	Furniture	8	3	[0, 0, 0]	n/a	catFR1	0	R1683A
658.005	1.101	722816	REC_WORD_VV	1.101	n/a	<>	n/a	-999	3	[0, 0, 0]	n/a	catFR1	0	R1683A
659.106	3.404	723917	REC_WORD	3.404	n/a	SOFA	Furniture	7	3	[0, 0, 0]	n/a	catFR1	0	R1683A
662.51	3.213	727321	REC_WORD	3.213	n/a	FRISBEE	Toys	9	3	[0, 0, 0]	n/a	catFR1	0	R1683A
665.723	1.0	730534	REC_WORD_VV	1.0	n/a	<>	n/a	-999	3	[0, 0, 0]	n/a	catFR1	0	R1683A
666.723	1.0	731534	REC_WORD_VV	1.0	n/a	<>	n/a	-999	3	[0, 0, 0]	n/a	catFR1	0	R1683A
667.723	2.249	732534	REC_WORD_VV	2.249	n/a	<>	n/a	-999	3	[0, 0, 0]	n/a	catFR1	0	R1683A
669.972	5.851	734783	REC_WORD	5.851	n/a	BED	Furniture	1	3	[0, 0, 0]	n/a	catFR1	0	R1683A
675.823	0.4	740634	REC_WORD_VV	0.4	n/a	<>	n/a	-999	3	[0, 0, 0]	n/a	catFR1	0	R1683A
676.223	5.722	741034	REC_END	n/a	n/a	n/a	n/a	-999	3	[0, 0, 0]	n/a	catFR1	0	R1683A
681.945	10.342	746757	COUNTDOWN_START	n/a	n/a	n/a	n/a	-999	3	[0, 0, 0]	n/a	catFR1	0	R1683A
692.287	0.0	757091	COUNTDOWN_END	n/a	n/a	n/a	n/a	-999	3	[0, 0, 0]	n/a	catFR1	0	R1683A
692.287	2.102	757102	ENCODING_START	n/a	n/a	n/a	n/a	-999	4	[0, 0, 0]	n/a	catFR1	0	R1683A
694.389	1.6	759195	WORD	n/a	wordpools/wordpool_categorized_EN.txt	ORANGUTAN	Zoo	1	4	[0, 0, 0]	n/a	catFR1	0	R1683A
695.989	0.983	760798	WORD_OFF	n/a	n/a	ORANGUTAN	Zoo	1	4	[0, 0, 0]	n/a	catFR1	0	R1683A
696.972	1.6	761779	WORD	n/a	wordpools/wordpool_categorized_EN.txt	TIGER	Zoo	2	4	[0, 0, 0]	n/a	catFR1	0	R1683A
698.572	0.783	763381	WORD_OFF	n/a	n/a	TIGER	Zoo	2	4	[0, 0, 0]	n/a	catFR1	0	R1683A
699.355	1.6	764166	WORD	n/a	wordpools/wordpool_categorized_EN.txt	PUZZLE	Toys	3	4	[0, 0, 0]	n/a	catFR1	0	R1683A
700.955	0.8	765758	WORD_OFF	n/a	n/a	PUZZLE	Toys	3	4	[0, 0, 0]	n/a	catFR1	0	R1683A
701.755	1.609	766564	WORD	n/a	wordpools/wordpool_categorized_EN.txt	MARBLES	Toys	4	4	[0, 0, 0]	n/a	catFR1	0	R1683A
703.364	0.881	768167	WORD_OFF	n/a	n/a	MARBLES	Toys	4	4	[0, 0, 0]	n/a	catFR1	0	R1683A
704.245	1.602	769050	WORD	n/a	wordpools/wordpool_categorized_EN.txt	ROSE	Flowers	5	4	[0, 0, 0]	n/a	catFR1	0	R1683A
705.847	0.958	770652	WORD_OFF	n/a	n/a	ROSE	Flowers	5	4	[0, 0, 0]	n/a	catFR1	0	R1683A
706.805	1.601	771611	WORD	n/a	wordpools/wordpool_categorized_EN.txt	PETUNIA	Flowers	6	4	[0, 0, 0]	n/a	catFR1	0	R1683A
708.406	0.99	773214	WORD_OFF	n/a	n/a	PETUNIA	Flowers	6	4	[0, 0, 0]	n/a	catFR1	0	R1683A
709.396	1.609	774206	WORD	n/a	wordpools/wordpool_categorized_EN.txt	FOOTBALL	Toys	7	4	[0, 0, 0]	n/a	catFR1	0	R1683A
711.005	0.868	775808	WORD_OFF	n/a	n/a	FOOTBALL	Toys	7	4	[0, 0, 0]	n/a	catFR1	0	R1683A
711.873	1.599	776680	WORD	n/a	wordpools/wordpool_categorized_EN.txt	BLOCKS	Toys	8	4	[0, 0, 0]	n/a	catFR1	0	R1683A
713.472	0.933	778283	WORD_OFF	n/a	n/a	BLOCKS	Toys	8	4	[0, 0, 0]	n/a	catFR1	0	R1683A
714.405	1.608	779210	WORD	n/a	wordpools/wordpool_categorized_EN.txt	CHIMPANZEE	Zoo	9	4	[0, 0, 0]	n/a	catFR1	0	R1683A
716.013	0.951	780823	WORD_OFF	n/a	n/a	CHIMPANZEE	Zoo	9	4	[0, 0, 0]	n/a	catFR1	0	R1683A
716.964	1.606	781771	WORD	n/a	wordpools/wordpool_categorized_EN.txt	GORILLA	Zoo	10	4	[0, 0, 0]	n/a	catFR1	0	R1683A
718.57	0.9	783374	WORD_OFF	n/a	n/a	GORILLA	Zoo	10	4	[0, 0, 0]	n/a	catFR1	0	R1683A
719.47	1.61	784278	WORD	n/a	wordpools/wordpool_categorized_EN.txt	MARIGOLD	Flowers	11	4	[0, 0, 0]	n/a	catFR1	0	R1683A
721.08	0.99	785892	WORD_OFF	n/a	n/a	MARIGOLD	Flowers	11	4	[0, 0, 0]	n/a	catFR1	0	R1683A
722.07	1.602	786873	WORD	n/a	wordpools/wordpool_categorized_EN.txt	ORCHID	Flowers	12	4	[0, 0, 0]	n/a	catFR1	0	R1683A
723.672	0.0	788475	WORD_OFF	n/a	n/a	ORCHID	Flowers	12	4	[0, 0, 0]	n/a	catFR1	0	R1683A
723.672	0.003	788483	PROB	0.003	n/a	n/a	n/a	-999	4	[2, 3, 7]	12	catFR1	0	R1683A
723.675	0.0	788486	ENCODING_END	n/a	n/a	n/a	n/a	-999	4	[0, 0, 0]	n/a	catFR1	0	R1683A
723.675	0.0	788486	DISTRACT_START	n/a	n/a	n/a	n/a	-999	4	[0, 0, 0]	n/a	catFR1	0	R1683A
723.675	3.696	788486	START	n/a	n/a	n/a	n/a	-999	4	[-999, -999, -999]	n/a	catFR1	0	R1683A
727.371	8.283	792182	PROB	8.283	n/a	n/a	n/a	-999	4	[8, 4, 3]	15	catFR1	0	R1683A
735.654	5.801	800465	PROB	5.801	n/a	n/a	n/a	-999	4	[6, 8, 2]	16	catFR1	0	R1683A
741.455	4.273	806266	PROB	4.273	n/a	n/a	n/a	-999	4	[3, 6, 7]	16	catFR1	0	R1683A
745.728	0.0	810539	DISTRACT_END	n/a	n/a	n/a	n/a	-999	4	[0, 0, 0]	n/a	catFR1	0	R1683A
745.728	2.244	810539	STOP	n/a	n/a	n/a	n/a	-999	4	[-999, -999, -999]	n/a	catFR1	0	R1683A
747.972	1.644	812774	REC_START	n/a	n/a	n/a	n/a	-999	4	[0, 0, 0]	n/a	catFR1	0	R1683A
749.616	1.43	814427	REC_WORD	1.43	n/a	ORANGUTAN	Zoo	1	4	[0, 0, 0]	n/a	catFR1	0	R1683A
751.046	4.338	815857	REC_WORD	4.338	n/a	CHIMPANZEE	Zoo	9	4	[0, 0, 0]	n/a	catFR1	0	R1683A
755.384	2.098	820195	REC_WORD	2.098	n/a	BLOCKS	Toys	8	4	[0, 0, 0]	n/a	catFR1	0	R1683A
757.482	1.976	822293	REC_WORD	1.976	n/a	FLOWER	n/a	-999	4	[0, 0, 0]	n/a	catFR1	0	R1683A
759.458	0.747	824269	REC_WORD_VV	0.747	n/a	<>	n/a	-999	4	[0, 0, 0]	n/a	catFR1	0	R1683A
760.205	0.475	825016	REC_WORD	0.475	n/a	FLOWER	n/a	-999	4	[0, 0, 0]	n/a	catFR1	0	R1683A
760.68	1.349	825491	REC_WORD	1.349	n/a	PETUNIA	Flowers	6	4	[0, 0, 0]	n/a	catFR1	0	R1683A
762.029	3.683	826840	REC_WORD	3.683	n/a	ROSE	Flowers	5	4	[0, 0, 0]	n/a	catFR1	0	R1683A
765.712	4.514	830523	REC_WORD	4.514	n/a	ORCHID	Flowers	12	4	[0, 0, 0]	n/a	catFR1	0	R1683A
770.226	6.418	835037	REC_WORD_VV	6.418	n/a	<>	n/a	-999	4	[0, 0, 0]	n/a	catFR1	0	R1683A
776.644	1.469	841455	REC_WORD_VV	1.469	n/a	<>	n/a	-999	4	[0, 0, 0]	n/a	catFR1	0	R1683A
778.113	7.174	842915	REC_END	n/a	n/a	n/a	n/a	-999	4	[0, 0, 0]	n/a	catFR1	0	R1683A
785.287	10.352	850099	COUNTDOWN_START	n/a	n/a	n/a	n/a	-999	4	[0, 0, 0]	n/a	catFR1	0	R1683A
795.639	0.0	860444	COUNTDOWN_END	n/a	n/a	n/a	n/a	-999	4	[0, 0, 0]	n/a	catFR1	0	R1683A
795.639	2.175	860444	ENCODING_START	n/a	n/a	n/a	n/a	-999	5	[0, 0, 0]	n/a	catFR1	0	R1683A
797.814	1.606	862625	WORD	n/a	wordpools/wordpool_categorized_EN.txt	ORANGE	Fruit	1	5	[0, 0, 0]	n/a	catFR1	0	R1683A
799.42	0.95	864227	WORD_OFF	n/a	n/a	ORANGE	Fruit	1	5	[0, 0, 0]	n/a	catFR1	0	R1683A
800.37	1.601	865176	WORD	n/a	wordpools/wordpool_categorized_EN.txt	PEAR	Fruit	2	5	[0, 0, 0]	n/a	catFR1	0	R1683A
801.971	0.949	866778	WORD_OFF	n/a	n/a	PEAR	Fruit	2	5	[0, 0, 0]	n/a	catFR1	0	R1683A
802.92	1.6	867726	WORD	n/a	wordpools/wordpool_categorized_EN.txt	STREAM	Landscapes	3	5	[0, 0, 0]	n/a	catFR1	0	R1683A
804.52	0.852	869329	WORD_OFF	n/a	n/a	STREAM	Landscapes	3	5	[0, 0, 0]	n/a	catFR1	0	R1683A
805.372	1.608	870179	WORD	n/a	wordpools/wordpool_categorized_EN.txt	ISLAND	Landscapes	4	5	[0, 0, 0]	n/a	catFR1	0	R1683A
806.98	0.882	871792	WORD_OFF	n/a	n/a	ISLAND	Landscapes	4	5	[0, 0, 0]	n/a	catFR1	0	R1683A
807.862	1.602	872665	WORD	n/a	wordpools/wordpool_categorized_EN.txt	SKIRT	Clothing	5	5	[0, 0, 0]	n/a	catFR1	0	R1683A
809.464	0.966	874267	WORD_OFF	n/a	n/a	SKIRT	Clothing	5	5	[0, 0, 0]	n/a	catFR1	0	R1683A
810.43	1.601	875237	WORD	n/a	wordpools/wordpool_categorized_EN.txt	JACKET	Clothing	6	5	[0, 0, 0]	n/a	catFR1	0	R1683A
812.031	1.0	876840	WORD_OFF	n/a	n/a	JACKET	Clothing	6	5	[0, 0, 0]	n/a	catFR1	0	R1683A
813.031	1.607	877843	WORD	n/a	wordpools/wordpool_categorized_EN.txt	RIVER	Landscapes	7	5	[0, 0, 0]	n/a	catFR1	0	R1683A
814.638	0.934	879445	WORD_OFF	n/a	n/a	RIVER	Landscapes	7	5	[0, 0, 0]	n/a	catFR1	0	R1683A
815.572	1.608	880383	WORD	n/a	wordpools/wordpool_categorized_EN.txt	HILLS	Landscapes	8	5	[0, 0, 0]	n/a	catFR1	0	R1683A
817.18	0.942	881985	WORD_OFF	n/a	n/a	HILLS	Landscapes	8	5	[0, 0, 0]	n/a	catFR1	0	R1683A
818.122	1.609	882933	WORD	n/a	wordpools/wordpool_categorized_EN.txt	SHORTS	Clothing	9	5	[0, 0, 0]	n/a	catFR1	0	R1683A
819.731	0.99	884536	WORD_OFF	n/a	n/a	SHORTS	Clothing	9	5	[0, 0, 0]	n/a	catFR1	0	R1683A
820.721	1.601	885528	WORD	n/a	wordpools/wordpool_categorized_EN.txt	DRESS	Clothing	10	5	[0, 0, 0]	n/a	catFR1	0	R1683A
822.322	0.791	887130	WORD_OFF	n/a	n/a	DRESS	Clothing	10	5	[0, 0, 0]	n/a	catFR1	0	R1683A
823.113	1.6	887915	WORD	n/a	wordpools/wordpool_categorized_EN.txt	CHERRY	Fruit	11	5	[0, 0, 0]	n/a	catFR1	0	R1683A
824.713	0.993	889518	WORD_OFF	n/a	n/a	CHERRY	Fruit	11	5	[0, 0, 0]	n/a	catFR1	0	R1683A
825.706	1.606	890510	WORD	n/a	wordpools/wordpool_categorized_EN.txt	PLUM	Fruit	12	5	[0, 0, 0]	n/a	catFR1	0	R1683A
827.312	0.001	892122	PROB	0.001	n/a	n/a	n/a	-999	5	[3, 1, 5]	9	catFR1	0	R1683A
827.313	0.003	892123	WORD_OFF	n/a	n/a	PLUM	Fruit	12	5	[0, 0, 0]	n/a	catFR1	0	R1683A
827.316	0.0	892123	ENCODING_END	n/a	n/a	n/a	n/a	-999	5	[0, 0, 0]	n/a	catFR1	0	R1683A
827.316	0.0	892123	DISTRACT_START	n/a	n/a	n/a	n/a	-999	5	[0, 0, 0]	n/a	catFR1	0	R1683A
827.316	3.605	892126	START	n/a	n/a	n/a	n/a	-999	5	[-999, -999, -999]	n/a	catFR1	0	R1683A
830.921	4.968	895731	PROB	4.968	n/a	n/a	n/a	-999	5	[4, 1, 8]	13	catFR1	0	R1683A
835.889	5.023	900699	PROB	5.023	n/a	n/a	n/a	-999	5	[7, 3, 1]	10	catFR1	0	R1683A
840.912	4.767	905722	PROB	4.767	n/a	n/a	n/a	-999	5	[1, 1, 6]	8	catFR1	0	R1683A
845.679	9.075	910489	PROB	9.075	n/a	n/a	n/a	-999	5	[8, 7, 6]	27	catFR1	0	R1683A
854.754	0.0	919561	DISTRACT_END	n/a	n/a	n/a	n/a	-999	5	[0, 0, 0]	n/a	catFR1	0	R1683A
854.754	2.134	919564	STOP	n/a	n/a	n/a	n/a	-999	5	[-999, -999, -999]	n/a	catFR1	0	R1683A
856.888	1.78	921698	REC_START	n/a	n/a	n/a	n/a	-999	5	[0, 0, 0]	n/a	catFR1	0	R1683A
858.668	0.381	923478	REC_WORD_VV	0.381	n/a	<>	n/a	-999	5	[0, 0, 0]	n/a	catFR1	0	R1683A
859.049	1.144	923859	REC_WORD	1.144	n/a	DRESS	Clothing	10	5	[0, 0, 0]	n/a	catFR1	0	R1683A
860.193	1.0	925003	REC_WORD	1.0	n/a	SHORTS	Clothing	9	5	[0, 0, 0]	n/a	catFR1	0	R1683A
861.193	0.449	926003	REC_WORD_VV	0.449	n/a	<>	n/a	-999	5	[0, 0, 0]	n/a	catFR1	0	R1683A
861.642	2.773	926452	REC_WORD	2.773	n/a	SKIRT	Clothing	5	5	[0, 0, 0]	n/a	catFR1	0	R1683A
864.415	0.152	929225	REC_WORD_VV	0.152	n/a	<>	n/a	-999	5	[0, 0, 0]	n/a	catFR1	0	R1683A
864.567	0.905	929377	REC_WORD	0.905	n/a	ORANGE	Fruit	1	5	[0, 0, 0]	n/a	catFR1	0	R1683A
865.472	0.22	930282	REC_WORD_VV	0.22	n/a	<>	n/a	-999	5	[0, 0, 0]	n/a	catFR1	0	R1683A
865.692	2.133	930502	REC_WORD	2.133	n/a	PEAR	Fruit	2	5	[0, 0, 0]	n/a	catFR1	0	R1683A
867.825	1.343	932635	REC_WORD	1.343	n/a	RIVER	Landscapes	7	5	[0, 0, 0]	n/a	catFR1	0	R1683A
869.168	1.157	933978	REC_WORD	1.157	n/a	STREAM	Landscapes	3	5	[0, 0, 0]	n/a	catFR1	0	R1683A
870.325	1.269	935135	REC_WORD	1.269	n/a	HILLS	Landscapes	8	5	[0, 0, 0]	n/a	catFR1	0	R1683A
871.594	5.095	936404	REC_WORD	5.095	n/a	ISLAND	Landscapes	4	5	[0, 0, 0]	n/a	catFR1	0	R1683A
876.689	1.0	941499	REC_WORD_VV	1.0	n/a	<>	n/a	-999	5	[0, 0, 0]	n/a	catFR1	0	R1683A
877.689	1.0	942499	REC_WORD_VV	1.0	n/a	<>	n/a	-999	5	[0, 0, 0]	n/a	catFR1	0	R1683A
878.689	6.792	943499	REC_WORD_VV	6.792	n/a	<>	n/a	-999	5	[0, 0, 0]	n/a	catFR1	0	R1683A
885.481	1.0	950291	REC_WORD_VV	1.0	n/a	<>	n/a	-999	5	[0, 0, 0]	n/a	catFR1	0	R1683A
886.481	0.546	951291	REC_WORD_VV	0.546	n/a	<>	n/a	-999	5	[0, 0, 0]	n/a	catFR1	0	R1683A
887.027	8.07	951828	REC_END	n/a	n/a	n/a	n/a	-999	5	[0, 0, 0]	n/a	catFR1	0	R1683A
895.097	10.34	959906	COUNTDOWN_START	n/a	n/a	n/a	n/a	-999	5	[0, 0, 0]	n/a	catFR1	0	R1683A
905.437	0.0	970240	COUNTDOWN_END	n/a	n/a	n/a	n/a	-999	5	[0, 0, 0]	n/a	catFR1	0	R1683A
905.437	2.077	970240	ENCODING_START	n/a	n/a	n/a	n/a	-999	6	[0, 0, 0]	n/a	catFR1	0	R1683A
907.514	1.6	972322	WORD	n/a	wordpools/wordpool_categorized_EN.txt	COOKIE	Desserts	1	6	[0, 0, 0]	n/a	catFR1	0	R1683A
909.114	0.874	973925	WORD_OFF	n/a	n/a	COOKIE	Desserts	1	6	[0, 0, 0]	n/a	catFR1	0	R1683A
909.988	1.609	974797	WORD	n/a	wordpools/wordpool_categorized_EN.txt	BROWNIES	Desserts	2	6	[0, 0, 0]	n/a	catFR1	0	R1683A
911.597	0.933	976399	WORD_OFF	n/a	n/a	BROWNIES	Desserts	2	6	[0, 0, 0]	n/a	catFR1	0	R1683A
912.53	1.609	977337	WORD	n/a	wordpools/wordpool_categorized_EN.txt	CORN	Vegetables	3	6	[0, 0, 0]	n/a	catFR1	0	R1683A
914.139	0.948	978950	WORD_OFF	n/a	n/a	CORN	Vegetables	3	6	[0, 0, 0]	n/a	catFR1	0	R1683A
915.087	1.601	979888	WORD	n/a	wordpools/wordpool_categorized_EN.txt	CELERY	Vegetables	4	6	[0, 0, 0]	n/a	catFR1	0	R1683A
916.688	0.883	981490	WORD_OFF	n/a	n/a	CELERY	Vegetables	4	6	[0, 0, 0]	n/a	catFR1	0	R1683A
917.571	1.601	982373	WORD	n/a	wordpools/wordpool_categorized_EN.txt	PLANE	Vehicles	5	6	[0, 0, 0]	n/a	catFR1	0	R1683A
919.172	0.857	983976	WORD_OFF	n/a	n/a	PLANE	Vehicles	5	6	[0, 0, 0]	n/a	catFR1	0	R1683A
920.029	1.601	984837	WORD	n/a	wordpools/wordpool_categorized_EN.txt	JEEP	Vehicles	6	6	[0, 0, 0]	n/a	catFR1	0	R1683A
921.63	0.901	986439	WORD_OFF	n/a	n/a	JEEP	Vehicles	6	6	[0, 0, 0]	n/a	catFR1	0	R1683A
922.531	1.608	987333	WORD	n/a	wordpools/wordpool_categorized_EN.txt	LETTUCE	Vegetables	7	6	[0, 0, 0]	n/a	catFR1	0	R1683A
924.139	0.956	988946	WORD_OFF	n/a	n/a	LETTUCE	Vegetables	7	6	[0, 0, 0]	n/a	catFR1	0	R1683A
925.095	1.602	989906	WORD	n/a	wordpools/wordpool_categorized_EN.txt	BROCCOLI	Vegetables	8	6	[0, 0, 0]	n/a	catFR1	0	R1683A
926.697	0.866	991508	WORD_OFF	n/a	n/a	BROCCOLI	Vegetables	8	6	[0, 0, 0]	n/a	catFR1	0	R1683A
927.563	1.6	992369	WORD	n/a	wordpools/wordpool_categorized_EN.txt	JELLO	Desserts	9	6	[0, 0, 0]	n/a	catFR1	0	R1683A
929.163	0.832	993972	WORD_OFF	n/a	n/a	JELLO	Desserts	9	6	[0, 0, 0]	n/a	catFR1	0	R1683A
929.995	1.601	994800	WORD	n/a	wordpools/wordpool_categorized_EN.txt	PUDDING	Desserts	10	6	[0, 0, 0]	n/a	catFR1	0	R1683A
931.596	0.893	996403	WORD_OFF	n/a	n/a	PUDDING	Desserts	10	6	[0, 0, 0]	n/a	catFR1	0	R1683A
932.489	1.608	997297	WORD	n/a	wordpools/wordpool_categorized_EN.txt	TRUCK	Vehicles	11	6	[0, 0, 0]	n/a	catFR1	0	R1683A
934.097	0.933	998899	WORD_OFF	n/a	n/a	TRUCK	Vehicles	11	6	[0, 0, 0]	n/a	catFR1	0	R1683A
935.03	1.6	999837	WORD	n/a	wordpools/wordpool_categorized_EN.txt	VAN	Vehicles	12	6	[0, 0, 0]	n/a	catFR1	0	R1683A
936.63	0.004	1001439	WORD_OFF	n/a	n/a	VAN	Vehicles	12	6	[0, 0, 0]	n/a	catFR1	0	R1683A
936.634	0.0	1001439	ENCODING_END	n/a	n/a	n/a	n/a	-999	6	[0, 0, 0]	n/a	catFR1	0	R1683A
936.634	0.0	1001439	DISTRACT_START	n/a	n/a	n/a	n/a	-999	6	[0, 0, 0]	n/a	catFR1	0	R1683A
936.63	0.004	1001440	PROB	0.004	n/a	n/a	n/a	-999	6	[8, 4, 3]	15	catFR1	0	R1683A
936.634	6.879	1001444	START	n/a	n/a	n/a	n/a	-999	6	[-999, -999, -999]	n/a	catFR1	0	R1683A
943.513	3.884	1008323	PROB	3.884	n/a	n/a	n/a	-999	6	[8, 3, 1]	12	catFR1	0	R1683A
947.397	4.382	1012207	PROB	4.382	n/a	n/a	n/a	-999	6	[8, 3, 4]	15	catFR1	0	R1683A
951.779	4.044	1016589	PROB	4.044	n/a	n/a	n/a	-999	6	[8, 2, 3]	13	catFR1	0	R1683A
955.823	5.473	1020633	PROB	5.473	n/a	n/a	n/a	-999	6	[7, 6, 7]	20	catFR1	0	R1683A
961.296	0.0	1026097	DISTRACT_END	n/a	n/a	n/a	n/a	-999	6	[0, 0, 0]	n/a	catFR1	0	R1683A
961.296	2.2	1026106	STOP	n/a	n/a	n/a	n/a	-999	6	[-999, -999, -999]	n/a	catFR1	0	R1683A
963.496	1.823	1028299	REC_START	n/a	n/a	n/a	n/a	-999	6	[0, 0, 0]	n/a	catFR1	0	R1683A
965.319	1.867	1030129	REC_WORD	1.867	n/a	PUDDING	Desserts	10	6	[0, 0, 0]	n/a	catFR1	0	R1683A
967.186	2.464	1031996	REC_WORD	2.464	n/a	JELLO	Desserts	9	6	[0, 0, 0]	n/a	catFR1	0	R1683A
969.65	2.979	1034460	REC_WORD	2.979	n/a	TRUCK	Vehicles	11	6	[0, 0, 0]	n/a	catFR1	0	R1683A
972.629	4.645	1037439	REC_WORD	4.645	n/a	CHERRY	Fruit	-999	6	[0, 0, 0]	n/a	catFR1	0	R1683A
977.274	7.745	1042084	REC_WORD_VV	7.745	n/a	<>	n/a	-999	6	[0, 0, 0]	n/a	catFR1	0	R1683A
985.019	5.154	1049829	REC_WORD	5.154	n/a	BREAD	n/a	-999	6	[0, 0, 0]	n/a	catFR1	0	R1683A
990.173	0.975	1054983	REC_WORD	0.975	n/a	COOKIE	Desserts	1	6	[0, 0, 0]	n/a	catFR1	0	R1683A
991.148	2.487	1055958	REC_WORD	2.487	n/a	BROWNIES	Desserts	2	6	[0, 0, 0]	n/a	catFR1	0	R1683A
993.635	8.66	1058441	REC_END	n/a	n/a	n/a	n/a	-999	6	[0, 0, 0]	n/a	catFR1	0	R1683A
1002.295	10.342	1067107	COUNTDOWN_START	n/a	n/a	n/a	n/a	-999	6	[0, 0, 0]	n/a	catFR1	0	R1683A
1012.637	0.001	1077442	COUNTDOWN_END	n/a	n/a	n/a	n/a	-999	6	[0, 0, 0]	n/a	catFR1	0	R1683A
1012.638	2.075	1077442	ENCODING_START	n/a	n/a	n/a	n/a	-999	7	[0, 0, 0]	n/a	catFR1	0	R1683A
1014.713	1.609	1079524	WORD	n/a	wordpools/wordpool_categorized_EN.txt	PLIERS	Tools	1	7	[0, 0, 0]	n/a	catFR1	0	R1683A
1016.322	0.865	1081126	WORD_OFF	n/a	n/a	PLIERS	Tools	1	7	[0, 0, 0]	n/a	catFR1	0	R1683A
1017.187	1.61	1081998	WORD	n/a	wordpools/wordpool_categorized_EN.txt	DRILL	Tools	2	7	[0, 0, 0]	n/a	catFR1	0	R1683A
1018.797	0.94	1083601	WORD_OFF	n/a	n/a	DRILL	Tools	2	7	[0, 0, 0]	n/a	catFR1	0	R1683A
1019.737	1.6	1084538	WORD	n/a	wordpools/wordpool_categorized_EN.txt	COBBLER	Desserts	3	7	[0, 0, 0]	n/a	catFR1	0	R1683A
1021.337	0.9	1086141	WORD_OFF	n/a	n/a	COBBLER	Desserts	3	7	[0, 0, 0]	n/a	catFR1	0	R1683A
1022.237	1.601	1087045	WORD	n/a	wordpools/wordpool_categorized_EN.txt	CAKE	Desserts	4	7	[0, 0, 0]	n/a	catFR1	0	R1683A
1023.838	0.941	1088648	WORD_OFF	n/a	n/a	CAKE	Desserts	4	7	[0, 0, 0]	n/a	catFR1	0	R1683A
1024.779	1.602	1089585	WORD	n/a	wordpools/wordpool_categorized_EN.txt	BASEBALL	Toys	5	7	[0, 0, 0]	n/a	catFR1	0	R1683A
1026.381	0.772	1091188	WORD_OFF	n/a	n/a	BASEBALL	Toys	5	7	[0, 0, 0]	n/a	catFR1	0	R1683A
1027.153	1.603	1091962	WORD	n/a	wordpools/wordpool_categorized_EN.txt	BASKETBALL	Toys	6	7	[0, 0, 0]	n/a	catFR1	0	R1683A
1028.756	0.79	1093564	WORD_OFF	n/a	n/a	BASKETBALL	Toys	6	7	[0, 0, 0]	n/a	catFR1	0	R1683A
1029.546	1.609	1094349	WORD	n/a	wordpools/wordpool_categorized_EN.txt	FUDGE	Desserts	7	7	[0, 0, 0]	n/a	catFR1	0	R1683A
1031.155	0.776	1095962	WORD_OFF	n/a	n/a	FUDGE	Desserts	7	7	[0, 0, 0]	n/a	catFR1	0	R1683A
1031.931	1.608	1096736	WORD	n/a	wordpools/wordpool_categorized_EN.txt	CUPCAKE	Desserts	8	7	[0, 0, 0]	n/a	catFR1	0	R1683A
1033.539	0.758	1098339	WORD_OFF	n/a	n/a	CUPCAKE	Desserts	8	7	[0, 0, 0]	n/a	catFR1	0	R1683A
1034.297	1.608	1099102	WORD	n/a	wordpools/wordpool_categorized_EN.txt	CROWBAR	Tools	9	7	[0, 0, 0]	n/a	catFR1	0	R1683A
1035.905	0.792	1100715	WORD_OFF	n/a	n/a	CROWBAR	Tools	9	7	[0, 0, 0]	n/a	catFR1	0	R1683A
1036.697	1.608	1101500	WORD	n/a	wordpools/wordpool_categorized_EN.txt	SANDER	Tools	10	7	[0, 0, 0]	n/a	catFR1	0	R1683A
1038.305	0.85	1103114	WORD_OFF	n/a	n/a	SANDER	Tools	10	7	[0, 0, 0]	n/a	catFR1	0	R1683A
1039.155	1.6	1103964	WORD	n/a	wordpools/wordpool_categorized_EN.txt	BALL	Toys	11	7	[0, 0, 0]	n/a	catFR1	0	R1683A
1040.755	0.832	1105566	WORD_OFF	n/a	n/a	BALL	Toys	11	7	[0, 0, 0]	n/a	catFR1	0	R1683A
1041.587	1.6	1106395	WORD	n/a	wordpools/wordpool_categorized_EN.txt	DOLLHOUSE	Toys	12	7	[0, 0, 0]	n/a	catFR1	0	R1683A
1043.187	0.001	1107996	PROB	0.001	n/a	n/a	n/a	-999	7	[3, 8, 7]	18	catFR1	0	R1683A
1043.188	0.003	1107997	WORD_OFF	n/a	n/a	DOLLHOUSE	Toys	12	7	[0, 0, 0]	n/a	catFR1	0	R1683A
1043.191	0.0	1107997	ENCODING_END	n/a	n/a	n/a	n/a	-999	7	[0, 0, 0]	n/a	catFR1	0	R1683A
1043.191	0.0	1107997	DISTRACT_START	n/a	n/a	n/a	n/a	-999	7	[0, 0, 0]	n/a	catFR1	0	R1683A
1043.191	6.422	1108000	START	n/a	n/a	n/a	n/a	-999	7	[-999, -999, -999]	n/a	catFR1	0	R1683A
1049.613	4.235	1114422	PROB	4.235	n/a	n/a	n/a	-999	7	[3, 6, 1]	10	catFR1	0	R1683A
1053.848	9.674	1118657	PROB	9.674	n/a	n/a	n/a	-999	7	[5, 8, 7]	20	catFR1	0	R1683A
1063.522	0.0	1128328	DISTRACT_END	n/a	n/a	n/a	n/a	-999	7	[0, 0, 0]	n/a	catFR1	0	R1683A
1063.522	2.175	1128331	STOP	n/a	n/a	n/a	n/a	-999	7	[-999, -999, -999]	n/a	catFR1	0	R1683A
1065.697	1.63	1130508	REC_START	n/a	n/a	n/a	n/a	-999	7	[0, 0, 0]	n/a	catFR1	0	R1683A
1067.327	3.971	1132136	REC_WORD	3.971	n/a	CROWBAR	Tools	9	7	[0, 0, 0]	n/a	catFR1	0	R1683A
1071.298	2.546	1136107	REC_WORD	2.546	n/a	CAKE	Desserts	4	7	[0, 0, 0]	n/a	catFR1	0	R1683A
1073.844	3.021	1138653	REC_WORD	3.021	n/a	SANDALS	n/a	-999	7	[0, 0, 0]	n/a	catFR1	0	R1683A
1076.865	1.0	1141674	REC_WORD_VV	1.0	n/a	<>	n/a	-999	7	[0, 0, 0]	n/a	catFR1	0	R1683A
1077.865	1.178	1142674	REC_WORD_VV	1.178	n/a	<>	n/a	-999	7	[0, 0, 0]	n/a	catFR1	0	R1683A
1079.043	3.607	1143852	REC_WORD_VV	3.607	n/a	<>	n/a	-999	7	[0, 0, 0]	n/a	catFR1	0	R1683A
1082.65	6.89	1147459	REC_WORD	6.89	n/a	PLIERS	Tools	1	7	[0, 0, 0]	n/a	catFR1	0	R1683A
1089.54	1.579	1154349	REC_WORD	1.579	n/a	BALL	Toys	11	7	[0, 0, 0]	n/a	catFR1	0	R1683A
1091.119	1.83	1155928	REC_WORD	1.83	n/a	FOOTBALL	Toys	-999	7	[0, 0, 0]	n/a	catFR1	0	R1683A
1092.949	2.887	1157758	REC_WORD	2.887	n/a	BASKETBALL	Toys	6	7	[0, 0, 0]	n/a	catFR1	0	R1683A
1095.836	3.625	1160639	REC_END	n/a	n/a	n/a	n/a	-999	7	[0, 0, 0]	n/a	catFR1	0	R1683A
1099.461	10.345	1164269	COUNTDOWN_START	n/a	n/a	n/a	n/a	-999	7	[0, 0, 0]	n/a	catFR1	0	R1683A
1109.806	0.0	1174614	COUNTDOWN_END	n/a	n/a	n/a	n/a	-999	7	[0, 0, 0]	n/a	catFR1	0	R1683A
1109.806	2.097	1174614	ENCODING_START	n/a	n/a	n/a	n/a	-999	8	[0, 0, 0]	n/a	catFR1	0	R1683A
1111.903	1.602	1176707	WORD	n/a	wordpools/wordpool_categorized_EN.txt	WHISK	KitchenTools	1	8	[0, 0, 0]	n/a	catFR1	0	R1683A
1113.505	0.817	1178309	WORD_OFF	n/a	n/a	WHISK	KitchenTools	1	8	[0, 0, 0]	n/a	catFR1	0	R1683A
1114.322	1.608	1179127	WORD	n/a	wordpools/wordpool_categorized_EN.txt	KNIFE	KitchenTools	2	8	[0, 0, 0]	n/a	catFR1	0	R1683A
1115.93	0.849	1180729	WORD_OFF	n/a	n/a	KNIFE	KitchenTools	2	8	[0, 0, 0]	n/a	catFR1	0	R1683A
1116.779	1.601	1181580	WORD	n/a	wordpools/wordpool_categorized_EN.txt	THUNDER	Weather	3	8	[0, 0, 0]	n/a	catFR1	0	R1683A
1118.38	0.824	1183182	WORD_OFF	n/a	n/a	THUNDER	Weather	3	8	[0, 0, 0]	n/a	catFR1	0	R1683A
1119.204	1.601	1184011	WORD	n/a	wordpools/wordpool_categorized_EN.txt	LIGHTNING	Weather	4	8	[0, 0, 0]	n/a	catFR1	0	R1683A
1120.805	0.767	1185613	WORD_OFF	n/a	n/a	LIGHTNING	Weather	4	8	[0, 0, 0]	n/a	catFR1	0	R1683A
1121.572	1.606	1186376	WORD	n/a	wordpools/wordpool_categorized_EN.txt	STRAWBERRY	Fruit	5	8	[0, 0, 0]	n/a	catFR1	0	R1683A
1123.178	0.902	1187979	WORD_OFF	n/a	n/a	STRAWBERRY	Fruit	5	8	[0, 0, 0]	n/a	catFR1	0	R1683A
1124.08	1.607	1188883	WORD	n/a	wordpools/wordpool_categorized_EN.txt	BANANA	Fruit	6	8	[0, 0, 0]	n/a	catFR1	0	R1683A
1125.687	0.985	1190497	WORD_OFF	n/a	n/a	BANANA	Fruit	6	8	[0, 0, 0]	n/a	catFR1	0	R1683A
1126.672	1.607	1191478	WORD	n/a	wordpools/wordpool_categorized_EN.txt	SPATULA	KitchenTools	7	8	[0, 0, 0]	n/a	catFR1	0	R1683A
1128.279	0.835	1193080	WORD_OFF	n/a	n/a	SPATULA	KitchenTools	7	8	[0, 0, 0]	n/a	catFR1	0	R1683A
1129.114	1.608	1193920	WORD	n/a	wordpools/wordpool_categorized_EN.txt	PEELER	KitchenTools	8	8	[0, 0, 0]	n/a	catFR1	0	R1683A
1130.722	0.898	1195533	WORD_OFF	n/a	n/a	PEELER	KitchenTools	8	8	[0, 0, 0]	n/a	catFR1	0	R1683A
1131.62	1.61	1196427	WORD	n/a	wordpools/wordpool_categorized_EN.txt	SNOW	Weather	9	8	[0, 0, 0]	n/a	catFR1	0	R1683A
1133.23	0.79	1198040	WORD_OFF	n/a	n/a	SNOW	Weather	9	8	[0, 0, 0]	n/a	catFR1	0	R1683A
1134.02	1.61	1198825	WORD	n/a	wordpools/wordpool_categorized_EN.txt	HURRICANE	Weather	10	8	[0, 0, 0]	n/a	catFR1	0	R1683A
1135.63	0.867	1200439	WORD_OFF	n/a	n/a	HURRICANE	Weather	10	8	[0, 0, 0]	n/a	catFR1	0	R1683A
1136.497	1.6	1201300	WORD	n/a	wordpools/wordpool_categorized_EN.txt	BLUEBERRY	Fruit	11	8	[0, 0, 0]	n/a	catFR1	0	R1683A
1138.097	0.891	1202902	WORD_OFF	n/a	n/a	BLUEBERRY	Fruit	11	8	[0, 0, 0]	n/a	catFR1	0	R1683A
1138.988	1.609	1203796	WORD	n/a	wordpools/wordpool_categorized_EN.txt	GRAPE	Fruit	12	8	[0, 0, 0]	n/a	catFR1	0	R1683A
1140.597	0.002	1205399	WORD_OFF	n/a	n/a	GRAPE	Fruit	12	8	[0, 0, 0]	n/a	catFR1	0	R1683A
1140.599	0.0	1205399	ENCODING_END	n/a	n/a	n/a	n/a	-999	8	[0, 0, 0]	n/a	catFR1	0	R1683A
1140.597	0.002	1205406	PROB	0.002	n/a	n/a	n/a	-999	8	[5, 3, 8]	16	catFR1	0	R1683A
1140.599	0.0	1205408	START	n/a	n/a	n/a	n/a	-999	8	[-999, -999, -999]	n/a	catFR1	0	R1683A
1140.599	5.414	1205409	DISTRACT_START	n/a	n/a	n/a	n/a	-999	8	[0, 0, 0]	n/a	catFR1	0	R1683A
1146.013	10.934	1210822	PROB	10.934	n/a	n/a	n/a	-999	8	[4, 8, 7]	19	catFR1	0	R1683A
1156.947	3.665	1221756	PROB	3.665	n/a	n/a	n/a	-999	8	[3, 1, 3]	7	catFR1	0	R1683A
1160.612	0.0	1225413	DISTRACT_END	n/a	n/a	n/a	n/a	-999	8	[0, 0, 0]	n/a	catFR1	0	R1683A
1160.612	2.126	1225421	STOP	n/a	n/a	n/a	n/a	-999	8	[-999, -999, -999]	n/a	catFR1	0	R1683A
1162.738	0.801	1227539	REC_START	n/a	n/a	n/a	n/a	-999	8	[0, 0, 0]	n/a	catFR1	0	R1683A
1163.539	1.301	1228348	REC_WORD	1.301	n/a	BLUEBERRY	Fruit	11	8	[0, 0, 0]	n/a	catFR1	0	R1683A
1164.84	4.218	1229649	REC_WORD	4.218	n/a	GRAPE	Fruit	12	8	[0, 0, 0]	n/a	catFR1	0	R1683A
1169.058	1.595	1233867	REC_WORD	1.595	n/a	HURRICANE	Weather	10	8	[0, 0, 0]	n/a	catFR1	0	R1683A
1170.653	2.006	1235462	REC_WORD	2.006	n/a	SNOW	Weather	9	8	[0, 0, 0]	n/a	catFR1	0	R1683A
1172.659	1.498	1237468	REC_WORD	1.498	n/a	THUNDER	Weather	3	8	[0, 0, 0]	n/a	catFR1	0	R1683A
1174.157	1.872	1238966	REC_WORD	1.872	n/a	LIGHTNING	Weather	4	8	[0, 0, 0]	n/a	catFR1	0	R1683A
1176.029	1.361	1240838	REC_WORD	1.361	n/a	WHISK	KitchenTools	1	8	[0, 0, 0]	n/a	catFR1	0	R1683A
1177.39	1.642	1242199	REC_WORD	1.642	n/a	KNIFE	KitchenTools	2	8	[0, 0, 0]	n/a	catFR1	0	R1683A
1179.032	4.773	1243841	REC_WORD	4.773	n/a	PEELER	KitchenTools	8	8	[0, 0, 0]	n/a	catFR1	0	R1683A
1183.805	7.533	1248614	REC_WORD_VV	7.533	n/a	<>	n/a	-999	8	[0, 0, 0]	n/a	catFR1	0	R1683A
1191.338	0.635	1256147	REC_WORD_VV	0.635	n/a	<>	n/a	-999	8	[0, 0, 0]	n/a	catFR1	0	R1683A
1191.973	0.897	1256782	REC_WORD	0.897	n/a	CAKE	Desserts	-999	8	[0, 0, 0]	n/a	catFR1	0	R1683A
1192.87	3.492	1257669	REC_END	n/a	n/a	n/a	n/a	-999	8	[0, 0, 0]	n/a	catFR1	0	R1683A
1196.362	10.342	1261169	COUNTDOWN_START	n/a	n/a	n/a	n/a	-999	8	[0, 0, 0]	n/a	catFR1	0	R1683A
1206.704	0.0	1271514	COUNTDOWN_END	n/a	n/a	n/a	n/a	-999	8	[0, 0, 0]	n/a	catFR1	0	R1683A
1206.704	2.184	1271514	ENCODING_START	n/a	n/a	n/a	n/a	-999	9	[0, 0, 0]	n/a	catFR1	0	R1683A
1208.888	1.601	1273694	WORD	n/a	wordpools/wordpool_categorized_EN.txt	ATTIC	Building	1	9	[0, 0, 0]	n/a	catFR1	0	R1683A
1210.489	0.883	1275296	WORD_OFF	n/a	n/a	ATTIC	Building	1	9	[0, 0, 0]	n/a	catFR1	0	R1683A
1211.372	1.606	1276179	WORD	n/a	wordpools/wordpool_categorized_EN.txt	STAIRS	Building	2	9	[0, 0, 0]	n/a	catFR1	0	R1683A
1212.978	0.927	1277782	WORD_OFF	n/a	n/a	STAIRS	Building	2	9	[0, 0, 0]	n/a	catFR1	0	R1683A
1213.905	1.6	1278708	WORD	n/a	wordpools/wordpool_categorized_EN.txt	SCREWDRIVER	Tools	3	9	[0, 0, 0]	n/a	catFR1	0	R1683A
1215.505	1.009	1280311	WORD_OFF	n/a	n/a	SCREWDRIVER	Tools	3	9	[0, 0, 0]	n/a	catFR1	0	R1683A
1216.514	1.608	1281314	WORD	n/a	wordpools/wordpool_categorized_EN.txt	SAW	Tools	4	9	[0, 0, 0]	n/a	catFR1	0	R1683A
1218.122	0.867	1282927	WORD_OFF	n/a	n/a	SAW	Tools	4	9	[0, 0, 0]	n/a	catFR1	0	R1683A
1218.989	1.607	1283788	WORD	n/a	wordpools/wordpool_categorized_EN.txt	CHAIR	Furniture	5	9	[0, 0, 0]	n/a	catFR1	0	R1683A
1220.596	0.968	1285402	WORD_OFF	n/a	n/a	CHAIR	Furniture	5	9	[0, 0, 0]	n/a	catFR1	0	R1683A
1221.564	1.599	1286372	WORD	n/a	wordpools/wordpool_categorized_EN.txt	DRESSER	Furniture	6	9	[0, 0, 0]	n/a	catFR1	0	R1683A
1223.163	0.842	1287974	WORD_OFF	n/a	n/a	DRESSER	Furniture	6	9	[0, 0, 0]	n/a	catFR1	0	R1683A
1224.005	1.608	1288814	WORD	n/a	wordpools/wordpool_categorized_EN.txt	WRENCH	Tools	7	9	[0, 0, 0]	n/a	catFR1	0	R1683A
1225.613	0.907	1290416	WORD_OFF	n/a	n/a	WRENCH	Tools	7	9	[0, 0, 0]	n/a	catFR1	0	R1683A
1226.52	1.6	1291321	WORD	n/a	wordpools/wordpool_categorized_EN.txt	SHOVEL	Tools	8	9	[0, 0, 0]	n/a	catFR1	0	R1683A
1228.12	0.918	1292923	WORD_OFF	n/a	n/a	SHOVEL	Tools	8	9	[0, 0, 0]	n/a	catFR1	0	R1683A
1229.038	1.609	1293839	WORD	n/a	wordpools/wordpool_categorized_EN.txt	DESK	Furniture	9	9	[0, 0, 0]	n/a	catFR1	0	R1683A
1230.647	0.932	1295452	WORD_OFF	n/a	n/a	DESK	Furniture	9	9	[0, 0, 0]	n/a	catFR1	0	R1683A
1231.579	1.61	1296379	WORD	n/a	wordpools/wordpool_categorized_EN.txt	BOOKCASE	Furniture	10	9	[0, 0, 0]	n/a	catFR1	0	R1683A
1233.189	0.934	1297992	WORD_OFF	n/a	n/a	BOOKCASE	Furniture	10	9	[0, 0, 0]	n/a	catFR1	0	R1683A
1234.123	1.606	1298930	WORD	n/a	wordpools/wordpool_categorized_EN.txt	BATHROOM	Building	11	9	[0, 0, 0]	n/a	catFR1	0	R1683A
1235.729	0.776	1300532	WORD_OFF	n/a	n/a	BATHROOM	Building	11	9	[0, 0, 0]	n/a	catFR1	0	R1683A
1236.505	1.608	1301306	WORD	n/a	wordpools/wordpool_categorized_EN.txt	ROOF	Building	12	9	[0, 0, 0]	n/a	catFR1	0	R1683A
1238.113	0.003	1302920	WORD_OFF	n/a	n/a	ROOF	Building	12	9	[0, 0, 0]	n/a	catFR1	0	R1683A
1238.116	0.001	1302920	ENCODING_END	n/a	n/a	n/a	n/a	-999	9	[0, 0, 0]	n/a	catFR1	0	R1683A
1238.117	0.0	1302920	DISTRACT_START	n/a	n/a	n/a	n/a	-999	9	[0, 0, 0]	n/a	catFR1	0	R1683A
1238.113	0.004	1302922	PROB	0.004	n/a	n/a	n/a	-999	9	[2, 8, 7]	17	catFR1	0	R1683A
1238.117	4.154	1302926	START	n/a	n/a	n/a	n/a	-999	9	[-999, -999, -999]	n/a	catFR1	0	R1683A
1242.271	7.519	1307080	PROB	7.519	n/a	n/a	n/a	-999	9	[8, 7, 6]	21	catFR1	0	R1683A
1249.79	3.665	1314598	PROB	3.665	n/a	n/a	n/a	-999	9	[6, 4, 2]	12	catFR1	0	R1683A
1253.455	3.442	1318263	PROB	3.442	n/a	n/a	n/a	-999	9	[2, 2, 6]	10	catFR1	0	R1683A
1256.897	2.723	1321705	PROB	2.723	n/a	n/a	n/a	-999	9	[5, 5, 2]	12	catFR1	0	R1683A
1259.62	0.0	1324428	DISTRACT_END	n/a	n/a	n/a	n/a	-999	9	[0, 0, 0]	n/a	catFR1	0	R1683A
1259.62	2.077	1324428	STOP	n/a	n/a	n/a	n/a	-999	9	[-999, -999, -999]	n/a	catFR1	0	R1683A
1261.697	2.254	1326499	REC_START	n/a	n/a	n/a	n/a	-999	9	[0, 0, 0]	n/a	catFR1	0	R1683A
1263.951	1.001	1328759	REC_WORD	1.001	n/a	ROOF	Building	12	9	[0, 0, 0]	n/a	catFR1	0	R1683A
1264.952	1.0	1329760	REC_WORD	1.0	n/a	SCREWDRIVER	Tools	3	9	[0, 0, 0]	n/a	catFR1	0	R1683A
1265.952	5.988	1330760	REC_WORD_VV	5.988	n/a	<>	n/a	-999	9	[0, 0, 0]	n/a	catFR1	0	R1683A
1271.94	1.0	1336748	REC_WORD_VV	1.0	n/a	<>	n/a	-999	9	[0, 0, 0]	n/a	catFR1	0	R1683A
1272.94	3.552	1337748	REC_WORD_VV	3.552	n/a	<>	n/a	-999	9	[0, 0, 0]	n/a	catFR1	0	R1683A
1276.492	2.243	1341300	REC_WORD	2.243	n/a	SHOVEL	Tools	8	9	[0, 0, 0]	n/a	catFR1	0	R1683A
1278.735	6.963	1343543	REC_WORD	6.963	n/a	BATHTUB	n/a	-999	9	[0, 0, 0]	n/a	catFR1	0	R1683A
1285.698	1.0	1350506	REC_WORD_VV	1.0	n/a	<>	n/a	-999	9	[0, 0, 0]	n/a	catFR1	0	R1683A
1286.698	4.041	1351506	REC_WORD_VV	4.041	n/a	<>	n/a	-999	9	[0, 0, 0]	n/a	catFR1	0	R1683A
1290.739	1.095	1355547	REC_WORD_VV	1.095	n/a	<>	n/a	-999	9	[0, 0, 0]	n/a	catFR1	0	R1683A
1291.834	8.128	1356640	REC_END	n/a	n/a	n/a	n/a	-999	9	[0, 0, 0]	n/a	catFR1	0	R1683A
1299.962	10.342	1364773	COUNTDOWN_START	n/a	n/a	n/a	n/a	-999	9	[0, 0, 0]	n/a	catFR1	0	R1683A
1310.304	0.0	1375107	COUNTDOWN_END	n/a	n/a	n/a	n/a	-999	9	[0, 0, 0]	n/a	catFR1	0	R1683A
1310.304	2.158	1375107	ENCODING_START	n/a	n/a	n/a	n/a	-999	10	[0, 0, 0]	n/a	catFR1	0	R1683A
1312.462	1.61	1377265	WORD	n/a	wordpools/wordpool_categorized_EN.txt	SHELF	Furniture	1	10	[0, 0, 0]	n/a	catFR1	0	R1683A
1314.072	0.899	1378879	WORD_OFF	n/a	n/a	SHELF	Furniture	1	10	[0, 0, 0]	n/a	catFR1	0	R1683A
1314.971	1.601	1379772	WORD	n/a	wordpools/wordpool_categorized_EN.txt	COUCH	Furniture	2	10	[0, 0, 0]	n/a	catFR1	0	R1683A
1316.572	0.982	1381375	WORD_OFF	n/a	n/a	COUCH	Furniture	2	10	[0, 0, 0]	n/a	catFR1	0	R1683A
1317.554	1.601	1382356	WORD	n/a	wordpools/wordpool_categorized_EN.txt	CORKSCREW	KitchenTools	3	10	[0, 0, 0]	n/a	catFR1	0	R1683A
1319.155	0.973	1383958	WORD_OFF	n/a	n/a	CORKSCREW	KitchenTools	3	10	[0, 0, 0]	n/a	catFR1	0	R1683A
1320.128	1.6	1384929	WORD	n/a	wordpools/wordpool_categorized_EN.txt	TONGS	KitchenTools	4	10	[0, 0, 0]	n/a	catFR1	0	R1683A
1321.728	0.969	1386531	WORD_OFF	n/a	n/a	TONGS	KitchenTools	4	10	[0, 0, 0]	n/a	catFR1	0	R1683A
1322.697	1.599	1387501	WORD	n/a	wordpools/wordpool_categorized_EN.txt	HUMIDITY	Weather	5	10	[0, 0, 0]	n/a	catFR1	0	R1683A
1324.296	0.851	1389104	WORD_OFF	n/a	n/a	HUMIDITY	Weather	5	10	[0, 0, 0]	n/a	catFR1	0	R1683A
1325.147	1.606	1389954	WORD	n/a	wordpools/wordpool_categorized_EN.txt	FOG	Weather	6	10	[0, 0, 0]	n/a	catFR1	0	R1683A
1326.753	0.852	1391556	WORD_OFF	n/a	n/a	FOG	Weather	6	10	[0, 0, 0]	n/a	catFR1	0	R1683A
1327.605	1.608	1392407	WORD	n/a	wordpools/wordpool_categorized_EN.txt	COLANDER	KitchenTools	7	10	[0, 0, 0]	n/a	catFR1	0	R1683A
1329.213	0.867	1394020	WORD_OFF	n/a	n/a	COLANDER	KitchenTools	7	10	[0, 0, 0]	n/a	catFR1	0	R1683A
1330.08	1.6	1394881	WORD	n/a	wordpools/wordpool_categorized_EN.txt	LADLE	KitchenTools	8	10	[0, 0, 0]	n/a	catFR1	0	R1683A
1331.68	0.775	1396484	WORD_OFF	n/a	n/a	LADLE	KitchenTools	8	10	[0, 0, 0]	n/a	catFR1	0	R1683A
1332.455	1.607	1397258	WORD	n/a	wordpools/wordpool_categorized_EN.txt	TABLE	Furniture	9	10	[0, 0, 0]	n/a	catFR1	0	R1683A
1334.062	0.893	1398871	WORD_OFF	n/a	n/a	TABLE	Furniture	9	10	[0, 0, 0]	n/a	catFR1	0	R1683A
1334.955	1.608	1399754	WORD	n/a	wordpools/wordpool_categorized_EN.txt	RECLINER	Furniture	10	10	[0, 0, 0]	n/a	catFR1	0	R1683A
1336.563	0.79	1401367	WORD_OFF	n/a	n/a	RECLINER	Furniture	10	10	[0, 0, 0]	n/a	catFR1	0	R1683A
1337.353	1.601	1402152	WORD	n/a	wordpools/wordpool_categorized_EN.txt	TORNADO	Weather	11	10	[0, 0, 0]	n/a	catFR1	0	R1683A
1338.954	0.916	1403755	WORD_OFF	n/a	n/a	TORNADO	Weather	11	10	[0, 0, 0]	n/a	catFR1	0	R1683A
1339.87	1.602	1404670	WORD	n/a	wordpools/wordpool_categorized_EN.txt	CLOUD	Weather	12	10	[0, 0, 0]	n/a	catFR1	0	R1683A
1341.472	0.0	1406273	WORD_OFF	n/a	n/a	CLOUD	Weather	12	10	[0, 0, 0]	n/a	catFR1	0	R1683A
1341.471	0.003	1406279	PROB	0.003	n/a	n/a	n/a	-999	10	[3, 7, 8]	18	catFR1	0	R1683A
1341.474	0.0	1406282	START	n/a	n/a	n/a	n/a	-999	10	[-999, -999, -999]	n/a	catFR1	0	R1683A
1341.474	0.0	1406284	ENCODING_END	n/a	n/a	n/a	n/a	-999	10	[0, 0, 0]	n/a	catFR1	0	R1683A
1341.474	3.814	1406284	DISTRACT_START	n/a	n/a	n/a	n/a	-999	10	[0, 0, 0]	n/a	catFR1	0	R1683A
1345.288	3.674	1410096	PROB	3.674	n/a	n/a	n/a	-999	10	[3, 5, 5]	13	catFR1	0	R1683A
1348.962	4.625	1413770	PROB	4.625	n/a	n/a	n/a	-999	10	[1, 4, 8]	13	catFR1	0	R1683A
1353.587	4.01	1418395	PROB	4.01	n/a	n/a	n/a	-999	10	[1, 2, 3]	6	catFR1	0	R1683A
1357.597	7.973	1422405	PROB	7.973	n/a	n/a	n/a	-999	10	[7, 4, 2]	13	catFR1	0	R1683A
1365.57	0.0	1430375	DISTRACT_END	n/a	n/a	n/a	n/a	-999	10	[0, 0, 0]	n/a	catFR1	0	R1683A
1365.57	2.367	1430378	STOP	n/a	n/a	n/a	n/a	-999	10	[-999, -999, -999]	n/a	catFR1	0	R1683A
1367.937	0.873	1432741	REC_START	n/a	n/a	n/a	n/a	-999	10	[0, 0, 0]	n/a	catFR1	0	R1683A
1368.81	1.613	1433618	REC_WORD	1.613	n/a	TORNADO	Weather	11	10	[0, 0, 0]	n/a	catFR1	0	R1683A
1370.423	3.912	1435231	REC_WORD	3.912	n/a	CLOUD	Weather	12	10	[0, 0, 0]	n/a	catFR1	0	R1683A
1374.335	4.803	1439143	REC_WORD	4.803	n/a	DESK	Furniture	-999	10	[0, 0, 0]	n/a	catFR1	0	R1683A
1379.138	4.263	1443946	REC_WORD	4.263	n/a	CHAIR	Furniture	-999	10	[0, 0, 0]	n/a	catFR1	0	R1683A
1383.401	1.0	1448209	REC_WORD	1.0	n/a	CORKSCREW	KitchenTools	3	10	[0, 0, 0]	n/a	catFR1	0	R1683A
1384.401	4.3	1449209	REC_WORD_VV	4.3	n/a	<>	n/a	-999	10	[0, 0, 0]	n/a	catFR1	0	R1683A
1388.701	5.135	1453509	REC_WORD	5.135	n/a	COLANDER	KitchenTools	7	10	[0, 0, 0]	n/a	catFR1	0	R1683A
1393.836	1.0	1458644	REC_WORD_VV	1.0	n/a	<>	n/a	-999	10	[0, 0, 0]	n/a	catFR1	0	R1683A
1394.836	2.576	1459644	REC_WORD_VV	2.576	n/a	<>	n/a	-999	10	[0, 0, 0]	n/a	catFR1	0	R1683A
1397.412	0.658	1462220	REC_WORD_VV	0.658	n/a	<>	n/a	-999	10	[0, 0, 0]	n/a	catFR1	0	R1683A
1398.07	5.517	1462871	REC_END	n/a	n/a	n/a	n/a	-999	10	[0, 0, 0]	n/a	catFR1	0	R1683A
1403.587	10.343	1468387	COUNTDOWN_START	n/a	n/a	n/a	n/a	-999	10	[0, 0, 0]	n/a	catFR1	0	R1683A
1413.93	0.001	1478733	COUNTDOWN_END	n/a	n/a	n/a	n/a	-999	10	[0, 0, 0]	n/a	catFR1	0	R1683A
1413.931	1.883	1478733	ENCODING_START	n/a	n/a	n/a	n/a	-999	11	[0, 0, 0]	n/a	catFR1	0	R1683A
1415.814	1.608	1480618	WORD	n/a	wordpools/wordpool_categorized_EN.txt	COTTON	Fabric	1	11	[0, 0, 0]	n/a	catFR1	0	R1683A
1417.422	0.908	1482221	WORD_OFF	n/a	n/a	COTTON	Fabric	1	11	[0, 0, 0]	n/a	catFR1	0	R1683A
1418.33	1.6	1483137	WORD	n/a	wordpools/wordpool_categorized_EN.txt	LINEN	Fabric	2	11	[0, 0, 0]	n/a	catFR1	0	R1683A
1419.93	0.94	1484739	WORD_OFF	n/a	n/a	LINEN	Fabric	2	11	[0, 0, 0]	n/a	catFR1	0	R1683A
1420.87	1.6	1485677	WORD	n/a	wordpools/wordpool_categorized_EN.txt	CELLO	Instruments	3	11	[0, 0, 0]	n/a	catFR1	0	R1683A
1422.47	0.85	1487279	WORD_OFF	n/a	n/a	CELLO	Instruments	3	11	[0, 0, 0]	n/a	catFR1	0	R1683A
1423.32	1.61	1488129	WORD	n/a	wordpools/wordpool_categorized_EN.txt	PIANO	Instruments	4	11	[0, 0, 0]	n/a	catFR1	0	R1683A
1424.93	0.784	1489732	WORD_OFF	n/a	n/a	PIANO	Instruments	4	11	[0, 0, 0]	n/a	catFR1	0	R1683A
1425.714	1.599	1490517	WORD	n/a	wordpools/wordpool_categorized_EN.txt	DRIZZLE	Weather	5	11	[0, 0, 0]	n/a	catFR1	0	R1683A
1427.313	0.808	1492119	WORD_OFF	n/a	n/a	DRIZZLE	Weather	5	11	[0, 0, 0]	n/a	catFR1	0	R1683A
1428.121	1.609	1492926	WORD	n/a	wordpools/wordpool_categorized_EN.txt	WIND	Weather	6	11	[0, 0, 0]	n/a	catFR1	0	R1683A
1429.73	0.942	1494539	WORD_OFF	n/a	n/a	WIND	Weather	6	11	[0, 0, 0]	n/a	catFR1	0	R1683A
1430.672	1.607	1495477	WORD	n/a	wordpools/wordpool_categorized_EN.txt	TROMBONE	Instruments	7	11	[0, 0, 0]	n/a	catFR1	0	R1683A
1432.279	0.935	1497079	WORD_OFF	n/a	n/a	TROMBONE	Instruments	7	11	[0, 0, 0]	n/a	catFR1	0	R1683A
1433.214	1.6	1498017	WORD	n/a	wordpools/wordpool_categorized_EN.txt	DRUM	Instruments	8	11	[0, 0, 0]	n/a	catFR1	0	R1683A
1434.814	0.916	1499619	WORD_OFF	n/a	n/a	DRUM	Instruments	8	11	[0, 0, 0]	n/a	catFR1	0	R1683A
1435.73	1.6	1500535	WORD	n/a	wordpools/wordpool_categorized_EN.txt	RAIN	Weather	9	11	[0, 0, 0]	n/a	catFR1	0	R1683A
1437.33	0.849	1502137	WORD_OFF	n/a	n/a	RAIN	Weather	9	11	[0, 0, 0]	n/a	catFR1	0	R1683A
1438.179	1.6	1502987	WORD	n/a	wordpools/wordpool_categorized_EN.txt	THUNDERSTORM	Weather	10	11	[0, 0, 0]	n/a	catFR1	0	R1683A
1439.779	0.791	1504579	WORD_OFF	n/a	n/a	THUNDERSTORM	Weather	10	11	[0, 0, 0]	n/a	catFR1	0	R1683A
1440.57	1.602	1505375	WORD	n/a	wordpools/wordpool_categorized_EN.txt	WOOL	Fabric	11	11	[0, 0, 0]	n/a	catFR1	0	R1683A
1442.172	0.974	1506977	WORD_OFF	n/a	n/a	WOOL	Fabric	11	11	[0, 0, 0]	n/a	catFR1	0	R1683A
1443.146	1.6	1507947	WORD	n/a	wordpools/wordpool_categorized_EN.txt	FLEECE	Fabric	12	11	[0, 0, 0]	n/a	catFR1	0	R1683A
1444.746	0.003	1509550	WORD_OFF	n/a	n/a	FLEECE	Fabric	12	11	[0, 0, 0]	n/a	catFR1	0	R1683A
1444.749	0.0	1509550	ENCODING_END	n/a	n/a	n/a	n/a	-999	11	[0, 0, 0]	n/a	catFR1	0	R1683A
1444.749	0.0	1509550	DISTRACT_START	n/a	n/a	n/a	n/a	-999	11	[0, 0, 0]	n/a	catFR1	0	R1683A
1444.748	0.001	1509556	PROB	0.001	n/a	n/a	n/a	-999	11	[1, 8, 3]	12	catFR1	0	R1683A
1444.749	7.223	1509557	START	n/a	n/a	n/a	n/a	-999	11	[-999, -999, -999]	n/a	catFR1	0	R1683A
1451.972	4.757	1516780	PROB	4.757	n/a	n/a	n/a	-999	11	[4, 8, 4]	16	catFR1	0	R1683A
1456.729	3.642	1521537	PROB	3.642	n/a	n/a	n/a	-999	11	[7, 3, 2]	12	catFR1	0	R1683A
1460.371	4.141	1525179	PROB	4.141	n/a	n/a	n/a	-999	11	[4, 2, 8]	14	catFR1	0	R1683A
1464.512	2.991	1529320	PROB	2.991	n/a	n/a	n/a	-999	11	[8, 1, 2]	11	catFR1	0	R1683A
1467.503	0.0	1532311	DISTRACT_END	n/a	n/a	n/a	n/a	-999	11	[0, 0, 0]	n/a	catFR1	0	R1683A
1467.503	2.335	1532311	STOP	n/a	n/a	n/a	n/a	-999	11	[-999, -999, -999]	n/a	catFR1	0	R1683A
1469.838	1.126	1534644	REC_START	n/a	n/a	n/a	n/a	-999	11	[0, 0, 0]	n/a	catFR1	0	R1683A
1470.964	1.802	1535771	REC_WORD	1.802	n/a	WOOL	Fabric	11	11	[0, 0, 0]	n/a	catFR1	0	R1683A
1472.766	3.591	1537573	REC_WORD	3.591	n/a	FLEECE	Fabric	12	11	[0, 0, 0]	n/a	catFR1	0	R1683A
1476.357	1.309	1541164	REC_WORD_VV	1.309	n/a	<>	n/a	-999	11	[0, 0, 0]	n/a	catFR1	0	R1683A
1477.666	2.665	1542473	REC_WORD	2.665	n/a	THUNDERSTORM	Weather	10	11	[0, 0, 0]	n/a	catFR1	0	R1683A
1480.331	5.005	1545138	REC_WORD	5.005	n/a	TORNADO	Weather	-999	11	[0, 0, 0]	n/a	catFR1	0	R1683A
1485.336	8.815	1550143	REC_WORD	8.815	n/a	SWEATER	n/a	-999	11	[0, 0, 0]	n/a	catFR1	0	R1683A
1494.151	5.82	1558958	REC_WORD_VV	5.82	n/a	<>	n/a	-999	11	[0, 0, 0]	n/a	catFR1	0	R1683A
1499.971	4.115	1564775	REC_END	n/a	n/a	n/a	n/a	-999	11	[0, 0, 0]	n/a	catFR1	0	R1683A
1504.086	10.345	1568895	COUNTDOWN_START	n/a	n/a	n/a	n/a	-999	11	[0, 0, 0]	n/a	catFR1	0	R1683A
1514.431	0.0	1579230	COUNTDOWN_END	n/a	n/a	n/a	n/a	-999	11	[0, 0, 0]	n/a	catFR1	0	R1683A
1514.431	2.007	1579230	ENCODING_START	n/a	n/a	n/a	n/a	-999	12	[0, 0, 0]	n/a	catFR1	0	R1683A
1516.438	1.601	1581246	WORD	n/a	wordpools/wordpool_categorized_EN.txt	DENIM	Fabric	1	12	[0, 0, 0]	n/a	catFR1	0	R1683A
1518.039	0.975	1582838	WORD_OFF	n/a	n/a	DENIM	Fabric	1	12	[0, 0, 0]	n/a	catFR1	0	R1683A
1519.014	1.599	1583819	WORD	n/a	wordpools/wordpool_categorized_EN.txt	VELVET	Fabric	2	12	[0, 0, 0]	n/a	catFR1	0	R1683A
1520.613	0.893	1585421	WORD_OFF	n/a	n/a	VELVET	Fabric	2	12	[0, 0, 0]	n/a	catFR1	0	R1683A
1521.506	1.599	1586315	WORD	n/a	wordpools/wordpool_categorized_EN.txt	TUBA	Instruments	3	12	[0, 0, 0]	n/a	catFR1	0	R1683A
1523.105	0.873	1587907	WORD_OFF	n/a	n/a	TUBA	Instruments	3	12	[0, 0, 0]	n/a	catFR1	0	R1683A
1523.978	1.602	1588779	WORD	n/a	wordpools/wordpool_categorized_EN.txt	BANJO	Instruments	4	12	[0, 0, 0]	n/a	catFR1	0	R1683A
1525.58	0.857	1590381	WORD_OFF	n/a	n/a	BANJO	Instruments	4	12	[0, 0, 0]	n/a	catFR1	0	R1683A
1526.437	1.601	1591243	WORD	n/a	wordpools/wordpool_categorized_EN.txt	CREEK	Landscapes	5	12	[0, 0, 0]	n/a	catFR1	0	R1683A
1528.038	0.824	1592845	WORD_OFF	n/a	n/a	CREEK	Landscapes	5	12	[0, 0, 0]	n/a	catFR1	0	R1683A
1528.862	1.601	1593663	WORD	n/a	wordpools/wordpool_categorized_EN.txt	LAKE	Landscapes	6	12	[0, 0, 0]	n/a	catFR1	0	R1683A
1530.463	0.867	1595265	WORD_OFF	n/a	n/a	LAKE	Landscapes	6	12	[0, 0, 0]	n/a	catFR1	0	R1683A
1531.33	1.6	1596137	WORD	n/a	wordpools/wordpool_categorized_EN.txt	ORGAN	Instruments	7	12	[0, 0, 0]	n/a	catFR1	0	R1683A
1532.93	0.773	1597729	WORD_OFF	n/a	n/a	ORGAN	Instruments	7	12	[0, 0, 0]	n/a	catFR1	0	R1683A
1533.703	1.601	1598503	WORD	n/a	wordpools/wordpool_categorized_EN.txt	VIOLIN	Instruments	8	12	[0, 0, 0]	n/a	catFR1	0	R1683A
1535.304	1.001	1600105	WORD_OFF	n/a	n/a	VIOLIN	Instruments	8	12	[0, 0, 0]	n/a	catFR1	0	R1683A
1536.305	1.6	1601108	WORD	n/a	wordpools/wordpool_categorized_EN.txt	OCEAN	Landscapes	9	12	[0, 0, 0]	n/a	catFR1	0	R1683A
1537.905	0.957	1602711	WORD_OFF	n/a	n/a	OCEAN	Landscapes	9	12	[0, 0, 0]	n/a	catFR1	0	R1683A
1538.862	1.6	1603670	WORD	n/a	wordpools/wordpool_categorized_EN.txt	WOODS	Landscapes	10	12	[0, 0, 0]	n/a	catFR1	0	R1683A
1540.462	0.768	1605261	WORD_OFF	n/a	n/a	WOODS	Landscapes	10	12	[0, 0, 0]	n/a	catFR1	0	R1683A
1541.23	1.6	1606035	WORD	n/a	wordpools/wordpool_categorized_EN.txt	SILK	Fabric	11	12	[0, 0, 0]	n/a	catFR1	0	R1683A
1542.83	0.958	1607638	WORD_OFF	n/a	n/a	SILK	Fabric	11	12	[0, 0, 0]	n/a	catFR1	0	R1683A
1543.788	1.6	1608597	WORD	n/a	wordpools/wordpool_categorized_EN.txt	SUEDE	Fabric	12	12	[0, 0, 0]	n/a	catFR1	0	R1683A
1545.388	0.0	1610189	WORD_OFF	n/a	n/a	SUEDE	Fabric	12	12	[0, 0, 0]	n/a	catFR1	0	R1683A
1545.388	0.004	1610195	PROB	0.004	n/a	n/a	n/a	-999	12	[4, 4, 4]	12	catFR1	0	R1683A
1545.392	0.0	1610199	START	n/a	n/a	n/a	n/a	-999	12	[-999, -999, -999]	n/a	catFR1	0	R1683A
1545.392	0.0	1610200	ENCODING_END	n/a	n/a	n/a	n/a	-999	12	[0, 0, 0]	n/a	catFR1	0	R1683A
1545.392	4.37	1610200	DISTRACT_START	n/a	n/a	n/a	n/a	-999	12	[0, 0, 0]	n/a	catFR1	0	R1683A
1549.762	3.975	1614569	PROB	3.975	n/a	n/a	n/a	-999	12	[8, 1, 1]	10	catFR1	0	R1683A
1553.737	3.227	1618544	PROB	3.227	n/a	n/a	n/a	-999	12	[6, 4, 1]	11	catFR1	0	R1683A
1556.964	4.865	1621771	PROB	4.865	n/a	n/a	n/a	-999	12	[4, 2, 5]	11	catFR1	0	R1683A
1561.829	4.791	1626636	PROB	4.791	n/a	n/a	n/a	-999	12	[6, 1, 2]	9	catFR1	0	R1683A
1566.62	0.0	1631424	DISTRACT_END	n/a	n/a	n/a	n/a	-999	12	[0, 0, 0]	n/a	catFR1	0	R1683A
1566.62	2.184	1631427	STOP	n/a	n/a	n/a	n/a	-999	12	[-999, -999, -999]	n/a	catFR1	0	R1683A
1568.804	2.32	1633604	REC_START	n/a	n/a	n/a	n/a	-999	12	[0, 0, 0]	n/a	catFR1	0	R1683A
1571.124	1.758	1635931	REC_WORD	1.758	n/a	SUEDE	Fabric	12	12	[0, 0, 0]	n/a	catFR1	0	R1683A
1572.882	1.256	1637689	REC_WORD	1.256	n/a	BANJO	Instruments	4	12	[0, 0, 0]	n/a	catFR1	0	R1683A
1574.138	4.946	1638945	REC_WORD	4.946	n/a	VIOLIN	Instruments	8	12	[0, 0, 0]	n/a	catFR1	0	R1683A
1579.084	0.3	1643891	REC_WORD_VV	0.3	n/a	<>	n/a	-999	12	[0, 0, 0]	n/a	catFR1	0	R1683A
1579.384	5.425	1644191	REC_WORD	5.425	n/a	VELVET	Fabric	2	12	[0, 0, 0]	n/a	catFR1	0	R1683A
1584.809	8.06	1649616	REC_WORD	8.06	n/a	TROMBONE	Instruments	-999	12	[0, 0, 0]	n/a	catFR1	0	R1683A
1592.869	3.45	1657676	REC_WORD	3.45	n/a	CREEK	Landscapes	5	12	[0, 0, 0]	n/a	catFR1	0	R1683A
1596.319	1.0	1661126	REC_WORD_VV	1.0	n/a	<>	n/a	-999	12	[0, 0, 0]	n/a	catFR1	0	R1683A
1597.319	1.617	1662126	REC_WORD_VV	1.617	n/a	<>	n/a	-999	12	[0, 0, 0]	n/a	catFR1	0	R1683A
1598.936	0.0	1663735	REC_END	n/a	n/a	n/a	n/a	-999	12	[0, 0, 0]	n/a	catFR1	0	R1683A
