onset	duration	sample	trial_type	response_time	stim_file	item_name	category	serialpos	list	test	answer	experiment	session	subject
0.0	3.749	30752	INSTRUCT_START	n/a	n/a	n/a	n/a	-999	-999	[0, 0, 0]	n/a	catFR1	3	R1469D
3.749	19.732	34495	INSTRUCT_END	n/a	n/a	n/a	n/a	-999	-999	[0, 0, 0]	n/a	catFR1	3	R1469D
23.481	10.351	54229	COUNTDOWN_START	n/a	n/a	n/a	n/a	-999	-999	[0, 0, 0]	n/a	catFR1	3	R1469D
33.832	0.0	64574	COUNTDOWN_END	n/a	n/a	n/a	n/a	-999	-999	[0, 0, 0]	n/a	catFR1	3	R1469D
33.832	2.25	64586	ENCODING_START	n/a	n/a	n/a	n/a	-999	-1	[0, 0, 0]	n/a	catFR1	3	R1469D
36.082	1.616	66830	WORD	n/a	n/a	STREAM	Landscapes	1	-1	[0, 0, 0]	n/a	catFR1	3	R1469D
37.698	0.849	68447	WORD_OFF	n/a	n/a	STREAM	Landscapes	1	-1	[0, 0, 0]	n/a	catFR1	3	R1469D
38.547	1.601	69298	WORD	n/a	n/a	OCEAN	Landscapes	2	-1	[0, 0, 0]	n/a	catFR1	3	R1469D
40.148	0.9	70892	WORD_OFF	n/a	n/a	OCEAN	Landscapes	2	-1	[0, 0, 0]	n/a	catFR1	3	R1469D
41.048	1.6	71790	WORD	n/a	n/a	CYPRESS	Trees	3	-1	[0, 0, 0]	n/a	catFR1	3	R1469D
42.648	0.816	73396	WORD_OFF	n/a	n/a	CYPRESS	Trees	3	-1	[0, 0, 0]	n/a	catFR1	3	R1469D
43.464	1.617	74211	WORD	n/a	n/a	WALNUT	Trees	4	-1	[0, 0, 0]	n/a	catFR1	3	R1469D
45.081	0.767	75828	WORD_OFF	n/a	n/a	WALNUT	Trees	4	-1	[0, 0, 0]	n/a	catFR1	3	R1469D
45.848	1.615	76596	WORD	n/a	n/a	BLUEBIRD	Birds	5	-1	[0, 0, 0]	n/a	catFR1	3	R1469D
47.463	0.985	78202	WORD_OFF	n/a	n/a	BLUEBIRD	Birds	5	-1	[0, 0, 0]	n/a	catFR1	3	R1469D
48.448	1.6	79194	WORD	n/a	n/a	CROW	Birds	6	-1	[0, 0, 0]	n/a	catFR1	3	R1469D
50.048	0.8	80788	WORD_OFF	n/a	n/a	CROW	Birds	6	-1	[0, 0, 0]	n/a	catFR1	3	R1469D
50.848	1.6	81591	WORD	n/a	n/a	FOREST	Landscapes	7	-1	[0, 0, 0]	n/a	catFR1	3	R1469D
52.448	0.933	83198	WORD_OFF	n/a	n/a	FOREST	Landscapes	7	-1	[0, 0, 0]	n/a	catFR1	3	R1469D
53.381	1.617	84131	WORD	n/a	n/a	ISLAND	Landscapes	8	-1	[0, 0, 0]	n/a	catFR1	3	R1469D
54.998	0.933	85737	WORD_OFF	n/a	n/a	ISLAND	Landscapes	8	-1	[0, 0, 0]	n/a	catFR1	3	R1469D
55.931	1.615	86670	WORD	n/a	n/a	DUCK	Birds	9	-1	[0, 0, 0]	n/a	catFR1	3	R1469D
57.546	0.835	88287	WORD_OFF	n/a	n/a	DUCK	Birds	9	-1	[0, 0, 0]	n/a	catFR1	3	R1469D
58.381	1.6	89126	WORD	n/a	n/a	GOOSE	Birds	10	-1	[0, 0, 0]	n/a	catFR1	3	R1469D
59.981	0.883	90720	WORD_OFF	n/a	n/a	GOOSE	Birds	10	-1	[0, 0, 0]	n/a	catFR1	3	R1469D
60.864	1.617	91606	WORD	n/a	n/a	EVERGREEN	Trees	11	-1	[0, 0, 0]	n/a	catFR1	3	R1469D
62.481	0.933	93224	WORD_OFF	n/a	n/a	EVERGREEN	Trees	11	-1	[0, 0, 0]	n/a	catFR1	3	R1469D
63.414	1.602	94157	WORD	n/a	n/a	ELM	Trees	12	-1	[0, 0, 0]	n/a	catFR1	3	R1469D
65.016	0.0	95759	START	n/a	n/a	n/a	n/a	-999	-1	[-999, -999, -999]	n/a	catFR1	3	R1469D
65.016	0.0	95759	PROB	4.283	n/a	n/a	n/a	-999	-1	[8, 7, 3]	18.0	catFR1	3	R1469D
65.014	0.002	95763	WORD_OFF	n/a	n/a	ELM	Trees	12	-1	[0, 0, 0]	n/a	catFR1	3	R1469D
65.016	0.0	95763	ENCODING_END	n/a	n/a	n/a	n/a	-999	-1	[0, 0, 0]	n/a	catFR1	3	R1469D
65.016	4.297	95763	DISTRACT_START	n/a	n/a	n/a	n/a	-999	-1	[0, 0, 0]	n/a	catFR1	3	R1469D
69.313	2.117	100056	PROB	2.1	n/a	n/a	n/a	-999	-1	[1, 1, 2]	4.0	catFR1	3	R1469D
71.43	3.851	102172	PROB	3.833	n/a	n/a	n/a	-999	-1	[7, 7, 6]	22.0	catFR1	3	R1469D
75.281	3.684	106023	PROB	3.666	n/a	n/a	n/a	-999	-1	[8, 4, 4]	16.0	catFR1	3	R1469D
78.965	4.1	109707	PROB	4.083	n/a	n/a	n/a	-999	-1	[7, 8, 4]	19.0	catFR1	3	R1469D
83.065	3.133	113807	PROB	3.116	n/a	n/a	n/a	-999	-1	[3, 4, 7]	14.0	catFR1	3	R1469D
86.198	0.0	116937	DISTRACT_END	n/a	n/a	n/a	n/a	-999	-1	[0, 0, 0]	n/a	catFR1	3	R1469D
86.198	2.132	116940	STOP	n/a	n/a	n/a	n/a	-999	-1	[-999, -999, -999]	n/a	catFR1	3	R1469D
88.33	1.111	119071	REC_START	n/a	n/a	n/a	n/a	-999	-1	[0, 0, 0]	n/a	catFR1	3	R1469D
89.441	0.679	120182	REC_WORD_VV	1.111	n/a	<>	n/a	-999	-1	[0, 0, 0]	n/a	catFR1	3	R1469D
90.12	0.88	120861	REC_WORD	1.79	n/a	CYPRESS	Trees	3	-1	[0, 0, 0]	n/a	catFR1	3	R1469D
91.0	0.855	121741	REC_WORD	2.67	n/a	WALNUT	Trees	4	-1	[0, 0, 0]	n/a	catFR1	3	R1469D
91.855	2.381	122596	REC_WORD	3.525	n/a	EVERGREEN	Trees	11	-1	[0, 0, 0]	n/a	catFR1	3	R1469D
94.236	0.807	124977	REC_WORD_VV	5.906	n/a	<>	n/a	-999	-1	[0, 0, 0]	n/a	catFR1	3	R1469D
95.043	1.678	125784	REC_WORD	6.713	n/a	OCEAN	Landscapes	2	-1	[0, 0, 0]	n/a	catFR1	3	R1469D
96.721	1.887	127462	REC_WORD	8.391	n/a	STREAM	Landscapes	1	-1	[0, 0, 0]	n/a	catFR1	3	R1469D
98.608	1.073	129349	REC_WORD	10.278	n/a	FOREST	Landscapes	7	-1	[0, 0, 0]	n/a	catFR1	3	R1469D
99.681	2.436	130422	REC_WORD	11.351	n/a	ISLAND	Landscapes	8	-1	[0, 0, 0]	n/a	catFR1	3	R1469D
102.117	2.415	132858	REC_WORD_VV	13.787	n/a	<>	n/a	-999	-1	[0, 0, 0]	n/a	catFR1	3	R1469D
104.532	8.068	135273	REC_WORD	16.202	n/a	DUCK	Birds	9	-1	[0, 0, 0]	n/a	catFR1	3	R1469D
112.6	1.0	143340	REC_WORD_VV	24.27	n/a	<>	n/a	-999	-1	[0, 0, 0]	n/a	catFR1	3	R1469D
113.6	1.829	144340	REC_WORD_VV	25.27	n/a	<>	n/a	-999	-1	[0, 0, 0]	n/a	catFR1	3	R1469D
115.429	1.0	146169	REC_WORD_VV	27.099	n/a	<>	n/a	-999	-1	[0, 0, 0]	n/a	catFR1	3	R1469D
116.429	2.101	147169	REC_WORD_VV	28.099	n/a	<>	n/a	-999	-1	[0, 0, 0]	n/a	catFR1	3	R1469D
118.53	18.417	149272	REC_END	n/a	n/a	n/a	n/a	-999	-1	[0, 0, 0]	n/a	catFR1	3	R1469D
136.947	10.351	167695	COUNTDOWN_START	n/a	n/a	n/a	n/a	-999	1	[0, 0, 0]	n/a	catFR1	3	R1469D
147.298	0.0	178040	COUNTDOWN_END	n/a	n/a	n/a	n/a	-999	1	[0, 0, 0]	n/a	catFR1	3	R1469D
147.298	2.15	178040	ENCODING_START	n/a	n/a	n/a	n/a	-999	1	[0, 0, 0]	n/a	catFR1	3	R1469D
149.448	1.616	180189	WORD	n/a	wordpools/wordpool_categorized_EN.txt	HUMIDITY	Weather	1	1	[0, 0, 0]	n/a	catFR1	3	R1469D
151.064	0.983	181807	WORD_OFF	n/a	n/a	HUMIDITY	Weather	1	1	[0, 0, 0]	n/a	catFR1	3	R1469D
152.047	1.6	182787	WORD	n/a	wordpools/wordpool_categorized_EN.txt	THUNDER	Weather	2	1	[0, 0, 0]	n/a	catFR1	3	R1469D
153.647	0.917	184381	WORD_OFF	n/a	n/a	THUNDER	Weather	2	1	[0, 0, 0]	n/a	catFR1	3	R1469D
154.564	1.617	185303	WORD	n/a	wordpools/wordpool_categorized_EN.txt	GRAPE	Fruit	3	1	[0, 0, 0]	n/a	catFR1	3	R1469D
156.181	0.917	186921	WORD_OFF	n/a	n/a	GRAPE	Fruit	3	1	[0, 0, 0]	n/a	catFR1	3	R1469D
157.098	1.615	187842	WORD	n/a	wordpools/wordpool_categorized_EN.txt	PEACH	Fruit	4	1	[0, 0, 0]	n/a	catFR1	3	R1469D
158.713	0.968	189448	WORD_OFF	n/a	n/a	PEACH	Fruit	4	1	[0, 0, 0]	n/a	catFR1	3	R1469D
159.681	1.617	190416	WORD	n/a	wordpools/wordpool_categorized_EN.txt	BARBIE	Toys	5	1	[0, 0, 0]	n/a	catFR1	3	R1469D
161.298	0.95	192034	WORD_OFF	n/a	n/a	BARBIE	Toys	5	1	[0, 0, 0]	n/a	catFR1	3	R1469D
162.248	1.616	192991	WORD	n/a	wordpools/wordpool_categorized_EN.txt	DOLL	Toys	6	1	[0, 0, 0]	n/a	catFR1	3	R1469D
163.864	0.983	194609	WORD_OFF	n/a	n/a	DOLL	Toys	6	1	[0, 0, 0]	n/a	catFR1	3	R1469D
164.847	1.6	195589	WORD	n/a	wordpools/wordpool_categorized_EN.txt	STRAWBERRY	Fruit	7	1	[0, 0, 0]	n/a	catFR1	3	R1469D
166.447	0.767	197183	WORD_OFF	n/a	n/a	STRAWBERRY	Fruit	7	1	[0, 0, 0]	n/a	catFR1	3	R1469D
167.214	1.617	197951	WORD	n/a	wordpools/wordpool_categorized_EN.txt	ORANGE	Fruit	8	1	[0, 0, 0]	n/a	catFR1	3	R1469D
168.831	0.9	199569	WORD_OFF	n/a	n/a	ORANGE	Fruit	8	1	[0, 0, 0]	n/a	catFR1	3	R1469D
169.731	1.6	200466	WORD	n/a	wordpools/wordpool_categorized_EN.txt	DOLLHOUSE	Toys	9	1	[0, 0, 0]	n/a	catFR1	3	R1469D
171.331	0.867	202072	WORD_OFF	n/a	n/a	DOLLHOUSE	Toys	9	1	[0, 0, 0]	n/a	catFR1	3	R1469D
172.198	1.6	202934	WORD	n/a	wordpools/wordpool_categorized_EN.txt	SLINKY	Toys	10	1	[0, 0, 0]	n/a	catFR1	3	R1469D
173.798	0.9	204540	WORD_OFF	n/a	n/a	SLINKY	Toys	10	1	[0, 0, 0]	n/a	catFR1	3	R1469D
174.698	1.616	205438	WORD	n/a	wordpools/wordpool_categorized_EN.txt	FOG	Weather	11	1	[0, 0, 0]	n/a	catFR1	3	R1469D
176.314	0.817	207056	WORD_OFF	n/a	n/a	FOG	Weather	11	1	[0, 0, 0]	n/a	catFR1	3	R1469D
177.131	1.6	207871	WORD	n/a	wordpools/wordpool_categorized_EN.txt	WIND	Weather	12	1	[0, 0, 0]	n/a	catFR1	3	R1469D
178.731	0.001	209465	WORD_OFF	n/a	n/a	WIND	Weather	12	1	[0, 0, 0]	n/a	catFR1	3	R1469D
178.732	0.001	209469	PROB	3.783	n/a	n/a	n/a	-999	1	[8, 2, 8]	18.0	catFR1	3	R1469D
178.733	0.0	209470	START	n/a	n/a	n/a	n/a	-999	1	[-999, -999, -999]	n/a	catFR1	3	R1469D
178.733	0.0	209477	ENCODING_END	n/a	n/a	n/a	n/a	-999	1	[0, 0, 0]	n/a	catFR1	3	R1469D
178.733	3.799	209477	DISTRACT_START	n/a	n/a	n/a	n/a	-999	1	[0, 0, 0]	n/a	catFR1	3	R1469D
182.532	3.216	213268	PROB	3.199	n/a	n/a	n/a	-999	1	[5, 6, 8]	19.0	catFR1	3	R1469D
185.748	3.366	216484	PROB	3.349	n/a	n/a	n/a	-999	1	[8, 4, 6]	18.0	catFR1	3	R1469D
189.114	4.184	219850	PROB	4.167	n/a	n/a	n/a	-999	1	[3, 6, 4]	13.0	catFR1	3	R1469D
193.298	3.166	224034	PROB	3.148	n/a	n/a	n/a	-999	1	[6, 2, 8]	16.0	catFR1	3	R1469D
196.464	3.183	227200	PROB	3.167	n/a	n/a	n/a	-999	1	[2, 5, 3]	10.0	catFR1	3	R1469D
199.647	0.0	230380	DISTRACT_END	n/a	n/a	n/a	n/a	-999	1	[0, 0, 0]	n/a	catFR1	3	R1469D
199.647	2.383	230383	STOP	n/a	n/a	n/a	n/a	-999	1	[-999, -999, -999]	n/a	catFR1	3	R1469D
202.03	0.573	232761	REC_START	n/a	n/a	n/a	n/a	-999	1	[0, 0, 0]	n/a	catFR1	3	R1469D
202.603	0.855	233338	REC_WORD_VV	0.573	n/a	<>	n/a	-999	1	[0, 0, 0]	n/a	catFR1	3	R1469D
203.458	0.849	234193	REC_WORD	1.428	n/a	BARBIE	Toys	5	1	[0, 0, 0]	n/a	catFR1	3	R1469D
204.307	0.823	235042	REC_WORD	2.277	n/a	DOLL	Toys	6	1	[0, 0, 0]	n/a	catFR1	3	R1469D
205.13	1.195	235865	REC_WORD	3.1	n/a	DOLLHOUSE	Toys	9	1	[0, 0, 0]	n/a	catFR1	3	R1469D
206.325	1.27	237060	REC_WORD	4.295	n/a	SLINKY	Toys	10	1	[0, 0, 0]	n/a	catFR1	3	R1469D
207.595	1.102	238330	REC_WORD	5.565	n/a	THUNDER	Weather	2	1	[0, 0, 0]	n/a	catFR1	3	R1469D
208.697	1.914	239432	REC_WORD	6.667	n/a	FOG	Weather	11	1	[0, 0, 0]	n/a	catFR1	3	R1469D
210.611	5.138	241346	REC_WORD_VV	8.581	n/a	<>	n/a	-999	1	[0, 0, 0]	n/a	catFR1	3	R1469D
215.749	1.0	246484	REC_WORD	13.719	n/a	PEACH	Fruit	4	1	[0, 0, 0]	n/a	catFR1	3	R1469D
216.749	8.078	247484	REC_WORD_VV	14.719	n/a	<>	n/a	-999	1	[0, 0, 0]	n/a	catFR1	3	R1469D
224.827	0.604	255561	REC_WORD	22.797	n/a	THUNDER	Weather	2	1	[0, 0, 0]	n/a	catFR1	3	R1469D
225.431	0.637	256165	REC_WORD	23.401	n/a	LIGHTNING	n/a	-999	1	[0, 0, 0]	n/a	catFR1	3	R1469D
226.068	3.174	256802	REC_WORD	24.038	n/a	FOG	Weather	11	1	[0, 0, 0]	n/a	catFR1	3	R1469D
229.242	2.981	259976	REC_WORD	27.212	n/a	WIND	Weather	12	1	[0, 0, 0]	n/a	catFR1	3	R1469D
232.223	12.608	262962	REC_END	n/a	n/a	n/a	n/a	-999	1	[0, 0, 0]	n/a	catFR1	3	R1469D
244.831	10.349	275563	COUNTDOWN_START	n/a	n/a	n/a	n/a	-999	2	[0, 0, 0]	n/a	catFR1	3	R1469D
255.18	0.0	285908	COUNTDOWN_END	n/a	n/a	n/a	n/a	-999	2	[0, 0, 0]	n/a	catFR1	3	R1469D
255.18	1.867	285920	ENCODING_START	n/a	n/a	n/a	n/a	-999	2	[0, 0, 0]	n/a	catFR1	3	R1469D
257.047	1.6	287786	WORD	n/a	wordpools/wordpool_categorized_EN.txt	SOFA	Furniture	1	2	[0, 0, 0]	n/a	catFR1	3	R1469D
258.647	0.917	289380	WORD_OFF	n/a	n/a	SOFA	Furniture	1	2	[0, 0, 0]	n/a	catFR1	3	R1469D
259.564	1.6	290301	WORD	n/a	wordpools/wordpool_categorized_EN.txt	DRESSER	Furniture	2	2	[0, 0, 0]	n/a	catFR1	3	R1469D
261.164	0.917	291895	WORD_OFF	n/a	n/a	DRESSER	Furniture	2	2	[0, 0, 0]	n/a	catFR1	3	R1469D
262.081	1.6	292816	WORD	n/a	wordpools/wordpool_categorized_EN.txt	PLIERS	Tools	3	2	[0, 0, 0]	n/a	catFR1	3	R1469D
263.681	0.866	294411	WORD_OFF	n/a	n/a	PLIERS	Tools	3	2	[0, 0, 0]	n/a	catFR1	3	R1469D
264.547	1.601	295285	WORD	n/a	wordpools/wordpool_categorized_EN.txt	CROWBAR	Tools	4	2	[0, 0, 0]	n/a	catFR1	3	R1469D
266.148	0.766	296879	WORD_OFF	n/a	n/a	CROWBAR	Tools	4	2	[0, 0, 0]	n/a	catFR1	3	R1469D
266.914	1.601	297647	WORD	n/a	wordpools/wordpool_categorized_EN.txt	LAKE	Landscapes	5	2	[0, 0, 0]	n/a	catFR1	3	R1469D
268.515	0.966	299253	WORD_OFF	n/a	n/a	LAKE	Landscapes	5	2	[0, 0, 0]	n/a	catFR1	3	R1469D
269.481	1.617	300209	WORD	n/a	wordpools/wordpool_categorized_EN.txt	BEACH	Landscapes	6	2	[0, 0, 0]	n/a	catFR1	3	R1469D
271.098	0.899	301827	WORD_OFF	n/a	n/a	BEACH	Landscapes	6	2	[0, 0, 0]	n/a	catFR1	3	R1469D
271.997	1.616	302725	WORD	n/a	wordpools/wordpool_categorized_EN.txt	SCREWDRIVER	Tools	7	2	[0, 0, 0]	n/a	catFR1	3	R1469D
273.613	0.867	304343	WORD_OFF	n/a	n/a	SCREWDRIVER	Tools	7	2	[0, 0, 0]	n/a	catFR1	3	R1469D
274.48	1.601	305216	WORD	n/a	wordpools/wordpool_categorized_EN.txt	SHOVEL	Tools	8	2	[0, 0, 0]	n/a	catFR1	3	R1469D
276.081	0.816	306811	WORD_OFF	n/a	n/a	SHOVEL	Tools	8	2	[0, 0, 0]	n/a	catFR1	3	R1469D
276.897	1.601	307626	WORD	n/a	wordpools/wordpool_categorized_EN.txt	HILLS	Landscapes	9	2	[0, 0, 0]	n/a	catFR1	3	R1469D
278.498	0.883	309232	WORD_OFF	n/a	n/a	HILLS	Landscapes	9	2	[0, 0, 0]	n/a	catFR1	3	R1469D
279.381	1.617	310117	WORD	n/a	wordpools/wordpool_categorized_EN.txt	VALLEY	Landscapes	10	2	[0, 0, 0]	n/a	catFR1	3	R1469D
280.998	0.833	311735	WORD_OFF	n/a	n/a	VALLEY	Landscapes	10	2	[0, 0, 0]	n/a	catFR1	3	R1469D
281.831	1.616	312562	WORD	n/a	wordpools/wordpool_categorized_EN.txt	BOOKCASE	Furniture	11	2	[0, 0, 0]	n/a	catFR1	3	R1469D
283.447	0.834	314180	WORD_OFF	n/a	n/a	BOOKCASE	Furniture	11	2	[0, 0, 0]	n/a	catFR1	3	R1469D
284.281	1.6	315018	WORD	n/a	wordpools/wordpool_categorized_EN.txt	NIGHTSTAND	Furniture	12	2	[0, 0, 0]	n/a	catFR1	3	R1469D
285.881	0.002	316613	WORD_OFF	n/a	n/a	NIGHTSTAND	Furniture	12	2	[0, 0, 0]	n/a	catFR1	3	R1469D
285.883	0.0	316613	ENCODING_END	n/a	n/a	n/a	n/a	-999	2	[0, 0, 0]	n/a	catFR1	3	R1469D
285.883	0.0	316613	DISTRACT_START	n/a	n/a	n/a	n/a	-999	2	[0, 0, 0]	n/a	catFR1	3	R1469D
285.882	0.001	316613	PROB	4.416	n/a	n/a	n/a	-999	2	[5, 7, 2]	14.0	catFR1	3	R1469D
285.883	4.432	316614	START	n/a	n/a	n/a	n/a	-999	2	[-999, -999, -999]	n/a	catFR1	3	R1469D
290.315	7.549	321046	PROB	7.533	n/a	n/a	n/a	-999	2	[7, 6, 8]	22.0	catFR1	3	R1469D
297.864	4.468	328594	PROB	4.45	n/a	n/a	n/a	-999	2	[6, 4, 7]	17.0	catFR1	3	R1469D
302.332	3.049	333062	PROB	3.033	n/a	n/a	n/a	-999	2	[4, 3, 3]	10.0	catFR1	3	R1469D
305.381	3.5	336111	PROB	3.483	n/a	n/a	n/a	-999	2	[4, 7, 8]	19.0	catFR1	3	R1469D
308.881	0.0	339611	STOP	n/a	n/a	n/a	n/a	-999	2	[-999, -999, -999]	n/a	catFR1	3	R1469D
308.881	2.05	339618	DISTRACT_END	n/a	n/a	n/a	n/a	-999	2	[0, 0, 0]	n/a	catFR1	3	R1469D
310.931	0.384	341657	REC_START	n/a	n/a	n/a	n/a	-999	2	[0, 0, 0]	n/a	catFR1	3	R1469D
311.315	1.0	342045	REC_WORD_VV	0.384	n/a	<>	n/a	-999	2	[0, 0, 0]	n/a	catFR1	3	R1469D
312.315	1.159	343045	REC_WORD_VV	1.384	n/a	<>	n/a	-999	2	[0, 0, 0]	n/a	catFR1	3	R1469D
313.474	0.932	344203	REC_WORD	2.543	n/a	SOFA	Furniture	1	2	[0, 0, 0]	n/a	catFR1	3	R1469D
314.406	2.526	345135	REC_WORD	3.475	n/a	NIGHTSTAND	Furniture	12	2	[0, 0, 0]	n/a	catFR1	3	R1469D
316.932	2.026	347661	REC_WORD	6.001	n/a	CROWBAR	Tools	4	2	[0, 0, 0]	n/a	catFR1	3	R1469D
318.958	1.127	349687	REC_WORD	8.027	n/a	PLIERS	Tools	3	2	[0, 0, 0]	n/a	catFR1	3	R1469D
320.085	1.52	350814	REC_WORD	9.154	n/a	SHOVEL	Tools	8	2	[0, 0, 0]	n/a	catFR1	3	R1469D
321.605	6.252	352334	REC_WORD_VV	10.674	n/a	<>	n/a	-999	2	[0, 0, 0]	n/a	catFR1	3	R1469D
327.857	2.043	358586	REC_WORD	16.926	n/a	OCEAN	Landscapes	-999	2	[0, 0, 0]	n/a	catFR1	3	R1469D
329.9	11.234	360629	REC_WORD	18.969	n/a	ISLAND	Landscapes	-999	2	[0, 0, 0]	n/a	catFR1	3	R1469D
341.134	15.496	371869	REC_END	n/a	n/a	n/a	n/a	-999	2	[0, 0, 0]	n/a	catFR1	3	R1469D
356.63	10.351	387363	COUNTDOWN_START	n/a	n/a	n/a	n/a	-999	3	[0, 0, 0]	n/a	catFR1	3	R1469D
366.981	0.0	397709	COUNTDOWN_END	n/a	n/a	n/a	n/a	-999	3	[0, 0, 0]	n/a	catFR1	3	R1469D
366.981	2.184	397709	ENCODING_START	n/a	n/a	n/a	n/a	-999	3	[0, 0, 0]	n/a	catFR1	3	R1469D
369.165	1.616	399893	WORD	n/a	wordpools/wordpool_categorized_EN.txt	ROBIN	Birds	1	3	[0, 0, 0]	n/a	catFR1	3	R1469D
370.781	0.8	401511	WORD_OFF	n/a	n/a	ROBIN	Birds	1	3	[0, 0, 0]	n/a	catFR1	3	R1469D
371.581	1.6	402314	WORD	n/a	wordpools/wordpool_categorized_EN.txt	SEAGULL	Birds	2	3	[0, 0, 0]	n/a	catFR1	3	R1469D
373.181	0.783	403909	WORD_OFF	n/a	n/a	SEAGULL	Birds	2	3	[0, 0, 0]	n/a	catFR1	3	R1469D
373.964	1.6	404688	WORD	n/a	wordpools/wordpool_categorized_EN.txt	FOUNDATION	Building	3	3	[0, 0, 0]	n/a	catFR1	3	R1469D
375.564	0.883	406294	WORD_OFF	n/a	n/a	FOUNDATION	Building	3	3	[0, 0, 0]	n/a	catFR1	3	R1469D
376.447	1.601	407180	WORD	n/a	wordpools/wordpool_categorized_EN.txt	WALL	Building	4	3	[0, 0, 0]	n/a	catFR1	3	R1469D
378.048	0.916	408774	WORD_OFF	n/a	n/a	WALL	Building	4	3	[0, 0, 0]	n/a	catFR1	3	R1469D
378.964	1.6	409695	WORD	n/a	wordpools/wordpool_categorized_EN.txt	LIGHTNING	Weather	5	3	[0, 0, 0]	n/a	catFR1	3	R1469D
380.564	0.799	411290	WORD_OFF	n/a	n/a	LIGHTNING	Weather	5	3	[0, 0, 0]	n/a	catFR1	3	R1469D
381.363	1.601	412093	WORD	n/a	wordpools/wordpool_categorized_EN.txt	SNOW	Weather	6	3	[0, 0, 0]	n/a	catFR1	3	R1469D
382.964	0.867	413687	WORD_OFF	n/a	n/a	SNOW	Weather	6	3	[0, 0, 0]	n/a	catFR1	3	R1469D
383.831	1.617	414561	WORD	n/a	wordpools/wordpool_categorized_EN.txt	ROOM	Building	7	3	[0, 0, 0]	n/a	catFR1	3	R1469D
385.448	0.933	416179	WORD_OFF	n/a	n/a	ROOM	Building	7	3	[0, 0, 0]	n/a	catFR1	3	R1469D
386.381	1.6	417112	WORD	n/a	wordpools/wordpool_categorized_EN.txt	HALLWAY	Building	8	3	[0, 0, 0]	n/a	catFR1	3	R1469D
387.981	1.0	418706	WORD_OFF	n/a	n/a	HALLWAY	Building	8	3	[0, 0, 0]	n/a	catFR1	3	R1469D
388.981	1.6	419710	WORD	n/a	wordpools/wordpool_categorized_EN.txt	HAWK	Birds	9	3	[0, 0, 0]	n/a	catFR1	3	R1469D
390.581	0.916	421304	WORD_OFF	n/a	n/a	HAWK	Birds	9	3	[0, 0, 0]	n/a	catFR1	3	R1469D
391.497	1.601	422225	WORD	n/a	wordpools/wordpool_categorized_EN.txt	SPARROW	Birds	10	3	[0, 0, 0]	n/a	catFR1	3	R1469D
393.098	0.899	423819	WORD_OFF	n/a	n/a	SPARROW	Birds	10	3	[0, 0, 0]	n/a	catFR1	3	R1469D
393.997	1.601	424729	WORD	n/a	wordpools/wordpool_categorized_EN.txt	CLOUD	Weather	11	3	[0, 0, 0]	n/a	catFR1	3	R1469D
395.598	0.983	426323	WORD_OFF	n/a	n/a	CLOUD	Weather	11	3	[0, 0, 0]	n/a	catFR1	3	R1469D
396.581	1.6	427303	WORD	n/a	wordpools/wordpool_categorized_EN.txt	THUNDERSTORM	Weather	12	3	[0, 0, 0]	n/a	catFR1	3	R1469D
398.181	0.001	428906	PROB	4.45	n/a	n/a	n/a	-999	3	[5, 7, 2]	14.0	catFR1	3	R1469D
398.182	0.0	428907	START	n/a	n/a	n/a	n/a	-999	3	[-999, -999, -999]	n/a	catFR1	3	R1469D
398.181	0.001	428909	WORD_OFF	n/a	n/a	THUNDERSTORM	Weather	12	3	[0, 0, 0]	n/a	catFR1	3	R1469D
398.182	0.0	428909	ENCODING_END	n/a	n/a	n/a	n/a	-999	3	[0, 0, 0]	n/a	catFR1	3	R1469D
398.182	4.467	428909	DISTRACT_START	n/a	n/a	n/a	n/a	-999	3	[0, 0, 0]	n/a	catFR1	3	R1469D
402.649	2.881	433374	PROB	2.865	n/a	n/a	n/a	-999	3	[5, 1, 1]	7.0	catFR1	3	R1469D
405.53	2.319	436254	PROB	2.301	n/a	n/a	n/a	-999	3	[1, 1, 4]	6.0	catFR1	3	R1469D
407.849	3.033	438573	PROB	3.015	n/a	n/a	n/a	-999	3	[1, 8, 2]	11.0	catFR1	3	R1469D
410.882	2.983	441606	PROB	2.966	n/a	n/a	n/a	-999	3	[3, 6, 3]	12.0	catFR1	3	R1469D
413.865	2.899	444589	PROB	2.882	n/a	n/a	n/a	-999	3	[4, 4, 2]	10.0	catFR1	3	R1469D
416.764	2.817	447488	PROB	2.799	n/a	n/a	n/a	-999	3	[8, 3, 2]	13.0	catFR1	3	R1469D
419.581	0.0	450305	STOP	n/a	n/a	n/a	n/a	-999	3	[-999, -999, -999]	n/a	catFR1	3	R1469D
419.581	2.3	450308	DISTRACT_END	n/a	n/a	n/a	n/a	-999	3	[0, 0, 0]	n/a	catFR1	3	R1469D
421.881	1.311	452607	REC_START	n/a	n/a	n/a	n/a	-999	3	[0, 0, 0]	n/a	catFR1	3	R1469D
423.192	2.368	453916	REC_WORD_VV	1.311	n/a	<>	n/a	-999	3	[0, 0, 0]	n/a	catFR1	3	R1469D
425.56	0.848	456283	REC_WORD	3.679	n/a	ROBIN	Birds	1	3	[0, 0, 0]	n/a	catFR1	3	R1469D
426.408	3.798	457131	REC_WORD	4.527	n/a	SEAGULL	Birds	2	3	[0, 0, 0]	n/a	catFR1	3	R1469D
430.206	3.679	460929	REC_WORD_VV	8.325	n/a	<>	n/a	-999	3	[0, 0, 0]	n/a	catFR1	3	R1469D
433.885	1.868	464608	REC_WORD	12.004	n/a	SNOW	Weather	6	3	[0, 0, 0]	n/a	catFR1	3	R1469D
435.753	2.697	466476	REC_WORD	13.872	n/a	LIGHTNING	Weather	5	3	[0, 0, 0]	n/a	catFR1	3	R1469D
438.45	1.44	469173	REC_WORD	16.569	n/a	FOUNDATION	Building	3	3	[0, 0, 0]	n/a	catFR1	3	R1469D
439.89	0.725	470613	REC_WORD	18.009	n/a	WALL	Building	4	3	[0, 0, 0]	n/a	catFR1	3	R1469D
440.615	1.823	471338	REC_WORD	18.734	n/a	HALLWAY	Building	8	3	[0, 0, 0]	n/a	catFR1	3	R1469D
442.438	2.41	473161	REC_WORD	20.557	n/a	ROOM	Building	7	3	[0, 0, 0]	n/a	catFR1	3	R1469D
444.848	5.231	475570	REC_WORD_VV	22.967	n/a	<>	n/a	-999	3	[0, 0, 0]	n/a	catFR1	3	R1469D
450.079	2.056	480801	REC_WORD_VV	28.198	n/a	<>	n/a	-999	3	[0, 0, 0]	n/a	catFR1	3	R1469D
452.135	6.129	482855	REC_END	n/a	n/a	n/a	n/a	-999	3	[0, 0, 0]	n/a	catFR1	3	R1469D
458.264	10.35	488984	COUNTDOWN_START	n/a	n/a	n/a	n/a	-999	4	[0, 0, 0]	n/a	catFR1	3	R1469D
468.614	0.0	499341	COUNTDOWN_END	n/a	n/a	n/a	n/a	-999	4	[0, 0, 0]	n/a	catFR1	3	R1469D
468.614	1.966	499341	ENCODING_START	n/a	n/a	n/a	n/a	-999	4	[0, 0, 0]	n/a	catFR1	3	R1469D
470.58	1.6	501302	WORD	n/a	wordpools/wordpool_categorized_EN.txt	TRAIN	Vehicles	1	4	[0, 0, 0]	n/a	catFR1	3	R1469D
472.18	0.984	502908	WORD_OFF	n/a	n/a	TRAIN	Vehicles	1	4	[0, 0, 0]	n/a	catFR1	3	R1469D
473.164	1.6	503888	WORD	n/a	wordpools/wordpool_categorized_EN.txt	TRUCK	Vehicles	2	4	[0, 0, 0]	n/a	catFR1	3	R1469D
474.764	0.917	505482	WORD_OFF	n/a	n/a	TRUCK	Vehicles	2	4	[0, 0, 0]	n/a	catFR1	3	R1469D
475.681	1.615	506403	WORD	n/a	wordpools/wordpool_categorized_EN.txt	LIME	Fruit	3	4	[0, 0, 0]	n/a	catFR1	3	R1469D
477.296	0.801	508021	WORD_OFF	n/a	n/a	LIME	Fruit	3	4	[0, 0, 0]	n/a	catFR1	3	R1469D
478.097	1.601	508824	WORD	n/a	wordpools/wordpool_categorized_EN.txt	BANANA	Fruit	4	4	[0, 0, 0]	n/a	catFR1	3	R1469D
479.698	0.816	510419	WORD_OFF	n/a	n/a	BANANA	Fruit	4	4	[0, 0, 0]	n/a	catFR1	3	R1469D
480.514	1.6	511233	WORD	n/a	wordpools/wordpool_categorized_EN.txt	BROCCOLI	Vegetables	5	4	[0, 0, 0]	n/a	catFR1	3	R1469D
482.114	0.967	512840	WORD_OFF	n/a	n/a	BROCCOLI	Vegetables	5	4	[0, 0, 0]	n/a	catFR1	3	R1469D
483.081	1.6	513808	WORD	n/a	wordpools/wordpool_categorized_EN.txt	PEAS	Vegetables	6	4	[0, 0, 0]	n/a	catFR1	3	R1469D
484.681	0.85	515402	WORD_OFF	n/a	n/a	PEAS	Vegetables	6	4	[0, 0, 0]	n/a	catFR1	3	R1469D
485.531	1.6	516252	WORD	n/a	wordpools/wordpool_categorized_EN.txt	JEEP	Vehicles	7	4	[0, 0, 0]	n/a	catFR1	3	R1469D
487.131	0.883	517847	WORD_OFF	n/a	n/a	JEEP	Vehicles	7	4	[0, 0, 0]	n/a	catFR1	3	R1469D
488.014	1.601	518732	WORD	n/a	wordpools/wordpool_categorized_EN.txt	MOTORCYCLE	Vehicles	8	4	[0, 0, 0]	n/a	catFR1	3	R1469D
489.615	0.966	520339	WORD_OFF	n/a	n/a	MOTORCYCLE	Vehicles	8	4	[0, 0, 0]	n/a	catFR1	3	R1469D
490.581	1.6	521307	WORD	n/a	wordpools/wordpool_categorized_EN.txt	PLUM	Fruit	9	4	[0, 0, 0]	n/a	catFR1	3	R1469D
492.181	0.767	522901	WORD_OFF	n/a	n/a	PLUM	Fruit	9	4	[0, 0, 0]	n/a	catFR1	3	R1469D
492.948	1.6	523669	WORD	n/a	wordpools/wordpool_categorized_EN.txt	PEAR	Fruit	10	4	[0, 0, 0]	n/a	catFR1	3	R1469D
494.548	0.966	525263	WORD_OFF	n/a	n/a	PEAR	Fruit	10	4	[0, 0, 0]	n/a	catFR1	3	R1469D
495.514	1.601	526232	WORD	n/a	wordpools/wordpool_categorized_EN.txt	LETTUCE	Vegetables	11	4	[0, 0, 0]	n/a	catFR1	3	R1469D
497.115	0.833	527838	WORD_OFF	n/a	n/a	LETTUCE	Vegetables	11	4	[0, 0, 0]	n/a	catFR1	3	R1469D
497.948	1.6	528664	WORD	n/a	wordpools/wordpool_categorized_EN.txt	CELERY	Vegetables	12	4	[0, 0, 0]	n/a	catFR1	3	R1469D
499.548	0.002	530267	PROB	3.716	n/a	n/a	n/a	-999	4	[2, 8, 7]	17.0	catFR1	3	R1469D
499.55	0.0	530269	START	n/a	n/a	n/a	n/a	-999	4	[-999, -999, -999]	n/a	catFR1	3	R1469D
499.548	0.002	530270	WORD_OFF	n/a	n/a	CELERY	Vegetables	12	4	[0, 0, 0]	n/a	catFR1	3	R1469D
499.55	0.0	530270	ENCODING_END	n/a	n/a	n/a	n/a	-999	4	[0, 0, 0]	n/a	catFR1	3	R1469D
499.55	3.732	530270	DISTRACT_START	n/a	n/a	n/a	n/a	-999	4	[0, 0, 0]	n/a	catFR1	3	R1469D
503.282	3.366	534001	PROB	3.349	n/a	n/a	n/a	-999	4	[1, 7, 4]	12.0	catFR1	3	R1469D
506.648	4.134	537367	PROB	4.116	n/a	n/a	n/a	-999	4	[7, 2, 7]	16.0	catFR1	3	R1469D
510.782	6.232	541501	PROB	6.215	n/a	n/a	n/a	-999	4	[8, 1, 8]	17.0	catFR1	3	R1469D
517.014	4.75	547732	PROB	4.733	n/a	n/a	n/a	-999	4	[3, 2, 3]	8.0	catFR1	3	R1469D
521.764	0.0	552482	STOP	n/a	n/a	n/a	n/a	-999	4	[-999, -999, -999]	n/a	catFR1	3	R1469D
521.764	2.05	552484	DISTRACT_END	n/a	n/a	n/a	n/a	-999	4	[0, 0, 0]	n/a	catFR1	3	R1469D
523.814	0.309	554535	REC_START	n/a	n/a	n/a	n/a	-999	4	[0, 0, 0]	n/a	catFR1	3	R1469D
524.123	1.0	554841	REC_WORD_VV	0.309	n/a	<>	n/a	-999	4	[0, 0, 0]	n/a	catFR1	3	R1469D
525.123	1.0	555841	REC_WORD_VV	1.309	n/a	<>	n/a	-999	4	[0, 0, 0]	n/a	catFR1	3	R1469D
526.123	0.916	556841	REC_WORD_VV	2.309	n/a	<>	n/a	-999	4	[0, 0, 0]	n/a	catFR1	3	R1469D
527.039	1.258	557757	REC_WORD	3.225	n/a	TRUCK	Vehicles	2	4	[0, 0, 0]	n/a	catFR1	3	R1469D
528.297	2.103	559015	REC_WORD	4.483	n/a	TRAIN	Vehicles	1	4	[0, 0, 0]	n/a	catFR1	3	R1469D
530.4	2.151	561118	REC_WORD_VV	6.586	n/a	<>	n/a	-999	4	[0, 0, 0]	n/a	catFR1	3	R1469D
532.551	1.26	563269	REC_WORD	8.737	n/a	BROCCOLI	Vegetables	5	4	[0, 0, 0]	n/a	catFR1	3	R1469D
533.811	4.717	564529	REC_WORD	9.997	n/a	CELERY	Vegetables	12	4	[0, 0, 0]	n/a	catFR1	3	R1469D
538.528	11.976	569245	REC_WORD_VV	14.714	n/a	<>	n/a	-999	4	[0, 0, 0]	n/a	catFR1	3	R1469D
550.504	1.0	581221	REC_WORD	26.69	n/a	PLUM	Fruit	9	4	[0, 0, 0]	n/a	catFR1	3	R1469D
551.504	1.0	582221	REC_WORD_VV	27.69	n/a	<>	n/a	-999	4	[0, 0, 0]	n/a	catFR1	3	R1469D
552.504	1.55	583221	REC_WORD_VV	28.69	n/a	<>	n/a	-999	4	[0, 0, 0]	n/a	catFR1	3	R1469D
554.054	9.193	584771	REC_END	n/a	n/a	n/a	n/a	-999	4	[0, 0, 0]	n/a	catFR1	3	R1469D
563.247	10.35	593971	COUNTDOWN_START	n/a	n/a	n/a	n/a	-999	5	[0, 0, 0]	n/a	catFR1	3	R1469D
573.597	0.0	604316	COUNTDOWN_END	n/a	n/a	n/a	n/a	-999	5	[0, 0, 0]	n/a	catFR1	3	R1469D
573.597	2.151	604316	ENCODING_START	n/a	n/a	n/a	n/a	-999	5	[0, 0, 0]	n/a	catFR1	3	R1469D
575.748	1.6	606465	WORD	n/a	wordpools/wordpool_categorized_EN.txt	RATCHET	Tools	1	5	[0, 0, 0]	n/a	catFR1	3	R1469D
577.348	0.899	608060	WORD_OFF	n/a	n/a	RATCHET	Tools	1	5	[0, 0, 0]	n/a	catFR1	3	R1469D
578.247	1.6	608969	WORD	n/a	wordpools/wordpool_categorized_EN.txt	AXE	Tools	2	5	[0, 0, 0]	n/a	catFR1	3	R1469D
579.847	0.917	610563	WORD_OFF	n/a	n/a	AXE	Tools	2	5	[0, 0, 0]	n/a	catFR1	3	R1469D
580.764	1.6	611484	WORD	n/a	wordpools/wordpool_categorized_EN.txt	BLOUSE	Clothing	3	5	[0, 0, 0]	n/a	catFR1	3	R1469D
582.364	0.767	613079	WORD_OFF	n/a	n/a	BLOUSE	Clothing	3	5	[0, 0, 0]	n/a	catFR1	3	R1469D
583.131	1.617	613846	WORD	n/a	wordpools/wordpool_categorized_EN.txt	SHORTS	Clothing	4	5	[0, 0, 0]	n/a	catFR1	3	R1469D
584.748	0.883	615464	WORD_OFF	n/a	n/a	SHORTS	Clothing	4	5	[0, 0, 0]	n/a	catFR1	3	R1469D
585.631	1.616	616350	WORD	n/a	wordpools/wordpool_categorized_EN.txt	CORN	Vegetables	5	5	[0, 0, 0]	n/a	catFR1	3	R1469D
587.247	0.816	617968	WORD_OFF	n/a	n/a	CORN	Vegetables	5	5	[0, 0, 0]	n/a	catFR1	3	R1469D
588.063	1.601	618783	WORD	n/a	wordpools/wordpool_categorized_EN.txt	CARROT	Vegetables	6	5	[0, 0, 0]	n/a	catFR1	3	R1469D
589.664	0.833	620377	WORD_OFF	n/a	n/a	CARROT	Vegetables	6	5	[0, 0, 0]	n/a	catFR1	3	R1469D
590.497	1.615	621215	WORD	n/a	wordpools/wordpool_categorized_EN.txt	LEVEL	Tools	7	5	[0, 0, 0]	n/a	catFR1	3	R1469D
592.112	0.936	622833	WORD_OFF	n/a	n/a	LEVEL	Tools	7	5	[0, 0, 0]	n/a	catFR1	3	R1469D
593.048	1.6	623766	WORD	n/a	wordpools/wordpool_categorized_EN.txt	HAMMER	Tools	8	5	[0, 0, 0]	n/a	catFR1	3	R1469D
594.648	0.867	625361	WORD_OFF	n/a	n/a	HAMMER	Tools	8	5	[0, 0, 0]	n/a	catFR1	3	R1469D
595.515	1.616	626234	WORD	n/a	wordpools/wordpool_categorized_EN.txt	ONION	Vegetables	9	5	[0, 0, 0]	n/a	catFR1	3	R1469D
597.131	0.767	627849	WORD_OFF	n/a	n/a	ONION	Vegetables	9	5	[0, 0, 0]	n/a	catFR1	3	R1469D
597.898	1.6	628608	WORD	n/a	wordpools/wordpool_categorized_EN.txt	POTATO	Vegetables	10	5	[0, 0, 0]	n/a	catFR1	3	R1469D
599.498	0.817	630214	WORD_OFF	n/a	n/a	POTATO	Vegetables	10	5	[0, 0, 0]	n/a	catFR1	3	R1469D
600.315	1.616	631029	WORD	n/a	wordpools/wordpool_categorized_EN.txt	SHOES	Clothing	11	5	[0, 0, 0]	n/a	catFR1	3	R1469D
601.931	0.917	632647	WORD_OFF	n/a	n/a	SHOES	Clothing	11	5	[0, 0, 0]	n/a	catFR1	3	R1469D
602.848	1.6	633568	WORD	n/a	wordpools/wordpool_categorized_EN.txt	COAT	Clothing	12	5	[0, 0, 0]	n/a	catFR1	3	R1469D
604.448	0.003	635162	WORD_OFF	n/a	n/a	COAT	Clothing	12	5	[0, 0, 0]	n/a	catFR1	3	R1469D
604.451	0.0	635162	ENCODING_END	n/a	n/a	n/a	n/a	-999	5	[0, 0, 0]	n/a	catFR1	3	R1469D
604.451	0.0	635162	DISTRACT_START	n/a	n/a	n/a	n/a	-999	5	[0, 0, 0]	n/a	catFR1	3	R1469D
604.448	0.003	635162	PROB	3.965	n/a	n/a	n/a	-999	5	[8, 3, 1]	12.0	catFR1	3	R1469D
604.451	3.98	635165	START	n/a	n/a	n/a	n/a	-999	5	[-999, -999, -999]	n/a	catFR1	3	R1469D
608.431	2.916	639145	PROB	2.899	n/a	n/a	n/a	-999	5	[3, 3, 4]	10.0	catFR1	3	R1469D
611.347	4.285	642060	PROB	4.266	n/a	n/a	n/a	-999	5	[4, 5, 4]	13.0	catFR1	3	R1469D
615.632	3.133	646345	PROB	3.115	n/a	n/a	n/a	-999	5	[5, 2, 7]	14.0	catFR1	3	R1469D
618.765	7.284	649478	PROB	7.266	n/a	n/a	n/a	-999	5	[6, 7, 2]	16.0	catFR1	3	R1469D
626.049	0.0	656762	DISTRACT_END	n/a	n/a	n/a	n/a	-999	5	[0, 0, 0]	n/a	catFR1	3	R1469D
626.049	2.015	656762	STOP	n/a	n/a	n/a	n/a	-999	5	[-999, -999, -999]	n/a	catFR1	3	R1469D
628.064	0.4	658778	REC_START	n/a	n/a	n/a	n/a	-999	5	[0, 0, 0]	n/a	catFR1	3	R1469D
628.464	1.0	659177	REC_WORD_VV	0.4	n/a	<>	n/a	-999	5	[0, 0, 0]	n/a	catFR1	3	R1469D
629.464	0.577	660176	REC_WORD_VV	1.4	n/a	<>	n/a	-999	5	[0, 0, 0]	n/a	catFR1	3	R1469D
630.041	0.851	660753	REC_WORD	1.977	n/a	RATCHET	Tools	1	5	[0, 0, 0]	n/a	catFR1	3	R1469D
630.892	1.546	661604	REC_WORD	2.828	n/a	AXE	Tools	2	5	[0, 0, 0]	n/a	catFR1	3	R1469D
632.438	0.867	663150	REC_WORD	4.374	n/a	BLOUSE	Clothing	3	5	[0, 0, 0]	n/a	catFR1	3	R1469D
633.305	1.472	664017	REC_WORD	5.241	n/a	SHORTS	Clothing	4	5	[0, 0, 0]	n/a	catFR1	3	R1469D
634.777	1.382	665489	REC_WORD	6.713	n/a	COAT	Clothing	12	5	[0, 0, 0]	n/a	catFR1	3	R1469D
636.159	0.531	666871	REC_WORD_VV	8.095	n/a	<>	n/a	-999	5	[0, 0, 0]	n/a	catFR1	3	R1469D
636.69	2.182	667402	REC_WORD	8.626	n/a	SHOES	Clothing	11	5	[0, 0, 0]	n/a	catFR1	3	R1469D
638.872	11.387	669584	REC_WORD_VV	10.808	n/a	<>	n/a	-999	5	[0, 0, 0]	n/a	catFR1	3	R1469D
650.259	8.032	680970	REC_WORD	22.195	n/a	ONION	Vegetables	9	5	[0, 0, 0]	n/a	catFR1	3	R1469D
658.291	14.607	689002	REC_END	n/a	n/a	n/a	n/a	-999	5	[0, 0, 0]	n/a	catFR1	3	R1469D
672.898	10.35	703610	COUNTDOWN_START	n/a	n/a	n/a	n/a	-999	6	[0, 0, 0]	n/a	catFR1	3	R1469D
683.248	0.0	713956	COUNTDOWN_END	n/a	n/a	n/a	n/a	-999	6	[0, 0, 0]	n/a	catFR1	3	R1469D
683.248	2.033	713967	ENCODING_START	n/a	n/a	n/a	n/a	-999	6	[0, 0, 0]	n/a	catFR1	3	R1469D
685.281	1.6	715987	WORD	n/a	wordpools/wordpool_categorized_EN.txt	PIGEON	Birds	1	6	[0, 0, 0]	n/a	catFR1	3	R1469D
686.881	0.867	717593	WORD_OFF	n/a	n/a	PIGEON	Birds	1	6	[0, 0, 0]	n/a	catFR1	3	R1469D
687.748	1.6	718455	WORD	n/a	wordpools/wordpool_categorized_EN.txt	DOVE	Birds	2	6	[0, 0, 0]	n/a	catFR1	3	R1469D
689.348	0.95	720061	WORD_OFF	n/a	n/a	DOVE	Birds	2	6	[0, 0, 0]	n/a	catFR1	3	R1469D
690.298	1.616	721006	WORD	n/a	wordpools/wordpool_categorized_EN.txt	LADYBUG	Insects	3	6	[0, 0, 0]	n/a	catFR1	3	R1469D
691.914	0.783	722624	WORD_OFF	n/a	n/a	LADYBUG	Insects	3	6	[0, 0, 0]	n/a	catFR1	3	R1469D
692.697	1.601	723403	WORD	n/a	wordpools/wordpool_categorized_EN.txt	MOTH	Insects	4	6	[0, 0, 0]	n/a	catFR1	3	R1469D
694.298	0.85	725009	WORD_OFF	n/a	n/a	MOTH	Insects	4	6	[0, 0, 0]	n/a	catFR1	3	R1469D
695.148	1.616	725860	WORD	n/a	wordpools/wordpool_categorized_EN.txt	HEAD	BodyParts	5	6	[0, 0, 0]	n/a	catFR1	3	R1469D
696.764	0.767	727477	WORD_OFF	n/a	n/a	HEAD	BodyParts	5	6	[0, 0, 0]	n/a	catFR1	3	R1469D
697.531	1.617	728245	WORD	n/a	wordpools/wordpool_categorized_EN.txt	EAR	BodyParts	6	6	[0, 0, 0]	n/a	catFR1	3	R1469D
699.148	0.799	729863	WORD_OFF	n/a	n/a	EAR	BodyParts	6	6	[0, 0, 0]	n/a	catFR1	3	R1469D
699.947	1.601	730654	WORD	n/a	wordpools/wordpool_categorized_EN.txt	CRICKET	Insects	7	6	[0, 0, 0]	n/a	catFR1	3	R1469D
701.548	0.782	732260	WORD_OFF	n/a	n/a	CRICKET	Insects	7	6	[0, 0, 0]	n/a	catFR1	3	R1469D
702.33	1.6	733040	WORD	n/a	wordpools/wordpool_categorized_EN.txt	MOSQUITO	Insects	8	6	[0, 0, 0]	n/a	catFR1	3	R1469D
703.93	0.967	734638	WORD_OFF	n/a	n/a	MOSQUITO	Insects	8	6	[0, 0, 0]	n/a	catFR1	3	R1469D
704.897	1.6	735602	WORD	n/a	wordpools/wordpool_categorized_EN.txt	ELBOW	BodyParts	9	6	[0, 0, 0]	n/a	catFR1	3	R1469D
706.497	0.933	737208	WORD_OFF	n/a	n/a	ELBOW	BodyParts	9	6	[0, 0, 0]	n/a	catFR1	3	R1469D
707.43	1.601	738141	WORD	n/a	wordpools/wordpool_categorized_EN.txt	KNEE	BodyParts	10	6	[0, 0, 0]	n/a	catFR1	3	R1469D
709.031	0.783	739736	WORD_OFF	n/a	n/a	KNEE	BodyParts	10	6	[0, 0, 0]	n/a	catFR1	3	R1469D
709.814	1.6	740527	WORD	n/a	wordpools/wordpool_categorized_EN.txt	CARDINAL	Birds	11	6	[0, 0, 0]	n/a	catFR1	3	R1469D
711.414	0.883	742121	WORD_OFF	n/a	n/a	CARDINAL	Birds	11	6	[0, 0, 0]	n/a	catFR1	3	R1469D
712.297	1.601	743007	WORD	n/a	wordpools/wordpool_categorized_EN.txt	FINCH	Birds	12	6	[0, 0, 0]	n/a	catFR1	3	R1469D
713.898	0.0	744601	WORD_OFF	n/a	n/a	FINCH	Birds	12	6	[0, 0, 0]	n/a	catFR1	3	R1469D
713.898	0.001	744606	PROB	4.0	n/a	n/a	n/a	-999	6	[1, 8, 1]	10.0	catFR1	3	R1469D
713.899	0.0	744607	START	n/a	n/a	n/a	n/a	-999	6	[-999, -999, -999]	n/a	catFR1	3	R1469D
713.899	0.0	744613	ENCODING_END	n/a	n/a	n/a	n/a	-999	6	[0, 0, 0]	n/a	catFR1	3	R1469D
713.899	4.015	744613	DISTRACT_START	n/a	n/a	n/a	n/a	-999	6	[0, 0, 0]	n/a	catFR1	3	R1469D
717.914	3.217	748622	PROB	3.199	n/a	n/a	n/a	-999	6	[7, 5, 5]	17.0	catFR1	3	R1469D
721.131	6.736	751838	PROB	6.717	n/a	n/a	n/a	-999	6	[7, 8, 6]	23.0	catFR1	3	R1469D
727.867	5.915	758574	PROB	5.899	n/a	n/a	n/a	-999	6	[5, 6, 3]	14.0	catFR1	3	R1469D
733.782	2.182	764489	PROB	2.166	n/a	n/a	n/a	-999	6	[5, 1, 1]	7.0	catFR1	3	R1469D
735.964	0.0	766671	STOP	n/a	n/a	n/a	n/a	-999	6	[-999, -999, -999]	n/a	catFR1	3	R1469D
735.964	2.184	766673	DISTRACT_END	n/a	n/a	n/a	n/a	-999	6	[0, 0, 0]	n/a	catFR1	3	R1469D
738.148	1.277	768854	REC_START	n/a	n/a	n/a	n/a	-999	6	[0, 0, 0]	n/a	catFR1	3	R1469D
739.425	0.803	770132	REC_WORD_VV	1.277	n/a	<>	n/a	-999	6	[0, 0, 0]	n/a	catFR1	3	R1469D
740.228	0.819	770935	REC_WORD	2.08	n/a	CARDINAL	Birds	11	6	[0, 0, 0]	n/a	catFR1	3	R1469D
741.047	1.915	771753	REC_WORD	2.899	n/a	FINCH	Birds	12	6	[0, 0, 0]	n/a	catFR1	3	R1469D
742.962	0.552	773668	REC_WORD_VV	4.814	n/a	<>	n/a	-999	6	[0, 0, 0]	n/a	catFR1	3	R1469D
743.514	2.202	774220	REC_WORD	5.366	n/a	DOVE	Birds	2	6	[0, 0, 0]	n/a	catFR1	3	R1469D
745.716	1.267	776422	REC_WORD	7.568	n/a	HEAD	BodyParts	5	6	[0, 0, 0]	n/a	catFR1	3	R1469D
746.983	0.958	777689	REC_WORD	8.835	n/a	EAR	BodyParts	6	6	[0, 0, 0]	n/a	catFR1	3	R1469D
747.941	0.869	778647	REC_WORD	9.793	n/a	KNEE	BodyParts	10	6	[0, 0, 0]	n/a	catFR1	3	R1469D
748.81	0.986	779516	REC_WORD	10.662	n/a	ELBOW	BodyParts	9	6	[0, 0, 0]	n/a	catFR1	3	R1469D
749.796	0.831	780502	REC_WORD	11.648	n/a	MOTH	Insects	4	6	[0, 0, 0]	n/a	catFR1	3	R1469D
750.627	2.474	781333	REC_WORD	12.479	n/a	MOSQUITO	Insects	8	6	[0, 0, 0]	n/a	catFR1	3	R1469D
753.101	1.541	783807	REC_WORD_VV	14.953	n/a	<>	n/a	-999	6	[0, 0, 0]	n/a	catFR1	3	R1469D
754.642	3.982	785348	REC_WORD	16.494	n/a	LADYBUG	Insects	3	6	[0, 0, 0]	n/a	catFR1	3	R1469D
758.624	2.59	789330	REC_WORD_VV	20.476	n/a	<>	n/a	-999	6	[0, 0, 0]	n/a	catFR1	3	R1469D
761.214	0.738	791919	REC_WORD_VV	23.066	n/a	<>	n/a	-999	6	[0, 0, 0]	n/a	catFR1	3	R1469D
761.952	1.0	792657	REC_WORD	23.804	n/a	SPARROW	Birds	-999	6	[0, 0, 0]	n/a	catFR1	3	R1469D
762.952	5.428	793657	REC_WORD_VV	24.804	n/a	<>	n/a	-999	6	[0, 0, 0]	n/a	catFR1	3	R1469D
768.38	17.468	799090	REC_END	n/a	n/a	n/a	n/a	-999	6	[0, 0, 0]	n/a	catFR1	3	R1469D
785.848	10.35	816557	COUNTDOWN_START	n/a	n/a	n/a	n/a	-999	7	[0, 0, 0]	n/a	catFR1	3	R1469D
796.198	0.0	826902	COUNTDOWN_END	n/a	n/a	n/a	n/a	-999	7	[0, 0, 0]	n/a	catFR1	3	R1469D
796.198	2.083	826902	ENCODING_START	n/a	n/a	n/a	n/a	-999	7	[0, 0, 0]	n/a	catFR1	3	R1469D
798.281	1.6	828980	WORD	n/a	wordpools/wordpool_categorized_EN.txt	LINEN	Fabric	1	7	[0, 0, 0]	n/a	catFR1	3	R1469D
799.881	0.933	830586	WORD_OFF	n/a	n/a	LINEN	Fabric	1	7	[0, 0, 0]	n/a	catFR1	3	R1469D
800.814	1.617	831519	WORD	n/a	wordpools/wordpool_categorized_EN.txt	LEATHER	Fabric	2	7	[0, 0, 0]	n/a	catFR1	3	R1469D
802.431	0.85	833137	WORD_OFF	n/a	n/a	LEATHER	Fabric	2	7	[0, 0, 0]	n/a	catFR1	3	R1469D
803.281	1.6	833987	WORD	n/a	wordpools/wordpool_categorized_EN.txt	ANT	Insects	3	7	[0, 0, 0]	n/a	catFR1	3	R1469D
804.881	1.0	835582	WORD_OFF	n/a	n/a	ANT	Insects	3	7	[0, 0, 0]	n/a	catFR1	3	R1469D
805.881	1.617	836586	WORD	n/a	wordpools/wordpool_categorized_EN.txt	BEE	Insects	4	7	[0, 0, 0]	n/a	catFR1	3	R1469D
807.498	0.833	838203	WORD_OFF	n/a	n/a	BEE	Insects	4	7	[0, 0, 0]	n/a	catFR1	3	R1469D
808.331	1.6	839030	WORD	n/a	wordpools/wordpool_categorized_EN.txt	BOAT	Vehicles	5	7	[0, 0, 0]	n/a	catFR1	3	R1469D
809.931	0.967	840636	WORD_OFF	n/a	n/a	BOAT	Vehicles	5	7	[0, 0, 0]	n/a	catFR1	3	R1469D
810.898	1.616	841605	WORD	n/a	wordpools/wordpool_categorized_EN.txt	MOPED	Vehicles	6	7	[0, 0, 0]	n/a	catFR1	3	R1469D
812.514	0.9	843222	WORD_OFF	n/a	n/a	MOPED	Vehicles	6	7	[0, 0, 0]	n/a	catFR1	3	R1469D
813.414	1.617	844120	WORD	n/a	wordpools/wordpool_categorized_EN.txt	BUTTERFLY	Insects	7	7	[0, 0, 0]	n/a	catFR1	3	R1469D
815.031	1.0	845738	WORD_OFF	n/a	n/a	BUTTERFLY	Insects	7	7	[0, 0, 0]	n/a	catFR1	3	R1469D
816.031	1.616	846730	WORD	n/a	wordpools/wordpool_categorized_EN.txt	ROACH	Insects	8	7	[0, 0, 0]	n/a	catFR1	3	R1469D
817.647	0.884	848348	WORD_OFF	n/a	n/a	ROACH	Insects	8	7	[0, 0, 0]	n/a	catFR1	3	R1469D
818.531	1.617	849234	WORD	n/a	wordpools/wordpool_categorized_EN.txt	SPANDEX	Fabric	9	7	[0, 0, 0]	n/a	catFR1	3	R1469D
820.148	0.766	850851	WORD_OFF	n/a	n/a	SPANDEX	Fabric	9	7	[0, 0, 0]	n/a	catFR1	3	R1469D
820.914	1.617	851619	WORD	n/a	wordpools/wordpool_categorized_EN.txt	DENIM	Fabric	10	7	[0, 0, 0]	n/a	catFR1	3	R1469D
822.531	0.849	853237	WORD_OFF	n/a	n/a	DENIM	Fabric	10	7	[0, 0, 0]	n/a	catFR1	3	R1469D
823.38	1.602	854087	WORD	n/a	wordpools/wordpool_categorized_EN.txt	SCOOTER	Vehicles	11	7	[0, 0, 0]	n/a	catFR1	3	R1469D
824.982	0.831	855682	WORD_OFF	n/a	n/a	SCOOTER	Vehicles	11	7	[0, 0, 0]	n/a	catFR1	3	R1469D
825.813	1.601	856520	WORD	n/a	wordpools/wordpool_categorized_EN.txt	BUS	Vehicles	12	7	[0, 0, 0]	n/a	catFR1	3	R1469D
827.414	0.002	858114	WORD_OFF	n/a	n/a	BUS	Vehicles	12	7	[0, 0, 0]	n/a	catFR1	3	R1469D
827.416	0.0	858114	ENCODING_END	n/a	n/a	n/a	n/a	-999	7	[0, 0, 0]	n/a	catFR1	3	R1469D
827.414	0.002	858116	PROB	4.616	n/a	n/a	n/a	-999	7	[6, 8, 8]	22.0	catFR1	3	R1469D
827.416	0.0	858118	START	n/a	n/a	n/a	n/a	-999	7	[-999, -999, -999]	n/a	catFR1	3	R1469D
827.416	4.632	858126	DISTRACT_START	n/a	n/a	n/a	n/a	-999	7	[0, 0, 0]	n/a	catFR1	3	R1469D
832.048	3.717	862750	PROB	3.699	n/a	n/a	n/a	-999	7	[6, 1, 7]	14.0	catFR1	3	R1469D
835.765	3.117	866466	PROB	3.1	n/a	n/a	n/a	-999	7	[5, 8, 1]	14.0	catFR1	3	R1469D
838.882	3.066	869583	PROB	3.049	n/a	n/a	n/a	-999	7	[5, 7, 7]	19.0	catFR1	3	R1469D
841.948	3.083	872649	PROB	3.066	n/a	n/a	n/a	-999	7	[1, 3, 8]	11.0	catFR1	3	R1469D
845.031	6.267	875732	PROB	6.25	n/a	n/a	n/a	-999	7	[8, 7, 5]	20.0	catFR1	3	R1469D
851.298	0.0	881998	STOP	n/a	n/a	n/a	n/a	-999	7	[-999, -999, -999]	n/a	catFR1	3	R1469D
851.298	2.167	882005	DISTRACT_END	n/a	n/a	n/a	n/a	-999	7	[0, 0, 0]	n/a	catFR1	3	R1469D
853.465	0.05	884162	REC_START	n/a	n/a	n/a	n/a	-999	7	[0, 0, 0]	n/a	catFR1	3	R1469D
853.515	1.0	884215	REC_WORD_VV	0.05	n/a	<>	n/a	-999	7	[0, 0, 0]	n/a	catFR1	3	R1469D
854.515	0.642	885215	REC_WORD_VV	1.05	n/a	<>	n/a	-999	7	[0, 0, 0]	n/a	catFR1	3	R1469D
855.157	0.805	885857	REC_WORD	1.692	n/a	LINEN	Fabric	1	7	[0, 0, 0]	n/a	catFR1	3	R1469D
855.962	2.072	886662	REC_WORD	2.497	n/a	LEATHER	Fabric	2	7	[0, 0, 0]	n/a	catFR1	3	R1469D
858.034	3.43	888734	REC_WORD	4.569	n/a	DENIM	Fabric	10	7	[0, 0, 0]	n/a	catFR1	3	R1469D
861.464	0.674	892164	REC_WORD	7.999	n/a	BEE	Insects	4	7	[0, 0, 0]	n/a	catFR1	3	R1469D
862.138	1.442	892838	REC_WORD	8.673	n/a	ANT	Insects	3	7	[0, 0, 0]	n/a	catFR1	3	R1469D
863.58	2.617	894280	REC_WORD	10.115	n/a	ROACH	Insects	8	7	[0, 0, 0]	n/a	catFR1	3	R1469D
866.197	12.257	896897	REC_WORD_VV	12.732	n/a	<>	n/a	-999	7	[0, 0, 0]	n/a	catFR1	3	R1469D
878.454	1.032	909153	REC_WORD	24.989	n/a	MOPED	Vehicles	6	7	[0, 0, 0]	n/a	catFR1	3	R1469D
879.486	1.598	910185	REC_WORD	26.021	n/a	SCOOTER	Vehicles	11	7	[0, 0, 0]	n/a	catFR1	3	R1469D
881.084	2.617	911783	REC_WORD	27.619	n/a	BUS	Vehicles	12	7	[0, 0, 0]	n/a	catFR1	3	R1469D
883.701	13.063	914398	REC_END	n/a	n/a	n/a	n/a	-999	7	[0, 0, 0]	n/a	catFR1	3	R1469D
896.764	10.351	927460	COUNTDOWN_START	n/a	n/a	n/a	n/a	-999	8	[0, 0, 0]	n/a	catFR1	3	R1469D
907.115	0.0	937817	COUNTDOWN_END	n/a	n/a	n/a	n/a	-999	8	[0, 0, 0]	n/a	catFR1	3	R1469D
907.115	2.132	937817	ENCODING_START	n/a	n/a	n/a	n/a	-999	8	[0, 0, 0]	n/a	catFR1	3	R1469D
909.247	1.601	939942	WORD	n/a	wordpools/wordpool_categorized_EN.txt	SPINACH	Vegetables	1	8	[0, 0, 0]	n/a	catFR1	3	R1469D
910.848	0.767	941549	WORD_OFF	n/a	n/a	SPINACH	Vegetables	1	8	[0, 0, 0]	n/a	catFR1	3	R1469D
911.615	1.616	942316	WORD	n/a	wordpools/wordpool_categorized_EN.txt	CAULIFLOWER	Vegetables	2	8	[0, 0, 0]	n/a	catFR1	3	R1469D
913.231	1.0	943934	WORD_OFF	n/a	n/a	CAULIFLOWER	Vegetables	2	8	[0, 0, 0]	n/a	catFR1	3	R1469D
914.231	1.6	944926	WORD	n/a	wordpools/wordpool_categorized_EN.txt	MOUNTAIN	Landscapes	3	8	[0, 0, 0]	n/a	catFR1	3	R1469D
915.831	0.883	946532	WORD_OFF	n/a	n/a	MOUNTAIN	Landscapes	3	8	[0, 0, 0]	n/a	catFR1	3	R1469D
916.714	1.601	947418	WORD	n/a	wordpools/wordpool_categorized_EN.txt	WOODS	Landscapes	4	8	[0, 0, 0]	n/a	catFR1	3	R1469D
918.315	0.783	949012	WORD_OFF	n/a	n/a	WOODS	Landscapes	4	8	[0, 0, 0]	n/a	catFR1	3	R1469D
919.098	1.617	949792	WORD	n/a	wordpools/wordpool_categorized_EN.txt	UNDERWEAR	Clothing	5	8	[0, 0, 0]	n/a	catFR1	3	R1469D
920.715	0.999	951409	WORD_OFF	n/a	n/a	UNDERWEAR	Clothing	5	8	[0, 0, 0]	n/a	catFR1	3	R1469D
921.714	1.617	952413	WORD	n/a	wordpools/wordpool_categorized_EN.txt	JEANS	Clothing	6	8	[0, 0, 0]	n/a	catFR1	3	R1469D
923.331	0.867	954031	WORD_OFF	n/a	n/a	JEANS	Clothing	6	8	[0, 0, 0]	n/a	catFR1	3	R1469D
924.198	1.6	954893	WORD	n/a	wordpools/wordpool_categorized_EN.txt	CUCUMBER	Vegetables	7	8	[0, 0, 0]	n/a	catFR1	3	R1469D
925.798	0.949	956499	WORD_OFF	n/a	n/a	CUCUMBER	Vegetables	7	8	[0, 0, 0]	n/a	catFR1	3	R1469D
926.747	1.601	957444	WORD	n/a	wordpools/wordpool_categorized_EN.txt	CABBAGE	Vegetables	8	8	[0, 0, 0]	n/a	catFR1	3	R1469D
928.348	0.766	959050	WORD_OFF	n/a	n/a	CABBAGE	Vegetables	8	8	[0, 0, 0]	n/a	catFR1	3	R1469D
929.114	1.617	959818	WORD	n/a	wordpools/wordpool_categorized_EN.txt	CREEK	Landscapes	9	8	[0, 0, 0]	n/a	catFR1	3	R1469D
930.731	0.781	961436	WORD_OFF	n/a	n/a	CREEK	Landscapes	9	8	[0, 0, 0]	n/a	catFR1	3	R1469D
931.512	1.602	962215	WORD	n/a	wordpools/wordpool_categorized_EN.txt	RIVER	Landscapes	10	8	[0, 0, 0]	n/a	catFR1	3	R1469D
933.114	0.783	963809	WORD_OFF	n/a	n/a	RIVER	Landscapes	10	8	[0, 0, 0]	n/a	catFR1	3	R1469D
933.897	1.601	964589	WORD	n/a	wordpools/wordpool_categorized_EN.txt	SHIRT	Clothing	11	8	[0, 0, 0]	n/a	catFR1	3	R1469D
935.498	0.849	966195	WORD_OFF	n/a	n/a	SHIRT	Clothing	11	8	[0, 0, 0]	n/a	catFR1	3	R1469D
936.347	1.6	967045	WORD	n/a	wordpools/wordpool_categorized_EN.txt	SOCKS	Clothing	12	8	[0, 0, 0]	n/a	catFR1	3	R1469D
937.947	0.001	968640	WORD_OFF	n/a	n/a	SOCKS	Clothing	12	8	[0, 0, 0]	n/a	catFR1	3	R1469D
937.948	0.001	968644	PROB	3.832	n/a	n/a	n/a	-999	8	[2, 5, 4]	11.0	catFR1	3	R1469D
937.949	0.0	968645	START	n/a	n/a	n/a	n/a	-999	8	[-999, -999, -999]	n/a	catFR1	3	R1469D
937.949	0.0	968651	ENCODING_END	n/a	n/a	n/a	n/a	-999	8	[0, 0, 0]	n/a	catFR1	3	R1469D
937.949	3.848	968651	DISTRACT_START	n/a	n/a	n/a	n/a	-999	8	[0, 0, 0]	n/a	catFR1	3	R1469D
941.797	3.402	972493	PROB	3.383	n/a	n/a	n/a	-999	8	[2, 4, 2]	8.0	catFR1	3	R1469D
945.199	4.515	975894	PROB	4.5	n/a	n/a	n/a	-999	8	[2, 6, 2]	10.0	catFR1	3	R1469D
949.714	2.717	980409	PROB	2.7	n/a	n/a	n/a	-999	8	[1, 7, 3]	11.0	catFR1	3	R1469D
952.431	2.967	983126	PROB	2.95	n/a	n/a	n/a	-999	8	[2, 2, 8]	12.0	catFR1	3	R1469D
955.398	2.75	986093	PROB	2.733	n/a	n/a	n/a	-999	8	[6, 5, 2]	13.0	catFR1	3	R1469D
958.148	0.0	988843	STOP	n/a	n/a	n/a	n/a	-999	8	[-999, -999, -999]	n/a	catFR1	3	R1469D
958.148	2.349	988846	DISTRACT_END	n/a	n/a	n/a	n/a	-999	8	[0, 0, 0]	n/a	catFR1	3	R1469D
960.497	2.533	991192	REC_START	n/a	n/a	n/a	n/a	-999	8	[0, 0, 0]	n/a	catFR1	3	R1469D
963.03	1.885	993725	REC_WORD	2.533	n/a	SPINACH	Vegetables	1	8	[0, 0, 0]	n/a	catFR1	3	R1469D
964.915	1.0	995609	REC_WORD	4.418	n/a	CAULIFLOWER	Vegetables	2	8	[0, 0, 0]	n/a	catFR1	3	R1469D
965.915	1.768	996609	REC_WORD_VV	5.418	n/a	<>	n/a	-999	8	[0, 0, 0]	n/a	catFR1	3	R1469D
967.683	1.09	998377	REC_WORD	7.186	n/a	UNDERWEAR	Clothing	5	8	[0, 0, 0]	n/a	catFR1	3	R1469D
968.773	2.296	999467	REC_WORD	8.276	n/a	SHOES	Clothing	-999	8	[0, 0, 0]	n/a	catFR1	3	R1469D
971.069	0.876	1001763	REC_WORD	10.572	n/a	PANTS	n/a	-999	8	[0, 0, 0]	n/a	catFR1	3	R1469D
971.945	1.0	1002639	REC_WORD	11.448	n/a	JEANS	Clothing	6	8	[0, 0, 0]	n/a	catFR1	3	R1469D
972.945	1.0	1003639	REC_WORD_VV	12.448	n/a	<>	n/a	-999	8	[0, 0, 0]	n/a	catFR1	3	R1469D
973.945	15.828	1004639	REC_WORD_VV	13.448	n/a	<>	n/a	-999	8	[0, 0, 0]	n/a	catFR1	3	R1469D
989.773	0.958	1020466	REC_WORD	29.276	n/a	MOUNTAIN	Landscapes	3	8	[0, 0, 0]	n/a	catFR1	3	R1469D
990.731	4.9	1021428	REC_END	n/a	n/a	n/a	n/a	-999	8	[0, 0, 0]	n/a	catFR1	3	R1469D
995.631	10.35	1026329	COUNTDOWN_START	n/a	n/a	n/a	n/a	-999	9	[0, 0, 0]	n/a	catFR1	3	R1469D
1005.981	0.001	1036674	COUNTDOWN_END	n/a	n/a	n/a	n/a	-999	9	[0, 0, 0]	n/a	catFR1	3	R1469D
1005.982	2.083	1036674	ENCODING_START	n/a	n/a	n/a	n/a	-999	9	[0, 0, 0]	n/a	catFR1	3	R1469D
1008.065	1.615	1038753	WORD	n/a	wordpools/wordpool_categorized_EN.txt	MARKER	OfficeSupplies	1	9	[0, 0, 0]	n/a	catFR1	3	R1469D
1009.68	0.884	1040371	WORD_OFF	n/a	n/a	MARKER	OfficeSupplies	1	9	[0, 0, 0]	n/a	catFR1	3	R1469D
1010.564	1.6	1041256	WORD	n/a	wordpools/wordpool_categorized_EN.txt	NOTEBOOK	OfficeSupplies	2	9	[0, 0, 0]	n/a	catFR1	3	R1469D
1012.164	0.9	1042862	WORD_OFF	n/a	n/a	NOTEBOOK	OfficeSupplies	2	9	[0, 0, 0]	n/a	catFR1	3	R1469D
1013.064	1.601	1043760	WORD	n/a	wordpools/wordpool_categorized_EN.txt	CEILING	Building	3	9	[0, 0, 0]	n/a	catFR1	3	R1469D
1014.665	0.866	1045354	WORD_OFF	n/a	n/a	CEILING	Building	3	9	[0, 0, 0]	n/a	catFR1	3	R1469D
1015.531	1.6	1046228	WORD	n/a	wordpools/wordpool_categorized_EN.txt	FLOOR	Building	4	9	[0, 0, 0]	n/a	catFR1	3	R1469D
1017.131	0.867	1047822	WORD_OFF	n/a	n/a	FLOOR	Building	4	9	[0, 0, 0]	n/a	catFR1	3	R1469D
1017.998	1.6	1048696	WORD	n/a	wordpools/wordpool_categorized_EN.txt	BASEBALL	Toys	5	9	[0, 0, 0]	n/a	catFR1	3	R1469D
1019.598	0.966	1050291	WORD_OFF	n/a	n/a	BASEBALL	Toys	5	9	[0, 0, 0]	n/a	catFR1	3	R1469D
1020.564	1.601	1051259	WORD	n/a	wordpools/wordpool_categorized_EN.txt	MARBLES	Toys	6	9	[0, 0, 0]	n/a	catFR1	3	R1469D
1022.165	0.833	1052853	WORD_OFF	n/a	n/a	MARBLES	Toys	6	9	[0, 0, 0]	n/a	catFR1	3	R1469D
1022.998	1.616	1053692	WORD	n/a	wordpools/wordpool_categorized_EN.txt	PENCIL	OfficeSupplies	7	9	[0, 0, 0]	n/a	catFR1	3	R1469D
1024.614	0.834	1055310	WORD_OFF	n/a	n/a	PENCIL	OfficeSupplies	7	9	[0, 0, 0]	n/a	catFR1	3	R1469D
1025.448	1.6	1056136	WORD	n/a	wordpools/wordpool_categorized_EN.txt	RULER	OfficeSupplies	8	9	[0, 0, 0]	n/a	catFR1	3	R1469D
1027.048	0.866	1057742	WORD_OFF	n/a	n/a	RULER	OfficeSupplies	8	9	[0, 0, 0]	n/a	catFR1	3	R1469D
1027.914	1.6	1058604	WORD	n/a	wordpools/wordpool_categorized_EN.txt	ROOF	Building	9	9	[0, 0, 0]	n/a	catFR1	3	R1469D
1029.514	1.001	1060211	WORD_OFF	n/a	n/a	ROOF	Building	9	9	[0, 0, 0]	n/a	catFR1	3	R1469D
1030.515	1.616	1061203	WORD	n/a	wordpools/wordpool_categorized_EN.txt	BATHROOM	Building	10	9	[0, 0, 0]	n/a	catFR1	3	R1469D
1032.131	0.9	1062820	WORD_OFF	n/a	n/a	BATHROOM	Building	10	9	[0, 0, 0]	n/a	catFR1	3	R1469D
1033.031	1.6	1063718	WORD	n/a	wordpools/wordpool_categorized_EN.txt	FRISBEE	Toys	11	9	[0, 0, 0]	n/a	catFR1	3	R1469D
1034.631	0.834	1065324	WORD_OFF	n/a	n/a	FRISBEE	Toys	11	9	[0, 0, 0]	n/a	catFR1	3	R1469D
1035.465	1.6	1066151	WORD	n/a	wordpools/wordpool_categorized_EN.txt	BASKETBALL	Toys	12	9	[0, 0, 0]	n/a	catFR1	3	R1469D
1037.065	0.001	1067755	PROB	5.716	n/a	n/a	n/a	-999	9	[5, 6, 7]	17.0	catFR1	3	R1469D
1037.066	0.0	1067756	START	n/a	n/a	n/a	n/a	-999	9	[-999, -999, -999]	n/a	catFR1	3	R1469D
1037.064	0.002	1067757	WORD_OFF	n/a	n/a	BASKETBALL	Toys	12	9	[0, 0, 0]	n/a	catFR1	3	R1469D
1037.066	0.0	1067757	ENCODING_END	n/a	n/a	n/a	n/a	-999	9	[0, 0, 0]	n/a	catFR1	3	R1469D
1037.066	5.732	1067757	DISTRACT_START	n/a	n/a	n/a	n/a	-999	9	[0, 0, 0]	n/a	catFR1	3	R1469D
1042.798	3.367	1073488	PROB	3.35	n/a	n/a	n/a	-999	9	[4, 7, 6]	17.0	catFR1	3	R1469D
1046.165	3.3	1076855	PROB	3.283	n/a	n/a	n/a	-999	9	[2, 4, 3]	9.0	catFR1	3	R1469D
1049.465	3.15	1080155	PROB	3.133	n/a	n/a	n/a	-999	9	[4, 3, 7]	14.0	catFR1	3	R1469D
1052.615	2.833	1083305	PROB	2.816	n/a	n/a	n/a	-999	9	[4, 2, 3]	9.0	catFR1	3	R1469D
1055.448	3.233	1086138	PROB	3.216	n/a	n/a	n/a	-999	9	[1, 5, 2]	8.0	catFR1	3	R1469D
1058.681	0.0	1089368	DISTRACT_END	n/a	n/a	n/a	n/a	-999	9	[0, 0, 0]	n/a	catFR1	3	R1469D
1058.681	2.05	1089370	STOP	n/a	n/a	n/a	n/a	-999	9	[-999, -999, -999]	n/a	catFR1	3	R1469D
1060.731	0.026	1091419	REC_START	n/a	n/a	n/a	n/a	-999	9	[0, 0, 0]	n/a	catFR1	3	R1469D
1060.757	1.0	1091446	REC_WORD_VV	0.026	n/a	<>	n/a	-999	9	[0, 0, 0]	n/a	catFR1	3	R1469D
1061.757	2.841	1092446	REC_WORD_VV	1.026	n/a	<>	n/a	-999	9	[0, 0, 0]	n/a	catFR1	3	R1469D
1064.598	1.098	1095287	REC_WORD	3.867	n/a	MARKER	OfficeSupplies	1	9	[0, 0, 0]	n/a	catFR1	3	R1469D
1065.696	2.219	1096385	REC_WORD	4.965	n/a	NOTEBOOK	OfficeSupplies	2	9	[0, 0, 0]	n/a	catFR1	3	R1469D
1067.915	0.45	1098604	REC_WORD_VV	7.184	n/a	<>	n/a	-999	9	[0, 0, 0]	n/a	catFR1	3	R1469D
1068.365	3.958	1099054	REC_WORD	7.634	n/a	RULER	OfficeSupplies	8	9	[0, 0, 0]	n/a	catFR1	3	R1469D
1072.323	0.971	1103012	REC_WORD	11.592	n/a	BASEBALL	Toys	5	9	[0, 0, 0]	n/a	catFR1	3	R1469D
1073.294	1.044	1103983	REC_WORD	12.563	n/a	MARBLES	Toys	6	9	[0, 0, 0]	n/a	catFR1	3	R1469D
1074.338	1.0	1105027	REC_WORD	13.607	n/a	BASKETBALL	Toys	12	9	[0, 0, 0]	n/a	catFR1	3	R1469D
1075.338	1.613	1106026	REC_WORD_VV	14.607	n/a	<>	n/a	-999	9	[0, 0, 0]	n/a	catFR1	3	R1469D
1076.951	5.41	1107639	REC_WORD_VV	16.22	n/a	<>	n/a	-999	9	[0, 0, 0]	n/a	catFR1	3	R1469D
1082.361	0.79	1113049	REC_WORD	21.63	n/a	FLOOR	Building	4	9	[0, 0, 0]	n/a	catFR1	3	R1469D
1083.151	2.808	1113839	REC_WORD	22.42	n/a	CEILING	Building	3	9	[0, 0, 0]	n/a	catFR1	3	R1469D
1085.959	4.288	1116647	REC_WORD	25.228	n/a	BATHROOM	Building	10	9	[0, 0, 0]	n/a	catFR1	3	R1469D
1090.247	0.72	1120935	REC_WORD_VV	29.516	n/a	<>	n/a	-999	9	[0, 0, 0]	n/a	catFR1	3	R1469D
1090.967	9.696	1121655	REC_END	n/a	n/a	n/a	n/a	-999	9	[0, 0, 0]	n/a	catFR1	3	R1469D
1100.663	10.352	1131351	COUNTDOWN_START	n/a	n/a	n/a	n/a	-999	10	[0, 0, 0]	n/a	catFR1	3	R1469D
1111.015	0.0	1141708	COUNTDOWN_END	n/a	n/a	n/a	n/a	-999	10	[0, 0, 0]	n/a	catFR1	3	R1469D
1111.015	2.082	1141708	ENCODING_START	n/a	n/a	n/a	n/a	-999	10	[0, 0, 0]	n/a	catFR1	3	R1469D
1113.097	1.601	1143786	WORD	n/a	wordpools/wordpool_categorized_EN.txt	HORSE	FarmAnimals	1	10	[0, 0, 0]	n/a	catFR1	3	R1469D
1114.698	0.999	1145381	WORD_OFF	n/a	n/a	HORSE	FarmAnimals	1	10	[0, 0, 0]	n/a	catFR1	3	R1469D
1115.697	1.6	1146385	WORD	n/a	wordpools/wordpool_categorized_EN.txt	CHICKEN	FarmAnimals	2	10	[0, 0, 0]	n/a	catFR1	3	R1469D
1117.297	0.817	1147991	WORD_OFF	n/a	n/a	CHICKEN	FarmAnimals	2	10	[0, 0, 0]	n/a	catFR1	3	R1469D
1118.114	1.617	1148805	WORD	n/a	wordpools/wordpool_categorized_EN.txt	RECLINER	Furniture	3	10	[0, 0, 0]	n/a	catFR1	3	R1469D
1119.731	0.766	1150423	WORD_OFF	n/a	n/a	RECLINER	Furniture	3	10	[0, 0, 0]	n/a	catFR1	3	R1469D
1120.497	1.601	1151179	WORD	n/a	wordpools/wordpool_categorized_EN.txt	TABLE	Furniture	4	10	[0, 0, 0]	n/a	catFR1	3	R1469D
1122.098	0.783	1152785	WORD_OFF	n/a	n/a	TABLE	Furniture	4	10	[0, 0, 0]	n/a	catFR1	3	R1469D
1122.881	1.6	1153565	WORD	n/a	wordpools/wordpool_categorized_EN.txt	SHRIMP	OceanAnimals	5	10	[0, 0, 0]	n/a	catFR1	3	R1469D
1124.481	0.833	1155171	WORD_OFF	n/a	n/a	SHRIMP	OceanAnimals	5	10	[0, 0, 0]	n/a	catFR1	3	R1469D
1125.314	1.616	1155997	WORD	n/a	wordpools/wordpool_categorized_EN.txt	DOLPHIN	OceanAnimals	6	10	[0, 0, 0]	n/a	catFR1	3	R1469D
1126.93	0.851	1157615	WORD_OFF	n/a	n/a	DOLPHIN	OceanAnimals	6	10	[0, 0, 0]	n/a	catFR1	3	R1469D
1127.781	1.6	1158466	WORD	n/a	wordpools/wordpool_categorized_EN.txt	PIG	FarmAnimals	7	10	[0, 0, 0]	n/a	catFR1	3	R1469D
1129.381	0.8	1160072	WORD_OFF	n/a	n/a	PIG	FarmAnimals	7	10	[0, 0, 0]	n/a	catFR1	3	R1469D
1130.181	1.6	1160863	WORD	n/a	wordpools/wordpool_categorized_EN.txt	TURKEY	FarmAnimals	8	10	[0, 0, 0]	n/a	catFR1	3	R1469D
1131.781	0.967	1162469	WORD_OFF	n/a	n/a	TURKEY	FarmAnimals	8	10	[0, 0, 0]	n/a	catFR1	3	R1469D
1132.748	1.6	1163437	WORD	n/a	wordpools/wordpool_categorized_EN.txt	COUCH	Furniture	9	10	[0, 0, 0]	n/a	catFR1	3	R1469D
1134.348	0.817	1165032	WORD_OFF	n/a	n/a	COUCH	Furniture	9	10	[0, 0, 0]	n/a	catFR1	3	R1469D
1135.165	1.616	1165847	WORD	n/a	wordpools/wordpool_categorized_EN.txt	DESK	Furniture	10	10	[0, 0, 0]	n/a	catFR1	3	R1469D
1136.781	0.967	1167465	WORD_OFF	n/a	n/a	DESK	Furniture	10	10	[0, 0, 0]	n/a	catFR1	3	R1469D
1137.748	1.6	1168433	WORD	n/a	wordpools/wordpool_categorized_EN.txt	CRAB	OceanAnimals	11	10	[0, 0, 0]	n/a	catFR1	3	R1469D
1139.348	0.95	1170039	WORD_OFF	n/a	n/a	CRAB	OceanAnimals	11	10	[0, 0, 0]	n/a	catFR1	3	R1469D
1140.298	1.6	1170984	WORD	n/a	wordpools/wordpool_categorized_EN.txt	OCTOPUS	OceanAnimals	12	10	[0, 0, 0]	n/a	catFR1	3	R1469D
1141.898	0.003	1172583	PROB	4.416	n/a	n/a	n/a	-999	10	[1, 4, 7]	12.0	catFR1	3	R1469D
1141.901	0.0	1172586	START	n/a	n/a	n/a	n/a	-999	10	[-999, -999, -999]	n/a	catFR1	3	R1469D
1141.898	0.003	1172590	WORD_OFF	n/a	n/a	OCTOPUS	OceanAnimals	12	10	[0, 0, 0]	n/a	catFR1	3	R1469D
1141.901	0.0	1172590	ENCODING_END	n/a	n/a	n/a	n/a	-999	10	[0, 0, 0]	n/a	catFR1	3	R1469D
1141.901	4.43	1172590	DISTRACT_START	n/a	n/a	n/a	n/a	-999	10	[0, 0, 0]	n/a	catFR1	3	R1469D
1146.331	2.166	1177016	PROB	2.149	n/a	n/a	n/a	-999	10	[3, 3, 3]	9.0	catFR1	3	R1469D
1148.497	3.099	1179182	PROB	3.083	n/a	n/a	n/a	-999	10	[5, 3, 5]	13.0	catFR1	3	R1469D
1151.596	3.535	1182280	PROB	3.517	n/a	n/a	n/a	-999	10	[1, 2, 5]	8.0	catFR1	3	R1469D
1155.131	2.584	1185815	PROB	2.566	n/a	n/a	n/a	-999	10	[3, 2, 3]	8.0	catFR1	3	R1469D
1157.715	2.833	1188399	PROB	2.816	n/a	n/a	n/a	-999	10	[2, 8, 2]	12.0	catFR1	3	R1469D
1160.548	9.15	1191232	PROB	9.133	n/a	n/a	n/a	-999	10	[8, 3, 8]	19.0	catFR1	3	R1469D
1169.698	0.0	1200378	DISTRACT_END	n/a	n/a	n/a	n/a	-999	10	[0, 0, 0]	n/a	catFR1	3	R1469D
1169.698	2.283	1200381	STOP	n/a	n/a	n/a	n/a	-999	10	[-999, -999, -999]	n/a	catFR1	3	R1469D
1171.981	2.456	1202665	REC_START	n/a	n/a	n/a	n/a	-999	10	[0, 0, 0]	n/a	catFR1	3	R1469D
1174.437	0.623	1205120	REC_WORD	2.456	n/a	CHICKEN	FarmAnimals	2	10	[0, 0, 0]	n/a	catFR1	3	R1469D
1175.06	1.072	1205743	REC_WORD	3.079	n/a	TURKEY	FarmAnimals	8	10	[0, 0, 0]	n/a	catFR1	3	R1469D
1176.132	1.149	1206815	REC_WORD	4.151	n/a	PIG	FarmAnimals	7	10	[0, 0, 0]	n/a	catFR1	3	R1469D
1177.281	1.689	1207964	REC_WORD	5.3	n/a	DOLPHIN	OceanAnimals	6	10	[0, 0, 0]	n/a	catFR1	3	R1469D
1178.97	2.596	1209653	REC_WORD	6.989	n/a	OCTOPUS	OceanAnimals	12	10	[0, 0, 0]	n/a	catFR1	3	R1469D
1181.566	2.642	1212249	REC_WORD	9.585	n/a	SHRIMP	OceanAnimals	5	10	[0, 0, 0]	n/a	catFR1	3	R1469D
1184.208	3.159	1214891	REC_WORD_VV	12.227	n/a	<>	n/a	-999	10	[0, 0, 0]	n/a	catFR1	3	R1469D
1187.367	5.687	1218049	REC_WORD	15.386	n/a	SOFA	Furniture	-999	10	[0, 0, 0]	n/a	catFR1	3	R1469D
1193.054	9.163	1223736	REC_WORD	21.073	n/a	CHAIR	n/a	-999	10	[0, 0, 0]	n/a	catFR1	3	R1469D
1202.217	4.764	1232901	REC_END	n/a	n/a	n/a	n/a	-999	10	[0, 0, 0]	n/a	catFR1	3	R1469D
1206.981	10.35	1237672	COUNTDOWN_START	n/a	n/a	n/a	n/a	-999	11	[0, 0, 0]	n/a	catFR1	3	R1469D
1217.331	0.0	1248017	COUNTDOWN_END	n/a	n/a	n/a	n/a	-999	11	[0, 0, 0]	n/a	catFR1	3	R1469D
1217.331	2.084	1248017	ENCODING_START	n/a	n/a	n/a	n/a	-999	11	[0, 0, 0]	n/a	catFR1	3	R1469D
1219.415	1.6	1250096	WORD	n/a	wordpools/wordpool_categorized_EN.txt	MONKEY	Zoo	1	11	[0, 0, 0]	n/a	catFR1	3	R1469D
1221.015	0.949	1251702	WORD_OFF	n/a	n/a	MONKEY	Zoo	1	11	[0, 0, 0]	n/a	catFR1	3	R1469D
1221.964	1.601	1252647	WORD	n/a	wordpools/wordpool_categorized_EN.txt	BEAR	Zoo	2	11	[0, 0, 0]	n/a	catFR1	3	R1469D
1223.565	0.832	1254241	WORD_OFF	n/a	n/a	BEAR	Zoo	2	11	[0, 0, 0]	n/a	catFR1	3	R1469D
1224.397	1.601	1255079	WORD	n/a	wordpools/wordpool_categorized_EN.txt	SODA	Beverages	3	11	[0, 0, 0]	n/a	catFR1	3	R1469D
1225.998	0.983	1256685	WORD_OFF	n/a	n/a	SODA	Beverages	3	11	[0, 0, 0]	n/a	catFR1	3	R1469D
1226.981	1.6	1257666	WORD	n/a	wordpools/wordpool_categorized_EN.txt	MILK	Beverages	4	11	[0, 0, 0]	n/a	catFR1	3	R1469D
1228.581	0.867	1259260	WORD_OFF	n/a	n/a	MILK	Beverages	4	11	[0, 0, 0]	n/a	catFR1	3	R1469D
1229.448	1.6	1260134	WORD	n/a	wordpools/wordpool_categorized_EN.txt	CHERRY	Fruit	5	11	[0, 0, 0]	n/a	catFR1	3	R1469D
1231.048	0.933	1261728	WORD_OFF	n/a	n/a	CHERRY	Fruit	5	11	[0, 0, 0]	n/a	catFR1	3	R1469D
1231.981	1.617	1262661	WORD	n/a	wordpools/wordpool_categorized_EN.txt	BLUEBERRY	Fruit	6	11	[0, 0, 0]	n/a	catFR1	3	R1469D
1233.598	0.933	1264279	WORD_OFF	n/a	n/a	BLUEBERRY	Fruit	6	11	[0, 0, 0]	n/a	catFR1	3	R1469D
1234.531	1.617	1265212	WORD	n/a	wordpools/wordpool_categorized_EN.txt	TEA	Beverages	7	11	[0, 0, 0]	n/a	catFR1	3	R1469D
1236.148	0.983	1266830	WORD_OFF	n/a	n/a	TEA	Beverages	7	11	[0, 0, 0]	n/a	catFR1	3	R1469D
1237.131	1.616	1267810	WORD	n/a	wordpools/wordpool_categorized_EN.txt	COFFEE	Beverages	8	11	[0, 0, 0]	n/a	catFR1	3	R1469D
1238.747	0.901	1269428	WORD_OFF	n/a	n/a	COFFEE	Beverages	8	11	[0, 0, 0]	n/a	catFR1	3	R1469D
1239.648	1.6	1270325	WORD	n/a	wordpools/wordpool_categorized_EN.txt	LION	Zoo	9	11	[0, 0, 0]	n/a	catFR1	3	R1469D
1241.248	0.866	1271931	WORD_OFF	n/a	n/a	LION	Zoo	9	11	[0, 0, 0]	n/a	catFR1	3	R1469D
1242.114	1.6	1272794	WORD	n/a	wordpools/wordpool_categorized_EN.txt	ORANGUTAN	Zoo	10	11	[0, 0, 0]	n/a	catFR1	3	R1469D
1243.714	0.783	1274400	WORD_OFF	n/a	n/a	ORANGUTAN	Zoo	10	11	[0, 0, 0]	n/a	catFR1	3	R1469D
1244.497	1.601	1275179	WORD	n/a	wordpools/wordpool_categorized_EN.txt	APPLE	Fruit	11	11	[0, 0, 0]	n/a	catFR1	3	R1469D
1246.098	0.866	1276773	WORD_OFF	n/a	n/a	APPLE	Fruit	11	11	[0, 0, 0]	n/a	catFR1	3	R1469D
1246.964	1.617	1277647	WORD	n/a	wordpools/wordpool_categorized_EN.txt	LEMON	Fruit	12	11	[0, 0, 0]	n/a	catFR1	3	R1469D
1248.581	0.003	1279260	PROB	3.967	n/a	n/a	n/a	-999	11	[8, 2, 8]	18.0	catFR1	3	R1469D
1248.584	0.0	1279263	START	n/a	n/a	n/a	n/a	-999	11	[-999, -999, -999]	n/a	catFR1	3	R1469D
1248.58	0.004	1279265	WORD_OFF	n/a	n/a	LEMON	Fruit	12	11	[0, 0, 0]	n/a	catFR1	3	R1469D
1248.584	0.0	1279265	ENCODING_END	n/a	n/a	n/a	n/a	-999	11	[0, 0, 0]	n/a	catFR1	3	R1469D
1248.584	3.982	1279265	DISTRACT_START	n/a	n/a	n/a	n/a	-999	11	[0, 0, 0]	n/a	catFR1	3	R1469D
1252.566	4.816	1283245	PROB	4.799	n/a	n/a	n/a	-999	11	[8, 7, 8]	23.0	catFR1	3	R1469D
1257.382	3.282	1288061	PROB	3.265	n/a	n/a	n/a	-999	11	[7, 2, 2]	11.0	catFR1	3	R1469D
1260.664	4.301	1291342	PROB	4.284	n/a	n/a	n/a	-999	11	[8, 5, 3]	16.0	catFR1	3	R1469D
1264.965	5.515	1295643	PROB	5.5	n/a	n/a	n/a	-999	11	[7, 5, 8]	20.0	catFR1	3	R1469D
1270.48	0.0	1301158	STOP	n/a	n/a	n/a	n/a	-999	11	[-999, -999, -999]	n/a	catFR1	3	R1469D
1270.48	2.151	1301160	DISTRACT_END	n/a	n/a	n/a	n/a	-999	11	[0, 0, 0]	n/a	catFR1	3	R1469D
1272.631	1.909	1303306	REC_START	n/a	n/a	n/a	n/a	-999	11	[0, 0, 0]	n/a	catFR1	3	R1469D
1274.54	0.852	1305218	REC_WORD	1.909	n/a	MILK	Beverages	4	11	[0, 0, 0]	n/a	catFR1	3	R1469D
1275.392	0.761	1306070	REC_WORD	2.761	n/a	SODA	Beverages	3	11	[0, 0, 0]	n/a	catFR1	3	R1469D
1276.153	0.913	1306831	REC_WORD	3.522	n/a	COFFEE	Beverages	8	11	[0, 0, 0]	n/a	catFR1	3	R1469D
1277.066	0.655	1307744	REC_WORD	4.435	n/a	TEA	Beverages	7	11	[0, 0, 0]	n/a	catFR1	3	R1469D
1277.721	0.805	1308399	REC_WORD	5.09	n/a	CHERRY	Fruit	5	11	[0, 0, 0]	n/a	catFR1	3	R1469D
1278.526	1.988	1309204	REC_WORD	5.895	n/a	BLUEBERRY	Fruit	6	11	[0, 0, 0]	n/a	catFR1	3	R1469D
1280.514	5.753	1311191	REC_WORD_VV	7.883	n/a	<>	n/a	-999	11	[0, 0, 0]	n/a	catFR1	3	R1469D
1286.267	2.779	1316944	REC_WORD	13.636	n/a	LEMON	Fruit	12	11	[0, 0, 0]	n/a	catFR1	3	R1469D
1289.046	2.801	1319723	REC_WORD_VV	16.415	n/a	<>	n/a	-999	11	[0, 0, 0]	n/a	catFR1	3	R1469D
1291.847	1.231	1322524	REC_WORD	19.216	n/a	ORANGUTAN	Zoo	10	11	[0, 0, 0]	n/a	catFR1	3	R1469D
1293.078	3.108	1323755	REC_WORD	20.447	n/a	LION	Zoo	9	11	[0, 0, 0]	n/a	catFR1	3	R1469D
1296.186	1.507	1326863	REC_WORD	23.555	n/a	BEAR	Zoo	2	11	[0, 0, 0]	n/a	catFR1	3	R1469D
1297.693	2.142	1328370	REC_WORD_VV	25.062	n/a	<>	n/a	-999	11	[0, 0, 0]	n/a	catFR1	3	R1469D
1299.835	3.043	1330511	REC_WORD_VV	27.204	n/a	<>	n/a	-999	11	[0, 0, 0]	n/a	catFR1	3	R1469D
1302.878	6.869	1333554	REC_END	n/a	n/a	n/a	n/a	-999	11	[0, 0, 0]	n/a	catFR1	3	R1469D
1309.747	10.35	1340427	COUNTDOWN_START	n/a	n/a	n/a	n/a	-999	12	[0, 0, 0]	n/a	catFR1	3	R1469D
1320.097	0.0	1350772	COUNTDOWN_END	n/a	n/a	n/a	n/a	-999	12	[0, 0, 0]	n/a	catFR1	3	R1469D
1320.097	1.967	1350772	ENCODING_START	n/a	n/a	n/a	n/a	-999	12	[0, 0, 0]	n/a	catFR1	3	R1469D
1322.064	1.617	1352744	WORD	n/a	wordpools/wordpool_categorized_EN.txt	BULL	FarmAnimals	1	12	[0, 0, 0]	n/a	catFR1	3	R1469D
1323.681	0.85	1354362	WORD_OFF	n/a	n/a	BULL	FarmAnimals	1	12	[0, 0, 0]	n/a	catFR1	3	R1469D
1324.531	1.6	1355212	WORD	n/a	wordpools/wordpool_categorized_EN.txt	HEN	FarmAnimals	2	12	[0, 0, 0]	n/a	catFR1	3	R1469D
1326.131	0.867	1356806	WORD_OFF	n/a	n/a	HEN	FarmAnimals	2	12	[0, 0, 0]	n/a	catFR1	3	R1469D
1326.998	1.6	1357680	WORD	n/a	wordpools/wordpool_categorized_EN.txt	WINE	Beverages	3	12	[0, 0, 0]	n/a	catFR1	3	R1469D
1328.598	0.799	1359275	WORD_OFF	n/a	n/a	WINE	Beverages	3	12	[0, 0, 0]	n/a	catFR1	3	R1469D
1329.397	1.617	1360078	WORD	n/a	wordpools/wordpool_categorized_EN.txt	WATER	Beverages	4	12	[0, 0, 0]	n/a	catFR1	3	R1469D
1331.014	0.932	1361685	WORD_OFF	n/a	n/a	WATER	Beverages	4	12	[0, 0, 0]	n/a	catFR1	3	R1469D
1331.946	1.601	1362617	WORD	n/a	wordpools/wordpool_categorized_EN.txt	DRUM	Instruments	5	12	[0, 0, 0]	n/a	catFR1	3	R1469D
1333.547	0.983	1364223	WORD_OFF	n/a	n/a	DRUM	Instruments	5	12	[0, 0, 0]	n/a	catFR1	3	R1469D
1334.53	1.601	1365203	WORD	n/a	wordpools/wordpool_categorized_EN.txt	TRUMPET	Instruments	6	12	[0, 0, 0]	n/a	catFR1	3	R1469D
1336.131	0.833	1366809	WORD_OFF	n/a	n/a	TRUMPET	Instruments	6	12	[0, 0, 0]	n/a	catFR1	3	R1469D
1336.964	1.6	1367636	WORD	n/a	wordpools/wordpool_categorized_EN.txt	ROOSTER	FarmAnimals	7	12	[0, 0, 0]	n/a	catFR1	3	R1469D
1338.564	0.784	1369242	WORD_OFF	n/a	n/a	ROOSTER	FarmAnimals	7	12	[0, 0, 0]	n/a	catFR1	3	R1469D
1339.348	1.6	1370021	WORD	n/a	wordpools/wordpool_categorized_EN.txt	CALF	FarmAnimals	8	12	[0, 0, 0]	n/a	catFR1	3	R1469D
1340.948	0.933	1371627	WORD_OFF	n/a	n/a	CALF	FarmAnimals	8	12	[0, 0, 0]	n/a	catFR1	3	R1469D
1341.881	1.617	1372560	WORD	n/a	wordpools/wordpool_categorized_EN.txt	TROMBONE	Instruments	9	12	[0, 0, 0]	n/a	catFR1	3	R1469D
1343.498	0.966	1374178	WORD_OFF	n/a	n/a	TROMBONE	Instruments	9	12	[0, 0, 0]	n/a	catFR1	3	R1469D
1344.464	1.6	1375135	WORD	n/a	wordpools/wordpool_categorized_EN.txt	ORGAN	Instruments	10	12	[0, 0, 0]	n/a	catFR1	3	R1469D
1346.064	0.917	1376741	WORD_OFF	n/a	n/a	ORGAN	Instruments	10	12	[0, 0, 0]	n/a	catFR1	3	R1469D
1346.981	1.601	1377662	WORD	n/a	wordpools/wordpool_categorized_EN.txt	RUM	Beverages	11	12	[0, 0, 0]	n/a	catFR1	3	R1469D
1348.582	0.916	1379256	WORD_OFF	n/a	n/a	RUM	Beverages	11	12	[0, 0, 0]	n/a	catFR1	3	R1469D
1349.498	1.6	1380178	WORD	n/a	wordpools/wordpool_categorized_EN.txt	JUICE	Beverages	12	12	[0, 0, 0]	n/a	catFR1	3	R1469D
1351.098	0.002	1381772	WORD_OFF	n/a	n/a	JUICE	Beverages	12	12	[0, 0, 0]	n/a	catFR1	3	R1469D
1351.1	0.0	1381772	ENCODING_END	n/a	n/a	n/a	n/a	-999	12	[0, 0, 0]	n/a	catFR1	3	R1469D
1351.1	0.0	1381772	DISTRACT_START	n/a	n/a	n/a	n/a	-999	12	[0, 0, 0]	n/a	catFR1	3	R1469D
1351.098	0.002	1381772	PROB	4.0	n/a	n/a	n/a	-999	12	[6, 5, 5]	16.0	catFR1	3	R1469D
1351.1	4.014	1381774	START	n/a	n/a	n/a	n/a	-999	12	[-999, -999, -999]	n/a	catFR1	3	R1469D
1355.114	2.584	1385787	PROB	2.567	n/a	n/a	n/a	-999	12	[2, 2, 4]	8.0	catFR1	3	R1469D
1357.698	2.817	1388371	PROB	2.8	n/a	n/a	n/a	-999	12	[6, 1, 2]	9.0	catFR1	3	R1469D
1360.515	3.149	1391188	PROB	3.132	n/a	n/a	n/a	-999	12	[8, 4, 7]	19.0	catFR1	3	R1469D
1363.664	5.218	1394337	PROB	5.2	n/a	n/a	n/a	-999	12	[8, 6, 3]	17.0	catFR1	3	R1469D
1368.882	4.049	1399555	PROB	4.033	n/a	n/a	n/a	-999	12	[8, 1, 5]	14.0	catFR1	3	R1469D
1372.931	0.0	1403603	STOP	n/a	n/a	n/a	n/a	-999	12	[-999, -999, -999]	n/a	catFR1	3	R1469D
1372.931	2.4	1403608	DISTRACT_END	n/a	n/a	n/a	n/a	-999	12	[0, 0, 0]	n/a	catFR1	3	R1469D
1375.331	2.899	1406001	REC_START	n/a	n/a	n/a	n/a	-999	12	[0, 0, 0]	n/a	catFR1	3	R1469D
1378.23	2.637	1408902	REC_WORD	2.899	n/a	BULL	FarmAnimals	1	12	[0, 0, 0]	n/a	catFR1	3	R1469D
1380.867	2.375	1411539	REC_WORD	5.536	n/a	HEN	FarmAnimals	2	12	[0, 0, 0]	n/a	catFR1	3	R1469D
1383.242	6.428	1413914	REC_WORD	7.911	n/a	CALF	FarmAnimals	8	12	[0, 0, 0]	n/a	catFR1	3	R1469D
1389.67	1.239	1420342	REC_WORD	14.339	n/a	TRUMPET	Instruments	6	12	[0, 0, 0]	n/a	catFR1	3	R1469D
1390.909	2.95	1421581	REC_WORD	15.578	n/a	ORGAN	Instruments	10	12	[0, 0, 0]	n/a	catFR1	3	R1469D
1393.859	1.05	1424530	REC_WORD_VV	18.528	n/a	<>	n/a	-999	12	[0, 0, 0]	n/a	catFR1	3	R1469D
1394.909	1.738	1425580	REC_WORD	19.578	n/a	RUM	Beverages	11	12	[0, 0, 0]	n/a	catFR1	3	R1469D
1396.647	2.819	1427318	REC_WORD	21.316	n/a	WATER	Beverages	4	12	[0, 0, 0]	n/a	catFR1	3	R1469D
1399.466	6.096	1430137	REC_WORD_VV	24.135	n/a	<>	n/a	-999	12	[0, 0, 0]	n/a	catFR1	3	R1469D
1405.562	0.0	1436237	REC_END	n/a	n/a	n/a	n/a	-999	12	[0, 0, 0]	n/a	catFR1	3	R1469D
