onset	duration	sample	trial_type	response_time	stim_file	item_name	category	serialpos	list	test	answer	experiment	session	subject
0.0	2.332	2679	INSTRUCT_START	n/a	n/a	n/a	n/a	-999	-999	[0, 0, 0]	n/a	catFR1	4	R1380D
2.332	27.449	5011	INSTRUCT_END	n/a	n/a	n/a	n/a	-999	-999	[0, 0, 0]	n/a	catFR1	4	R1380D
29.781	10.351	32459	COUNTDOWN_START	n/a	n/a	n/a	n/a	-999	-999	[0, 0, 0]	n/a	catFR1	4	R1380D
40.132	0.0	42809	COUNTDOWN_END	n/a	n/a	n/a	n/a	-999	-999	[0, 0, 0]	n/a	catFR1	4	R1380D
40.132	1.898	42809	ENCODING_START	n/a	n/a	n/a	n/a	-999	-1	[0, 0, 0]	n/a	catFR1	4	R1380D
42.03	1.601	44711	WORD	n/a	n/a	SECOND	Times	1	-1	[0, 0, 0]	n/a	catFR1	4	R1380D
43.631	0.933	46306	WORD_OFF	n/a	n/a	SECOND	Times	1	-1	[0, 0, 0]	n/a	catFR1	4	R1380D
44.564	1.6	47237	WORD	n/a	n/a	DAY	Times	2	-1	[0, 0, 0]	n/a	catFR1	4	R1380D
46.164	0.916	48843	WORD_OFF	n/a	n/a	DAY	Times	2	-1	[0, 0, 0]	n/a	catFR1	4	R1380D
47.08	1.601	49753	WORD	n/a	n/a	FIREMAN	Professions	3	-1	[0, 0, 0]	n/a	catFR1	4	R1380D
48.681	0.816	51359	WORD_OFF	n/a	n/a	FIREMAN	Professions	3	-1	[0, 0, 0]	n/a	catFR1	4	R1380D
49.497	1.6	52177	WORD	n/a	n/a	FARMER	Professions	4	-1	[0, 0, 0]	n/a	catFR1	4	R1380D
51.097	0.833	53772	WORD_OFF	n/a	n/a	FARMER	Professions	4	-1	[0, 0, 0]	n/a	catFR1	4	R1380D
51.93	1.616	54600	WORD	n/a	n/a	WOOL	Materials	5	-1	[0, 0, 0]	n/a	catFR1	4	R1380D
53.546	0.852	56226	WORD_OFF	n/a	n/a	WOOL	Materials	5	-1	[0, 0, 0]	n/a	catFR1	4	R1380D
54.398	1.615	57075	WORD	n/a	n/a	SILK	Materials	6	-1	[0, 0, 0]	n/a	catFR1	4	R1380D
56.013	0.95	58691	WORD_OFF	n/a	n/a	SILK	Materials	6	-1	[0, 0, 0]	n/a	catFR1	4	R1380D
56.963	1.617	59642	WORD	n/a	n/a	MINUTE	Times	7	-1	[0, 0, 0]	n/a	catFR1	4	R1380D
58.58	0.884	61258	WORD_OFF	n/a	n/a	MINUTE	Times	7	-1	[0, 0, 0]	n/a	catFR1	4	R1380D
59.464	1.617	62138	WORD	n/a	n/a	HOUR	Times	8	-1	[0, 0, 0]	n/a	catFR1	4	R1380D
61.081	0.782	63753	WORD_OFF	n/a	n/a	HOUR	Times	8	-1	[0, 0, 0]	n/a	catFR1	4	R1380D
61.863	1.617	64541	WORD	n/a	n/a	TEACHER	Professions	9	-1	[0, 0, 0]	n/a	catFR1	4	R1380D
63.48	0.801	66157	WORD_OFF	n/a	n/a	TEACHER	Professions	9	-1	[0, 0, 0]	n/a	catFR1	4	R1380D
64.281	1.616	66954	WORD	n/a	n/a	PLUMBER	Professions	10	-1	[0, 0, 0]	n/a	catFR1	4	R1380D
65.897	0.768	68570	WORD_OFF	n/a	n/a	PLUMBER	Professions	10	-1	[0, 0, 0]	n/a	catFR1	4	R1380D
66.665	1.616	69337	WORD	n/a	n/a	LEATHER	Materials	11	-1	[0, 0, 0]	n/a	catFR1	4	R1380D
68.281	0.884	70953	WORD_OFF	n/a	n/a	LEATHER	Materials	11	-1	[0, 0, 0]	n/a	catFR1	4	R1380D
69.165	1.599	71843	WORD	n/a	n/a	DENIM	Materials	12	-1	[0, 0, 0]	n/a	catFR1	4	R1380D
70.764	0.002	73438	WORD_OFF	n/a	n/a	DENIM	Materials	12	-1	[0, 0, 0]	n/a	catFR1	4	R1380D
70.766	0.001	73438	ENCODING_END	n/a	n/a	n/a	n/a	-999	-1	[0, 0, 0]	n/a	catFR1	4	R1380D
70.767	0.0	73438	DISTRACT_START	n/a	n/a	n/a	n/a	-999	-1	[0, 0, 0]	n/a	catFR1	4	R1380D
70.765	0.002	73439	PROB	0.002	n/a	n/a	n/a	-999	-1	[3, 2, 8]	13	catFR1	4	R1380D
70.767	2.947	73441	START	n/a	n/a	n/a	n/a	-999	-1	[-999, -999, -999]	n/a	catFR1	4	R1380D
73.714	2.667	76388	PROB	2.667	n/a	n/a	n/a	-999	-1	[7, 4, 2]	13	catFR1	4	R1380D
76.381	3.9	79054	PROB	3.9	n/a	n/a	n/a	-999	-1	[8, 1, 7]	16	catFR1	4	R1380D
80.281	2.884	82954	PROB	2.884	n/a	n/a	n/a	-999	-1	[8, 3, 5]	16	catFR1	4	R1380D
83.165	2.733	85838	PROB	2.733	n/a	n/a	n/a	-999	-1	[2, 1, 1]	4	catFR1	4	R1380D
85.898	3.833	88571	PROB	3.833	n/a	n/a	n/a	-999	-1	[4, 2, 3]	9	catFR1	4	R1380D
89.731	3.283	92404	PROB	3.283	n/a	n/a	n/a	-999	-1	[7, 4, 2]	13	catFR1	4	R1380D
93.014	0.0	95687	STOP	n/a	n/a	n/a	n/a	-999	-1	[-999, -999, -999]	n/a	catFR1	4	R1380D
93.014	1.034	95692	DISTRACT_END	n/a	n/a	n/a	n/a	-999	-1	[0, 0, 0]	n/a	catFR1	4	R1380D
94.048	1.626	96725	REC_START	n/a	n/a	n/a	n/a	-999	-1	[0, 0, 0]	n/a	catFR1	4	R1380D
95.674	1.429	98346	REC_WORD	1.429	n/a	FIREMAN	Professions	3	-1	[0, 0, 0]	n/a	catFR1	4	R1380D
97.103	0.659	99775	REC_WORD	0.659	n/a	PLUMBER	Professions	10	-1	[0, 0, 0]	n/a	catFR1	4	R1380D
97.762	0.393	100434	REC_WORD	0.393	n/a	TEACHER	Professions	9	-1	[0, 0, 0]	n/a	catFR1	4	R1380D
98.155	0.726	100827	REC_WORD	0.726	n/a	FARMER	Professions	4	-1	[0, 0, 0]	n/a	catFR1	4	R1380D
98.881	0.445	101553	REC_WORD	0.445	n/a	WOOL	Materials	5	-1	[0, 0, 0]	n/a	catFR1	4	R1380D
99.326	0.985	101998	REC_WORD	0.985	n/a	SILK	Materials	6	-1	[0, 0, 0]	n/a	catFR1	4	R1380D
100.311	0.614	102983	REC_WORD	0.614	n/a	DENIM	Materials	12	-1	[0, 0, 0]	n/a	catFR1	4	R1380D
100.925	7.56	103597	REC_WORD	7.56	n/a	LEATHER	Materials	11	-1	[0, 0, 0]	n/a	catFR1	4	R1380D
108.485	10.414	111157	REC_WORD	10.414	n/a	BOY	n/a	-999	-1	[0, 0, 0]	n/a	catFR1	4	R1380D
118.899	5.42	121570	REC_WORD_VV	5.42	n/a	<>	n/a	-999	-1	[0, 0, 0]	n/a	catFR1	4	R1380D
124.319	12.128	126986	REC_END	n/a	n/a	n/a	n/a	-999	-1	[0, 0, 0]	n/a	catFR1	4	R1380D
136.447	10.351	139125	COUNTDOWN_START	n/a	n/a	n/a	n/a	-999	1	[0, 0, 0]	n/a	catFR1	4	R1380D
146.798	0.0	149464	COUNTDOWN_END	n/a	n/a	n/a	n/a	-999	1	[0, 0, 0]	n/a	catFR1	4	R1380D
146.798	2.282	149474	ENCODING_START	n/a	n/a	n/a	n/a	-999	1	[0, 0, 0]	n/a	catFR1	4	R1380D
149.08	1.601	151745	WORD	n/a	wordpools/wordpool_categorized_EN.txt	PIE	Desserts	1	1	[0, 0, 0]	n/a	catFR1	4	R1380D
150.681	0.866	153350	WORD_OFF	n/a	n/a	PIE	Desserts	1	1	[0, 0, 0]	n/a	catFR1	4	R1380D
151.547	1.617	154220	WORD	n/a	wordpools/wordpool_categorized_EN.txt	JELLO	Desserts	2	1	[0, 0, 0]	n/a	catFR1	4	R1380D
153.164	0.9	155835	WORD_OFF	n/a	n/a	JELLO	Desserts	2	1	[0, 0, 0]	n/a	catFR1	4	R1380D
154.064	1.6	156735	WORD	n/a	wordpools/wordpool_categorized_EN.txt	CARROT	Vegetables	3	1	[0, 0, 0]	n/a	catFR1	4	R1380D
155.664	0.867	158331	WORD_OFF	n/a	n/a	CARROT	Vegetables	3	1	[0, 0, 0]	n/a	catFR1	4	R1380D
156.531	1.6	159200	WORD	n/a	wordpools/wordpool_categorized_EN.txt	CUCUMBER	Vegetables	4	1	[0, 0, 0]	n/a	catFR1	4	R1380D
158.131	0.915	160795	WORD_OFF	n/a	n/a	CUCUMBER	Vegetables	4	1	[0, 0, 0]	n/a	catFR1	4	R1380D
159.046	1.6	161716	WORD	n/a	wordpools/wordpool_categorized_EN.txt	HEAD	Bodyparts	5	1	[0, 0, 0]	n/a	catFR1	4	R1380D
160.646	1.0	163321	WORD_OFF	n/a	n/a	HEAD	Bodyparts	5	1	[0, 0, 0]	n/a	catFR1	4	R1380D
161.646	1.601	164313	WORD	n/a	wordpools/wordpool_categorized_EN.txt	LEG	Bodyparts	6	1	[0, 0, 0]	n/a	catFR1	4	R1380D
163.247	0.9	165919	WORD_OFF	n/a	n/a	LEG	Bodyparts	6	1	[0, 0, 0]	n/a	catFR1	4	R1380D
164.147	1.617	166819	WORD	n/a	wordpools/wordpool_categorized_EN.txt	CELERY	Vegetables	7	1	[0, 0, 0]	n/a	catFR1	4	R1380D
165.764	0.766	168435	WORD_OFF	n/a	n/a	CELERY	Vegetables	7	1	[0, 0, 0]	n/a	catFR1	4	R1380D
166.53	1.601	169202	WORD	n/a	wordpools/wordpool_categorized_EN.txt	SPINACH	Vegetables	8	1	[0, 0, 0]	n/a	catFR1	4	R1380D
168.131	0.965	170797	WORD_OFF	n/a	n/a	SPINACH	Vegetables	8	1	[0, 0, 0]	n/a	catFR1	4	R1380D
169.096	1.601	171769	WORD	n/a	wordpools/wordpool_categorized_EN.txt	CUPCAKE	Desserts	9	1	[0, 0, 0]	n/a	catFR1	4	R1380D
170.697	0.967	173364	WORD_OFF	n/a	n/a	CUPCAKE	Desserts	9	1	[0, 0, 0]	n/a	catFR1	4	R1380D
171.664	1.6	174336	WORD	n/a	wordpools/wordpool_categorized_EN.txt	FUDGE	Desserts	10	1	[0, 0, 0]	n/a	catFR1	4	R1380D
173.264	0.933	175931	WORD_OFF	n/a	n/a	FUDGE	Desserts	10	1	[0, 0, 0]	n/a	catFR1	4	R1380D
174.197	1.6	176862	WORD	n/a	wordpools/wordpool_categorized_EN.txt	ELBOW	Bodyparts	11	1	[0, 0, 0]	n/a	catFR1	4	R1380D
175.797	0.817	178467	WORD_OFF	n/a	n/a	ELBOW	Bodyparts	11	1	[0, 0, 0]	n/a	catFR1	4	R1380D
176.614	1.617	179286	WORD	n/a	wordpools/wordpool_categorized_EN.txt	FOOT	Bodyparts	12	1	[0, 0, 0]	n/a	catFR1	4	R1380D
178.231	0.0	180899	PROB	0.0	n/a	n/a	n/a	-999	1	[2, 4, 2]	8	catFR1	4	R1380D
178.231	0.001	180901	WORD_OFF	n/a	n/a	FOOT	Bodyparts	12	1	[0, 0, 0]	n/a	catFR1	4	R1380D
178.232	0.001	180901	ENCODING_END	n/a	n/a	n/a	n/a	-999	1	[0, 0, 0]	n/a	catFR1	4	R1380D
178.233	0.0	180901	DISTRACT_START	n/a	n/a	n/a	n/a	-999	1	[0, 0, 0]	n/a	catFR1	4	R1380D
178.233	6.098	180901	START	n/a	n/a	n/a	n/a	-999	1	[-999, -999, -999]	n/a	catFR1	4	R1380D
184.331	3.8	186999	PROB	3.8	n/a	n/a	n/a	-999	1	[5, 2, 7]	14	catFR1	4	R1380D
188.131	3.65	190799	PROB	3.65	n/a	n/a	n/a	-999	1	[8, 7, 3]	18	catFR1	4	R1380D
191.781	3.749	194448	PROB	3.749	n/a	n/a	n/a	-999	1	[4, 6, 6]	16	catFR1	4	R1380D
195.53	3.251	198197	PROB	3.251	n/a	n/a	n/a	-999	1	[4, 5, 6]	15	catFR1	4	R1380D
198.781	0.0	201447	DISTRACT_END	n/a	n/a	n/a	n/a	-999	1	[0, 0, 0]	n/a	catFR1	4	R1380D
198.781	1.25	201448	STOP	n/a	n/a	n/a	n/a	-999	1	[-999, -999, -999]	n/a	catFR1	4	R1380D
200.031	2.565	202695	REC_START	n/a	n/a	n/a	n/a	-999	1	[0, 0, 0]	n/a	catFR1	4	R1380D
202.596	1.245	205263	REC_WORD	1.245	n/a	JELLO	Desserts	2	1	[0, 0, 0]	n/a	catFR1	4	R1380D
203.841	3.217	206508	REC_WORD	3.217	n/a	PIE	Desserts	1	1	[0, 0, 0]	n/a	catFR1	4	R1380D
207.058	3.451	209725	REC_WORD	3.451	n/a	PUDDING	n/a	-999	1	[0, 0, 0]	n/a	catFR1	4	R1380D
210.509	0.473	213175	REC_WORD	0.473	n/a	HEAD	Bodyparts	5	1	[0, 0, 0]	n/a	catFR1	4	R1380D
210.982	0.374	213648	REC_WORD	0.374	n/a	TOE	n/a	-999	1	[0, 0, 0]	n/a	catFR1	4	R1380D
211.356	1.29	214022	REC_WORD	1.29	n/a	FOOT	Bodyparts	12	1	[0, 0, 0]	n/a	catFR1	4	R1380D
212.646	6.119	215312	REC_WORD	6.119	n/a	LEG	Bodyparts	6	1	[0, 0, 0]	n/a	catFR1	4	R1380D
218.765	0.659	221431	REC_WORD	0.659	n/a	CARROT	Vegetables	3	1	[0, 0, 0]	n/a	catFR1	4	R1380D
219.424	1.62	222090	REC_WORD	1.62	n/a	CELERY	Vegetables	7	1	[0, 0, 0]	n/a	catFR1	4	R1380D
221.044	0.516	223710	REC_WORD	0.516	n/a	CUCUMBER	Vegetables	4	1	[0, 0, 0]	n/a	catFR1	4	R1380D
221.56	8.749	224226	REC_WORD	8.749	n/a	SPINACH	Vegetables	8	1	[0, 0, 0]	n/a	catFR1	4	R1380D
230.309	5.255	232976	REC_END	n/a	n/a	n/a	n/a	-999	1	[0, 0, 0]	n/a	catFR1	4	R1380D
235.564	10.35	238233	COUNTDOWN_START	n/a	n/a	n/a	n/a	-999	2	[0, 0, 0]	n/a	catFR1	4	R1380D
245.914	0.0	248582	COUNTDOWN_END	n/a	n/a	n/a	n/a	-999	2	[0, 0, 0]	n/a	catFR1	4	R1380D
245.914	2.083	248582	ENCODING_START	n/a	n/a	n/a	n/a	-999	2	[0, 0, 0]	n/a	catFR1	4	R1380D
247.997	1.6	250658	WORD	n/a	wordpools/wordpool_categorized_EN.txt	BALL	Toys	1	2	[0, 0, 0]	n/a	catFR1	4	R1380D
249.597	0.783	252264	WORD_OFF	n/a	n/a	BALL	Toys	1	2	[0, 0, 0]	n/a	catFR1	4	R1380D
250.38	1.617	253041	WORD	n/a	wordpools/wordpool_categorized_EN.txt	SLINKY	Toys	2	2	[0, 0, 0]	n/a	catFR1	4	R1380D
251.997	0.95	254657	WORD_OFF	n/a	n/a	SLINKY	Toys	2	2	[0, 0, 0]	n/a	catFR1	4	R1380D
252.947	1.616	255608	WORD	n/a	wordpools/wordpool_categorized_EN.txt	ROBIN	Birds	3	2	[0, 0, 0]	n/a	catFR1	4	R1380D
254.563	0.867	257224	WORD_OFF	n/a	n/a	ROBIN	Birds	3	2	[0, 0, 0]	n/a	catFR1	4	R1380D
255.43	1.6	258093	WORD	n/a	wordpools/wordpool_categorized_EN.txt	CROW	Birds	4	2	[0, 0, 0]	n/a	catFR1	4	R1380D
257.03	0.8	259699	WORD_OFF	n/a	n/a	CROW	Birds	4	2	[0, 0, 0]	n/a	catFR1	4	R1380D
257.83	1.617	260496	WORD	n/a	wordpools/wordpool_categorized_EN.txt	STOVE	Appliances	5	2	[0, 0, 0]	n/a	catFR1	4	R1380D
259.447	0.799	262112	WORD_OFF	n/a	n/a	STOVE	Appliances	5	2	[0, 0, 0]	n/a	catFR1	4	R1380D
260.246	1.601	262910	WORD	n/a	wordpools/wordpool_categorized_EN.txt	WASHER	Appliances	6	2	[0, 0, 0]	n/a	catFR1	4	R1380D
261.847	0.967	264516	WORD_OFF	n/a	n/a	WASHER	Appliances	6	2	[0, 0, 0]	n/a	catFR1	4	R1380D
262.814	1.617	265477	WORD	n/a	wordpools/wordpool_categorized_EN.txt	SPARROW	Birds	7	2	[0, 0, 0]	n/a	catFR1	4	R1380D
264.431	0.833	267093	WORD_OFF	n/a	n/a	SPARROW	Birds	7	2	[0, 0, 0]	n/a	catFR1	4	R1380D
265.264	1.616	267931	WORD	n/a	wordpools/wordpool_categorized_EN.txt	FINCH	Birds	8	2	[0, 0, 0]	n/a	catFR1	4	R1380D
266.88	0.818	269547	WORD_OFF	n/a	n/a	FINCH	Birds	8	2	[0, 0, 0]	n/a	catFR1	4	R1380D
267.698	1.6	270365	WORD	n/a	wordpools/wordpool_categorized_EN.txt	TOASTER	Appliances	9	2	[0, 0, 0]	n/a	catFR1	4	R1380D
269.298	0.9	271961	WORD_OFF	n/a	n/a	TOASTER	Appliances	9	2	[0, 0, 0]	n/a	catFR1	4	R1380D
270.198	1.6	272861	WORD	n/a	wordpools/wordpool_categorized_EN.txt	FREEZER	Appliances	10	2	[0, 0, 0]	n/a	catFR1	4	R1380D
271.798	0.999	274466	WORD_OFF	n/a	n/a	FREEZER	Appliances	10	2	[0, 0, 0]	n/a	catFR1	4	R1380D
272.797	1.6	275458	WORD	n/a	wordpools/wordpool_categorized_EN.txt	BLOCKS	Toys	11	2	[0, 0, 0]	n/a	catFR1	4	R1380D
274.397	0.984	277064	WORD_OFF	n/a	n/a	BLOCKS	Toys	11	2	[0, 0, 0]	n/a	catFR1	4	R1380D
275.381	1.617	278046	WORD	n/a	wordpools/wordpool_categorized_EN.txt	BARBIE	Toys	12	2	[0, 0, 0]	n/a	catFR1	4	R1380D
276.998	0.0	279661	PROB	0.0	n/a	n/a	n/a	-999	2	[2, 1, 4]	7	catFR1	4	R1380D
276.997	0.002	279662	WORD_OFF	n/a	n/a	BARBIE	Toys	12	2	[0, 0, 0]	n/a	catFR1	4	R1380D
276.999	0.0	279662	ENCODING_END	n/a	n/a	n/a	n/a	-999	2	[0, 0, 0]	n/a	catFR1	4	R1380D
276.999	0.0	279662	DISTRACT_START	n/a	n/a	n/a	n/a	-999	2	[0, 0, 0]	n/a	catFR1	4	R1380D
276.999	5.349	279662	START	n/a	n/a	n/a	n/a	-999	2	[-999, -999, -999]	n/a	catFR1	4	R1380D
282.348	3.2	285011	PROB	3.2	n/a	n/a	n/a	-999	2	[5, 8, 7]	20	catFR1	4	R1380D
285.548	2.6	288211	PROB	2.6	n/a	n/a	n/a	-999	2	[2, 4, 2]	8	catFR1	4	R1380D
288.148	4.4	290810	PROB	4.4	n/a	n/a	n/a	-999	2	[2, 1, 2]	5	catFR1	4	R1380D
292.548	3.4	295210	PROB	3.4	n/a	n/a	n/a	-999	2	[8, 7, 5]	20	catFR1	4	R1380D
295.948	3.266	298610	PROB	3.266	n/a	n/a	n/a	-999	2	[8, 4, 4]	16	catFR1	4	R1380D
299.214	0.0	301874	DISTRACT_END	n/a	n/a	n/a	n/a	-999	2	[0, 0, 0]	n/a	catFR1	4	R1380D
299.214	1.067	301876	STOP	n/a	n/a	n/a	n/a	-999	2	[-999, -999, -999]	n/a	catFR1	4	R1380D
300.281	2.166	302938	REC_START	n/a	n/a	n/a	n/a	-999	2	[0, 0, 0]	n/a	catFR1	4	R1380D
302.447	0.928	305109	REC_WORD	0.928	n/a	WASHER	Appliances	6	2	[0, 0, 0]	n/a	catFR1	4	R1380D
303.375	1.687	306037	REC_WORD	1.687	n/a	STOVE	Appliances	5	2	[0, 0, 0]	n/a	catFR1	4	R1380D
305.062	1.063	307724	REC_WORD	1.063	n/a	TOASTER	Appliances	9	2	[0, 0, 0]	n/a	catFR1	4	R1380D
306.125	1.648	308786	REC_WORD	1.648	n/a	FREEZER	Appliances	10	2	[0, 0, 0]	n/a	catFR1	4	R1380D
307.773	1.02	310434	REC_WORD	1.02	n/a	SLINKY	Toys	2	2	[0, 0, 0]	n/a	catFR1	4	R1380D
308.793	6.169	311454	REC_WORD	6.169	n/a	BARBIE	Toys	12	2	[0, 0, 0]	n/a	catFR1	4	R1380D
314.962	0.962	317623	REC_WORD	0.962	n/a	ROBIN	Birds	3	2	[0, 0, 0]	n/a	catFR1	4	R1380D
315.924	1.988	318585	REC_WORD	1.988	n/a	CROW	Birds	4	2	[0, 0, 0]	n/a	catFR1	4	R1380D
317.912	0.752	320573	REC_WORD	0.752	n/a	SPARROW	Birds	7	2	[0, 0, 0]	n/a	catFR1	4	R1380D
318.664	3.857	321325	REC_WORD	3.857	n/a	FINCH	Birds	8	2	[0, 0, 0]	n/a	catFR1	4	R1380D
322.521	8.027	325182	REC_WORD	8.027	n/a	BLOCKS	Toys	11	2	[0, 0, 0]	n/a	catFR1	4	R1380D
330.548	1.566	333209	REC_END	n/a	n/a	n/a	n/a	-999	2	[0, 0, 0]	n/a	catFR1	4	R1380D
332.114	10.351	334774	COUNTDOWN_START	n/a	n/a	n/a	n/a	-999	3	[0, 0, 0]	n/a	catFR1	4	R1380D
342.465	0.0	345123	COUNTDOWN_END	n/a	n/a	n/a	n/a	-999	3	[0, 0, 0]	n/a	catFR1	4	R1380D
342.465	2.282	345123	ENCODING_START	n/a	n/a	n/a	n/a	-999	3	[0, 0, 0]	n/a	catFR1	4	R1380D
344.747	1.6	347404	WORD	n/a	wordpools/wordpool_categorized_EN.txt	MONKEY	Zoo	1	3	[0, 0, 0]	n/a	catFR1	4	R1380D
346.347	0.917	349009	WORD_OFF	n/a	n/a	MONKEY	Zoo	1	3	[0, 0, 0]	n/a	catFR1	4	R1380D
347.264	1.617	349920	WORD	n/a	wordpools/wordpool_categorized_EN.txt	GORILLA	Zoo	2	3	[0, 0, 0]	n/a	catFR1	4	R1380D
348.881	0.883	351535	WORD_OFF	n/a	n/a	GORILLA	Zoo	2	3	[0, 0, 0]	n/a	catFR1	4	R1380D
349.764	1.6	352425	WORD	n/a	wordpools/wordpool_categorized_EN.txt	EAR	Bodyparts	3	3	[0, 0, 0]	n/a	catFR1	4	R1380D
351.364	0.883	354021	WORD_OFF	n/a	n/a	EAR	Bodyparts	3	3	[0, 0, 0]	n/a	catFR1	4	R1380D
352.247	1.6	354910	WORD	n/a	wordpools/wordpool_categorized_EN.txt	KNEE	Bodyparts	4	3	[0, 0, 0]	n/a	catFR1	4	R1380D
353.847	0.783	356506	WORD_OFF	n/a	n/a	KNEE	Bodyparts	4	3	[0, 0, 0]	n/a	catFR1	4	R1380D
354.63	1.601	357293	WORD	n/a	wordpools/wordpool_categorized_EN.txt	MOUNTAIN	Landscapes	5	3	[0, 0, 0]	n/a	catFR1	4	R1380D
356.231	0.899	358889	WORD_OFF	n/a	n/a	MOUNTAIN	Landscapes	5	3	[0, 0, 0]	n/a	catFR1	4	R1380D
357.13	1.601	359788	WORD	n/a	wordpools/wordpool_categorized_EN.txt	HILLS	Landscapes	6	3	[0, 0, 0]	n/a	catFR1	4	R1380D
358.731	0.966	361394	WORD_OFF	n/a	n/a	HILLS	Landscapes	6	3	[0, 0, 0]	n/a	catFR1	4	R1380D
359.697	1.617	362355	WORD	n/a	wordpools/wordpool_categorized_EN.txt	NOSE	Bodyparts	7	3	[0, 0, 0]	n/a	catFR1	4	R1380D
361.314	0.933	363971	WORD_OFF	n/a	n/a	NOSE	Bodyparts	7	3	[0, 0, 0]	n/a	catFR1	4	R1380D
362.247	1.6	364912	WORD	n/a	wordpools/wordpool_categorized_EN.txt	HAND	Bodyparts	8	3	[0, 0, 0]	n/a	catFR1	4	R1380D
363.847	0.8	366507	WORD_OFF	n/a	n/a	HAND	Bodyparts	8	3	[0, 0, 0]	n/a	catFR1	4	R1380D
364.647	1.6	367305	WORD	n/a	wordpools/wordpool_categorized_EN.txt	CHEETAH	Zoo	9	3	[0, 0, 0]	n/a	catFR1	4	R1380D
366.247	0.9	368911	WORD_OFF	n/a	n/a	CHEETAH	Zoo	9	3	[0, 0, 0]	n/a	catFR1	4	R1380D
367.147	1.6	369800	WORD	n/a	wordpools/wordpool_categorized_EN.txt	CHIMPANZEE	Zoo	10	3	[0, 0, 0]	n/a	catFR1	4	R1380D
368.747	0.884	371406	WORD_OFF	n/a	n/a	CHIMPANZEE	Zoo	10	3	[0, 0, 0]	n/a	catFR1	4	R1380D
369.631	1.6	372286	WORD	n/a	wordpools/wordpool_categorized_EN.txt	ISLAND	Landscapes	11	3	[0, 0, 0]	n/a	catFR1	4	R1380D
371.231	0.883	373891	WORD_OFF	n/a	n/a	ISLAND	Landscapes	11	3	[0, 0, 0]	n/a	catFR1	4	R1380D
372.114	1.617	374771	WORD	n/a	wordpools/wordpool_categorized_EN.txt	BEACH	Landscapes	12	3	[0, 0, 0]	n/a	catFR1	4	R1380D
373.731	0.0	376387	WORD_OFF	n/a	n/a	BEACH	Landscapes	12	3	[0, 0, 0]	n/a	catFR1	4	R1380D
373.731	0.007	376389	PROB	0.007	n/a	n/a	n/a	-999	3	[6, 1, 5]	12	catFR1	4	R1380D
373.738	0.001	376397	ENCODING_END	n/a	n/a	n/a	n/a	-999	3	[0, 0, 0]	n/a	catFR1	4	R1380D
373.739	0.0	376397	DISTRACT_START	n/a	n/a	n/a	n/a	-999	3	[0, 0, 0]	n/a	catFR1	4	R1380D
373.739	4.843	376397	START	n/a	n/a	n/a	n/a	-999	3	[-999, -999, -999]	n/a	catFR1	4	R1380D
378.582	6.883	381240	PROB	6.883	n/a	n/a	n/a	-999	3	[1, 5, 6]	12	catFR1	4	R1380D
385.465	4.149	388122	PROB	4.149	n/a	n/a	n/a	-999	3	[2, 6, 8]	16	catFR1	4	R1380D
389.614	3.017	392271	PROB	3.017	n/a	n/a	n/a	-999	3	[1, 2, 3]	6	catFR1	4	R1380D
392.631	2.433	395288	PROB	2.433	n/a	n/a	n/a	-999	3	[2, 2, 2]	6	catFR1	4	R1380D
395.064	0.0	397720	DISTRACT_END	n/a	n/a	n/a	n/a	-999	3	[0, 0, 0]	n/a	catFR1	4	R1380D
395.064	1.183	397721	STOP	n/a	n/a	n/a	n/a	-999	3	[-999, -999, -999]	n/a	catFR1	4	R1380D
396.247	1.594	398906	REC_START	n/a	n/a	n/a	n/a	-999	3	[0, 0, 0]	n/a	catFR1	4	R1380D
397.841	0.654	400498	REC_WORD	0.654	n/a	MOUNTAIN	Landscapes	5	3	[0, 0, 0]	n/a	catFR1	4	R1380D
398.495	0.753	401152	REC_WORD	0.753	n/a	HILLS	Landscapes	6	3	[0, 0, 0]	n/a	catFR1	4	R1380D
399.248	0.595	401905	REC_WORD	0.595	n/a	BEACH	Landscapes	12	3	[0, 0, 0]	n/a	catFR1	4	R1380D
399.843	1.587	402500	REC_WORD	1.587	n/a	ISLAND	Landscapes	11	3	[0, 0, 0]	n/a	catFR1	4	R1380D
401.43	1.98	404087	REC_WORD	1.98	n/a	CHEETAH	Zoo	9	3	[0, 0, 0]	n/a	catFR1	4	R1380D
403.41	1.359	406066	REC_WORD	1.359	n/a	MONKEY	Zoo	1	3	[0, 0, 0]	n/a	catFR1	4	R1380D
404.769	1.107	407425	REC_WORD	1.107	n/a	CHIMPANZEE	Zoo	10	3	[0, 0, 0]	n/a	catFR1	4	R1380D
405.876	4.03	408532	REC_WORD	4.03	n/a	GORILLA	Zoo	2	3	[0, 0, 0]	n/a	catFR1	4	R1380D
409.906	0.693	412562	REC_WORD	0.693	n/a	EAR	Bodyparts	3	3	[0, 0, 0]	n/a	catFR1	4	R1380D
410.599	7.089	413255	REC_WORD	7.089	n/a	NOSE	Bodyparts	7	3	[0, 0, 0]	n/a	catFR1	4	R1380D
417.688	3.633	420344	REC_WORD	3.633	n/a	HEAD	Bodyparts	-999	3	[0, 0, 0]	n/a	catFR1	4	R1380D
421.321	5.193	423976	REC_WORD	5.193	n/a	ARM	n/a	-999	3	[0, 0, 0]	n/a	catFR1	4	R1380D
426.514	1.25	429167	REC_END	n/a	n/a	n/a	n/a	-999	3	[0, 0, 0]	n/a	catFR1	4	R1380D
427.764	10.351	430425	COUNTDOWN_START	n/a	n/a	n/a	n/a	-999	4	[0, 0, 0]	n/a	catFR1	4	R1380D
438.115	0.0	440774	COUNTDOWN_END	n/a	n/a	n/a	n/a	-999	4	[0, 0, 0]	n/a	catFR1	4	R1380D
438.115	2.166	440774	ENCODING_START	n/a	n/a	n/a	n/a	-999	4	[0, 0, 0]	n/a	catFR1	4	R1380D
440.281	1.6	442932	WORD	n/a	wordpools/wordpool_categorized_EN.txt	CHICKEN	Farmanimals	1	4	[0, 0, 0]	n/a	catFR1	4	R1380D
441.881	0.933	444538	WORD_OFF	n/a	n/a	CHICKEN	Farmanimals	1	4	[0, 0, 0]	n/a	catFR1	4	R1380D
442.814	1.6	445469	WORD	n/a	wordpools/wordpool_categorized_EN.txt	GOAT	Farmanimals	2	4	[0, 0, 0]	n/a	catFR1	4	R1380D
444.414	0.85	447074	WORD_OFF	n/a	n/a	GOAT	Farmanimals	2	4	[0, 0, 0]	n/a	catFR1	4	R1380D
445.264	1.617	447923	WORD	n/a	wordpools/wordpool_categorized_EN.txt	RUM	Beverages	3	4	[0, 0, 0]	n/a	catFR1	4	R1380D
446.881	0.933	449539	WORD_OFF	n/a	n/a	RUM	Beverages	3	4	[0, 0, 0]	n/a	catFR1	4	R1380D
447.814	1.617	450469	WORD	n/a	wordpools/wordpool_categorized_EN.txt	TEA	Beverages	4	4	[0, 0, 0]	n/a	catFR1	4	R1380D
449.431	0.866	452085	WORD_OFF	n/a	n/a	TEA	Beverages	4	4	[0, 0, 0]	n/a	catFR1	4	R1380D
450.297	1.6	452955	WORD	n/a	wordpools/wordpool_categorized_EN.txt	JACKET	Clothing	5	4	[0, 0, 0]	n/a	catFR1	4	R1380D
451.897	1.0	454550	WORD_OFF	n/a	n/a	JACKET	Clothing	5	4	[0, 0, 0]	n/a	catFR1	4	R1380D
452.897	1.6	455552	WORD	n/a	wordpools/wordpool_categorized_EN.txt	SOCKS	Clothing	6	4	[0, 0, 0]	n/a	catFR1	4	R1380D
454.497	0.8	457148	WORD_OFF	n/a	n/a	SOCKS	Clothing	6	4	[0, 0, 0]	n/a	catFR1	4	R1380D
455.297	1.6	457956	WORD	n/a	wordpools/wordpool_categorized_EN.txt	LAMB	Farmanimals	7	4	[0, 0, 0]	n/a	catFR1	4	R1380D
456.897	0.949	459551	WORD_OFF	n/a	n/a	LAMB	Farmanimals	7	4	[0, 0, 0]	n/a	catFR1	4	R1380D
457.846	1.602	460502	WORD	n/a	wordpools/wordpool_categorized_EN.txt	COW	Farmanimals	8	4	[0, 0, 0]	n/a	catFR1	4	R1380D
459.448	0.999	462097	WORD_OFF	n/a	n/a	COW	Farmanimals	8	4	[0, 0, 0]	n/a	catFR1	4	R1380D
460.447	1.6	463100	WORD	n/a	wordpools/wordpool_categorized_EN.txt	JUICE	Beverages	9	4	[0, 0, 0]	n/a	catFR1	4	R1380D
462.047	0.767	464705	WORD_OFF	n/a	n/a	JUICE	Beverages	9	4	[0, 0, 0]	n/a	catFR1	4	R1380D
462.814	1.616	465472	WORD	n/a	wordpools/wordpool_categorized_EN.txt	COFFEE	Beverages	10	4	[0, 0, 0]	n/a	catFR1	4	R1380D
464.43	0.784	467088	WORD_OFF	n/a	n/a	COFFEE	Beverages	10	4	[0, 0, 0]	n/a	catFR1	4	R1380D
465.214	1.617	467865	WORD	n/a	wordpools/wordpool_categorized_EN.txt	JEANS	Clothing	11	4	[0, 0, 0]	n/a	catFR1	4	R1380D
466.831	0.983	469481	WORD_OFF	n/a	n/a	JEANS	Clothing	11	4	[0, 0, 0]	n/a	catFR1	4	R1380D
467.814	1.617	470463	WORD	n/a	wordpools/wordpool_categorized_EN.txt	SHORTS	Clothing	12	4	[0, 0, 0]	n/a	catFR1	4	R1380D
469.431	0.001	472084	PROB	0.001	n/a	n/a	n/a	-999	4	[7, 2, 8]	18	catFR1	4	R1380D
469.432	0.0	472085	START	n/a	n/a	n/a	n/a	-999	4	[-999, -999, -999]	n/a	catFR1	4	R1380D
469.43	0.002	472089	WORD_OFF	n/a	n/a	SHORTS	Clothing	12	4	[0, 0, 0]	n/a	catFR1	4	R1380D
469.432	0.0	472089	ENCODING_END	n/a	n/a	n/a	n/a	-999	4	[0, 0, 0]	n/a	catFR1	4	R1380D
469.432	4.832	472089	DISTRACT_START	n/a	n/a	n/a	n/a	-999	4	[0, 0, 0]	n/a	catFR1	4	R1380D
474.264	5.001	476917	PROB	5.001	n/a	n/a	n/a	-999	4	[2, 3, 2]	7	catFR1	4	R1380D
479.265	2.533	481917	PROB	2.533	n/a	n/a	n/a	-999	4	[1, 4, 5]	10	catFR1	4	R1380D
481.798	2.9	484450	PROB	2.9	n/a	n/a	n/a	-999	4	[1, 8, 2]	11	catFR1	4	R1380D
484.698	3.383	487350	PROB	3.383	n/a	n/a	n/a	-999	4	[3, 6, 3]	12	catFR1	4	R1380D
488.081	2.983	490733	PROB	2.983	n/a	n/a	n/a	-999	4	[3, 2, 3]	8	catFR1	4	R1380D
491.064	0.0	493716	STOP	n/a	n/a	n/a	n/a	-999	4	[-999, -999, -999]	n/a	catFR1	4	R1380D
491.064	1.101	493719	DISTRACT_END	n/a	n/a	n/a	n/a	-999	4	[0, 0, 0]	n/a	catFR1	4	R1380D
492.165	1.831	494813	REC_START	n/a	n/a	n/a	n/a	-999	4	[0, 0, 0]	n/a	catFR1	4	R1380D
493.996	0.746	496648	REC_WORD	0.746	n/a	JEANS	Clothing	11	4	[0, 0, 0]	n/a	catFR1	4	R1380D
494.742	3.322	497394	REC_WORD	3.322	n/a	JACKET	Clothing	5	4	[0, 0, 0]	n/a	catFR1	4	R1380D
498.064	8.036	500716	REC_WORD	8.036	n/a	SHOES	n/a	-999	4	[0, 0, 0]	n/a	catFR1	4	R1380D
506.1	1.0	508751	REC_WORD_VV	1.0	n/a	<>	n/a	-999	4	[0, 0, 0]	n/a	catFR1	4	R1380D
507.1	1.036	509751	REC_WORD_VV	1.036	n/a	<>	n/a	-999	4	[0, 0, 0]	n/a	catFR1	4	R1380D
508.136	14.296	510787	REC_WORD	14.296	n/a	SHORTS	Clothing	12	4	[0, 0, 0]	n/a	catFR1	4	R1380D
522.432	1.349	525084	REC_END	n/a	n/a	n/a	n/a	-999	4	[0, 0, 0]	n/a	catFR1	4	R1380D
523.781	10.351	526434	COUNTDOWN_START	n/a	n/a	n/a	n/a	-999	5	[0, 0, 0]	n/a	catFR1	4	R1380D
534.132	0.0	536784	COUNTDOWN_END	n/a	n/a	n/a	n/a	-999	5	[0, 0, 0]	n/a	catFR1	4	R1380D
534.132	2.149	536784	ENCODING_START	n/a	n/a	n/a	n/a	-999	5	[0, 0, 0]	n/a	catFR1	4	R1380D
536.281	1.616	538931	WORD	n/a	wordpools/wordpool_categorized_EN.txt	OCTOPUS	Oceananimals	1	5	[0, 0, 0]	n/a	catFR1	4	R1380D
537.897	0.85	540547	WORD_OFF	n/a	n/a	OCTOPUS	Oceananimals	1	5	[0, 0, 0]	n/a	catFR1	4	R1380D
538.747	1.6	541396	WORD	n/a	wordpools/wordpool_categorized_EN.txt	CRAB	Oceananimals	2	5	[0, 0, 0]	n/a	catFR1	4	R1380D
540.347	0.85	543002	WORD_OFF	n/a	n/a	CRAB	Oceananimals	2	5	[0, 0, 0]	n/a	catFR1	4	R1380D
541.197	1.6	543850	WORD	n/a	wordpools/wordpool_categorized_EN.txt	PUZZLE	Toys	3	5	[0, 0, 0]	n/a	catFR1	4	R1380D
542.797	0.9	545446	WORD_OFF	n/a	n/a	PUZZLE	Toys	3	5	[0, 0, 0]	n/a	catFR1	4	R1380D
543.697	1.6	546346	WORD	n/a	wordpools/wordpool_categorized_EN.txt	BASEBALL	Toys	4	5	[0, 0, 0]	n/a	catFR1	4	R1380D
545.297	0.8	547951	WORD_OFF	n/a	n/a	BASEBALL	Toys	4	5	[0, 0, 0]	n/a	catFR1	4	R1380D
546.097	1.6	548749	WORD	n/a	wordpools/wordpool_categorized_EN.txt	DOOR	Building	5	5	[0, 0, 0]	n/a	catFR1	4	R1380D
547.697	0.984	550344	WORD_OFF	n/a	n/a	DOOR	Building	5	5	[0, 0, 0]	n/a	catFR1	4	R1380D
548.681	1.616	551326	WORD	n/a	wordpools/wordpool_categorized_EN.txt	ROOM	Building	6	5	[0, 0, 0]	n/a	catFR1	4	R1380D
550.297	1.0	552952	WORD_OFF	n/a	n/a	ROOM	Building	6	5	[0, 0, 0]	n/a	catFR1	4	R1380D
551.297	1.6	553944	WORD	n/a	wordpools/wordpool_categorized_EN.txt	OYSTER	Oceananimals	7	5	[0, 0, 0]	n/a	catFR1	4	R1380D
552.897	0.867	555550	WORD_OFF	n/a	n/a	OYSTER	Oceananimals	7	5	[0, 0, 0]	n/a	catFR1	4	R1380D
553.764	1.6	556409	WORD	n/a	wordpools/wordpool_categorized_EN.txt	JELLYFISH	Oceananimals	8	5	[0, 0, 0]	n/a	catFR1	4	R1380D
555.364	0.9	558014	WORD_OFF	n/a	n/a	JELLYFISH	Oceananimals	8	5	[0, 0, 0]	n/a	catFR1	4	R1380D
556.264	1.616	558914	WORD	n/a	wordpools/wordpool_categorized_EN.txt	FOOTBALL	Toys	9	5	[0, 0, 0]	n/a	catFR1	4	R1380D
557.88	0.967	560530	WORD_OFF	n/a	n/a	FOOTBALL	Toys	9	5	[0, 0, 0]	n/a	catFR1	4	R1380D
558.847	1.6	561497	WORD	n/a	wordpools/wordpool_categorized_EN.txt	DOLLHOUSE	Toys	10	5	[0, 0, 0]	n/a	catFR1	4	R1380D
560.447	0.9	563097	WORD_OFF	n/a	n/a	DOLLHOUSE	Toys	10	5	[0, 0, 0]	n/a	catFR1	4	R1380D
561.347	1.601	563997	WORD	n/a	wordpools/wordpool_categorized_EN.txt	CEILING	Building	11	5	[0, 0, 0]	n/a	catFR1	4	R1380D
562.948	0.949	565593	WORD_OFF	n/a	n/a	CEILING	Building	11	5	[0, 0, 0]	n/a	catFR1	4	R1380D
563.897	1.602	566544	WORD	n/a	wordpools/wordpool_categorized_EN.txt	FLOOR	Building	12	5	[0, 0, 0]	n/a	catFR1	4	R1380D
565.499	0.001	568147	START	n/a	n/a	n/a	n/a	-999	5	[-999, -999, -999]	n/a	catFR1	4	R1380D
565.5	0.0	568148	PROB	0.0	n/a	n/a	n/a	-999	5	[8, 2, 6]	16	catFR1	4	R1380D
565.497	0.002	568149	WORD_OFF	n/a	n/a	FLOOR	Building	12	5	[0, 0, 0]	n/a	catFR1	4	R1380D
565.499	0.0	568149	ENCODING_END	n/a	n/a	n/a	n/a	-999	5	[0, 0, 0]	n/a	catFR1	4	R1380D
565.499	3.933	568149	DISTRACT_START	n/a	n/a	n/a	n/a	-999	5	[0, 0, 0]	n/a	catFR1	4	R1380D
569.432	2.682	572080	PROB	2.682	n/a	n/a	n/a	-999	5	[4, 7, 2]	13	catFR1	4	R1380D
572.114	3.984	574762	PROB	3.984	n/a	n/a	n/a	-999	5	[6, 5, 3]	14	catFR1	4	R1380D
576.098	3.6	578745	PROB	3.6	n/a	n/a	n/a	-999	5	[8, 8, 6]	22	catFR1	4	R1380D
579.698	3.583	582345	PROB	3.583	n/a	n/a	n/a	-999	5	[7, 8, 8]	23	catFR1	4	R1380D
583.281	3.016	585928	PROB	3.016	n/a	n/a	n/a	-999	5	[8, 3, 4]	15	catFR1	4	R1380D
586.297	0.0	588940	DISTRACT_END	n/a	n/a	n/a	n/a	-999	5	[0, 0, 0]	n/a	catFR1	4	R1380D
586.297	1.134	588944	STOP	n/a	n/a	n/a	n/a	-999	5	[-999, -999, -999]	n/a	catFR1	4	R1380D
587.431	2.333	590076	REC_START	n/a	n/a	n/a	n/a	-999	5	[0, 0, 0]	n/a	catFR1	4	R1380D
589.764	0.562	592411	REC_WORD	0.562	n/a	DOOR	Building	5	5	[0, 0, 0]	n/a	catFR1	4	R1380D
590.326	0.604	592973	REC_WORD	0.604	n/a	ROOM	Building	6	5	[0, 0, 0]	n/a	catFR1	4	R1380D
590.93	0.594	593577	REC_WORD	0.594	n/a	CEILING	Building	11	5	[0, 0, 0]	n/a	catFR1	4	R1380D
591.524	1.651	594171	REC_WORD	1.651	n/a	FLOOR	Building	12	5	[0, 0, 0]	n/a	catFR1	4	R1380D
593.175	1.42	595822	REC_WORD	1.42	n/a	OCTOPUS	Oceananimals	1	5	[0, 0, 0]	n/a	catFR1	4	R1380D
594.595	1.62	597242	REC_WORD	1.62	n/a	JELLYFISH	Oceananimals	8	5	[0, 0, 0]	n/a	catFR1	4	R1380D
596.215	2.428	598861	REC_WORD	2.428	n/a	OYSTER	Oceananimals	7	5	[0, 0, 0]	n/a	catFR1	4	R1380D
598.643	5.436	601289	REC_WORD	5.436	n/a	CRAB	Oceananimals	2	5	[0, 0, 0]	n/a	catFR1	4	R1380D
604.079	2.431	606725	REC_WORD	2.431	n/a	DOLLHOUSE	Toys	10	5	[0, 0, 0]	n/a	catFR1	4	R1380D
606.51	1.126	609156	REC_WORD	1.126	n/a	SLINKY	Toys	-999	5	[0, 0, 0]	n/a	catFR1	4	R1380D
607.636	0.583	610282	REC_WORD	0.583	n/a	BASEBALL	Toys	4	5	[0, 0, 0]	n/a	catFR1	4	R1380D
608.219	9.485	610865	REC_WORD	9.485	n/a	FOOTBALL	Toys	9	5	[0, 0, 0]	n/a	catFR1	4	R1380D
617.704	1.427	620347	REC_END	n/a	n/a	n/a	n/a	-999	5	[0, 0, 0]	n/a	catFR1	4	R1380D
619.131	10.35	621779	COUNTDOWN_START	n/a	n/a	n/a	n/a	-999	6	[0, 0, 0]	n/a	catFR1	4	R1380D
629.481	0.001	632128	COUNTDOWN_END	n/a	n/a	n/a	n/a	-999	6	[0, 0, 0]	n/a	catFR1	4	R1380D
629.482	2.182	632128	ENCODING_START	n/a	n/a	n/a	n/a	-999	6	[0, 0, 0]	n/a	catFR1	4	R1380D
631.664	1.6	634306	WORD	n/a	wordpools/wordpool_categorized_EN.txt	LOBSTER	Oceananimals	1	6	[0, 0, 0]	n/a	catFR1	4	R1380D
633.264	0.934	635912	WORD_OFF	n/a	n/a	LOBSTER	Oceananimals	1	6	[0, 0, 0]	n/a	catFR1	4	R1380D
634.198	1.616	636843	WORD	n/a	wordpools/wordpool_categorized_EN.txt	DOLPHIN	Oceananimals	2	6	[0, 0, 0]	n/a	catFR1	4	R1380D
635.814	0.8	638458	WORD_OFF	n/a	n/a	DOLPHIN	Oceananimals	2	6	[0, 0, 0]	n/a	catFR1	4	R1380D
636.614	1.617	639256	WORD	n/a	wordpools/wordpool_categorized_EN.txt	STRAWBERRY	Fruit	3	6	[0, 0, 0]	n/a	catFR1	4	R1380D
638.231	0.983	640872	WORD_OFF	n/a	n/a	STRAWBERRY	Fruit	3	6	[0, 0, 0]	n/a	catFR1	4	R1380D
639.214	1.6	641854	WORD	n/a	wordpools/wordpool_categorized_EN.txt	BANANA	Fruit	4	6	[0, 0, 0]	n/a	catFR1	4	R1380D
640.814	0.783	643459	WORD_OFF	n/a	n/a	BANANA	Fruit	4	6	[0, 0, 0]	n/a	catFR1	4	R1380D
641.597	1.6	644237	WORD	n/a	wordpools/wordpool_categorized_EN.txt	SCREWDRIVER	Tools	5	6	[0, 0, 0]	n/a	catFR1	4	R1380D
643.197	0.967	645842	WORD_OFF	n/a	n/a	SCREWDRIVER	Tools	5	6	[0, 0, 0]	n/a	catFR1	4	R1380D
644.164	1.6	646804	WORD	n/a	wordpools/wordpool_categorized_EN.txt	PLIERS	Tools	6	6	[0, 0, 0]	n/a	catFR1	4	R1380D
645.764	0.883	648409	WORD_OFF	n/a	n/a	PLIERS	Tools	6	6	[0, 0, 0]	n/a	catFR1	4	R1380D
646.647	1.617	649289	WORD	n/a	wordpools/wordpool_categorized_EN.txt	FISH	Oceananimals	7	6	[0, 0, 0]	n/a	catFR1	4	R1380D
648.264	0.85	650904	WORD_OFF	n/a	n/a	FISH	Oceananimals	7	6	[0, 0, 0]	n/a	catFR1	4	R1380D
649.114	1.616	651753	WORD	n/a	wordpools/wordpool_categorized_EN.txt	TURTLE	Oceananimals	8	6	[0, 0, 0]	n/a	catFR1	4	R1380D
650.73	0.967	653379	WORD_OFF	n/a	n/a	TURTLE	Oceananimals	8	6	[0, 0, 0]	n/a	catFR1	4	R1380D
651.697	1.617	654341	WORD	n/a	wordpools/wordpool_categorized_EN.txt	RATCHET	Tools	9	6	[0, 0, 0]	n/a	catFR1	4	R1380D
653.314	1.0	655957	WORD_OFF	n/a	n/a	RATCHET	Tools	9	6	[0, 0, 0]	n/a	catFR1	4	R1380D
654.314	1.616	656959	WORD	n/a	wordpools/wordpool_categorized_EN.txt	AXE	Tools	10	6	[0, 0, 0]	n/a	catFR1	4	R1380D
655.93	0.967	658575	WORD_OFF	n/a	n/a	AXE	Tools	10	6	[0, 0, 0]	n/a	catFR1	4	R1380D
656.897	1.616	659536	WORD	n/a	wordpools/wordpool_categorized_EN.txt	PEAR	Fruit	11	6	[0, 0, 0]	n/a	catFR1	4	R1380D
658.513	0.95	661162	WORD_OFF	n/a	n/a	PEAR	Fruit	11	6	[0, 0, 0]	n/a	catFR1	4	R1380D
659.463	1.617	662103	WORD	n/a	wordpools/wordpool_categorized_EN.txt	GRAPE	Fruit	12	6	[0, 0, 0]	n/a	catFR1	4	R1380D
661.08	0.0	663719	WORD_OFF	n/a	n/a	GRAPE	Fruit	12	6	[0, 0, 0]	n/a	catFR1	4	R1380D
661.08	0.002	663723	PROB	0.002	n/a	n/a	n/a	-999	6	[3, 5, 2]	10	catFR1	4	R1380D
661.082	0.0	663725	START	n/a	n/a	n/a	n/a	-999	6	[-999, -999, -999]	n/a	catFR1	4	R1380D
661.082	0.0	663729	ENCODING_END	n/a	n/a	n/a	n/a	-999	6	[0, 0, 0]	n/a	catFR1	4	R1380D
661.082	4.149	663729	DISTRACT_START	n/a	n/a	n/a	n/a	-999	6	[0, 0, 0]	n/a	catFR1	4	R1380D
665.231	2.716	667874	PROB	2.716	n/a	n/a	n/a	-999	6	[3, 4, 5]	12	catFR1	4	R1380D
667.947	3.934	670590	PROB	3.934	n/a	n/a	n/a	-999	6	[8, 6, 6]	20	catFR1	4	R1380D
671.881	2.683	674523	PROB	2.683	n/a	n/a	n/a	-999	6	[7, 2, 4]	13	catFR1	4	R1380D
674.564	2.984	677206	PROB	2.984	n/a	n/a	n/a	-999	6	[4, 6, 3]	13	catFR1	4	R1380D
677.548	3.734	680190	PROB	3.734	n/a	n/a	n/a	-999	6	[6, 8, 3]	17	catFR1	4	R1380D
681.282	0.0	683924	STOP	n/a	n/a	n/a	n/a	-999	6	[-999, -999, -999]	n/a	catFR1	4	R1380D
681.282	1.05	683927	DISTRACT_END	n/a	n/a	n/a	n/a	-999	6	[0, 0, 0]	n/a	catFR1	4	R1380D
682.332	2.383	684970	REC_START	n/a	n/a	n/a	n/a	-999	6	[0, 0, 0]	n/a	catFR1	4	R1380D
684.715	1.687	687357	REC_WORD	1.687	n/a	RATCHET	Tools	9	6	[0, 0, 0]	n/a	catFR1	4	R1380D
686.402	0.93	689044	REC_WORD	0.93	n/a	AXE	Tools	10	6	[0, 0, 0]	n/a	catFR1	4	R1380D
687.332	5.917	689974	REC_WORD	5.917	n/a	PLIERS	Tools	6	6	[0, 0, 0]	n/a	catFR1	4	R1380D
693.249	2.295	695890	REC_WORD	2.295	n/a	SCREWDRIVER	Tools	5	6	[0, 0, 0]	n/a	catFR1	4	R1380D
695.544	0.683	698185	REC_WORD	0.683	n/a	DOLPHIN	Oceananimals	2	6	[0, 0, 0]	n/a	catFR1	4	R1380D
696.227	1.969	698868	REC_WORD	1.969	n/a	FISH	Oceananimals	7	6	[0, 0, 0]	n/a	catFR1	4	R1380D
698.196	7.63	700837	REC_WORD	7.63	n/a	TURTLE	Oceananimals	8	6	[0, 0, 0]	n/a	catFR1	4	R1380D
705.826	0.983	708467	REC_WORD_VV	0.983	n/a	<>	n/a	-999	6	[0, 0, 0]	n/a	catFR1	4	R1380D
706.809	0.634	709450	REC_WORD	0.634	n/a	BLUEBERRY	n/a	-999	6	[0, 0, 0]	n/a	catFR1	4	R1380D
707.443	0.265	710084	REC_WORD_VV	0.265	n/a	<>	n/a	-999	6	[0, 0, 0]	n/a	catFR1	4	R1380D
707.708	1.697	710349	REC_WORD	1.697	n/a	STRAWBERRY	Fruit	3	6	[0, 0, 0]	n/a	catFR1	4	R1380D
709.405	0.745	712046	REC_WORD	0.745	n/a	BANANA	Fruit	4	6	[0, 0, 0]	n/a	catFR1	4	R1380D
710.15	0.918	712791	REC_WORD	0.918	n/a	GRAPE	Fruit	12	6	[0, 0, 0]	n/a	catFR1	4	R1380D
711.068	1.536	713708	REC_WORD	1.536	n/a	PEAR	Fruit	11	6	[0, 0, 0]	n/a	catFR1	4	R1380D
712.604	1.427	715241	REC_END	n/a	n/a	n/a	n/a	-999	6	[0, 0, 0]	n/a	catFR1	4	R1380D
714.031	10.351	716673	COUNTDOWN_START	n/a	n/a	n/a	n/a	-999	7	[0, 0, 0]	n/a	catFR1	4	R1380D
724.382	0.0	727023	COUNTDOWN_END	n/a	n/a	n/a	n/a	-999	7	[0, 0, 0]	n/a	catFR1	4	R1380D
724.382	2.299	727023	ENCODING_START	n/a	n/a	n/a	n/a	-999	7	[0, 0, 0]	n/a	catFR1	4	R1380D
726.681	1.6	729324	WORD	n/a	wordpools/wordpool_categorized_EN.txt	ELM	Trees	1	7	[0, 0, 0]	n/a	catFR1	4	R1380D
728.281	0.883	730919	WORD_OFF	n/a	n/a	ELM	Trees	1	7	[0, 0, 0]	n/a	catFR1	4	R1380D
729.164	1.617	731809	WORD	n/a	wordpools/wordpool_categorized_EN.txt	WILLOW	Trees	2	7	[0, 0, 0]	n/a	catFR1	4	R1380D
730.781	0.833	733424	WORD_OFF	n/a	n/a	WILLOW	Trees	2	7	[0, 0, 0]	n/a	catFR1	4	R1380D
731.614	1.617	734253	WORD	n/a	wordpools/wordpool_categorized_EN.txt	VACUUM	Appliances	3	7	[0, 0, 0]	n/a	catFR1	4	R1380D
733.231	0.95	735869	WORD_OFF	n/a	n/a	VACUUM	Appliances	3	7	[0, 0, 0]	n/a	catFR1	4	R1380D
734.181	1.6	736820	WORD	n/a	wordpools/wordpool_categorized_EN.txt	DISHWASHER	Appliances	4	7	[0, 0, 0]	n/a	catFR1	4	R1380D
735.781	1.0	738425	WORD_OFF	n/a	n/a	DISHWASHER	Appliances	4	7	[0, 0, 0]	n/a	catFR1	4	R1380D
736.781	1.6	739417	WORD	n/a	wordpools/wordpool_categorized_EN.txt	BED	Furniture	5	7	[0, 0, 0]	n/a	catFR1	4	R1380D
738.381	0.966	741023	WORD_OFF	n/a	n/a	BED	Furniture	5	7	[0, 0, 0]	n/a	catFR1	4	R1380D
739.347	1.6	741984	WORD	n/a	wordpools/wordpool_categorized_EN.txt	DESK	Furniture	6	7	[0, 0, 0]	n/a	catFR1	4	R1380D
740.947	1.0	743590	WORD_OFF	n/a	n/a	DESK	Furniture	6	7	[0, 0, 0]	n/a	catFR1	4	R1380D
741.947	1.6	744582	WORD	n/a	wordpools/wordpool_categorized_EN.txt	PINE	Trees	7	7	[0, 0, 0]	n/a	catFR1	4	R1380D
743.547	0.817	746188	WORD_OFF	n/a	n/a	PINE	Trees	7	7	[0, 0, 0]	n/a	catFR1	4	R1380D
744.364	1.6	747006	WORD	n/a	wordpools/wordpool_categorized_EN.txt	OAK	Trees	8	7	[0, 0, 0]	n/a	catFR1	4	R1380D
745.964	0.799	748601	WORD_OFF	n/a	n/a	OAK	Trees	8	7	[0, 0, 0]	n/a	catFR1	4	R1380D
746.763	1.601	749399	WORD	n/a	wordpools/wordpool_categorized_EN.txt	DRESSER	Furniture	9	7	[0, 0, 0]	n/a	catFR1	4	R1380D
748.364	0.833	751004	WORD_OFF	n/a	n/a	DRESSER	Furniture	9	7	[0, 0, 0]	n/a	catFR1	4	R1380D
749.197	1.6	751833	WORD	n/a	wordpools/wordpool_categorized_EN.txt	BOOKCASE	Furniture	10	7	[0, 0, 0]	n/a	catFR1	4	R1380D
750.797	0.999	753438	WORD_OFF	n/a	n/a	BOOKCASE	Furniture	10	7	[0, 0, 0]	n/a	catFR1	4	R1380D
751.796	1.601	754430	WORD	n/a	wordpools/wordpool_categorized_EN.txt	MIXER	Appliances	11	7	[0, 0, 0]	n/a	catFR1	4	R1380D
753.397	0.817	756036	WORD_OFF	n/a	n/a	MIXER	Appliances	11	7	[0, 0, 0]	n/a	catFR1	4	R1380D
754.214	1.617	756854	WORD	n/a	wordpools/wordpool_categorized_EN.txt	REFRIGERATOR	Appliances	12	7	[0, 0, 0]	n/a	catFR1	4	R1380D
755.831	0.0	758469	PROB	0.0	n/a	n/a	n/a	-999	7	[3, 4, 5]	12	catFR1	4	R1380D
755.83	0.002	758470	WORD_OFF	n/a	n/a	REFRIGERATOR	Appliances	12	7	[0, 0, 0]	n/a	catFR1	4	R1380D
755.832	0.0	758470	ENCODING_END	n/a	n/a	n/a	n/a	-999	7	[0, 0, 0]	n/a	catFR1	4	R1380D
755.832	0.0	758470	DISTRACT_START	n/a	n/a	n/a	n/a	-999	7	[0, 0, 0]	n/a	catFR1	4	R1380D
755.832	6.182	758470	START	n/a	n/a	n/a	n/a	-999	7	[-999, -999, -999]	n/a	catFR1	4	R1380D
762.014	2.5	764652	PROB	2.5	n/a	n/a	n/a	-999	7	[7, 1, 1]	9	catFR1	4	R1380D
764.514	2.383	767152	PROB	2.383	n/a	n/a	n/a	-999	7	[3, 5, 6]	14	catFR1	4	R1380D
766.897	3.334	769535	PROB	3.334	n/a	n/a	n/a	-999	7	[8, 4, 4]	16	catFR1	4	R1380D
770.231	2.566	772868	PROB	2.566	n/a	n/a	n/a	-999	7	[8, 1, 8]	17	catFR1	4	R1380D
772.797	2.434	775434	PROB	2.434	n/a	n/a	n/a	-999	7	[6, 4, 5]	15	catFR1	4	R1380D
775.231	2.799	777868	PROB	2.799	n/a	n/a	n/a	-999	7	[3, 7, 8]	18	catFR1	4	R1380D
778.03	0.0	780667	STOP	n/a	n/a	n/a	n/a	-999	7	[-999, -999, -999]	n/a	catFR1	4	R1380D
778.03	1.117	780672	DISTRACT_END	n/a	n/a	n/a	n/a	-999	7	[0, 0, 0]	n/a	catFR1	4	R1380D
779.147	4.301	781787	REC_START	n/a	n/a	n/a	n/a	-999	7	[0, 0, 0]	n/a	catFR1	4	R1380D
783.448	1.244	786085	REC_WORD	1.244	n/a	WASHER	Appliances	-999	7	[0, 0, 0]	n/a	catFR1	4	R1380D
784.692	1.059	787329	REC_WORD	1.059	n/a	VACUUM	Appliances	3	7	[0, 0, 0]	n/a	catFR1	4	R1380D
785.751	0.67	788388	REC_WORD	0.67	n/a	MIXER	Appliances	11	7	[0, 0, 0]	n/a	catFR1	4	R1380D
786.421	3.048	789058	REC_WORD	3.048	n/a	REFRIGERATOR	Appliances	12	7	[0, 0, 0]	n/a	catFR1	4	R1380D
789.469	1.206	792105	REC_WORD	1.206	n/a	BED	Furniture	5	7	[0, 0, 0]	n/a	catFR1	4	R1380D
790.675	1.449	793311	REC_WORD	1.449	n/a	DESK	Furniture	6	7	[0, 0, 0]	n/a	catFR1	4	R1380D
792.124	2.947	794760	REC_WORD	2.947	n/a	DRESSER	Furniture	9	7	[0, 0, 0]	n/a	catFR1	4	R1380D
795.071	12.26	797707	REC_WORD	12.26	n/a	BOOKCASE	Furniture	10	7	[0, 0, 0]	n/a	catFR1	4	R1380D
807.331	0.512	809966	REC_WORD	0.512	n/a	ELM	Trees	1	7	[0, 0, 0]	n/a	catFR1	4	R1380D
807.843	1.569	810478	REC_WORD	1.569	n/a	SPRUCE	n/a	-999	7	[0, 0, 0]	n/a	catFR1	4	R1380D
809.412	3.119	812048	REC_END	n/a	n/a	n/a	n/a	-999	7	[0, 0, 0]	n/a	catFR1	4	R1380D
812.531	10.35	815167	COUNTDOWN_START	n/a	n/a	n/a	n/a	-999	8	[0, 0, 0]	n/a	catFR1	4	R1380D
822.881	0.0	825517	COUNTDOWN_END	n/a	n/a	n/a	n/a	-999	8	[0, 0, 0]	n/a	catFR1	4	R1380D
822.881	2.033	825517	ENCODING_START	n/a	n/a	n/a	n/a	-999	8	[0, 0, 0]	n/a	catFR1	4	R1380D
824.914	1.6	827552	WORD	n/a	wordpools/wordpool_categorized_EN.txt	PLUM	Fruit	1	8	[0, 0, 0]	n/a	catFR1	4	R1380D
826.514	0.817	829147	WORD_OFF	n/a	n/a	PLUM	Fruit	1	8	[0, 0, 0]	n/a	catFR1	4	R1380D
827.331	1.6	829965	WORD	n/a	wordpools/wordpool_categorized_EN.txt	PEACH	Fruit	2	8	[0, 0, 0]	n/a	catFR1	4	R1380D
828.931	0.883	831571	WORD_OFF	n/a	n/a	PEACH	Fruit	2	8	[0, 0, 0]	n/a	catFR1	4	R1380D
829.814	1.6	832451	WORD	n/a	wordpools/wordpool_categorized_EN.txt	WALNUT	Trees	3	8	[0, 0, 0]	n/a	catFR1	4	R1380D
831.414	0.95	834046	WORD_OFF	n/a	n/a	WALNUT	Trees	3	8	[0, 0, 0]	n/a	catFR1	4	R1380D
832.364	1.617	834997	WORD	n/a	wordpools/wordpool_categorized_EN.txt	CEDAR	Trees	4	8	[0, 0, 0]	n/a	catFR1	4	R1380D
833.981	0.966	836613	WORD_OFF	n/a	n/a	CEDAR	Trees	4	8	[0, 0, 0]	n/a	catFR1	4	R1380D
834.947	1.6	837584	WORD	n/a	wordpools/wordpool_categorized_EN.txt	ROSE	Flowers	5	8	[0, 0, 0]	n/a	catFR1	4	R1380D
836.547	0.917	839180	WORD_OFF	n/a	n/a	ROSE	Flowers	5	8	[0, 0, 0]	n/a	catFR1	4	R1380D
837.464	1.6	840100	WORD	n/a	wordpools/wordpool_categorized_EN.txt	DAISY	Flowers	6	8	[0, 0, 0]	n/a	catFR1	4	R1380D
839.064	0.9	841696	WORD_OFF	n/a	n/a	DAISY	Flowers	6	8	[0, 0, 0]	n/a	catFR1	4	R1380D
839.964	1.6	842596	WORD	n/a	wordpools/wordpool_categorized_EN.txt	EVERGREEN	Trees	7	8	[0, 0, 0]	n/a	catFR1	4	R1380D
841.564	0.8	844201	WORD_OFF	n/a	n/a	EVERGREEN	Trees	7	8	[0, 0, 0]	n/a	catFR1	4	R1380D
842.364	1.617	844999	WORD	n/a	wordpools/wordpool_categorized_EN.txt	HICKORY	Trees	8	8	[0, 0, 0]	n/a	catFR1	4	R1380D
843.981	0.883	846615	WORD_OFF	n/a	n/a	HICKORY	Trees	8	8	[0, 0, 0]	n/a	catFR1	4	R1380D
844.864	1.617	847494	WORD	n/a	wordpools/wordpool_categorized_EN.txt	ORANGE	Fruit	9	8	[0, 0, 0]	n/a	catFR1	4	R1380D
846.481	0.983	849110	WORD_OFF	n/a	n/a	ORANGE	Fruit	9	8	[0, 0, 0]	n/a	catFR1	4	R1380D
847.464	1.6	850102	WORD	n/a	wordpools/wordpool_categorized_EN.txt	BLUEBERRY	Fruit	10	8	[0, 0, 0]	n/a	catFR1	4	R1380D
849.064	0.799	851697	WORD_OFF	n/a	n/a	BLUEBERRY	Fruit	10	8	[0, 0, 0]	n/a	catFR1	4	R1380D
849.863	1.601	852495	WORD	n/a	wordpools/wordpool_categorized_EN.txt	TULIP	Flowers	11	8	[0, 0, 0]	n/a	catFR1	4	R1380D
851.464	0.866	854101	WORD_OFF	n/a	n/a	TULIP	Flowers	11	8	[0, 0, 0]	n/a	catFR1	4	R1380D
852.33	1.601	854960	WORD	n/a	wordpools/wordpool_categorized_EN.txt	LILY	Flowers	12	8	[0, 0, 0]	n/a	catFR1	4	R1380D
853.931	0.0	856564	PROB	0.0	n/a	n/a	n/a	-999	8	[2, 8, 7]	17	catFR1	4	R1380D
853.93	0.002	856565	WORD_OFF	n/a	n/a	LILY	Flowers	12	8	[0, 0, 0]	n/a	catFR1	4	R1380D
853.932	0.0	856565	ENCODING_END	n/a	n/a	n/a	n/a	-999	8	[0, 0, 0]	n/a	catFR1	4	R1380D
853.932	0.0	856565	DISTRACT_START	n/a	n/a	n/a	n/a	-999	8	[0, 0, 0]	n/a	catFR1	4	R1380D
853.932	3.216	856565	START	n/a	n/a	n/a	n/a	-999	8	[-999, -999, -999]	n/a	catFR1	4	R1380D
857.148	2.966	859781	PROB	2.966	n/a	n/a	n/a	-999	8	[8, 4, 4]	16	catFR1	4	R1380D
860.114	4.133	862747	PROB	4.133	n/a	n/a	n/a	-999	8	[5, 7, 3]	15	catFR1	4	R1380D
864.247	5.134	866880	PROB	5.134	n/a	n/a	n/a	-999	8	[2, 1, 1]	4	catFR1	4	R1380D
869.381	2.683	872013	PROB	2.683	n/a	n/a	n/a	-999	8	[5, 3, 1]	9	catFR1	4	R1380D
872.064	2.483	874696	PROB	2.483	n/a	n/a	n/a	-999	8	[2, 3, 3]	8	catFR1	4	R1380D
874.547	0.0	877179	STOP	n/a	n/a	n/a	n/a	-999	8	[-999, -999, -999]	n/a	catFR1	4	R1380D
874.547	1.266	877183	DISTRACT_END	n/a	n/a	n/a	n/a	-999	8	[0, 0, 0]	n/a	catFR1	4	R1380D
875.813	1.889	878451	REC_START	n/a	n/a	n/a	n/a	-999	8	[0, 0, 0]	n/a	catFR1	4	R1380D
877.702	3.434	880334	REC_WORD	3.434	n/a	HICKORY	Trees	8	8	[0, 0, 0]	n/a	catFR1	4	R1380D
881.136	5.774	883768	REC_WORD	5.774	n/a	EVERGREEN	Trees	7	8	[0, 0, 0]	n/a	catFR1	4	R1380D
886.91	1.322	889541	REC_WORD	1.322	n/a	PLUM	Fruit	1	8	[0, 0, 0]	n/a	catFR1	4	R1380D
888.232	1.116	890863	REC_WORD	1.116	n/a	PEACH	Fruit	2	8	[0, 0, 0]	n/a	catFR1	4	R1380D
889.348	2.192	891979	REC_WORD	2.192	n/a	BLUEBERRY	Fruit	10	8	[0, 0, 0]	n/a	catFR1	4	R1380D
891.54	14.523	894171	REC_WORD	14.523	n/a	ORANGE	Fruit	9	8	[0, 0, 0]	n/a	catFR1	4	R1380D
906.063	1.268	908691	REC_END	n/a	n/a	n/a	n/a	-999	8	[0, 0, 0]	n/a	catFR1	4	R1380D
907.331	10.35	909959	COUNTDOWN_START	n/a	n/a	n/a	n/a	-999	9	[0, 0, 0]	n/a	catFR1	4	R1380D
917.681	0.001	920309	COUNTDOWN_END	n/a	n/a	n/a	n/a	-999	9	[0, 0, 0]	n/a	catFR1	4	R1380D
917.682	2.115	920309	ENCODING_START	n/a	n/a	n/a	n/a	-999	9	[0, 0, 0]	n/a	catFR1	4	R1380D
919.797	1.617	922426	WORD	n/a	wordpools/wordpool_categorized_EN.txt	CIDER	Beverages	1	9	[0, 0, 0]	n/a	catFR1	4	R1380D
921.414	0.833	924042	WORD_OFF	n/a	n/a	CIDER	Beverages	1	9	[0, 0, 0]	n/a	catFR1	4	R1380D
922.247	1.617	924880	WORD	n/a	wordpools/wordpool_categorized_EN.txt	SODA	Beverages	2	9	[0, 0, 0]	n/a	catFR1	4	R1380D
923.864	1.0	926496	WORD_OFF	n/a	n/a	SODA	Beverages	2	9	[0, 0, 0]	n/a	catFR1	4	R1380D
924.864	1.6	927498	WORD	n/a	wordpools/wordpool_categorized_EN.txt	BANJO	Instruments	3	9	[0, 0, 0]	n/a	catFR1	4	R1380D
926.464	0.95	929094	WORD_OFF	n/a	n/a	BANJO	Instruments	3	9	[0, 0, 0]	n/a	catFR1	4	R1380D
927.414	1.6	930045	WORD	n/a	wordpools/wordpool_categorized_EN.txt	FLUTE	Instruments	4	9	[0, 0, 0]	n/a	catFR1	4	R1380D
929.014	1.0	931640	WORD_OFF	n/a	n/a	FLUTE	Instruments	4	9	[0, 0, 0]	n/a	catFR1	4	R1380D
930.014	1.617	932643	WORD	n/a	wordpools/wordpool_categorized_EN.txt	CHERRY	Fruit	5	9	[0, 0, 0]	n/a	catFR1	4	R1380D
931.631	0.8	934258	WORD_OFF	n/a	n/a	CHERRY	Fruit	5	9	[0, 0, 0]	n/a	catFR1	4	R1380D
932.431	1.616	935056	WORD	n/a	wordpools/wordpool_categorized_EN.txt	APPLE	Fruit	6	9	[0, 0, 0]	n/a	catFR1	4	R1380D
934.047	0.884	936682	WORD_OFF	n/a	n/a	APPLE	Fruit	6	9	[0, 0, 0]	n/a	catFR1	4	R1380D
934.931	1.616	937562	WORD	n/a	wordpools/wordpool_categorized_EN.txt	WINE	Beverages	7	9	[0, 0, 0]	n/a	catFR1	4	R1380D
936.547	0.934	939177	WORD_OFF	n/a	n/a	WINE	Beverages	7	9	[0, 0, 0]	n/a	catFR1	4	R1380D
937.481	1.617	940108	WORD	n/a	wordpools/wordpool_categorized_EN.txt	COLA	Beverages	8	9	[0, 0, 0]	n/a	catFR1	4	R1380D
939.098	0.949	941724	WORD_OFF	n/a	n/a	COLA	Beverages	8	9	[0, 0, 0]	n/a	catFR1	4	R1380D
940.047	1.6	942675	WORD	n/a	wordpools/wordpool_categorized_EN.txt	TRUMPET	Instruments	9	9	[0, 0, 0]	n/a	catFR1	4	R1380D
941.647	0.867	944281	WORD_OFF	n/a	n/a	TRUMPET	Instruments	9	9	[0, 0, 0]	n/a	catFR1	4	R1380D
942.514	1.6	945140	WORD	n/a	wordpools/wordpool_categorized_EN.txt	PIANO	Instruments	10	9	[0, 0, 0]	n/a	catFR1	4	R1380D
944.114	0.967	946745	WORD_OFF	n/a	n/a	PIANO	Instruments	10	9	[0, 0, 0]	n/a	catFR1	4	R1380D
945.081	1.6	947707	WORD	n/a	wordpools/wordpool_categorized_EN.txt	LIME	Fruit	11	9	[0, 0, 0]	n/a	catFR1	4	R1380D
946.681	0.8	949312	WORD_OFF	n/a	n/a	LIME	Fruit	11	9	[0, 0, 0]	n/a	catFR1	4	R1380D
947.481	1.6	950110	WORD	n/a	wordpools/wordpool_categorized_EN.txt	LEMON	Fruit	12	9	[0, 0, 0]	n/a	catFR1	4	R1380D
949.081	0.0	951705	WORD_OFF	n/a	n/a	LEMON	Fruit	12	9	[0, 0, 0]	n/a	catFR1	4	R1380D
949.081	0.001	951709	PROB	0.001	n/a	n/a	n/a	-999	9	[4, 6, 3]	13	catFR1	4	R1380D
949.082	0.0	951710	START	n/a	n/a	n/a	n/a	-999	9	[-999, -999, -999]	n/a	catFR1	4	R1380D
949.082	0.0	951716	ENCODING_END	n/a	n/a	n/a	n/a	-999	9	[0, 0, 0]	n/a	catFR1	4	R1380D
949.082	6.249	951716	DISTRACT_START	n/a	n/a	n/a	n/a	-999	9	[0, 0, 0]	n/a	catFR1	4	R1380D
955.331	4.116	957959	PROB	4.116	n/a	n/a	n/a	-999	9	[4, 6, 2]	12	catFR1	4	R1380D
959.447	5.201	962075	PROB	5.201	n/a	n/a	n/a	-999	9	[7, 2, 6]	15	catFR1	4	R1380D
964.648	3.166	967275	PROB	3.166	n/a	n/a	n/a	-999	9	[1, 5, 1]	7	catFR1	4	R1380D
967.814	2.916	970441	PROB	2.916	n/a	n/a	n/a	-999	9	[6, 1, 8]	15	catFR1	4	R1380D
970.73	0.0	973355	DISTRACT_END	n/a	n/a	n/a	n/a	-999	9	[0, 0, 0]	n/a	catFR1	4	R1380D
970.73	1.067	973357	STOP	n/a	n/a	n/a	n/a	-999	9	[-999, -999, -999]	n/a	catFR1	4	R1380D
971.797	2.008	974429	REC_START	n/a	n/a	n/a	n/a	-999	9	[0, 0, 0]	n/a	catFR1	4	R1380D
973.805	0.579	976432	REC_WORD	0.579	n/a	BANJO	Instruments	3	9	[0, 0, 0]	n/a	catFR1	4	R1380D
974.384	1.018	977011	REC_WORD	1.018	n/a	FLUTE	Instruments	4	9	[0, 0, 0]	n/a	catFR1	4	R1380D
975.402	0.795	978029	REC_WORD	0.795	n/a	PIANO	Instruments	10	9	[0, 0, 0]	n/a	catFR1	4	R1380D
976.197	1.79	978824	REC_WORD	1.79	n/a	TRUMPET	Instruments	9	9	[0, 0, 0]	n/a	catFR1	4	R1380D
977.987	0.913	980614	REC_WORD	0.913	n/a	LEMON	Fruit	12	9	[0, 0, 0]	n/a	catFR1	4	R1380D
978.9	3.408	981527	REC_WORD	3.408	n/a	LIME	Fruit	11	9	[0, 0, 0]	n/a	catFR1	4	R1380D
982.308	0.83	984934	REC_WORD	0.83	n/a	OAK	Trees	-999	9	[0, 0, 0]	n/a	catFR1	4	R1380D
983.138	0.495	985764	REC_WORD_VV	0.495	n/a	<>	n/a	-999	9	[0, 0, 0]	n/a	catFR1	4	R1380D
983.633	1.08	986259	REC_WORD	1.08	n/a	CHERRY	Fruit	5	9	[0, 0, 0]	n/a	catFR1	4	R1380D
984.713	5.778	987339	REC_WORD	5.778	n/a	APPLE	Fruit	6	9	[0, 0, 0]	n/a	catFR1	4	R1380D
990.491	1.0	993117	REC_WORD_VV	1.0	n/a	<>	n/a	-999	9	[0, 0, 0]	n/a	catFR1	4	R1380D
991.491	2.723	994117	REC_WORD_VV	2.723	n/a	<>	n/a	-999	9	[0, 0, 0]	n/a	catFR1	4	R1380D
994.214	1.0	996840	REC_WORD_VV	1.0	n/a	<>	n/a	-999	9	[0, 0, 0]	n/a	catFR1	4	R1380D
995.214	6.861	997840	REC_WORD_VV	6.861	n/a	<>	n/a	-999	9	[0, 0, 0]	n/a	catFR1	4	R1380D
1002.075	1.373	1004701	REC_END	n/a	n/a	n/a	n/a	-999	9	[0, 0, 0]	n/a	catFR1	4	R1380D
1003.448	10.35	1006071	COUNTDOWN_START	n/a	n/a	n/a	n/a	-999	10	[0, 0, 0]	n/a	catFR1	4	R1380D
1013.798	0.0	1016420	COUNTDOWN_END	n/a	n/a	n/a	n/a	-999	10	[0, 0, 0]	n/a	catFR1	4	R1380D
1013.798	2.1	1016420	ENCODING_START	n/a	n/a	n/a	n/a	-999	10	[0, 0, 0]	n/a	catFR1	4	R1380D
1015.898	1.6	1018527	WORD	n/a	wordpools/wordpool_categorized_EN.txt	IRON	Appliances	1	10	[0, 0, 0]	n/a	catFR1	4	R1380D
1017.498	0.783	1020123	WORD_OFF	n/a	n/a	IRON	Appliances	1	10	[0, 0, 0]	n/a	catFR1	4	R1380D
1018.281	1.616	1020910	WORD	n/a	wordpools/wordpool_categorized_EN.txt	DRYER	Appliances	2	10	[0, 0, 0]	n/a	catFR1	4	R1380D
1019.897	0.85	1022526	WORD_OFF	n/a	n/a	DRYER	Appliances	2	10	[0, 0, 0]	n/a	catFR1	4	R1380D
1020.747	1.617	1023375	WORD	n/a	wordpools/wordpool_categorized_EN.txt	HORSE	Farmanimals	3	10	[0, 0, 0]	n/a	catFR1	4	R1380D
1022.364	0.884	1024990	WORD_OFF	n/a	n/a	HORSE	Farmanimals	3	10	[0, 0, 0]	n/a	catFR1	4	R1380D
1023.248	1.616	1025870	WORD	n/a	wordpools/wordpool_categorized_EN.txt	TURKEY	Farmanimals	4	10	[0, 0, 0]	n/a	catFR1	4	R1380D
1024.864	0.8	1027486	WORD_OFF	n/a	n/a	TURKEY	Farmanimals	4	10	[0, 0, 0]	n/a	catFR1	4	R1380D
1025.664	1.6	1028294	WORD	n/a	wordpools/wordpool_categorized_EN.txt	ORANGUTAN	Zoo	5	10	[0, 0, 0]	n/a	catFR1	4	R1380D
1027.264	0.934	1029889	WORD_OFF	n/a	n/a	ORANGUTAN	Zoo	5	10	[0, 0, 0]	n/a	catFR1	4	R1380D
1028.198	1.599	1030820	WORD	n/a	wordpools/wordpool_categorized_EN.txt	BEAR	Zoo	6	10	[0, 0, 0]	n/a	catFR1	4	R1380D
1029.797	0.767	1032425	WORD_OFF	n/a	n/a	BEAR	Zoo	6	10	[0, 0, 0]	n/a	catFR1	4	R1380D
1030.564	1.617	1033192	WORD	n/a	wordpools/wordpool_categorized_EN.txt	BLENDER	Appliances	7	10	[0, 0, 0]	n/a	catFR1	4	R1380D
1032.181	0.966	1034808	WORD_OFF	n/a	n/a	BLENDER	Appliances	7	10	[0, 0, 0]	n/a	catFR1	4	R1380D
1033.147	1.6	1035770	WORD	n/a	wordpools/wordpool_categorized_EN.txt	OVEN	Appliances	8	10	[0, 0, 0]	n/a	catFR1	4	R1380D
1034.747	0.934	1037375	WORD_OFF	n/a	n/a	OVEN	Appliances	8	10	[0, 0, 0]	n/a	catFR1	4	R1380D
1035.681	1.6	1038306	WORD	n/a	wordpools/wordpool_categorized_EN.txt	BULL	Farmanimals	9	10	[0, 0, 0]	n/a	catFR1	4	R1380D
1037.281	0.883	1039901	WORD_OFF	n/a	n/a	BULL	Farmanimals	9	10	[0, 0, 0]	n/a	catFR1	4	R1380D
1038.164	1.6	1040791	WORD	n/a	wordpools/wordpool_categorized_EN.txt	SHEEP	Farmanimals	10	10	[0, 0, 0]	n/a	catFR1	4	R1380D
1039.764	0.867	1042386	WORD_OFF	n/a	n/a	SHEEP	Farmanimals	10	10	[0, 0, 0]	n/a	catFR1	4	R1380D
1040.631	1.6	1043256	WORD	n/a	wordpools/wordpool_categorized_EN.txt	PANDA	Zoo	11	10	[0, 0, 0]	n/a	catFR1	4	R1380D
1042.231	0.766	1044851	WORD_OFF	n/a	n/a	PANDA	Zoo	11	10	[0, 0, 0]	n/a	catFR1	4	R1380D
1042.997	1.617	1045618	WORD	n/a	wordpools/wordpool_categorized_EN.txt	ELEPHANT	Zoo	12	10	[0, 0, 0]	n/a	catFR1	4	R1380D
1044.614	0.001	1047234	WORD_OFF	n/a	n/a	ELEPHANT	Zoo	12	10	[0, 0, 0]	n/a	catFR1	4	R1380D
1044.615	0.001	1047238	PROB	0.001	n/a	n/a	n/a	-999	10	[3, 5, 7]	15	catFR1	4	R1380D
1044.616	0.0	1047239	START	n/a	n/a	n/a	n/a	-999	10	[-999, -999, -999]	n/a	catFR1	4	R1380D
1044.615	0.001	1047244	ENCODING_END	n/a	n/a	n/a	n/a	-999	10	[0, 0, 0]	n/a	catFR1	4	R1380D
1044.616	7.132	1047244	DISTRACT_START	n/a	n/a	n/a	n/a	-999	10	[0, 0, 0]	n/a	catFR1	4	R1380D
1051.748	6.883	1054371	PROB	6.883	n/a	n/a	n/a	-999	10	[7, 1, 4]	12	catFR1	4	R1380D
1058.631	4.335	1061253	PROB	4.335	n/a	n/a	n/a	-999	10	[7, 3, 6]	16	catFR1	4	R1380D
1062.966	6.698	1065588	PROB	6.698	n/a	n/a	n/a	-999	10	[3, 4, 3]	10	catFR1	4	R1380D
1069.664	0.0	1072286	STOP	n/a	n/a	n/a	n/a	-999	10	[-999, -999, -999]	n/a	catFR1	4	R1380D
1069.664	1.1	1072289	DISTRACT_END	n/a	n/a	n/a	n/a	-999	10	[0, 0, 0]	n/a	catFR1	4	R1380D
1070.764	1.663	1073384	REC_START	n/a	n/a	n/a	n/a	-999	10	[0, 0, 0]	n/a	catFR1	4	R1380D
1072.427	1.504	1075049	REC_WORD	1.504	n/a	PANDA	Zoo	11	10	[0, 0, 0]	n/a	catFR1	4	R1380D
1073.931	1.54	1076553	REC_WORD	1.54	n/a	ELEPHANT	Zoo	12	10	[0, 0, 0]	n/a	catFR1	4	R1380D
1075.471	1.346	1078093	REC_WORD	1.346	n/a	BEAR	Zoo	6	10	[0, 0, 0]	n/a	catFR1	4	R1380D
1076.817	0.557	1079438	REC_WORD	0.557	n/a	BULL	Farmanimals	9	10	[0, 0, 0]	n/a	catFR1	4	R1380D
1077.374	1.62	1079995	REC_WORD	1.62	n/a	TURKEY	Farmanimals	4	10	[0, 0, 0]	n/a	catFR1	4	R1380D
1078.994	8.475	1081615	REC_WORD	8.475	n/a	HORSE	Farmanimals	3	10	[0, 0, 0]	n/a	catFR1	4	R1380D
1087.469	0.862	1090090	REC_WORD	0.862	n/a	DRYER	Appliances	2	10	[0, 0, 0]	n/a	catFR1	4	R1380D
1088.331	2.524	1090952	REC_WORD	2.524	n/a	IRON	Appliances	1	10	[0, 0, 0]	n/a	catFR1	4	R1380D
1090.855	3.867	1093476	REC_WORD	3.867	n/a	DISHWASHER	Appliances	-999	10	[0, 0, 0]	n/a	catFR1	4	R1380D
1094.722	6.309	1097343	REC_WORD	6.309	n/a	OVEN	Appliances	8	10	[0, 0, 0]	n/a	catFR1	4	R1380D
1101.031	1.466	1103655	REC_END	n/a	n/a	n/a	n/a	-999	10	[0, 0, 0]	n/a	catFR1	4	R1380D
1102.497	10.351	1105117	COUNTDOWN_START	n/a	n/a	n/a	n/a	-999	11	[0, 0, 0]	n/a	catFR1	4	R1380D
1112.848	0.0	1115467	COUNTDOWN_END	n/a	n/a	n/a	n/a	-999	11	[0, 0, 0]	n/a	catFR1	4	R1380D
1112.848	2.149	1115467	ENCODING_START	n/a	n/a	n/a	n/a	-999	11	[0, 0, 0]	n/a	catFR1	4	R1380D
1114.997	1.617	1117615	WORD	n/a	wordpools/wordpool_categorized_EN.txt	VIOLIN	Instruments	1	11	[0, 0, 0]	n/a	catFR1	4	R1380D
1116.614	0.9	1119230	WORD_OFF	n/a	n/a	VIOLIN	Instruments	1	11	[0, 0, 0]	n/a	catFR1	4	R1380D
1117.514	1.6	1120130	WORD	n/a	wordpools/wordpool_categorized_EN.txt	TROMBONE	Instruments	2	11	[0, 0, 0]	n/a	catFR1	4	R1380D
1119.114	0.8	1121736	WORD_OFF	n/a	n/a	TROMBONE	Instruments	2	11	[0, 0, 0]	n/a	catFR1	4	R1380D
1119.914	1.6	1122534	WORD	n/a	wordpools/wordpool_categorized_EN.txt	WIND	Weather	3	11	[0, 0, 0]	n/a	catFR1	4	R1380D
1121.514	0.983	1124139	WORD_OFF	n/a	n/a	WIND	Weather	3	11	[0, 0, 0]	n/a	catFR1	4	R1380D
1122.497	1.617	1125121	WORD	n/a	wordpools/wordpool_categorized_EN.txt	TORNADO	Weather	4	11	[0, 0, 0]	n/a	catFR1	4	R1380D
1124.114	0.867	1126737	WORD_OFF	n/a	n/a	TORNADO	Weather	4	11	[0, 0, 0]	n/a	catFR1	4	R1380D
1124.981	1.617	1127596	WORD	n/a	wordpools/wordpool_categorized_EN.txt	ZEBRA	Zoo	5	11	[0, 0, 0]	n/a	catFR1	4	R1380D
1126.598	0.833	1129219	WORD_OFF	n/a	n/a	ZEBRA	Zoo	5	11	[0, 0, 0]	n/a	catFR1	4	R1380D
1127.431	1.6	1130050	WORD	n/a	wordpools/wordpool_categorized_EN.txt	LION	Zoo	6	11	[0, 0, 0]	n/a	catFR1	4	R1380D
1129.031	0.9	1131646	WORD_OFF	n/a	n/a	LION	Zoo	6	11	[0, 0, 0]	n/a	catFR1	4	R1380D
1129.931	1.6	1132546	WORD	n/a	wordpools/wordpool_categorized_EN.txt	DRIZZLE	Weather	7	11	[0, 0, 0]	n/a	catFR1	4	R1380D
1131.531	0.983	1134151	WORD_OFF	n/a	n/a	DRIZZLE	Weather	7	11	[0, 0, 0]	n/a	catFR1	4	R1380D
1132.514	1.6	1135133	WORD	n/a	wordpools/wordpool_categorized_EN.txt	HUMIDITY	Weather	8	11	[0, 0, 0]	n/a	catFR1	4	R1380D
1134.114	0.833	1136739	WORD_OFF	n/a	n/a	HUMIDITY	Weather	8	11	[0, 0, 0]	n/a	catFR1	4	R1380D
1134.947	1.6	1137567	WORD	n/a	wordpools/wordpool_categorized_EN.txt	TIGER	Zoo	9	11	[0, 0, 0]	n/a	catFR1	4	R1380D
1136.547	0.817	1139162	WORD_OFF	n/a	n/a	TIGER	Zoo	9	11	[0, 0, 0]	n/a	catFR1	4	R1380D
1137.364	1.616	1139981	WORD	n/a	wordpools/wordpool_categorized_EN.txt	GIRAFFE	Zoo	10	11	[0, 0, 0]	n/a	catFR1	4	R1380D
1138.98	0.834	1141596	WORD_OFF	n/a	n/a	GIRAFFE	Zoo	10	11	[0, 0, 0]	n/a	catFR1	4	R1380D
1139.814	1.617	1142435	WORD	n/a	wordpools/wordpool_categorized_EN.txt	BASS	Instruments	11	11	[0, 0, 0]	n/a	catFR1	4	R1380D
1141.431	0.983	1144051	WORD_OFF	n/a	n/a	BASS	Instruments	11	11	[0, 0, 0]	n/a	catFR1	4	R1380D
1142.414	1.6	1145033	WORD	n/a	wordpools/wordpool_categorized_EN.txt	GUITAR	Instruments	12	11	[0, 0, 0]	n/a	catFR1	4	R1380D
1144.014	0.002	1146632	PROB	0.002	n/a	n/a	n/a	-999	11	[2, 3, 5]	10	catFR1	4	R1380D
1144.016	0.0	1146634	START	n/a	n/a	n/a	n/a	-999	11	[-999, -999, -999]	n/a	catFR1	4	R1380D
1144.014	0.002	1146638	WORD_OFF	n/a	n/a	GUITAR	Instruments	12	11	[0, 0, 0]	n/a	catFR1	4	R1380D
1144.016	0.0	1146638	ENCODING_END	n/a	n/a	n/a	n/a	-999	11	[0, 0, 0]	n/a	catFR1	4	R1380D
1144.016	4.049	1146638	DISTRACT_START	n/a	n/a	n/a	n/a	-999	11	[0, 0, 0]	n/a	catFR1	4	R1380D
1148.065	3.733	1150683	PROB	3.733	n/a	n/a	n/a	-999	11	[5, 7, 6]	18	catFR1	4	R1380D
1151.798	2.633	1154416	PROB	2.633	n/a	n/a	n/a	-999	11	[5, 5, 1]	11	catFR1	4	R1380D
1154.431	4.317	1157048	PROB	4.317	n/a	n/a	n/a	-999	11	[1, 2, 6]	9	catFR1	4	R1380D
1158.748	3.116	1161365	PROB	3.116	n/a	n/a	n/a	-999	11	[3, 1, 3]	7	catFR1	4	R1380D
1161.864	3.25	1164481	PROB	3.25	n/a	n/a	n/a	-999	11	[1, 8, 6]	15	catFR1	4	R1380D
1165.114	0.0	1167731	STOP	n/a	n/a	n/a	n/a	-999	11	[-999, -999, -999]	n/a	catFR1	4	R1380D
1165.114	1.2	1167736	DISTRACT_END	n/a	n/a	n/a	n/a	-999	11	[0, 0, 0]	n/a	catFR1	4	R1380D
1166.314	1.245	1168933	REC_START	n/a	n/a	n/a	n/a	-999	11	[0, 0, 0]	n/a	catFR1	4	R1380D
1167.559	1.887	1170176	REC_WORD	1.887	n/a	VIOLIN	Instruments	1	11	[0, 0, 0]	n/a	catFR1	4	R1380D
1169.446	1.939	1172063	REC_WORD	1.939	n/a	TROMBONE	Instruments	2	11	[0, 0, 0]	n/a	catFR1	4	R1380D
1171.385	0.949	1174002	REC_WORD	0.949	n/a	BASS	Instruments	11	11	[0, 0, 0]	n/a	catFR1	4	R1380D
1172.334	3.55	1174951	REC_WORD	3.55	n/a	GUITAR	Instruments	12	11	[0, 0, 0]	n/a	catFR1	4	R1380D
1175.884	1.027	1178500	REC_WORD	1.027	n/a	ZEBRA	Zoo	5	11	[0, 0, 0]	n/a	catFR1	4	R1380D
1176.911	1.225	1179527	REC_WORD	1.225	n/a	LION	Zoo	6	11	[0, 0, 0]	n/a	catFR1	4	R1380D
1178.136	2.846	1180752	REC_WORD	2.846	n/a	TIGER	Zoo	9	11	[0, 0, 0]	n/a	catFR1	4	R1380D
1180.982	10.718	1183598	REC_WORD	10.718	n/a	GIRAFFE	Zoo	10	11	[0, 0, 0]	n/a	catFR1	4	R1380D
1191.7	3.883	1194316	REC_WORD_VV	3.883	n/a	<>	n/a	-999	11	[0, 0, 0]	n/a	catFR1	4	R1380D
1195.583	0.984	1198198	REC_WORD	0.984	n/a	CIDER	Beverages	-999	11	[0, 0, 0]	n/a	catFR1	4	R1380D
1196.567	1.497	1199184	REC_END	n/a	n/a	n/a	n/a	-999	11	[0, 0, 0]	n/a	catFR1	4	R1380D
1198.064	10.351	1200677	COUNTDOWN_START	n/a	n/a	n/a	n/a	-999	12	[0, 0, 0]	n/a	catFR1	4	R1380D
1208.415	0.0	1211026	COUNTDOWN_END	n/a	n/a	n/a	n/a	-999	12	[0, 0, 0]	n/a	catFR1	4	R1380D
1208.415	2.049	1211036	ENCODING_START	n/a	n/a	n/a	n/a	-999	12	[0, 0, 0]	n/a	catFR1	4	R1380D
1210.464	1.6	1213082	WORD	n/a	wordpools/wordpool_categorized_EN.txt	UNDERWEAR	Clothing	1	12	[0, 0, 0]	n/a	catFR1	4	R1380D
1212.064	0.95	1214677	WORD_OFF	n/a	n/a	UNDERWEAR	Clothing	1	12	[0, 0, 0]	n/a	catFR1	4	R1380D
1213.014	1.617	1215628	WORD	n/a	wordpools/wordpool_categorized_EN.txt	SHOES	Clothing	2	12	[0, 0, 0]	n/a	catFR1	4	R1380D
1214.631	0.783	1217244	WORD_OFF	n/a	n/a	SHOES	Clothing	2	12	[0, 0, 0]	n/a	catFR1	4	R1380D
1215.414	1.6	1218032	WORD	n/a	wordpools/wordpool_categorized_EN.txt	TUBA	Instruments	3	12	[0, 0, 0]	n/a	catFR1	4	R1380D
1217.014	0.884	1219627	WORD_OFF	n/a	n/a	TUBA	Instruments	3	12	[0, 0, 0]	n/a	catFR1	4	R1380D
1217.898	1.599	1220517	WORD	n/a	wordpools/wordpool_categorized_EN.txt	DRUM	Instruments	4	12	[0, 0, 0]	n/a	catFR1	4	R1380D
1219.497	1.001	1222112	WORD_OFF	n/a	n/a	DRUM	Instruments	4	12	[0, 0, 0]	n/a	catFR1	4	R1380D
1220.498	1.6	1223114	WORD	n/a	wordpools/wordpool_categorized_EN.txt	HURRICANE	Weather	5	12	[0, 0, 0]	n/a	catFR1	4	R1380D
1222.098	0.816	1224710	WORD_OFF	n/a	n/a	HURRICANE	Weather	5	12	[0, 0, 0]	n/a	catFR1	4	R1380D
1222.914	1.6	1225528	WORD	n/a	wordpools/wordpool_categorized_EN.txt	CLOUD	Weather	6	12	[0, 0, 0]	n/a	catFR1	4	R1380D
1224.514	1.0	1227133	WORD_OFF	n/a	n/a	CLOUD	Weather	6	12	[0, 0, 0]	n/a	catFR1	4	R1380D
1225.514	1.6	1228125	WORD	n/a	wordpools/wordpool_categorized_EN.txt	COAT	Clothing	7	12	[0, 0, 0]	n/a	catFR1	4	R1380D
1227.114	0.784	1229731	WORD_OFF	n/a	n/a	COAT	Clothing	7	12	[0, 0, 0]	n/a	catFR1	4	R1380D
1227.898	1.599	1230508	WORD	n/a	wordpools/wordpool_categorized_EN.txt	DRESS	Clothing	8	12	[0, 0, 0]	n/a	catFR1	4	R1380D
1229.497	0.851	1232114	WORD_OFF	n/a	n/a	DRESS	Clothing	8	12	[0, 0, 0]	n/a	catFR1	4	R1380D
1230.348	1.616	1232963	WORD	n/a	wordpools/wordpool_categorized_EN.txt	CELLO	Instruments	9	12	[0, 0, 0]	n/a	catFR1	4	R1380D
1231.964	0.8	1234578	WORD_OFF	n/a	n/a	CELLO	Instruments	9	12	[0, 0, 0]	n/a	catFR1	4	R1380D
1232.764	1.6	1235376	WORD	n/a	wordpools/wordpool_categorized_EN.txt	ORGAN	Instruments	10	12	[0, 0, 0]	n/a	catFR1	4	R1380D
1234.364	0.95	1236982	WORD_OFF	n/a	n/a	ORGAN	Instruments	10	12	[0, 0, 0]	n/a	catFR1	4	R1380D
1235.314	1.6	1237933	WORD	n/a	wordpools/wordpool_categorized_EN.txt	SNOW	Weather	11	12	[0, 0, 0]	n/a	catFR1	4	R1380D
1236.914	0.884	1239528	WORD_OFF	n/a	n/a	SNOW	Weather	11	12	[0, 0, 0]	n/a	catFR1	4	R1380D
1237.798	1.6	1240408	WORD	n/a	wordpools/wordpool_categorized_EN.txt	THUNDERSTORM	Weather	12	12	[0, 0, 0]	n/a	catFR1	4	R1380D
1239.398	0.001	1242011	PROB	0.001	n/a	n/a	n/a	-999	12	[7, 5, 2]	14	catFR1	4	R1380D
1239.399	0.0	1242012	START	n/a	n/a	n/a	n/a	-999	12	[-999, -999, -999]	n/a	catFR1	4	R1380D
1239.398	0.001	1242013	WORD_OFF	n/a	n/a	THUNDERSTORM	Weather	12	12	[0, 0, 0]	n/a	catFR1	4	R1380D
1239.399	0.0	1242013	ENCODING_END	n/a	n/a	n/a	n/a	-999	12	[0, 0, 0]	n/a	catFR1	4	R1380D
1239.399	5.632	1242013	DISTRACT_START	n/a	n/a	n/a	n/a	-999	12	[0, 0, 0]	n/a	catFR1	4	R1380D
1245.031	9.05	1247644	PROB	9.05	n/a	n/a	n/a	-999	12	[8, 6, 7]	21	catFR1	4	R1380D
1254.081	3.334	1256693	PROB	3.334	n/a	n/a	n/a	-999	12	[2, 5, 3]	10	catFR1	4	R1380D
1257.415	2.316	1260027	PROB	2.316	n/a	n/a	n/a	-999	12	[3, 3, 3]	9	catFR1	4	R1380D
1259.731	0.0	1262343	STOP	n/a	n/a	n/a	n/a	-999	12	[-999, -999, -999]	n/a	catFR1	4	R1380D
1259.731	1.283	1262344	DISTRACT_END	n/a	n/a	n/a	n/a	-999	12	[0, 0, 0]	n/a	catFR1	4	R1380D
1261.014	2.619	1263623	REC_START	n/a	n/a	n/a	n/a	-999	12	[0, 0, 0]	n/a	catFR1	4	R1380D
1263.633	1.556	1266245	REC_WORD_VV	1.556	n/a	<>	n/a	-999	12	[0, 0, 0]	n/a	catFR1	4	R1380D
1265.189	1.718	1267801	REC_WORD	1.718	n/a	TORNADO	Weather	-999	12	[0, 0, 0]	n/a	catFR1	4	R1380D
1266.907	0.305	1269519	REC_WORD_VV	0.305	n/a	<>	n/a	-999	12	[0, 0, 0]	n/a	catFR1	4	R1380D
1267.212	1.728	1269824	REC_WORD	1.728	n/a	HURRICANE	Weather	5	12	[0, 0, 0]	n/a	catFR1	4	R1380D
1268.94	2.504	1271552	REC_WORD	2.504	n/a	WIND	Weather	-999	12	[0, 0, 0]	n/a	catFR1	4	R1380D
1271.444	0.609	1274055	REC_WORD	0.609	n/a	SNOW	Weather	11	12	[0, 0, 0]	n/a	catFR1	4	R1380D
1272.053	11.5	1274664	REC_WORD	11.5	n/a	THUNDERSTORM	Weather	12	12	[0, 0, 0]	n/a	catFR1	4	R1380D
1283.553	7.732	1286164	REC_WORD	7.732	n/a	DRUM	Instruments	4	12	[0, 0, 0]	n/a	catFR1	4	R1380D
1291.285	0.0	1293894	REC_END	n/a	n/a	n/a	n/a	-999	12	[0, 0, 0]	n/a	catFR1	4	R1380D
