onset	duration	sample	trial_type	response_time	stim_file	item_name	category	serialpos	list	test	answer	experiment	session	subject
0.0	0.0	22036	INSTRUCT_START	n/a	n/a	n/a	n/a	-999	-999	[0, 0, 0]	n/a	catFR1	0	R1163T
0.0	10.97	22036	INSTRUCT_END	n/a	n/a	n/a	n/a	-999	-999	[0, 0, 0]	n/a	catFR1	0	R1163T
10.97	0.0	33005	SESS_START	n/a	n/a	n/a	n/a	-999	-999	[0, 0, 0]	n/a	catFR1	0	R1163T
10.97	13.001	33005	MIC_TEST	n/a	n/a	n/a	n/a	-999	-999	[0, 0, 0]	n/a	catFR1	0	R1163T
23.971	13.102	46005	PRACTICE_TRIAL	n/a	n/a	n/a	n/a	-999	-1	[0, 0, 0]	n/a	catFR1	0	R1163T
37.073	10.428	59106	COUNTDOWN_START	n/a	n/a	n/a	n/a	-999	-1	[0, 0, 0]	n/a	catFR1	0	R1163T
47.501	0.007	69534	COUNTDOWN_END	n/a	n/a	n/a	n/a	-999	-1	[0, 0, 0]	n/a	catFR1	0	R1163T
47.508	1.617	69541	PRACTICE_ORIENT	n/a	n/a	n/a	n/a	-999	-1	[0, 0, 0]	n/a	catFR1	0	R1163T
49.125	2.15	71158	PRACTICE_ORIENT_OFF	n/a	n/a	n/a	n/a	-999	-1	[0, 0, 0]	n/a	catFR1	0	R1163T
51.275	1.601	73308	PRACTICE_WORD	n/a	n/a	BEAM	n/a	-1	-1	[0, 0, 0]	n/a	catFR1	0	R1163T
52.876	0.967	74908	PRACTICE_WORD_OFF	n/a	n/a	BEAM	n/a	-999	-1	[0, 0, 0]	n/a	catFR1	0	R1163T
53.843	1.616	75875	PRACTICE_WORD	n/a	n/a	WAGON	n/a	-1	-1	[0, 0, 0]	n/a	catFR1	0	R1163T
55.459	0.85	77491	PRACTICE_WORD_OFF	n/a	n/a	WAGON	n/a	-999	-1	[0, 0, 0]	n/a	catFR1	0	R1163T
56.309	1.619	78341	PRACTICE_WORD	n/a	n/a	RHINO	n/a	-1	-1	[0, 0, 0]	n/a	catFR1	0	R1163T
57.928	0.95	79960	PRACTICE_WORD_OFF	n/a	n/a	RHINO	n/a	-999	-1	[0, 0, 0]	n/a	catFR1	0	R1163T
58.878	1.616	80910	PRACTICE_WORD	n/a	n/a	TONGUE	n/a	-1	-1	[0, 0, 0]	n/a	catFR1	0	R1163T
60.494	0.833	82526	PRACTICE_WORD_OFF	n/a	n/a	TONGUE	n/a	-999	-1	[0, 0, 0]	n/a	catFR1	0	R1163T
61.327	1.618	83359	PRACTICE_WORD	n/a	n/a	FLOOD	n/a	-1	-1	[0, 0, 0]	n/a	catFR1	0	R1163T
62.945	0.882	84977	PRACTICE_WORD_OFF	n/a	n/a	FLOOD	n/a	-999	-1	[0, 0, 0]	n/a	catFR1	0	R1163T
63.827	1.617	85859	PRACTICE_WORD	n/a	n/a	WATCH	n/a	-1	-1	[0, 0, 0]	n/a	catFR1	0	R1163T
65.444	0.817	87476	PRACTICE_WORD_OFF	n/a	n/a	WATCH	n/a	-999	-1	[0, 0, 0]	n/a	catFR1	0	R1163T
66.261	1.618	88293	PRACTICE_WORD	n/a	n/a	COTTON	n/a	-1	-1	[0, 0, 0]	n/a	catFR1	0	R1163T
67.879	0.949	89911	PRACTICE_WORD_OFF	n/a	n/a	COTTON	n/a	-999	-1	[0, 0, 0]	n/a	catFR1	0	R1163T
68.828	1.617	90860	PRACTICE_WORD	n/a	n/a	ATTIC	n/a	-1	-1	[0, 0, 0]	n/a	catFR1	0	R1163T
70.445	0.767	92476	PRACTICE_WORD_OFF	n/a	n/a	ATTIC	n/a	-999	-1	[0, 0, 0]	n/a	catFR1	0	R1163T
71.212	1.617	93243	PRACTICE_WORD	n/a	n/a	CHEST	n/a	-1	-1	[0, 0, 0]	n/a	catFR1	0	R1163T
72.829	0.95	94860	PRACTICE_WORD_OFF	n/a	n/a	CHEST	n/a	-999	-1	[0, 0, 0]	n/a	catFR1	0	R1163T
73.779	1.617	95810	PRACTICE_WORD	n/a	n/a	IRON	n/a	-1	-1	[0, 0, 0]	n/a	catFR1	0	R1163T
75.396	0.867	97427	PRACTICE_WORD_OFF	n/a	n/a	IRON	n/a	-999	-1	[0, 0, 0]	n/a	catFR1	0	R1163T
76.263	1.618	98294	PRACTICE_WORD	n/a	n/a	CAMEL	n/a	-1	-1	[0, 0, 0]	n/a	catFR1	0	R1163T
77.881	0.949	99912	PRACTICE_WORD_OFF	n/a	n/a	CAMEL	n/a	-999	-1	[0, 0, 0]	n/a	catFR1	0	R1163T
78.83	1.617	100861	PRACTICE_WORD	n/a	n/a	RING	n/a	-1	-1	[0, 0, 0]	n/a	catFR1	0	R1163T
80.447	0.0	102478	ENCODING_END	n/a	n/a	n/a	n/a	-999	-1	[0, 0, 0]	n/a	catFR1	0	R1163T
80.447	0.001	102478	PRACTICE_WORD_OFF	n/a	n/a	RING	n/a	-999	-1	[0, 0, 0]	n/a	catFR1	0	R1163T
80.448	0.0	102479	DISTRACT_START	n/a	n/a	n/a	n/a	-999	-1	[0, 0, 0]	n/a	catFR1	0	R1163T
80.448	0.016	102479	START	n/a	n/a	n/a	n/a	-999	1	[-999, -999, -999]	n/a	catFR1	0	R1163T
80.464	9.318	102495	PROB	9.291	n/a	n/a	n/a	-999	1	[3, 4, 9]	14.0	catFR1	0	R1163T
89.782	5.551	111812	PROB	5.517	n/a	n/a	n/a	-999	1	[1, 2, 1]	4.0	catFR1	0	R1163T
95.333	12.405	117363	PROB	12.405	n/a	n/a	n/a	-999	1	[9, 1, 7]	17.0	catFR1	0	R1163T
107.738	0.015	129767	STOP	n/a	n/a	n/a	n/a	-999	1	[-999, -999, -999]	n/a	catFR1	0	R1163T
107.753	0.616	129782	DISTRACT_END	n/a	n/a	n/a	n/a	-999	-1	[0, 0, 0]	n/a	catFR1	0	R1163T
108.369	0.522	130398	RETRIEVAL_ORIENT	n/a	n/a	n/a	n/a	-999	-1	[0, 0, 0]	n/a	catFR1	0	R1163T
108.891	30.009	130920	PRACTICE_REC_START	n/a	n/a	n/a	n/a	-999	-1	[0, 0, 0]	n/a	catFR1	0	R1163T
138.9	79.839	160927	PRACTICE_REC_END	n/a	n/a	n/a	n/a	-999	-1	[0, 0, 0]	n/a	catFR1	0	R1163T
218.739	0.5	240762	TRIAL	n/a	n/a	n/a	n/a	-999	1	[0, 0, 0]	n/a	catFR1	0	R1163T
219.239	10.428	241262	COUNTDOWN_START	n/a	n/a	n/a	n/a	-999	1	[0, 0, 0]	n/a	catFR1	0	R1163T
229.667	0.007	251689	COUNTDOWN_END	n/a	n/a	n/a	n/a	-999	1	[0, 0, 0]	n/a	catFR1	0	R1163T
229.674	1.617	251696	ORIENT	n/a	n/a	n/a	n/a	-999	1	[0, 0, 0]	n/a	catFR1	0	R1163T
231.291	1.984	253313	ORIENT_OFF	n/a	n/a	n/a	n/a	-999	1	[0, 0, 0]	n/a	catFR1	0	R1163T
233.275	1.618	255297	WORD	n/a	wordpools/wordpool_categorized_EN.txt	TRUCK	Vehicles	1	1	[0, 0, 0]	n/a	catFR1	0	R1163T
234.893	1.0	256915	WORD_OFF	n/a	n/a	TRUCK	n/a	1	1	[0, 0, 0]	n/a	catFR1	0	R1163T
235.893	1.616	257915	WORD	n/a	wordpools/wordpool_categorized_EN.txt	MOPED	Vehicles	2	1	[0, 0, 0]	n/a	catFR1	0	R1163T
237.509	0.95	259531	WORD_OFF	n/a	n/a	MOPED	n/a	2	1	[0, 0, 0]	n/a	catFR1	0	R1163T
238.459	1.618	260480	WORD	n/a	wordpools/wordpool_categorized_EN.txt	COLANDER	KitchenTools	3	1	[0, 0, 0]	n/a	catFR1	0	R1163T
240.077	0.884	262098	WORD_OFF	n/a	n/a	COLANDER	n/a	3	1	[0, 0, 0]	n/a	catFR1	0	R1163T
240.961	1.616	262982	WORD	n/a	wordpools/wordpool_categorized_EN.txt	KNIFE	KitchenTools	4	1	[0, 0, 0]	n/a	catFR1	0	R1163T
242.577	0.816	264598	WORD_OFF	n/a	n/a	KNIFE	n/a	4	1	[0, 0, 0]	n/a	catFR1	0	R1163T
243.393	1.618	265414	WORD	n/a	wordpools/wordpool_categorized_EN.txt	CYPRESS	Trees	5	1	[0, 0, 0]	n/a	catFR1	0	R1163T
245.011	0.917	267032	WORD_OFF	n/a	n/a	CYPRESS	n/a	5	1	[0, 0, 0]	n/a	catFR1	0	R1163T
245.928	1.616	267949	WORD	n/a	wordpools/wordpool_categorized_EN.txt	EVERGREEN	Trees	6	1	[0, 0, 0]	n/a	catFR1	0	R1163T
247.544	0.967	269565	WORD_OFF	n/a	n/a	EVERGREEN	n/a	6	1	[0, 0, 0]	n/a	catFR1	0	R1163T
248.511	1.617	270532	WORD	n/a	wordpools/wordpool_categorized_EN.txt	STRAINER	KitchenTools	7	1	[0, 0, 0]	n/a	catFR1	0	R1163T
250.128	1.017	272149	WORD_OFF	n/a	n/a	STRAINER	n/a	7	1	[0, 0, 0]	n/a	catFR1	0	R1163T
251.145	1.617	273166	WORD	n/a	wordpools/wordpool_categorized_EN.txt	LADLE	KitchenTools	8	1	[0, 0, 0]	n/a	catFR1	0	R1163T
252.762	0.933	274783	WORD_OFF	n/a	n/a	LADLE	n/a	8	1	[0, 0, 0]	n/a	catFR1	0	R1163T
253.695	1.617	275716	WORD	n/a	wordpools/wordpool_categorized_EN.txt	VAN	Vehicles	9	1	[0, 0, 0]	n/a	catFR1	0	R1163T
255.312	0.768	277332	WORD_OFF	n/a	n/a	VAN	n/a	9	1	[0, 0, 0]	n/a	catFR1	0	R1163T
256.08	1.616	278100	WORD	n/a	wordpools/wordpool_categorized_EN.txt	TRAIN	Vehicles	10	1	[0, 0, 0]	n/a	catFR1	0	R1163T
257.696	0.8	279716	WORD_OFF	n/a	n/a	TRAIN	n/a	10	1	[0, 0, 0]	n/a	catFR1	0	R1163T
258.496	1.617	280516	WORD	n/a	wordpools/wordpool_categorized_EN.txt	WALNUT	Trees	11	1	[0, 0, 0]	n/a	catFR1	0	R1163T
260.113	0.801	282133	WORD_OFF	n/a	n/a	WALNUT	n/a	11	1	[0, 0, 0]	n/a	catFR1	0	R1163T
260.914	1.616	282934	WORD	n/a	wordpools/wordpool_categorized_EN.txt	SPRUCE	Trees	12	1	[0, 0, 0]	n/a	catFR1	0	R1163T
262.53	0.001	284550	WORD_OFF	n/a	n/a	SPRUCE	n/a	12	1	[0, 0, 0]	n/a	catFR1	0	R1163T
262.531	0.134	284551	ENCODING_END	n/a	n/a	n/a	n/a	-999	1	[0, 0, 0]	n/a	catFR1	0	R1163T
262.665	0.0	284685	DISTRACT_START	n/a	n/a	n/a	n/a	-999	1	[0, 0, 0]	n/a	catFR1	0	R1163T
262.665	0.015	284685	START	n/a	n/a	n/a	n/a	-999	2	[-999, -999, -999]	n/a	catFR1	0	R1163T
262.68	7.452	284700	PROB	7.418	n/a	n/a	n/a	-999	2	[2, 9, 2]	12.0	catFR1	0	R1163T
270.132	10.702	292152	PROB	10.67	n/a	n/a	n/a	-999	2	[2, 4, 6]	13.0	catFR1	0	R1163T
280.834	12.384	302853	PROB	12.384	n/a	n/a	n/a	-999	2	[8, 7, 5]	14.0	catFR1	0	R1163T
293.218	0.018	315236	STOP	n/a	n/a	n/a	n/a	-999	2	[-999, -999, -999]	n/a	catFR1	0	R1163T
293.236	0.701	315254	DISTRACT_END	n/a	n/a	n/a	n/a	-999	1	[0, 0, 0]	n/a	catFR1	0	R1163T
293.937	0.517	315955	RETRIEVAL_ORIENT	n/a	n/a	n/a	n/a	-999	1	[0, 0, 0]	n/a	catFR1	0	R1163T
294.454	1.944	316472	REC_START	n/a	n/a	n/a	n/a	-999	1	[0, 0, 0]	n/a	catFR1	0	R1163T
296.398	1.162	318416	REC_WORD	1.944	n/a	TRUCK	Vehicles	1	1	[0, 0, 0]	n/a	catFR1	0	R1163T
297.56	26.906	319578	REC_WORD	3.106	n/a	MOPED	Vehicles	2	1	[0, 0, 0]	n/a	catFR1	0	R1163T
324.466	27.931	346482	REC_END	n/a	n/a	n/a	n/a	-999	1	[0, 0, 0]	n/a	catFR1	0	R1163T
352.397	0.5	374412	TRIAL	n/a	n/a	n/a	n/a	-999	2	[0, 0, 0]	n/a	catFR1	0	R1163T
352.897	10.428	374912	COUNTDOWN_START	n/a	n/a	n/a	n/a	-999	2	[0, 0, 0]	n/a	catFR1	0	R1163T
363.325	0.007	385339	COUNTDOWN_END	n/a	n/a	n/a	n/a	-999	2	[0, 0, 0]	n/a	catFR1	0	R1163T
363.332	1.618	385346	ORIENT	n/a	n/a	n/a	n/a	-999	2	[0, 0, 0]	n/a	catFR1	0	R1163T
364.95	2.366	386964	ORIENT_OFF	n/a	n/a	n/a	n/a	-999	2	[0, 0, 0]	n/a	catFR1	0	R1163T
367.316	1.618	389330	WORD	n/a	wordpools/wordpool_categorized_EN.txt	STAPLER	OfficeSupplies	1	2	[0, 0, 0]	n/a	catFR1	0	R1163T
368.934	0.866	390948	WORD_OFF	n/a	n/a	STAPLER	n/a	1	2	[0, 0, 0]	n/a	catFR1	0	R1163T
369.8	1.617	391814	WORD	n/a	wordpools/wordpool_categorized_EN.txt	RULER	OfficeSupplies	2	2	[0, 0, 0]	n/a	catFR1	0	R1163T
371.417	0.8	393431	WORD_OFF	n/a	n/a	RULER	n/a	2	2	[0, 0, 0]	n/a	catFR1	0	R1163T
372.217	1.617	394231	WORD	n/a	wordpools/wordpool_categorized_EN.txt	HUMIDITY	Weather	3	2	[0, 0, 0]	n/a	catFR1	0	R1163T
373.834	0.85	395847	WORD_OFF	n/a	n/a	HUMIDITY	n/a	3	2	[0, 0, 0]	n/a	catFR1	0	R1163T
374.684	1.617	396697	WORD	n/a	wordpools/wordpool_categorized_EN.txt	TORNADO	Weather	4	2	[0, 0, 0]	n/a	catFR1	0	R1163T
376.301	0.9	398314	WORD_OFF	n/a	n/a	TORNADO	n/a	4	2	[0, 0, 0]	n/a	catFR1	0	R1163T
377.201	1.617	399214	WORD	n/a	wordpools/wordpool_categorized_EN.txt	SCOOTER	Vehicles	5	2	[0, 0, 0]	n/a	catFR1	0	R1163T
378.818	0.967	400831	WORD_OFF	n/a	n/a	SCOOTER	n/a	5	2	[0, 0, 0]	n/a	catFR1	0	R1163T
379.785	1.617	401798	WORD	n/a	wordpools/wordpool_categorized_EN.txt	CAR	Vehicles	6	2	[0, 0, 0]	n/a	catFR1	0	R1163T
381.402	0.767	403415	WORD_OFF	n/a	n/a	CAR	n/a	6	2	[0, 0, 0]	n/a	catFR1	0	R1163T
382.169	1.617	404182	WORD	n/a	wordpools/wordpool_categorized_EN.txt	GLUE	OfficeSupplies	7	2	[0, 0, 0]	n/a	catFR1	0	R1163T
383.786	0.767	405799	WORD_OFF	n/a	n/a	GLUE	n/a	7	2	[0, 0, 0]	n/a	catFR1	0	R1163T
384.553	1.617	406566	WORD	n/a	wordpools/wordpool_categorized_EN.txt	ERASER	OfficeSupplies	8	2	[0, 0, 0]	n/a	catFR1	0	R1163T
386.17	1.0	408183	WORD_OFF	n/a	n/a	ERASER	n/a	8	2	[0, 0, 0]	n/a	catFR1	0	R1163T
387.17	1.617	409183	WORD	n/a	wordpools/wordpool_categorized_EN.txt	FOG	Weather	9	2	[0, 0, 0]	n/a	catFR1	0	R1163T
388.787	0.9	410800	WORD_OFF	n/a	n/a	FOG	n/a	9	2	[0, 0, 0]	n/a	catFR1	0	R1163T
389.687	1.617	411699	WORD	n/a	wordpools/wordpool_categorized_EN.txt	SNOW	Weather	10	2	[0, 0, 0]	n/a	catFR1	0	R1163T
391.304	0.983	413316	WORD_OFF	n/a	n/a	SNOW	n/a	10	2	[0, 0, 0]	n/a	catFR1	0	R1163T
392.287	1.618	414299	WORD	n/a	wordpools/wordpool_categorized_EN.txt	JEEP	Vehicles	11	2	[0, 0, 0]	n/a	catFR1	0	R1163T
393.905	0.833	415917	WORD_OFF	n/a	n/a	JEEP	n/a	11	2	[0, 0, 0]	n/a	catFR1	0	R1163T
394.738	1.617	416750	WORD	n/a	wordpools/wordpool_categorized_EN.txt	MOTORCYCLE	Vehicles	12	2	[0, 0, 0]	n/a	catFR1	0	R1163T
396.355	0.0	418367	WORD_OFF	n/a	n/a	MOTORCYCLE	n/a	12	2	[0, 0, 0]	n/a	catFR1	0	R1163T
396.355	0.102	418367	ENCODING_END	n/a	n/a	n/a	n/a	-999	2	[0, 0, 0]	n/a	catFR1	0	R1163T
396.457	0.0	418469	DISTRACT_START	n/a	n/a	n/a	n/a	-999	2	[0, 0, 0]	n/a	catFR1	0	R1163T
396.457	0.014	418469	START	n/a	n/a	n/a	n/a	-999	3	[-999, -999, -999]	n/a	catFR1	0	R1163T
396.471	9.47	418483	PROB	9.444	n/a	n/a	n/a	-999	3	[4, 7, 8]	21.0	catFR1	0	R1163T
405.941	12.494	427953	PROB	12.494	n/a	n/a	n/a	-999	3	[4, 5, 6]	34.0	catFR1	0	R1163T
418.435	0.007	440446	STOP	n/a	n/a	n/a	n/a	-999	3	[-999, -999, -999]	n/a	catFR1	0	R1163T
418.442	0.667	440453	DISTRACT_END	n/a	n/a	n/a	n/a	-999	2	[0, 0, 0]	n/a	catFR1	0	R1163T
419.109	0.517	441120	RETRIEVAL_ORIENT	n/a	n/a	n/a	n/a	-999	2	[0, 0, 0]	n/a	catFR1	0	R1163T
419.626	3.027	441637	REC_START	n/a	n/a	n/a	n/a	-999	2	[0, 0, 0]	n/a	catFR1	0	R1163T
422.653	15.341	444664	REC_WORD	3.027	n/a	CAR	Vehicles	6	2	[0, 0, 0]	n/a	catFR1	0	R1163T
437.994	11.643	460004	REC_WORD	18.368	n/a	JEEP	Vehicles	11	2	[0, 0, 0]	n/a	catFR1	0	R1163T
449.637	13.113	471646	REC_END	n/a	n/a	n/a	n/a	-999	2	[0, 0, 0]	n/a	catFR1	0	R1163T
462.75	0.5	484758	TRIAL	n/a	n/a	n/a	n/a	-999	3	[0, 0, 0]	n/a	catFR1	0	R1163T
463.25	10.428	485258	COUNTDOWN_START	n/a	n/a	n/a	n/a	-999	3	[0, 0, 0]	n/a	catFR1	0	R1163T
473.678	0.008	495686	COUNTDOWN_END	n/a	n/a	n/a	n/a	-999	3	[0, 0, 0]	n/a	catFR1	0	R1163T
473.686	1.616	495694	ORIENT	n/a	n/a	n/a	n/a	-999	3	[0, 0, 0]	n/a	catFR1	0	R1163T
475.302	2.218	497309	ORIENT_OFF	n/a	n/a	n/a	n/a	-999	3	[0, 0, 0]	n/a	catFR1	0	R1163T
477.52	1.616	499527	WORD	n/a	wordpools/wordpool_categorized_EN.txt	GRATER	KitchenTools	1	3	[0, 0, 0]	n/a	catFR1	0	R1163T
479.136	0.768	501143	WORD_OFF	n/a	n/a	GRATER	n/a	1	3	[0, 0, 0]	n/a	catFR1	0	R1163T
479.904	1.616	501911	WORD	n/a	wordpools/wordpool_categorized_EN.txt	SPATULA	KitchenTools	2	3	[0, 0, 0]	n/a	catFR1	0	R1163T
481.52	0.884	503527	WORD_OFF	n/a	n/a	SPATULA	n/a	2	3	[0, 0, 0]	n/a	catFR1	0	R1163T
482.404	1.618	504411	WORD	n/a	wordpools/wordpool_categorized_EN.txt	SPIDER	Insects	3	3	[0, 0, 0]	n/a	catFR1	0	R1163T
484.022	0.867	506029	WORD_OFF	n/a	n/a	SPIDER	n/a	3	3	[0, 0, 0]	n/a	catFR1	0	R1163T
484.889	1.616	506896	WORD	n/a	wordpools/wordpool_categorized_EN.txt	FLY	Insects	4	3	[0, 0, 0]	n/a	catFR1	0	R1163T
486.505	0.999	508512	WORD_OFF	n/a	n/a	FLY	n/a	4	3	[0, 0, 0]	n/a	catFR1	0	R1163T
487.504	1.618	509511	WORD	n/a	wordpools/wordpool_categorized_EN.txt	CALCULATOR	Electronics	5	3	[0, 0, 0]	n/a	catFR1	0	R1163T
489.122	1.0	511129	WORD_OFF	n/a	n/a	CALCULATOR	n/a	5	3	[0, 0, 0]	n/a	catFR1	0	R1163T
490.122	1.617	512129	WORD	n/a	wordpools/wordpool_categorized_EN.txt	COMPUTER	Electronics	6	3	[0, 0, 0]	n/a	catFR1	0	R1163T
491.739	0.967	513745	WORD_OFF	n/a	n/a	COMPUTER	n/a	6	3	[0, 0, 0]	n/a	catFR1	0	R1163T
492.706	1.617	514712	WORD	n/a	wordpools/wordpool_categorized_EN.txt	FORK	KitchenTools	7	3	[0, 0, 0]	n/a	catFR1	0	R1163T
494.323	0.966	516329	WORD_OFF	n/a	n/a	FORK	n/a	7	3	[0, 0, 0]	n/a	catFR1	0	R1163T
495.289	1.618	517295	WORD	n/a	wordpools/wordpool_categorized_EN.txt	TONGS	KitchenTools	8	3	[0, 0, 0]	n/a	catFR1	0	R1163T
496.907	1.001	518913	WORD_OFF	n/a	n/a	TONGS	n/a	8	3	[0, 0, 0]	n/a	catFR1	0	R1163T
497.908	1.615	519914	WORD	n/a	wordpools/wordpool_categorized_EN.txt	BEE	Insects	9	3	[0, 0, 0]	n/a	catFR1	0	R1163T
499.523	0.851	521529	WORD_OFF	n/a	n/a	BEE	n/a	9	3	[0, 0, 0]	n/a	catFR1	0	R1163T
500.374	1.618	522380	WORD	n/a	wordpools/wordpool_categorized_EN.txt	GNAT	Insects	10	3	[0, 0, 0]	n/a	catFR1	0	R1163T
501.992	0.85	523998	WORD_OFF	n/a	n/a	GNAT	n/a	10	3	[0, 0, 0]	n/a	catFR1	0	R1163T
502.842	1.616	524848	WORD	n/a	wordpools/wordpool_categorized_EN.txt	STEREO	Electronics	11	3	[0, 0, 0]	n/a	catFR1	0	R1163T
504.458	0.8	526464	WORD_OFF	n/a	n/a	STEREO	n/a	11	3	[0, 0, 0]	n/a	catFR1	0	R1163T
505.258	1.618	527264	WORD	n/a	wordpools/wordpool_categorized_EN.txt	SPEAKER	Electronics	12	3	[0, 0, 0]	n/a	catFR1	0	R1163T
506.876	0.0	528882	ENCODING_END	n/a	n/a	n/a	n/a	-999	3	[0, 0, 0]	n/a	catFR1	0	R1163T
506.876	0.103	528882	WORD_OFF	n/a	n/a	SPEAKER	n/a	12	3	[0, 0, 0]	n/a	catFR1	0	R1163T
506.979	0.0	528985	DISTRACT_START	n/a	n/a	n/a	n/a	-999	3	[0, 0, 0]	n/a	catFR1	0	R1163T
506.979	0.014	528985	START	n/a	n/a	n/a	n/a	-999	4	[-999, -999, -999]	n/a	catFR1	0	R1163T
506.993	17.735	528999	PROB	17.705	n/a	n/a	n/a	-999	4	[3, 6, 8]	23.0	catFR1	0	R1163T
524.728	6.739	546732	PROB	6.739	n/a	n/a	n/a	-999	4	[3, 3, 4]	12.0	catFR1	0	R1163T
531.467	0.013	553471	STOP	n/a	n/a	n/a	n/a	-999	4	[-999, -999, -999]	n/a	catFR1	0	R1163T
531.48	0.616	553484	DISTRACT_END	n/a	n/a	n/a	n/a	-999	3	[0, 0, 0]	n/a	catFR1	0	R1163T
532.096	0.518	554100	RETRIEVAL_ORIENT	n/a	n/a	n/a	n/a	-999	3	[0, 0, 0]	n/a	catFR1	0	R1163T
532.614	3.057	554618	REC_START	n/a	n/a	n/a	n/a	-999	3	[0, 0, 0]	n/a	catFR1	0	R1163T
535.671	1.157	557675	REC_WORD	3.057	n/a	FLY	Insects	4	3	[0, 0, 0]	n/a	catFR1	0	R1163T
536.828	25.797	558832	REC_WORD	4.214	n/a	BEE	Insects	9	3	[0, 0, 0]	n/a	catFR1	0	R1163T
562.625	15.613	584627	REC_END	n/a	n/a	n/a	n/a	-999	3	[0, 0, 0]	n/a	catFR1	0	R1163T
578.238	0.5	600239	TRIAL	n/a	n/a	n/a	n/a	-999	4	[0, 0, 0]	n/a	catFR1	0	R1163T
578.738	10.428	600739	COUNTDOWN_START	n/a	n/a	n/a	n/a	-999	4	[0, 0, 0]	n/a	catFR1	0	R1163T
589.166	0.007	611167	COUNTDOWN_END	n/a	n/a	n/a	n/a	-999	4	[0, 0, 0]	n/a	catFR1	0	R1163T
589.173	1.617	611174	ORIENT	n/a	n/a	n/a	n/a	-999	4	[0, 0, 0]	n/a	catFR1	0	R1163T
590.79	2.185	612791	ORIENT_OFF	n/a	n/a	n/a	n/a	-999	4	[0, 0, 0]	n/a	catFR1	0	R1163T
592.975	1.616	614975	WORD	n/a	wordpools/wordpool_categorized_EN.txt	WILLOW	Trees	1	4	[0, 0, 0]	n/a	catFR1	0	R1163T
594.591	0.917	616591	WORD_OFF	n/a	n/a	WILLOW	n/a	1	4	[0, 0, 0]	n/a	catFR1	0	R1163T
595.508	1.617	617508	WORD	n/a	wordpools/wordpool_categorized_EN.txt	OAK	Trees	2	4	[0, 0, 0]	n/a	catFR1	0	R1163T
597.125	0.851	619125	WORD_OFF	n/a	n/a	OAK	n/a	2	4	[0, 0, 0]	n/a	catFR1	0	R1163T
597.976	1.616	619976	WORD	n/a	wordpools/wordpool_categorized_EN.txt	HAND	BodyParts	3	4	[0, 0, 0]	n/a	catFR1	0	R1163T
599.592	0.833	621592	WORD_OFF	n/a	n/a	HAND	n/a	3	4	[0, 0, 0]	n/a	catFR1	0	R1163T
600.425	1.601	622425	WORD	n/a	wordpools/wordpool_categorized_EN.txt	TOE	BodyParts	4	4	[0, 0, 0]	n/a	catFR1	0	R1163T
602.026	0.783	624026	WORD_OFF	n/a	n/a	TOE	n/a	4	4	[0, 0, 0]	n/a	catFR1	0	R1163T
602.809	1.617	624809	WORD	n/a	wordpools/wordpool_categorized_EN.txt	ANT	Insects	5	4	[0, 0, 0]	n/a	catFR1	0	R1163T
604.426	1.017	626426	WORD_OFF	n/a	n/a	ANT	n/a	5	4	[0, 0, 0]	n/a	catFR1	0	R1163T
605.443	1.618	627443	WORD	n/a	wordpools/wordpool_categorized_EN.txt	CRICKET	Insects	6	4	[0, 0, 0]	n/a	catFR1	0	R1163T
607.061	0.783	629061	WORD_OFF	n/a	n/a	CRICKET	n/a	6	4	[0, 0, 0]	n/a	catFR1	0	R1163T
607.844	1.616	629844	WORD	n/a	wordpools/wordpool_categorized_EN.txt	HICKORY	Trees	7	4	[0, 0, 0]	n/a	catFR1	0	R1163T
609.46	0.767	631459	WORD_OFF	n/a	n/a	HICKORY	n/a	7	4	[0, 0, 0]	n/a	catFR1	0	R1163T
610.227	1.618	632226	WORD	n/a	wordpools/wordpool_categorized_EN.txt	MAPLE	Trees	8	4	[0, 0, 0]	n/a	catFR1	0	R1163T
611.845	0.982	633844	WORD_OFF	n/a	n/a	MAPLE	n/a	8	4	[0, 0, 0]	n/a	catFR1	0	R1163T
612.827	1.601	634826	WORD	n/a	wordpools/wordpool_categorized_EN.txt	KNEE	BodyParts	9	4	[0, 0, 0]	n/a	catFR1	0	R1163T
614.428	0.917	636427	WORD_OFF	n/a	n/a	KNEE	n/a	9	4	[0, 0, 0]	n/a	catFR1	0	R1163T
615.345	1.618	637344	WORD	n/a	wordpools/wordpool_categorized_EN.txt	ARM	BodyParts	10	4	[0, 0, 0]	n/a	catFR1	0	R1163T
616.963	0.815	638962	WORD_OFF	n/a	n/a	ARM	n/a	10	4	[0, 0, 0]	n/a	catFR1	0	R1163T
617.778	1.617	639777	WORD	n/a	wordpools/wordpool_categorized_EN.txt	MOTH	Insects	11	4	[0, 0, 0]	n/a	catFR1	0	R1163T
619.395	0.867	641394	WORD_OFF	n/a	n/a	MOTH	n/a	11	4	[0, 0, 0]	n/a	catFR1	0	R1163T
620.262	1.601	642261	WORD	n/a	wordpools/wordpool_categorized_EN.txt	LADYBUG	Insects	12	4	[0, 0, 0]	n/a	catFR1	0	R1163T
621.863	0.001	643862	WORD_OFF	n/a	n/a	LADYBUG	n/a	12	4	[0, 0, 0]	n/a	catFR1	0	R1163T
621.864	0.141	643863	ENCODING_END	n/a	n/a	n/a	n/a	-999	4	[0, 0, 0]	n/a	catFR1	0	R1163T
622.005	0.0	644004	DISTRACT_START	n/a	n/a	n/a	n/a	-999	4	[0, 0, 0]	n/a	catFR1	0	R1163T
622.005	0.009	644004	START	n/a	n/a	n/a	n/a	-999	5	[-999, -999, -999]	n/a	catFR1	0	R1163T
622.014	25.038	644013	PROB	25.038	n/a	n/a	n/a	-999	5	[6, 9, 3]	13.0	catFR1	0	R1163T
647.052	0.016	669049	STOP	n/a	n/a	n/a	n/a	-999	5	[-999, -999, -999]	n/a	catFR1	0	R1163T
647.068	0.516	669065	DISTRACT_END	n/a	n/a	n/a	n/a	-999	4	[0, 0, 0]	n/a	catFR1	0	R1163T
647.584	0.519	669581	RETRIEVAL_ORIENT	n/a	n/a	n/a	n/a	-999	4	[0, 0, 0]	n/a	catFR1	0	R1163T
648.103	2.405	670100	REC_START	n/a	n/a	n/a	n/a	-999	4	[0, 0, 0]	n/a	catFR1	0	R1163T
650.508	27.606	672505	REC_WORD	2.405	n/a	LADYBUG	Insects	12	4	[0, 0, 0]	n/a	catFR1	0	R1163T
678.114	16.062	700109	REC_END	n/a	n/a	n/a	n/a	-999	4	[0, 0, 0]	n/a	catFR1	0	R1163T
694.176	0.5	716170	TRIAL	n/a	n/a	n/a	n/a	-999	5	[0, 0, 0]	n/a	catFR1	0	R1163T
694.676	10.428	716670	COUNTDOWN_START	n/a	n/a	n/a	n/a	-999	5	[0, 0, 0]	n/a	catFR1	0	R1163T
705.104	0.007	727098	COUNTDOWN_END	n/a	n/a	n/a	n/a	-999	5	[0, 0, 0]	n/a	catFR1	0	R1163T
705.111	1.617	727105	ORIENT	n/a	n/a	n/a	n/a	-999	5	[0, 0, 0]	n/a	catFR1	0	R1163T
706.728	2.05	728722	ORIENT_OFF	n/a	n/a	n/a	n/a	-999	5	[0, 0, 0]	n/a	catFR1	0	R1163T
708.778	1.617	730772	WORD	n/a	wordpools/wordpool_categorized_EN.txt	CHEETAH	Zoo	1	5	[0, 0, 0]	n/a	catFR1	0	R1163T
710.395	0.85	732388	WORD_OFF	n/a	n/a	CHEETAH	n/a	1	5	[0, 0, 0]	n/a	catFR1	0	R1163T
711.245	1.618	733238	WORD	n/a	wordpools/wordpool_categorized_EN.txt	BEAR	Zoo	2	5	[0, 0, 0]	n/a	catFR1	0	R1163T
712.863	0.916	734856	WORD_OFF	n/a	n/a	BEAR	n/a	2	5	[0, 0, 0]	n/a	catFR1	0	R1163T
713.779	1.617	735772	WORD	n/a	wordpools/wordpool_categorized_EN.txt	FOREST	Landscapes	3	5	[0, 0, 0]	n/a	catFR1	0	R1163T
715.396	0.8	737389	WORD_OFF	n/a	n/a	FOREST	n/a	3	5	[0, 0, 0]	n/a	catFR1	0	R1163T
716.196	1.617	738189	WORD	n/a	wordpools/wordpool_categorized_EN.txt	HILLS	Landscapes	4	5	[0, 0, 0]	n/a	catFR1	0	R1163T
717.813	0.884	739806	WORD_OFF	n/a	n/a	HILLS	n/a	4	5	[0, 0, 0]	n/a	catFR1	0	R1163T
718.697	1.617	740690	WORD	n/a	wordpools/wordpool_categorized_EN.txt	SANDER	Tools	5	5	[0, 0, 0]	n/a	catFR1	0	R1163T
720.314	0.85	742307	WORD_OFF	n/a	n/a	SANDER	n/a	5	5	[0, 0, 0]	n/a	catFR1	0	R1163T
721.164	1.617	743157	WORD	n/a	wordpools/wordpool_categorized_EN.txt	DRILL	Tools	6	5	[0, 0, 0]	n/a	catFR1	0	R1163T
722.781	0.85	744774	WORD_OFF	n/a	n/a	DRILL	n/a	6	5	[0, 0, 0]	n/a	catFR1	0	R1163T
723.631	1.617	745624	WORD	n/a	wordpools/wordpool_categorized_EN.txt	BEACH	Landscapes	7	5	[0, 0, 0]	n/a	catFR1	0	R1163T
725.248	0.917	747241	WORD_OFF	n/a	n/a	BEACH	n/a	7	5	[0, 0, 0]	n/a	catFR1	0	R1163T
726.165	1.617	748158	WORD	n/a	wordpools/wordpool_categorized_EN.txt	STREAM	Landscapes	8	5	[0, 0, 0]	n/a	catFR1	0	R1163T
727.782	1.0	749774	WORD_OFF	n/a	n/a	STREAM	n/a	8	5	[0, 0, 0]	n/a	catFR1	0	R1163T
728.782	1.617	750774	WORD	n/a	wordpools/wordpool_categorized_EN.txt	PANDA	Zoo	9	5	[0, 0, 0]	n/a	catFR1	0	R1163T
730.399	0.967	752391	WORD_OFF	n/a	n/a	PANDA	n/a	9	5	[0, 0, 0]	n/a	catFR1	0	R1163T
731.366	1.618	753358	WORD	n/a	wordpools/wordpool_categorized_EN.txt	ZEBRA	Zoo	10	5	[0, 0, 0]	n/a	catFR1	0	R1163T
732.984	0.883	754976	WORD_OFF	n/a	n/a	ZEBRA	n/a	10	5	[0, 0, 0]	n/a	catFR1	0	R1163T
733.867	1.616	755859	WORD	n/a	wordpools/wordpool_categorized_EN.txt	PLIERS	Tools	11	5	[0, 0, 0]	n/a	catFR1	0	R1163T
735.483	1.0	757475	WORD_OFF	n/a	n/a	PLIERS	n/a	11	5	[0, 0, 0]	n/a	catFR1	0	R1163T
736.483	1.601	758475	WORD	n/a	wordpools/wordpool_categorized_EN.txt	SHOVEL	Tools	12	5	[0, 0, 0]	n/a	catFR1	0	R1163T
738.084	0.001	760076	WORD_OFF	n/a	n/a	SHOVEL	n/a	12	5	[0, 0, 0]	n/a	catFR1	0	R1163T
738.085	0.101	760077	ENCODING_END	n/a	n/a	n/a	n/a	-999	5	[0, 0, 0]	n/a	catFR1	0	R1163T
738.186	0.0	760178	DISTRACT_START	n/a	n/a	n/a	n/a	-999	5	[0, 0, 0]	n/a	catFR1	0	R1163T
738.186	0.014	760178	START	n/a	n/a	n/a	n/a	-999	6	[-999, -999, -999]	n/a	catFR1	0	R1163T
738.2	14.52	760192	PROB	14.49	n/a	n/a	n/a	-999	6	[3, 4, 7]	16.0	catFR1	0	R1163T
752.72	12.435	774711	PROB	12.435	n/a	n/a	n/a	-999	6	[7, 3, 2]	12.0	catFR1	0	R1163T
765.155	0.017	787145	STOP	n/a	n/a	n/a	n/a	-999	6	[-999, -999, -999]	n/a	catFR1	0	R1163T
765.172	0.567	787162	DISTRACT_END	n/a	n/a	n/a	n/a	-999	5	[0, 0, 0]	n/a	catFR1	0	R1163T
765.739	0.517	787729	RETRIEVAL_ORIENT	n/a	n/a	n/a	n/a	-999	5	[0, 0, 0]	n/a	catFR1	0	R1163T
766.256	11.496	788246	REC_START	n/a	n/a	n/a	n/a	-999	5	[0, 0, 0]	n/a	catFR1	0	R1163T
777.752	18.516	799741	REC_WORD	11.496	n/a	BEAR	Zoo	2	5	[0, 0, 0]	n/a	catFR1	0	R1163T
796.268	18.664	818256	REC_END	n/a	n/a	n/a	n/a	-999	5	[0, 0, 0]	n/a	catFR1	0	R1163T
814.932	0.5	836919	TRIAL	n/a	n/a	n/a	n/a	-999	6	[0, 0, 0]	n/a	catFR1	0	R1163T
815.432	10.428	837419	COUNTDOWN_START	n/a	n/a	n/a	n/a	-999	6	[0, 0, 0]	n/a	catFR1	0	R1163T
825.86	0.007	847847	COUNTDOWN_END	n/a	n/a	n/a	n/a	-999	6	[0, 0, 0]	n/a	catFR1	0	R1163T
825.867	1.616	847854	ORIENT	n/a	n/a	n/a	n/a	-999	6	[0, 0, 0]	n/a	catFR1	0	R1163T
827.483	1.851	849470	ORIENT_OFF	n/a	n/a	n/a	n/a	-999	6	[0, 0, 0]	n/a	catFR1	0	R1163T
829.334	1.618	851320	WORD	n/a	wordpools/wordpool_categorized_EN.txt	BASEBALL	Toys	1	6	[0, 0, 0]	n/a	catFR1	0	R1163T
830.952	0.815	852938	WORD_OFF	n/a	n/a	BASEBALL	n/a	1	6	[0, 0, 0]	n/a	catFR1	0	R1163T
831.767	1.617	853753	WORD	n/a	wordpools/wordpool_categorized_EN.txt	BASKETBALL	Toys	2	6	[0, 0, 0]	n/a	catFR1	0	R1163T
833.384	0.801	855370	WORD_OFF	n/a	n/a	BASKETBALL	n/a	2	6	[0, 0, 0]	n/a	catFR1	0	R1163T
834.185	1.616	856171	WORD	n/a	wordpools/wordpool_categorized_EN.txt	VIOLET	Flowers	3	6	[0, 0, 0]	n/a	catFR1	0	R1163T
835.801	0.884	857787	WORD_OFF	n/a	n/a	VIOLET	n/a	3	6	[0, 0, 0]	n/a	catFR1	0	R1163T
836.685	1.617	858671	WORD	n/a	wordpools/wordpool_categorized_EN.txt	SUNFLOWER	Flowers	4	6	[0, 0, 0]	n/a	catFR1	0	R1163T
838.302	0.834	860288	WORD_OFF	n/a	n/a	SUNFLOWER	n/a	4	6	[0, 0, 0]	n/a	catFR1	0	R1163T
839.136	1.616	861122	WORD	n/a	wordpools/wordpool_categorized_EN.txt	SQUID	OceanAnimals	5	6	[0, 0, 0]	n/a	catFR1	0	R1163T
840.752	0.801	862738	WORD_OFF	n/a	n/a	SQUID	n/a	5	6	[0, 0, 0]	n/a	catFR1	0	R1163T
841.553	1.617	863539	WORD	n/a	wordpools/wordpool_categorized_EN.txt	JELLYFISH	OceanAnimals	6	6	[0, 0, 0]	n/a	catFR1	0	R1163T
843.17	0.817	865156	WORD_OFF	n/a	n/a	JELLYFISH	n/a	6	6	[0, 0, 0]	n/a	catFR1	0	R1163T
843.987	1.616	865973	WORD	n/a	wordpools/wordpool_categorized_EN.txt	MARIGOLD	Flowers	7	6	[0, 0, 0]	n/a	catFR1	0	R1163T
845.603	0.767	867588	WORD_OFF	n/a	n/a	MARIGOLD	n/a	7	6	[0, 0, 0]	n/a	catFR1	0	R1163T
846.37	1.618	868355	WORD	n/a	wordpools/wordpool_categorized_EN.txt	ORCHID	Flowers	8	6	[0, 0, 0]	n/a	catFR1	0	R1163T
847.988	0.833	869973	WORD_OFF	n/a	n/a	ORCHID	n/a	8	6	[0, 0, 0]	n/a	catFR1	0	R1163T
848.821	1.617	870806	WORD	n/a	wordpools/wordpool_categorized_EN.txt	SLINKY	Toys	9	6	[0, 0, 0]	n/a	catFR1	0	R1163T
850.438	0.866	872423	WORD_OFF	n/a	n/a	SLINKY	n/a	9	6	[0, 0, 0]	n/a	catFR1	0	R1163T
851.304	1.601	873289	WORD	n/a	wordpools/wordpool_categorized_EN.txt	FRISBEE	Toys	10	6	[0, 0, 0]	n/a	catFR1	0	R1163T
852.905	0.9	874890	WORD_OFF	n/a	n/a	FRISBEE	n/a	10	6	[0, 0, 0]	n/a	catFR1	0	R1163T
853.805	1.617	875790	WORD	n/a	wordpools/wordpool_categorized_EN.txt	FISH	OceanAnimals	11	6	[0, 0, 0]	n/a	catFR1	0	R1163T
855.422	0.783	877407	WORD_OFF	n/a	n/a	FISH	n/a	11	6	[0, 0, 0]	n/a	catFR1	0	R1163T
856.205	1.617	878190	WORD	n/a	wordpools/wordpool_categorized_EN.txt	SHRIMP	OceanAnimals	12	6	[0, 0, 0]	n/a	catFR1	0	R1163T
857.822	0.001	879807	WORD_OFF	n/a	n/a	SHRIMP	n/a	12	6	[0, 0, 0]	n/a	catFR1	0	R1163T
857.823	0.103	879808	ENCODING_END	n/a	n/a	n/a	n/a	-999	6	[0, 0, 0]	n/a	catFR1	0	R1163T
857.926	0.0	879911	DISTRACT_START	n/a	n/a	n/a	n/a	-999	6	[0, 0, 0]	n/a	catFR1	0	R1163T
857.926	0.014	879911	START	n/a	n/a	n/a	n/a	-999	7	[-999, -999, -999]	n/a	catFR1	0	R1163T
857.94	9.351	879925	PROB	9.327	n/a	n/a	n/a	-999	7	[4, 2, 4]	8.0	catFR1	0	R1163T
867.291	9.885	889275	PROB	9.848	n/a	n/a	n/a	-999	7	[4, 5, 5]	14.0	catFR1	0	R1163T
877.176	11.922	899160	PROB	11.922	n/a	n/a	n/a	-999	7	[7, 2, 6]	14.0	catFR1	0	R1163T
889.098	0.013	911081	STOP	n/a	n/a	n/a	n/a	-999	7	[-999, -999, -999]	n/a	catFR1	0	R1163T
889.111	0.65	911094	DISTRACT_END	n/a	n/a	n/a	n/a	-999	6	[0, 0, 0]	n/a	catFR1	0	R1163T
889.761	0.518	911744	RETRIEVAL_ORIENT	n/a	n/a	n/a	n/a	-999	6	[0, 0, 0]	n/a	catFR1	0	R1163T
890.279	1.956	912262	REC_START	n/a	n/a	n/a	n/a	-999	6	[0, 0, 0]	n/a	catFR1	0	R1163T
892.235	9.086	914218	REC_WORD	1.956	n/a	BASEBALL	Toys	1	6	[0, 0, 0]	n/a	catFR1	0	R1163T
901.321	18.967	923303	REC_WORD	11.042	n/a	FOOTBALL	n/a	-999	6	[0, 0, 0]	n/a	catFR1	0	R1163T
920.288	11.682	942269	REC_END	n/a	n/a	n/a	n/a	-999	6	[0, 0, 0]	n/a	catFR1	0	R1163T
931.97	0.5	953950	TRIAL	n/a	n/a	n/a	n/a	-999	7	[0, 0, 0]	n/a	catFR1	0	R1163T
932.47	10.428	954450	COUNTDOWN_START	n/a	n/a	n/a	n/a	-999	7	[0, 0, 0]	n/a	catFR1	0	R1163T
942.898	0.007	964878	COUNTDOWN_END	n/a	n/a	n/a	n/a	-999	7	[0, 0, 0]	n/a	catFR1	0	R1163T
942.905	1.616	964885	ORIENT	n/a	n/a	n/a	n/a	-999	7	[0, 0, 0]	n/a	catFR1	0	R1163T
944.521	2.134	966501	ORIENT_OFF	n/a	n/a	n/a	n/a	-999	7	[0, 0, 0]	n/a	catFR1	0	R1163T
946.655	1.617	968634	WORD	n/a	wordpools/wordpool_categorized_EN.txt	BANJO	Instruments	1	7	[0, 0, 0]	n/a	catFR1	0	R1163T
948.272	0.768	970251	WORD_OFF	n/a	n/a	BANJO	n/a	1	7	[0, 0, 0]	n/a	catFR1	0	R1163T
949.04	1.616	971019	WORD	n/a	wordpools/wordpool_categorized_EN.txt	GUITAR	Instruments	2	7	[0, 0, 0]	n/a	catFR1	0	R1163T
950.656	0.85	972635	WORD_OFF	n/a	n/a	GUITAR	n/a	2	7	[0, 0, 0]	n/a	catFR1	0	R1163T
951.506	1.617	973485	WORD	n/a	wordpools/wordpool_categorized_EN.txt	BUTTERFLY	Insects	3	7	[0, 0, 0]	n/a	catFR1	0	R1163T
953.123	0.901	975102	WORD_OFF	n/a	n/a	BUTTERFLY	n/a	3	7	[0, 0, 0]	n/a	catFR1	0	R1163T
954.024	1.616	976003	WORD	n/a	wordpools/wordpool_categorized_EN.txt	MOSQUITO	Insects	4	7	[0, 0, 0]	n/a	catFR1	0	R1163T
955.64	1.0	977619	WORD_OFF	n/a	n/a	MOSQUITO	n/a	4	7	[0, 0, 0]	n/a	catFR1	0	R1163T
956.64	1.617	978619	WORD	n/a	wordpools/wordpool_categorized_EN.txt	COAT	Clothing	5	7	[0, 0, 0]	n/a	catFR1	0	R1163T
958.257	0.818	980236	WORD_OFF	n/a	n/a	COAT	n/a	5	7	[0, 0, 0]	n/a	catFR1	0	R1163T
959.075	1.616	981054	WORD	n/a	wordpools/wordpool_categorized_EN.txt	SHOES	Clothing	6	7	[0, 0, 0]	n/a	catFR1	0	R1163T
960.691	0.767	982670	WORD_OFF	n/a	n/a	SHOES	n/a	6	7	[0, 0, 0]	n/a	catFR1	0	R1163T
961.458	1.618	983437	WORD	n/a	wordpools/wordpool_categorized_EN.txt	CELLO	Instruments	7	7	[0, 0, 0]	n/a	catFR1	0	R1163T
963.076	0.817	985055	WORD_OFF	n/a	n/a	CELLO	n/a	7	7	[0, 0, 0]	n/a	catFR1	0	R1163T
963.893	1.615	985871	WORD	n/a	wordpools/wordpool_categorized_EN.txt	ORGAN	Instruments	8	7	[0, 0, 0]	n/a	catFR1	0	R1163T
965.508	0.867	987486	WORD_OFF	n/a	n/a	ORGAN	n/a	8	7	[0, 0, 0]	n/a	catFR1	0	R1163T
966.375	1.618	988353	WORD	n/a	wordpools/wordpool_categorized_EN.txt	ROACH	Insects	9	7	[0, 0, 0]	n/a	catFR1	0	R1163T
967.993	0.816	989971	WORD_OFF	n/a	n/a	ROACH	n/a	9	7	[0, 0, 0]	n/a	catFR1	0	R1163T
968.809	1.617	990787	WORD	n/a	wordpools/wordpool_categorized_EN.txt	BEETLE	Insects	10	7	[0, 0, 0]	n/a	catFR1	0	R1163T
970.426	0.95	992404	WORD_OFF	n/a	n/a	BEETLE	n/a	10	7	[0, 0, 0]	n/a	catFR1	0	R1163T
971.376	1.601	993354	WORD	n/a	wordpools/wordpool_categorized_EN.txt	PANTS	Clothing	11	7	[0, 0, 0]	n/a	catFR1	0	R1163T
972.977	0.968	994955	WORD_OFF	n/a	n/a	PANTS	n/a	11	7	[0, 0, 0]	n/a	catFR1	0	R1163T
973.945	1.615	995923	WORD	n/a	wordpools/wordpool_categorized_EN.txt	BLOUSE	Clothing	12	7	[0, 0, 0]	n/a	catFR1	0	R1163T
975.56	0.001	997538	WORD_OFF	n/a	n/a	BLOUSE	n/a	12	7	[0, 0, 0]	n/a	catFR1	0	R1163T
975.561	0.134	997539	ENCODING_END	n/a	n/a	n/a	n/a	-999	7	[0, 0, 0]	n/a	catFR1	0	R1163T
975.695	0.0	997673	DISTRACT_START	n/a	n/a	n/a	n/a	-999	7	[0, 0, 0]	n/a	catFR1	0	R1163T
975.695	0.015	997673	START	n/a	n/a	n/a	n/a	-999	8	[-999, -999, -999]	n/a	catFR1	0	R1163T
975.71	5.302	997688	PROB	5.27	n/a	n/a	n/a	-999	8	[1, 9, 1]	11.0	catFR1	0	R1163T
981.012	17.67	1002989	PROB	17.67	n/a	n/a	n/a	-999	8	[6, 1, 3]	11.0	catFR1	0	R1163T
998.682	0.016	1020658	STOP	n/a	n/a	n/a	n/a	-999	8	[-999, -999, -999]	n/a	catFR1	0	R1163T
998.698	0.617	1020674	DISTRACT_END	n/a	n/a	n/a	n/a	-999	7	[0, 0, 0]	n/a	catFR1	0	R1163T
999.315	0.517	1021291	RETRIEVAL_ORIENT	n/a	n/a	n/a	n/a	-999	7	[0, 0, 0]	n/a	catFR1	0	R1163T
999.832	30.0	1021808	REC_START	n/a	n/a	n/a	n/a	-999	7	[0, 0, 0]	n/a	catFR1	0	R1163T
1029.832	0.012	1051807	REC_WORD_VV	30.0	n/a	<>	n/a	-999	7	[0, 0, 0]	n/a	catFR1	0	R1163T
1029.844	56.853	1051819	REC_END	n/a	n/a	n/a	n/a	-999	7	[0, 0, 0]	n/a	catFR1	0	R1163T
1086.697	0.5	1108668	TRIAL	n/a	n/a	n/a	n/a	-999	8	[0, 0, 0]	n/a	catFR1	0	R1163T
1087.197	10.428	1109168	COUNTDOWN_START	n/a	n/a	n/a	n/a	-999	8	[0, 0, 0]	n/a	catFR1	0	R1163T
1097.625	0.008	1119596	COUNTDOWN_END	n/a	n/a	n/a	n/a	-999	8	[0, 0, 0]	n/a	catFR1	0	R1163T
1097.633	1.617	1119604	ORIENT	n/a	n/a	n/a	n/a	-999	8	[0, 0, 0]	n/a	catFR1	0	R1163T
1099.25	1.85	1121220	ORIENT_OFF	n/a	n/a	n/a	n/a	-999	8	[0, 0, 0]	n/a	catFR1	0	R1163T
1101.1	1.617	1123070	WORD	n/a	wordpools/wordpool_categorized_EN.txt	COOKIE	Desserts	1	8	[0, 0, 0]	n/a	catFR1	0	R1163T
1102.717	0.833	1124687	WORD_OFF	n/a	n/a	COOKIE	n/a	1	8	[0, 0, 0]	n/a	catFR1	0	R1163T
1103.55	1.617	1125520	WORD	n/a	wordpools/wordpool_categorized_EN.txt	FUDGE	Desserts	2	8	[0, 0, 0]	n/a	catFR1	0	R1163T
1105.167	0.851	1127137	WORD_OFF	n/a	n/a	FUDGE	n/a	2	8	[0, 0, 0]	n/a	catFR1	0	R1163T
1106.018	1.616	1127988	WORD	n/a	wordpools/wordpool_categorized_EN.txt	FOOT	BodyParts	3	8	[0, 0, 0]	n/a	catFR1	0	R1163T
1107.634	0.851	1129604	WORD_OFF	n/a	n/a	FOOT	n/a	3	8	[0, 0, 0]	n/a	catFR1	0	R1163T
1108.485	1.617	1130455	WORD	n/a	wordpools/wordpool_categorized_EN.txt	EAR	BodyParts	4	8	[0, 0, 0]	n/a	catFR1	0	R1163T
1110.102	0.867	1132072	WORD_OFF	n/a	n/a	EAR	n/a	4	8	[0, 0, 0]	n/a	catFR1	0	R1163T
1110.969	1.616	1132939	WORD	n/a	wordpools/wordpool_categorized_EN.txt	TELEVISION	Electronics	5	8	[0, 0, 0]	n/a	catFR1	0	R1163T
1112.585	0.767	1134555	WORD_OFF	n/a	n/a	TELEVISION	n/a	5	8	[0, 0, 0]	n/a	catFR1	0	R1163T
1113.352	1.618	1135322	WORD	n/a	wordpools/wordpool_categorized_EN.txt	MICROWAVE	Electronics	6	8	[0, 0, 0]	n/a	catFR1	0	R1163T
1114.97	0.934	1136940	WORD_OFF	n/a	n/a	MICROWAVE	n/a	6	8	[0, 0, 0]	n/a	catFR1	0	R1163T
1115.904	1.616	1137873	WORD	n/a	wordpools/wordpool_categorized_EN.txt	COBBLER	Desserts	7	8	[0, 0, 0]	n/a	catFR1	0	R1163T
1117.52	0.933	1139489	WORD_OFF	n/a	n/a	COBBLER	n/a	7	8	[0, 0, 0]	n/a	catFR1	0	R1163T
1118.453	1.618	1140422	WORD	n/a	wordpools/wordpool_categorized_EN.txt	PUDDING	Desserts	8	8	[0, 0, 0]	n/a	catFR1	0	R1163T
1120.071	0.784	1142040	WORD_OFF	n/a	n/a	PUDDING	n/a	8	8	[0, 0, 0]	n/a	catFR1	0	R1163T
1120.855	1.615	1142824	WORD	n/a	wordpools/wordpool_categorized_EN.txt	FINGERS	BodyParts	9	8	[0, 0, 0]	n/a	catFR1	0	R1163T
1122.47	0.884	1144439	WORD_OFF	n/a	n/a	FINGERS	n/a	9	8	[0, 0, 0]	n/a	catFR1	0	R1163T
1123.354	1.618	1145323	WORD	n/a	wordpools/wordpool_categorized_EN.txt	EYE	BodyParts	10	8	[0, 0, 0]	n/a	catFR1	0	R1163T
1124.972	0.967	1146941	WORD_OFF	n/a	n/a	EYE	n/a	10	8	[0, 0, 0]	n/a	catFR1	0	R1163T
1125.939	1.616	1147908	WORD	n/a	wordpools/wordpool_categorized_EN.txt	HEADPHONES	Electronics	11	8	[0, 0, 0]	n/a	catFR1	0	R1163T
1127.555	0.95	1149524	WORD_OFF	n/a	n/a	HEADPHONES	n/a	11	8	[0, 0, 0]	n/a	catFR1	0	R1163T
1128.505	1.617	1150474	WORD	n/a	wordpools/wordpool_categorized_EN.txt	PRINTER	Electronics	12	8	[0, 0, 0]	n/a	catFR1	0	R1163T
1130.122	0.0	1152091	ENCODING_END	n/a	n/a	n/a	n/a	-999	8	[0, 0, 0]	n/a	catFR1	0	R1163T
1130.122	0.101	1152091	WORD_OFF	n/a	n/a	PRINTER	n/a	12	8	[0, 0, 0]	n/a	catFR1	0	R1163T
1130.223	0.0	1152192	DISTRACT_START	n/a	n/a	n/a	n/a	-999	8	[0, 0, 0]	n/a	catFR1	0	R1163T
1130.223	0.016	1152192	START	n/a	n/a	n/a	n/a	-999	9	[-999, -999, -999]	n/a	catFR1	0	R1163T
1130.239	11.402	1152208	PROB	11.373	n/a	n/a	n/a	-999	9	[7, 5, 7]	17.0	catFR1	0	R1163T
1141.641	10.657	1163609	PROB	10.657	n/a	n/a	n/a	-999	9	[2, 2, 2]	6.0	catFR1	0	R1163T
1152.298	0.011	1174265	STOP	n/a	n/a	n/a	n/a	-999	9	[-999, -999, -999]	n/a	catFR1	0	R1163T
1152.309	0.584	1174276	DISTRACT_END	n/a	n/a	n/a	n/a	-999	8	[0, 0, 0]	n/a	catFR1	0	R1163T
1152.893	0.517	1174860	RETRIEVAL_ORIENT	n/a	n/a	n/a	n/a	-999	8	[0, 0, 0]	n/a	catFR1	0	R1163T
1153.41	15.603	1175377	REC_START	n/a	n/a	n/a	n/a	-999	8	[0, 0, 0]	n/a	catFR1	0	R1163T
1169.013	14.408	1190979	REC_WORD	15.603	n/a	COOKIE	Desserts	1	8	[0, 0, 0]	n/a	catFR1	0	R1163T
1183.421	27.366	1205386	REC_END	n/a	n/a	n/a	n/a	-999	8	[0, 0, 0]	n/a	catFR1	0	R1163T
1210.787	0.5	1232751	TRIAL	n/a	n/a	n/a	n/a	-999	9	[0, 0, 0]	n/a	catFR1	0	R1163T
1211.287	10.428	1233251	COUNTDOWN_START	n/a	n/a	n/a	n/a	-999	9	[0, 0, 0]	n/a	catFR1	0	R1163T
1221.715	0.007	1243678	COUNTDOWN_END	n/a	n/a	n/a	n/a	-999	9	[0, 0, 0]	n/a	catFR1	0	R1163T
1221.722	1.617	1243685	ORIENT	n/a	n/a	n/a	n/a	-999	9	[0, 0, 0]	n/a	catFR1	0	R1163T
1223.339	2.1	1245302	ORIENT_OFF	n/a	n/a	n/a	n/a	-999	9	[0, 0, 0]	n/a	catFR1	0	R1163T
1225.439	1.618	1247402	WORD	n/a	wordpools/wordpool_categorized_EN.txt	PENCIL	OfficeSupplies	1	9	[0, 0, 0]	n/a	catFR1	0	R1163T
1227.057	0.9	1249020	WORD_OFF	n/a	n/a	PENCIL	n/a	1	9	[0, 0, 0]	n/a	catFR1	0	R1163T
1227.957	1.616	1249920	WORD	n/a	wordpools/wordpool_categorized_EN.txt	MARKER	OfficeSupplies	2	9	[0, 0, 0]	n/a	catFR1	0	R1163T
1229.573	1.0	1251536	WORD_OFF	n/a	n/a	MARKER	n/a	2	9	[0, 0, 0]	n/a	catFR1	0	R1163T
1230.573	1.617	1252536	WORD	n/a	wordpools/wordpool_categorized_EN.txt	CHERRY	Fruit	3	9	[0, 0, 0]	n/a	catFR1	0	R1163T
1232.19	0.967	1254153	WORD_OFF	n/a	n/a	CHERRY	n/a	3	9	[0, 0, 0]	n/a	catFR1	0	R1163T
1233.157	1.617	1255119	WORD	n/a	wordpools/wordpool_categorized_EN.txt	GRAPE	Fruit	4	9	[0, 0, 0]	n/a	catFR1	0	R1163T
1234.774	0.967	1256736	WORD_OFF	n/a	n/a	GRAPE	n/a	4	9	[0, 0, 0]	n/a	catFR1	0	R1163T
1235.741	1.617	1257703	WORD	n/a	wordpools/wordpool_categorized_EN.txt	FREEZER	Appliances	5	9	[0, 0, 0]	n/a	catFR1	0	R1163T
1237.358	0.867	1259320	WORD_OFF	n/a	n/a	FREEZER	n/a	5	9	[0, 0, 0]	n/a	catFR1	0	R1163T
1238.225	1.618	1260187	WORD	n/a	wordpools/wordpool_categorized_EN.txt	WASHER	Appliances	6	9	[0, 0, 0]	n/a	catFR1	0	R1163T
1239.843	1.0	1261805	WORD_OFF	n/a	n/a	WASHER	n/a	6	9	[0, 0, 0]	n/a	catFR1	0	R1163T
1240.843	1.616	1262805	WORD	n/a	wordpools/wordpool_categorized_EN.txt	PEAR	Fruit	7	9	[0, 0, 0]	n/a	catFR1	0	R1163T
1242.459	0.933	1264421	WORD_OFF	n/a	n/a	PEAR	n/a	7	9	[0, 0, 0]	n/a	catFR1	0	R1163T
1243.392	1.602	1265354	WORD	n/a	wordpools/wordpool_categorized_EN.txt	PLUM	Fruit	8	9	[0, 0, 0]	n/a	catFR1	0	R1163T
1244.994	0.983	1266956	WORD_OFF	n/a	n/a	PLUM	n/a	8	9	[0, 0, 0]	n/a	catFR1	0	R1163T
1245.977	1.616	1267939	WORD	n/a	wordpools/wordpool_categorized_EN.txt	NOTEBOOK	OfficeSupplies	9	9	[0, 0, 0]	n/a	catFR1	0	R1163T
1247.593	0.95	1269555	WORD_OFF	n/a	n/a	NOTEBOOK	n/a	9	9	[0, 0, 0]	n/a	catFR1	0	R1163T
1248.543	1.617	1270505	WORD	n/a	wordpools/wordpool_categorized_EN.txt	PAPER	OfficeSupplies	10	9	[0, 0, 0]	n/a	catFR1	0	R1163T
1250.16	1.001	1272121	WORD_OFF	n/a	n/a	PAPER	n/a	10	9	[0, 0, 0]	n/a	catFR1	0	R1163T
1251.161	1.616	1273122	WORD	n/a	wordpools/wordpool_categorized_EN.txt	STOVE	Appliances	11	9	[0, 0, 0]	n/a	catFR1	0	R1163T
1252.777	0.784	1274738	WORD_OFF	n/a	n/a	STOVE	n/a	11	9	[0, 0, 0]	n/a	catFR1	0	R1163T
1253.561	1.617	1275522	WORD	n/a	wordpools/wordpool_categorized_EN.txt	OVEN	Appliances	12	9	[0, 0, 0]	n/a	catFR1	0	R1163T
1255.178	0.0	1277139	ENCODING_END	n/a	n/a	n/a	n/a	-999	9	[0, 0, 0]	n/a	catFR1	0	R1163T
1255.178	0.146	1277139	WORD_OFF	n/a	n/a	OVEN	n/a	12	9	[0, 0, 0]	n/a	catFR1	0	R1163T
1255.324	0.0	1277285	DISTRACT_START	n/a	n/a	n/a	n/a	-999	9	[0, 0, 0]	n/a	catFR1	0	R1163T
1255.324	0.021	1277285	START	n/a	n/a	n/a	n/a	-999	10	[-999, -999, -999]	n/a	catFR1	0	R1163T
1255.345	16.486	1277306	PROB	16.458	n/a	n/a	n/a	-999	10	[2, 4, 4]	10.0	catFR1	0	R1163T
1271.831	12.723	1293791	PROB	12.723	n/a	n/a	n/a	-999	10	[9, 3, 8]	20.0	catFR1	0	R1163T
1284.554	0.013	1306513	STOP	n/a	n/a	n/a	n/a	-999	10	[-999, -999, -999]	n/a	catFR1	0	R1163T
1284.567	0.7	1306526	DISTRACT_END	n/a	n/a	n/a	n/a	-999	9	[0, 0, 0]	n/a	catFR1	0	R1163T
1285.267	0.517	1307226	RETRIEVAL_ORIENT	n/a	n/a	n/a	n/a	-999	9	[0, 0, 0]	n/a	catFR1	0	R1163T
1285.784	2.828	1307743	REC_START	n/a	n/a	n/a	n/a	-999	9	[0, 0, 0]	n/a	catFR1	0	R1163T
1288.612	2.0	1310571	REC_WORD	2.828	n/a	PAPER	OfficeSupplies	10	9	[0, 0, 0]	n/a	catFR1	0	R1163T
1290.612	25.183	1312571	REC_WORD	4.828	n/a	PENCIL	OfficeSupplies	1	9	[0, 0, 0]	n/a	catFR1	0	R1163T
1315.795	10.879	1337753	REC_END	n/a	n/a	n/a	n/a	-999	9	[0, 0, 0]	n/a	catFR1	0	R1163T
1326.674	0.5	1348631	TRIAL	n/a	n/a	n/a	n/a	-999	10	[0, 0, 0]	n/a	catFR1	0	R1163T
1327.174	10.428	1349131	COUNTDOWN_START	n/a	n/a	n/a	n/a	-999	10	[0, 0, 0]	n/a	catFR1	0	R1163T
1337.602	0.008	1359558	COUNTDOWN_END	n/a	n/a	n/a	n/a	-999	10	[0, 0, 0]	n/a	catFR1	0	R1163T
1337.61	1.617	1359566	ORIENT	n/a	n/a	n/a	n/a	-999	10	[0, 0, 0]	n/a	catFR1	0	R1163T
1339.227	1.9	1361183	ORIENT_OFF	n/a	n/a	n/a	n/a	-999	10	[0, 0, 0]	n/a	catFR1	0	R1163T
1341.127	1.617	1363083	WORD	n/a	wordpools/wordpool_categorized_EN.txt	CAKE	Desserts	1	10	[0, 0, 0]	n/a	catFR1	0	R1163T
1342.744	0.9	1364700	WORD_OFF	n/a	n/a	CAKE	n/a	1	10	[0, 0, 0]	n/a	catFR1	0	R1163T
1343.644	1.617	1365600	WORD	n/a	wordpools/wordpool_categorized_EN.txt	CUPCAKE	Desserts	2	10	[0, 0, 0]	n/a	catFR1	0	R1163T
1345.261	0.883	1367217	WORD_OFF	n/a	n/a	CUPCAKE	n/a	2	10	[0, 0, 0]	n/a	catFR1	0	R1163T
1346.144	1.618	1368100	WORD	n/a	wordpools/wordpool_categorized_EN.txt	WALL	Building	3	10	[0, 0, 0]	n/a	catFR1	0	R1163T
1347.762	0.899	1369718	WORD_OFF	n/a	n/a	WALL	n/a	3	10	[0, 0, 0]	n/a	catFR1	0	R1163T
1348.661	1.618	1370617	WORD	n/a	wordpools/wordpool_categorized_EN.txt	BATHROOM	Building	4	10	[0, 0, 0]	n/a	catFR1	0	R1163T
1350.279	0.883	1372235	WORD_OFF	n/a	n/a	BATHROOM	n/a	4	10	[0, 0, 0]	n/a	catFR1	0	R1163T
1351.162	1.617	1373117	WORD	n/a	wordpools/wordpool_categorized_EN.txt	CREEK	Landscapes	5	10	[0, 0, 0]	n/a	catFR1	0	R1163T
1352.779	0.9	1374734	WORD_OFF	n/a	n/a	CREEK	n/a	5	10	[0, 0, 0]	n/a	catFR1	0	R1163T
1353.679	1.617	1375634	WORD	n/a	wordpools/wordpool_categorized_EN.txt	OCEAN	Landscapes	6	10	[0, 0, 0]	n/a	catFR1	0	R1163T
1355.296	0.934	1377251	WORD_OFF	n/a	n/a	OCEAN	n/a	6	10	[0, 0, 0]	n/a	catFR1	0	R1163T
1356.23	1.618	1378185	WORD	n/a	wordpools/wordpool_categorized_EN.txt	BROWNIES	Desserts	7	10	[0, 0, 0]	n/a	catFR1	0	R1163T
1357.848	0.865	1379803	WORD_OFF	n/a	n/a	BROWNIES	n/a	7	10	[0, 0, 0]	n/a	catFR1	0	R1163T
1358.713	1.617	1380668	WORD	n/a	wordpools/wordpool_categorized_EN.txt	PASTRY	Desserts	8	10	[0, 0, 0]	n/a	catFR1	0	R1163T
1360.33	0.984	1382285	WORD_OFF	n/a	n/a	PASTRY	n/a	8	10	[0, 0, 0]	n/a	catFR1	0	R1163T
1361.314	1.618	1383269	WORD	n/a	wordpools/wordpool_categorized_EN.txt	FOUNDATION	Building	9	10	[0, 0, 0]	n/a	catFR1	0	R1163T
1362.932	0.866	1384887	WORD_OFF	n/a	n/a	FOUNDATION	n/a	9	10	[0, 0, 0]	n/a	catFR1	0	R1163T
1363.798	1.616	1385753	WORD	n/a	wordpools/wordpool_categorized_EN.txt	HALLWAY	Building	10	10	[0, 0, 0]	n/a	catFR1	0	R1163T
1365.414	0.818	1387369	WORD_OFF	n/a	n/a	HALLWAY	n/a	10	10	[0, 0, 0]	n/a	catFR1	0	R1163T
1366.232	1.617	1388187	WORD	n/a	wordpools/wordpool_categorized_EN.txt	ISLAND	Landscapes	11	10	[0, 0, 0]	n/a	catFR1	0	R1163T
1367.849	0.866	1389804	WORD_OFF	n/a	n/a	ISLAND	n/a	11	10	[0, 0, 0]	n/a	catFR1	0	R1163T
1368.715	1.617	1390669	WORD	n/a	wordpools/wordpool_categorized_EN.txt	VALLEY	Landscapes	12	10	[0, 0, 0]	n/a	catFR1	0	R1163T
1370.332	0.0	1392286	ENCODING_END	n/a	n/a	n/a	n/a	-999	10	[0, 0, 0]	n/a	catFR1	0	R1163T
1370.332	0.132	1392286	WORD_OFF	n/a	n/a	VALLEY	n/a	12	10	[0, 0, 0]	n/a	catFR1	0	R1163T
1370.464	0.001	1392418	DISTRACT_START	n/a	n/a	n/a	n/a	-999	10	[0, 0, 0]	n/a	catFR1	0	R1163T
1370.465	0.017	1392419	START	n/a	n/a	n/a	n/a	-999	11	[-999, -999, -999]	n/a	catFR1	0	R1163T
1370.482	7.902	1392436	PROB	7.864	n/a	n/a	n/a	-999	11	[3, 9, 7]	19.0	catFR1	0	R1163T
1378.384	14.002	1400338	PROB	14.002	n/a	n/a	n/a	-999	11	[4, 2, 5]	18.0	catFR1	0	R1163T
1392.386	0.017	1414339	STOP	n/a	n/a	n/a	n/a	-999	11	[-999, -999, -999]	n/a	catFR1	0	R1163T
1392.403	0.584	1414356	DISTRACT_END	n/a	n/a	n/a	n/a	-999	10	[0, 0, 0]	n/a	catFR1	0	R1163T
1392.987	0.517	1414940	RETRIEVAL_ORIENT	n/a	n/a	n/a	n/a	-999	10	[0, 0, 0]	n/a	catFR1	0	R1163T
1393.504	1.864	1415457	REC_START	n/a	n/a	n/a	n/a	-999	10	[0, 0, 0]	n/a	catFR1	0	R1163T
1395.368	1.062	1417321	REC_WORD	1.864	n/a	CUP	n/a	-999	10	[0, 0, 0]	n/a	catFR1	0	R1163T
1396.43	27.085	1418383	REC_WORD	2.926	n/a	CUPCAKE	Desserts	2	10	[0, 0, 0]	n/a	catFR1	0	R1163T
1423.515	9.045	1445466	REC_END	n/a	n/a	n/a	n/a	-999	10	[0, 0, 0]	n/a	catFR1	0	R1163T
1432.56	0.5	1454511	TRIAL	n/a	n/a	n/a	n/a	-999	11	[0, 0, 0]	n/a	catFR1	0	R1163T
1433.06	10.428	1455011	COUNTDOWN_START	n/a	n/a	n/a	n/a	-999	11	[0, 0, 0]	n/a	catFR1	0	R1163T
1443.488	0.008	1465438	COUNTDOWN_END	n/a	n/a	n/a	n/a	-999	11	[0, 0, 0]	n/a	catFR1	0	R1163T
1443.496	1.616	1465446	ORIENT	n/a	n/a	n/a	n/a	-999	11	[0, 0, 0]	n/a	catFR1	0	R1163T
1445.112	1.984	1467062	ORIENT_OFF	n/a	n/a	n/a	n/a	-999	11	[0, 0, 0]	n/a	catFR1	0	R1163T
1447.096	1.617	1469046	WORD	n/a	wordpools/wordpool_categorized_EN.txt	FOLDER	OfficeSupplies	1	11	[0, 0, 0]	n/a	catFR1	0	R1163T
1448.713	0.834	1470663	WORD_OFF	n/a	n/a	FOLDER	n/a	1	11	[0, 0, 0]	n/a	catFR1	0	R1163T
1449.547	1.617	1471497	WORD	n/a	wordpools/wordpool_categorized_EN.txt	TAPE	OfficeSupplies	2	11	[0, 0, 0]	n/a	catFR1	0	R1163T
1451.164	0.851	1473114	WORD_OFF	n/a	n/a	TAPE	n/a	2	11	[0, 0, 0]	n/a	catFR1	0	R1163T
1452.015	1.616	1473965	WORD	n/a	wordpools/wordpool_categorized_EN.txt	PIE	Desserts	3	11	[0, 0, 0]	n/a	catFR1	0	R1163T
1453.631	0.983	1475580	WORD_OFF	n/a	n/a	PIE	n/a	3	11	[0, 0, 0]	n/a	catFR1	0	R1163T
1454.614	1.617	1476563	WORD	n/a	wordpools/wordpool_categorized_EN.txt	MOUSSE	Desserts	4	11	[0, 0, 0]	n/a	catFR1	0	R1163T
1456.231	0.9	1478180	WORD_OFF	n/a	n/a	MOUSSE	n/a	4	11	[0, 0, 0]	n/a	catFR1	0	R1163T
1457.131	1.617	1479080	WORD	n/a	wordpools/wordpool_categorized_EN.txt	CALF	FarmAnimals	5	11	[0, 0, 0]	n/a	catFR1	0	R1163T
1458.748	0.967	1480697	WORD_OFF	n/a	n/a	CALF	n/a	5	11	[0, 0, 0]	n/a	catFR1	0	R1163T
1459.715	1.617	1481664	WORD	n/a	wordpools/wordpool_categorized_EN.txt	TURKEY	FarmAnimals	6	11	[0, 0, 0]	n/a	catFR1	0	R1163T
1461.332	0.8	1483281	WORD_OFF	n/a	n/a	TURKEY	n/a	6	11	[0, 0, 0]	n/a	catFR1	0	R1163T
1462.132	1.617	1484081	WORD	n/a	wordpools/wordpool_categorized_EN.txt	JELLO	Desserts	7	11	[0, 0, 0]	n/a	catFR1	0	R1163T
1463.749	0.85	1485698	WORD_OFF	n/a	n/a	JELLO	n/a	7	11	[0, 0, 0]	n/a	catFR1	0	R1163T
1464.599	1.617	1486548	WORD	n/a	wordpools/wordpool_categorized_EN.txt	CHEESECAKE	Desserts	8	11	[0, 0, 0]	n/a	catFR1	0	R1163T
1466.216	0.934	1488165	WORD_OFF	n/a	n/a	CHEESECAKE	n/a	8	11	[0, 0, 0]	n/a	catFR1	0	R1163T
1467.15	1.617	1489099	WORD	n/a	wordpools/wordpool_categorized_EN.txt	BINDER	OfficeSupplies	9	11	[0, 0, 0]	n/a	catFR1	0	R1163T
1468.767	0.95	1490716	WORD_OFF	n/a	n/a	BINDER	n/a	9	11	[0, 0, 0]	n/a	catFR1	0	R1163T
1469.717	1.617	1491665	WORD	n/a	wordpools/wordpool_categorized_EN.txt	PEN	OfficeSupplies	10	11	[0, 0, 0]	n/a	catFR1	0	R1163T
1471.334	0.933	1493282	WORD_OFF	n/a	n/a	PEN	n/a	10	11	[0, 0, 0]	n/a	catFR1	0	R1163T
1472.267	1.602	1494215	WORD	n/a	wordpools/wordpool_categorized_EN.txt	SHEEP	FarmAnimals	11	11	[0, 0, 0]	n/a	catFR1	0	R1163T
1473.869	0.832	1495817	WORD_OFF	n/a	n/a	SHEEP	n/a	11	11	[0, 0, 0]	n/a	catFR1	0	R1163T
1474.701	1.617	1496649	WORD	n/a	wordpools/wordpool_categorized_EN.txt	COW	FarmAnimals	12	11	[0, 0, 0]	n/a	catFR1	0	R1163T
1476.318	0.0	1498266	WORD_OFF	n/a	n/a	COW	n/a	12	11	[0, 0, 0]	n/a	catFR1	0	R1163T
1476.318	0.109	1498266	ENCODING_END	n/a	n/a	n/a	n/a	-999	11	[0, 0, 0]	n/a	catFR1	0	R1163T
1476.427	0.0	1498375	DISTRACT_START	n/a	n/a	n/a	n/a	-999	11	[0, 0, 0]	n/a	catFR1	0	R1163T
1476.427	0.008	1498375	START	n/a	n/a	n/a	n/a	-999	12	[-999, -999, -999]	n/a	catFR1	0	R1163T
1476.435	10.102	1498383	PROB	10.079	n/a	n/a	n/a	-999	12	[6, 1, 2]	8.0	catFR1	0	R1163T
1486.537	17.809	1508484	PROB	17.809	n/a	n/a	n/a	-999	12	[7, 6, 9]	18.0	catFR1	0	R1163T
1504.346	0.011	1526292	STOP	n/a	n/a	n/a	n/a	-999	12	[-999, -999, -999]	n/a	catFR1	0	R1163T
1504.357	0.584	1526303	DISTRACT_END	n/a	n/a	n/a	n/a	-999	11	[0, 0, 0]	n/a	catFR1	0	R1163T
1504.941	0.516	1526887	RETRIEVAL_ORIENT	n/a	n/a	n/a	n/a	-999	11	[0, 0, 0]	n/a	catFR1	0	R1163T
1505.457	2.743	1527403	REC_START	n/a	n/a	n/a	n/a	-999	11	[0, 0, 0]	n/a	catFR1	0	R1163T
1508.2	7.395	1530146	REC_WORD	2.743	n/a	JELLO	Desserts	7	11	[0, 0, 0]	n/a	catFR1	0	R1163T
1515.595	19.874	1537541	REC_WORD	10.138	n/a	CHEESECAKE	Desserts	8	11	[0, 0, 0]	n/a	catFR1	0	R1163T
1535.469	11.596	1557414	REC_END	n/a	n/a	n/a	n/a	-999	11	[0, 0, 0]	n/a	catFR1	0	R1163T
1547.065	0.5	1569009	TRIAL	n/a	n/a	n/a	n/a	-999	12	[0, 0, 0]	n/a	catFR1	0	R1163T
1547.565	10.428	1569509	COUNTDOWN_START	n/a	n/a	n/a	n/a	-999	12	[0, 0, 0]	n/a	catFR1	0	R1163T
1557.993	0.008	1579936	COUNTDOWN_END	n/a	n/a	n/a	n/a	-999	12	[0, 0, 0]	n/a	catFR1	0	R1163T
1558.001	1.616	1579944	ORIENT	n/a	n/a	n/a	n/a	-999	12	[0, 0, 0]	n/a	catFR1	0	R1163T
1559.617	2.268	1581560	ORIENT_OFF	n/a	n/a	n/a	n/a	-999	12	[0, 0, 0]	n/a	catFR1	0	R1163T
1561.885	1.616	1583828	WORD	n/a	wordpools/wordpool_categorized_EN.txt	ROSE	Flowers	1	12	[0, 0, 0]	n/a	catFR1	0	R1163T
1563.501	0.983	1585444	WORD_OFF	n/a	n/a	ROSE	n/a	1	12	[0, 0, 0]	n/a	catFR1	0	R1163T
1564.484	1.601	1586427	WORD	n/a	wordpools/wordpool_categorized_EN.txt	PETUNIA	Flowers	2	12	[0, 0, 0]	n/a	catFR1	0	R1163T
1566.085	1.001	1588028	WORD_OFF	n/a	n/a	PETUNIA	n/a	2	12	[0, 0, 0]	n/a	catFR1	0	R1163T
1567.086	1.616	1589029	WORD	n/a	wordpools/wordpool_categorized_EN.txt	BIKE	Vehicles	3	12	[0, 0, 0]	n/a	catFR1	0	R1163T
1568.702	0.867	1590645	WORD_OFF	n/a	n/a	BIKE	n/a	3	12	[0, 0, 0]	n/a	catFR1	0	R1163T
1569.569	1.616	1591512	WORD	n/a	wordpools/wordpool_categorized_EN.txt	BOAT	Vehicles	4	12	[0, 0, 0]	n/a	catFR1	0	R1163T
1571.185	0.852	1593127	WORD_OFF	n/a	n/a	BOAT	n/a	4	12	[0, 0, 0]	n/a	catFR1	0	R1163T
1572.037	1.616	1593979	WORD	n/a	wordpools/wordpool_categorized_EN.txt	ROOSTER	FarmAnimals	5	12	[0, 0, 0]	n/a	catFR1	0	R1163T
1573.653	0.966	1595595	WORD_OFF	n/a	n/a	ROOSTER	n/a	5	12	[0, 0, 0]	n/a	catFR1	0	R1163T
1574.619	1.617	1596561	WORD	n/a	wordpools/wordpool_categorized_EN.txt	LAMB	FarmAnimals	6	12	[0, 0, 0]	n/a	catFR1	0	R1163T
1576.236	0.818	1598178	WORD_OFF	n/a	n/a	LAMB	n/a	6	12	[0, 0, 0]	n/a	catFR1	0	R1163T
1577.054	1.616	1598996	WORD	n/a	wordpools/wordpool_categorized_EN.txt	PLANE	Vehicles	7	12	[0, 0, 0]	n/a	catFR1	0	R1163T
1578.67	0.884	1600612	WORD_OFF	n/a	n/a	PLANE	n/a	7	12	[0, 0, 0]	n/a	catFR1	0	R1163T
1579.554	1.617	1601496	WORD	n/a	wordpools/wordpool_categorized_EN.txt	BUS	Vehicles	8	12	[0, 0, 0]	n/a	catFR1	0	R1163T
1581.171	1.0	1603113	WORD_OFF	n/a	n/a	BUS	n/a	8	12	[0, 0, 0]	n/a	catFR1	0	R1163T
1582.171	1.617	1604113	WORD	n/a	wordpools/wordpool_categorized_EN.txt	DAFFODIL	Flowers	9	12	[0, 0, 0]	n/a	catFR1	0	R1163T
1583.788	0.833	1605730	WORD_OFF	n/a	n/a	DAFFODIL	n/a	9	12	[0, 0, 0]	n/a	catFR1	0	R1163T
1584.621	1.617	1606563	WORD	n/a	wordpools/wordpool_categorized_EN.txt	LILAC	Flowers	10	12	[0, 0, 0]	n/a	catFR1	0	R1163T
1586.238	0.9	1608180	WORD_OFF	n/a	n/a	LILAC	n/a	10	12	[0, 0, 0]	n/a	catFR1	0	R1163T
1587.138	1.617	1609080	WORD	n/a	wordpools/wordpool_categorized_EN.txt	CHICKEN	FarmAnimals	11	12	[0, 0, 0]	n/a	catFR1	0	R1163T
1588.755	0.867	1610696	WORD_OFF	n/a	n/a	CHICKEN	n/a	11	12	[0, 0, 0]	n/a	catFR1	0	R1163T
1589.622	1.617	1611563	WORD	n/a	wordpools/wordpool_categorized_EN.txt	BULL	FarmAnimals	12	12	[0, 0, 0]	n/a	catFR1	0	R1163T
1591.239	0.0	1613180	ENCODING_END	n/a	n/a	n/a	n/a	-999	12	[0, 0, 0]	n/a	catFR1	0	R1163T
1591.239	0.141	1613180	WORD_OFF	n/a	n/a	BULL	n/a	12	12	[0, 0, 0]	n/a	catFR1	0	R1163T
1591.38	0.0	1613321	DISTRACT_START	n/a	n/a	n/a	n/a	-999	12	[0, 0, 0]	n/a	catFR1	0	R1163T
1591.38	0.009	1613321	START	n/a	n/a	n/a	n/a	-999	13	[-999, -999, -999]	n/a	catFR1	0	R1163T
1591.389	12.052	1613330	PROB	12.021	n/a	n/a	n/a	-999	13	[5, 2, 4]	11.0	catFR1	0	R1163T
1603.441	8.411	1625382	PROB	8.411	n/a	n/a	n/a	-999	13	[8, 7, 2]	17.0	catFR1	0	R1163T
1611.852	0.009	1633792	STOP	n/a	n/a	n/a	n/a	-999	13	[-999, -999, -999]	n/a	catFR1	0	R1163T
1611.861	0.549	1633801	DISTRACT_END	n/a	n/a	n/a	n/a	-999	12	[0, 0, 0]	n/a	catFR1	0	R1163T
1612.41	0.518	1634350	RETRIEVAL_ORIENT	n/a	n/a	n/a	n/a	-999	12	[0, 0, 0]	n/a	catFR1	0	R1163T
1612.928	12.016	1634868	REC_START	n/a	n/a	n/a	n/a	-999	12	[0, 0, 0]	n/a	catFR1	0	R1163T
1624.944	1.321	1646883	REC_WORD	12.016	n/a	BOAT	Vehicles	4	12	[0, 0, 0]	n/a	catFR1	0	R1163T
1626.265	16.675	1648204	REC_WORD	13.337	n/a	PLANE	Vehicles	7	12	[0, 0, 0]	n/a	catFR1	0	R1163T
1642.94	9.144	1664878	REC_END	n/a	n/a	n/a	n/a	-999	12	[0, 0, 0]	n/a	catFR1	0	R1163T
1652.084	0.5	1674022	TRIAL	n/a	n/a	n/a	n/a	-999	13	[0, 0, 0]	n/a	catFR1	0	R1163T
1652.584	10.428	1674522	COUNTDOWN_START	n/a	n/a	n/a	n/a	-999	13	[0, 0, 0]	n/a	catFR1	0	R1163T
1663.012	0.008	1684949	COUNTDOWN_END	n/a	n/a	n/a	n/a	-999	13	[0, 0, 0]	n/a	catFR1	0	R1163T
1663.02	1.616	1684957	ORIENT	n/a	n/a	n/a	n/a	-999	13	[0, 0, 0]	n/a	catFR1	0	R1163T
1664.636	2.2	1686573	ORIENT_OFF	n/a	n/a	n/a	n/a	-999	13	[0, 0, 0]	n/a	catFR1	0	R1163T
1666.836	1.617	1688773	WORD	n/a	wordpools/wordpool_categorized_EN.txt	MOUNTAIN	Landscapes	1	13	[0, 0, 0]	n/a	catFR1	0	R1163T
1668.453	0.917	1690390	WORD_OFF	n/a	n/a	MOUNTAIN	n/a	1	13	[0, 0, 0]	n/a	catFR1	0	R1163T
1669.37	1.618	1691307	WORD	n/a	wordpools/wordpool_categorized_EN.txt	WOODS	Landscapes	2	13	[0, 0, 0]	n/a	catFR1	0	R1163T
1670.988	0.866	1692925	WORD_OFF	n/a	n/a	WOODS	n/a	2	13	[0, 0, 0]	n/a	catFR1	0	R1163T
1671.854	1.617	1693790	WORD	n/a	wordpools/wordpool_categorized_EN.txt	RADIO	Electronics	3	13	[0, 0, 0]	n/a	catFR1	0	R1163T
1673.471	0.917	1695407	WORD_OFF	n/a	n/a	RADIO	n/a	3	13	[0, 0, 0]	n/a	catFR1	0	R1163T
1674.388	1.617	1696324	WORD	n/a	wordpools/wordpool_categorized_EN.txt	SCANNER	Electronics	4	13	[0, 0, 0]	n/a	catFR1	0	R1163T
1676.005	0.799	1697941	WORD_OFF	n/a	n/a	SCANNER	n/a	4	13	[0, 0, 0]	n/a	catFR1	0	R1163T
1676.804	1.618	1698740	WORD	n/a	wordpools/wordpool_categorized_EN.txt	CORN	Vegetables	5	13	[0, 0, 0]	n/a	catFR1	0	R1163T
1678.422	0.85	1700358	WORD_OFF	n/a	n/a	CORN	n/a	5	13	[0, 0, 0]	n/a	catFR1	0	R1163T
1679.272	1.618	1701208	WORD	n/a	wordpools/wordpool_categorized_EN.txt	CAULIFLOWER	Vegetables	6	13	[0, 0, 0]	n/a	catFR1	0	R1163T
1680.89	0.95	1702826	WORD_OFF	n/a	n/a	CAULIFLOWER	n/a	6	13	[0, 0, 0]	n/a	catFR1	0	R1163T
1681.84	1.616	1703776	WORD	n/a	wordpools/wordpool_categorized_EN.txt	PHONE	Electronics	7	13	[0, 0, 0]	n/a	catFR1	0	R1163T
1683.456	0.9	1705392	WORD_OFF	n/a	n/a	PHONE	n/a	7	13	[0, 0, 0]	n/a	catFR1	0	R1163T
1684.356	1.618	1706292	WORD	n/a	wordpools/wordpool_categorized_EN.txt	TABLET	Electronics	8	13	[0, 0, 0]	n/a	catFR1	0	R1163T
1685.974	0.883	1707910	WORD_OFF	n/a	n/a	TABLET	n/a	8	13	[0, 0, 0]	n/a	catFR1	0	R1163T
1686.857	1.616	1708793	WORD	n/a	wordpools/wordpool_categorized_EN.txt	RIVER	Landscapes	9	13	[0, 0, 0]	n/a	catFR1	0	R1163T
1688.473	0.867	1710409	WORD_OFF	n/a	n/a	RIVER	n/a	9	13	[0, 0, 0]	n/a	catFR1	0	R1163T
1689.34	1.618	1711275	WORD	n/a	wordpools/wordpool_categorized_EN.txt	LAKE	Landscapes	10	13	[0, 0, 0]	n/a	catFR1	0	R1163T
1690.958	0.884	1712893	WORD_OFF	n/a	n/a	LAKE	n/a	10	13	[0, 0, 0]	n/a	catFR1	0	R1163T
1691.842	1.616	1713777	WORD	n/a	wordpools/wordpool_categorized_EN.txt	BROCCOLI	Vegetables	11	13	[0, 0, 0]	n/a	catFR1	0	R1163T
1693.458	0.85	1715393	WORD_OFF	n/a	n/a	BROCCOLI	n/a	11	13	[0, 0, 0]	n/a	catFR1	0	R1163T
1694.308	1.618	1716243	WORD	n/a	wordpools/wordpool_categorized_EN.txt	CARROT	Vegetables	12	13	[0, 0, 0]	n/a	catFR1	0	R1163T
1695.926	0.0	1717861	ENCODING_END	n/a	n/a	n/a	n/a	-999	13	[0, 0, 0]	n/a	catFR1	0	R1163T
1695.926	0.103	1717861	WORD_OFF	n/a	n/a	CARROT	n/a	12	13	[0, 0, 0]	n/a	catFR1	0	R1163T
1696.029	0.0	1717964	DISTRACT_START	n/a	n/a	n/a	n/a	-999	13	[0, 0, 0]	n/a	catFR1	0	R1163T
1696.029	0.013	1717964	START	n/a	n/a	n/a	n/a	-999	14	[-999, -999, -999]	n/a	catFR1	0	R1163T
1696.042	13.135	1717977	PROB	13.104	n/a	n/a	n/a	-999	14	[5, 9, 6]	17.0	catFR1	0	R1163T
1709.177	5.769	1731111	PROB	5.731	n/a	n/a	n/a	-999	14	[3, 5, 5]	13.0	catFR1	0	R1163T
1714.946	12.392	1736880	PROB	12.392	n/a	n/a	n/a	-999	14	[3, 9, 1]	13.0	catFR1	0	R1163T
1727.338	0.009	1749271	STOP	n/a	n/a	n/a	n/a	-999	14	[-999, -999, -999]	n/a	catFR1	0	R1163T
1727.347	0.618	1749280	DISTRACT_END	n/a	n/a	n/a	n/a	-999	13	[0, 0, 0]	n/a	catFR1	0	R1163T
1727.965	0.518	1749898	RETRIEVAL_ORIENT	n/a	n/a	n/a	n/a	-999	13	[0, 0, 0]	n/a	catFR1	0	R1163T
1728.483	9.882	1750416	REC_START	n/a	n/a	n/a	n/a	-999	13	[0, 0, 0]	n/a	catFR1	0	R1163T
1738.365	1.138	1760298	REC_WORD	9.882	n/a	LAKE	Landscapes	10	13	[0, 0, 0]	n/a	catFR1	0	R1163T
1739.503	18.99	1761435	REC_WORD	11.02	n/a	LAKE	Landscapes	10	13	[0, 0, 0]	n/a	catFR1	0	R1163T
1758.493	270.325	1780424	REC_END	n/a	n/a	n/a	n/a	-999	13	[0, 0, 0]	n/a	catFR1	0	R1163T
2028.818	0.5	2050733	TRIAL	n/a	n/a	n/a	n/a	-999	14	[0, 0, 0]	n/a	catFR1	0	R1163T
2029.318	10.428	2051233	COUNTDOWN_START	n/a	n/a	n/a	n/a	-999	14	[0, 0, 0]	n/a	catFR1	0	R1163T
2039.746	0.008	2061661	COUNTDOWN_END	n/a	n/a	n/a	n/a	-999	14	[0, 0, 0]	n/a	catFR1	0	R1163T
2039.754	1.617	2061669	ORIENT	n/a	n/a	n/a	n/a	-999	14	[0, 0, 0]	n/a	catFR1	0	R1163T
2041.371	2.35	2063286	ORIENT_OFF	n/a	n/a	n/a	n/a	-999	14	[0, 0, 0]	n/a	catFR1	0	R1163T
2043.721	1.617	2065635	WORD	n/a	wordpools/wordpool_categorized_EN.txt	REFRIGERATOR	Appliances	1	14	[0, 0, 0]	n/a	catFR1	0	R1163T
2045.338	0.917	2067252	WORD_OFF	n/a	n/a	REFRIGERATOR	n/a	1	14	[0, 0, 0]	n/a	catFR1	0	R1163T
2046.255	1.618	2068169	WORD	n/a	wordpools/wordpool_categorized_EN.txt	VACUUM	Appliances	2	14	[0, 0, 0]	n/a	catFR1	0	R1163T
2047.873	1.0	2069787	WORD_OFF	n/a	n/a	VACUUM	n/a	2	14	[0, 0, 0]	n/a	catFR1	0	R1163T
2048.873	1.616	2070787	WORD	n/a	wordpools/wordpool_categorized_EN.txt	ELBOW	BodyParts	3	14	[0, 0, 0]	n/a	catFR1	0	R1163T
2050.489	0.884	2072403	WORD_OFF	n/a	n/a	ELBOW	n/a	3	14	[0, 0, 0]	n/a	catFR1	0	R1163T
2051.373	1.618	2073287	WORD	n/a	wordpools/wordpool_categorized_EN.txt	LEG	BodyParts	4	14	[0, 0, 0]	n/a	catFR1	0	R1163T
2052.991	0.9	2074905	WORD_OFF	n/a	n/a	LEG	n/a	4	14	[0, 0, 0]	n/a	catFR1	0	R1163T
2053.891	1.616	2075805	WORD	n/a	wordpools/wordpool_categorized_EN.txt	GORILLA	Zoo	5	14	[0, 0, 0]	n/a	catFR1	0	R1163T
2055.507	0.833	2077421	WORD_OFF	n/a	n/a	GORILLA	n/a	5	14	[0, 0, 0]	n/a	catFR1	0	R1163T
2056.34	1.618	2078254	WORD	n/a	wordpools/wordpool_categorized_EN.txt	MONKEY	Zoo	6	14	[0, 0, 0]	n/a	catFR1	0	R1163T
2057.958	0.866	2079872	WORD_OFF	n/a	n/a	MONKEY	n/a	6	14	[0, 0, 0]	n/a	catFR1	0	R1163T
2058.824	1.617	2080738	WORD	n/a	wordpools/wordpool_categorized_EN.txt	HEAD	BodyParts	7	14	[0, 0, 0]	n/a	catFR1	0	R1163T
2060.441	0.85	2082354	WORD_OFF	n/a	n/a	HEAD	n/a	7	14	[0, 0, 0]	n/a	catFR1	0	R1163T
2061.291	1.618	2083204	WORD	n/a	wordpools/wordpool_categorized_EN.txt	NOSE	BodyParts	8	14	[0, 0, 0]	n/a	catFR1	0	R1163T
2062.909	1.0	2084822	WORD_OFF	n/a	n/a	NOSE	n/a	8	14	[0, 0, 0]	n/a	catFR1	0	R1163T
2063.909	1.616	2085822	WORD	n/a	wordpools/wordpool_categorized_EN.txt	BLENDER	Appliances	9	14	[0, 0, 0]	n/a	catFR1	0	R1163T
2065.525	0.85	2087438	WORD_OFF	n/a	n/a	BLENDER	n/a	9	14	[0, 0, 0]	n/a	catFR1	0	R1163T
2066.375	1.618	2088288	WORD	n/a	wordpools/wordpool_categorized_EN.txt	DRYER	Appliances	10	14	[0, 0, 0]	n/a	catFR1	0	R1163T
2067.993	0.851	2089906	WORD_OFF	n/a	n/a	DRYER	n/a	10	14	[0, 0, 0]	n/a	catFR1	0	R1163T
2068.844	1.616	2090757	WORD	n/a	wordpools/wordpool_categorized_EN.txt	ELEPHANT	Zoo	11	14	[0, 0, 0]	n/a	catFR1	0	R1163T
2070.46	0.866	2092373	WORD_OFF	n/a	n/a	ELEPHANT	n/a	11	14	[0, 0, 0]	n/a	catFR1	0	R1163T
2071.326	1.618	2093239	WORD	n/a	wordpools/wordpool_categorized_EN.txt	LION	Zoo	12	14	[0, 0, 0]	n/a	catFR1	0	R1163T
2072.944	0.001	2094857	WORD_OFF	n/a	n/a	LION	n/a	12	14	[0, 0, 0]	n/a	catFR1	0	R1163T
2072.945	0.1	2094858	ENCODING_END	n/a	n/a	n/a	n/a	-999	14	[0, 0, 0]	n/a	catFR1	0	R1163T
2073.045	0.0	2094958	DISTRACT_START	n/a	n/a	n/a	n/a	-999	14	[0, 0, 0]	n/a	catFR1	0	R1163T
2073.045	0.016	2094958	START	n/a	n/a	n/a	n/a	-999	15	[-999, -999, -999]	n/a	catFR1	0	R1163T
2073.061	16.102	2094974	PROB	16.077	n/a	n/a	n/a	-999	15	[6, 2, 3]	8.0	catFR1	0	R1163T
2089.163	14.167	2111075	PROB	14.167	n/a	n/a	n/a	-999	15	[8, 1, 2]	11.0	catFR1	0	R1163T
2103.33	0.019	2125241	STOP	n/a	n/a	n/a	n/a	-999	15	[-999, -999, -999]	n/a	catFR1	0	R1163T
2103.349	0.634	2125260	DISTRACT_END	n/a	n/a	n/a	n/a	-999	14	[0, 0, 0]	n/a	catFR1	0	R1163T
2103.983	0.517	2125894	RETRIEVAL_ORIENT	n/a	n/a	n/a	n/a	-999	14	[0, 0, 0]	n/a	catFR1	0	R1163T
2104.5	1.974	2126411	REC_START	n/a	n/a	n/a	n/a	-999	14	[0, 0, 0]	n/a	catFR1	0	R1163T
2106.474	1.0	2128385	REC_WORD	1.974	n/a	REFRIGERATOR	Appliances	1	14	[0, 0, 0]	n/a	catFR1	0	R1163T
2107.474	4.071	2129385	REC_WORD_VV	2.974	n/a	<>	n/a	-999	14	[0, 0, 0]	n/a	catFR1	0	R1163T
2111.545	22.965	2133455	REC_WORD	7.045	n/a	MONKEY	Zoo	6	14	[0, 0, 0]	n/a	catFR1	0	R1163T
2134.51	142.07	2156419	REC_END	n/a	n/a	n/a	n/a	-999	14	[0, 0, 0]	n/a	catFR1	0	R1163T
2276.58	0.5	2298481	TRIAL	n/a	n/a	n/a	n/a	-999	15	[0, 0, 0]	n/a	catFR1	0	R1163T
2277.08	10.428	2298981	COUNTDOWN_START	n/a	n/a	n/a	n/a	-999	15	[0, 0, 0]	n/a	catFR1	0	R1163T
2287.508	0.008	2309408	COUNTDOWN_END	n/a	n/a	n/a	n/a	-999	15	[0, 0, 0]	n/a	catFR1	0	R1163T
2287.516	1.617	2309416	ORIENT	n/a	n/a	n/a	n/a	-999	15	[0, 0, 0]	n/a	catFR1	0	R1163T
2289.133	2.084	2311033	ORIENT_OFF	n/a	n/a	n/a	n/a	-999	15	[0, 0, 0]	n/a	catFR1	0	R1163T
2291.217	1.616	2313117	WORD	n/a	wordpools/wordpool_categorized_EN.txt	ELM	Trees	1	15	[0, 0, 0]	n/a	catFR1	0	R1163T
2292.833	0.784	2314733	WORD_OFF	n/a	n/a	ELM	n/a	1	15	[0, 0, 0]	n/a	catFR1	0	R1163T
2293.617	1.617	2315517	WORD	n/a	wordpools/wordpool_categorized_EN.txt	PINE	Trees	2	15	[0, 0, 0]	n/a	catFR1	0	R1163T
2295.234	0.851	2317134	WORD_OFF	n/a	n/a	PINE	n/a	2	15	[0, 0, 0]	n/a	catFR1	0	R1163T
2296.085	1.616	2317984	WORD	n/a	wordpools/wordpool_categorized_EN.txt	SAW	Tools	3	15	[0, 0, 0]	n/a	catFR1	0	R1163T
2297.701	0.767	2319600	WORD_OFF	n/a	n/a	SAW	n/a	3	15	[0, 0, 0]	n/a	catFR1	0	R1163T
2298.468	1.618	2320367	WORD	n/a	wordpools/wordpool_categorized_EN.txt	HAMMER	Tools	4	15	[0, 0, 0]	n/a	catFR1	0	R1163T
2300.086	0.8	2321985	WORD_OFF	n/a	n/a	HAMMER	n/a	4	15	[0, 0, 0]	n/a	catFR1	0	R1163T
2300.886	1.616	2322785	WORD	n/a	wordpools/wordpool_categorized_EN.txt	ROOM	Building	5	15	[0, 0, 0]	n/a	catFR1	0	R1163T
2302.502	0.933	2324401	WORD_OFF	n/a	n/a	ROOM	n/a	5	15	[0, 0, 0]	n/a	catFR1	0	R1163T
2303.435	1.618	2325334	WORD	n/a	wordpools/wordpool_categorized_EN.txt	ROOF	Building	6	15	[0, 0, 0]	n/a	catFR1	0	R1163T
2305.053	0.984	2326952	WORD_OFF	n/a	n/a	ROOF	n/a	6	15	[0, 0, 0]	n/a	catFR1	0	R1163T
2306.037	1.616	2327936	WORD	n/a	wordpools/wordpool_categorized_EN.txt	CROWBAR	Tools	7	15	[0, 0, 0]	n/a	catFR1	0	R1163T
2307.653	0.866	2329552	WORD_OFF	n/a	n/a	CROWBAR	n/a	7	15	[0, 0, 0]	n/a	catFR1	0	R1163T
2308.519	1.618	2330418	WORD	n/a	wordpools/wordpool_categorized_EN.txt	WRENCH	Tools	8	15	[0, 0, 0]	n/a	catFR1	0	R1163T
2310.137	0.767	2332036	WORD_OFF	n/a	n/a	WRENCH	n/a	8	15	[0, 0, 0]	n/a	catFR1	0	R1163T
2310.904	1.616	2332803	WORD	n/a	wordpools/wordpool_categorized_EN.txt	CEDAR	Trees	9	15	[0, 0, 0]	n/a	catFR1	0	R1163T
2312.52	0.984	2334419	WORD_OFF	n/a	n/a	CEDAR	n/a	9	15	[0, 0, 0]	n/a	catFR1	0	R1163T
2313.504	1.617	2335402	WORD	n/a	wordpools/wordpool_categorized_EN.txt	BIRCH	Trees	10	15	[0, 0, 0]	n/a	catFR1	0	R1163T
2315.121	0.983	2337019	WORD_OFF	n/a	n/a	BIRCH	n/a	10	15	[0, 0, 0]	n/a	catFR1	0	R1163T
2316.104	1.617	2338002	WORD	n/a	wordpools/wordpool_categorized_EN.txt	CEILING	Building	11	15	[0, 0, 0]	n/a	catFR1	0	R1163T
2317.721	0.834	2339619	WORD_OFF	n/a	n/a	CEILING	n/a	11	15	[0, 0, 0]	n/a	catFR1	0	R1163T
2318.555	1.617	2340453	WORD	n/a	wordpools/wordpool_categorized_EN.txt	DOOR	Building	12	15	[0, 0, 0]	n/a	catFR1	0	R1163T
2320.172	0.0	2342070	ENCODING_END	n/a	n/a	n/a	n/a	-999	15	[0, 0, 0]	n/a	catFR1	0	R1163T
2320.172	0.134	2342070	WORD_OFF	n/a	n/a	DOOR	n/a	12	15	[0, 0, 0]	n/a	catFR1	0	R1163T
2320.306	0.0	2342204	DISTRACT_START	n/a	n/a	n/a	n/a	-999	15	[0, 0, 0]	n/a	catFR1	0	R1163T
2320.306	0.016	2342204	START	n/a	n/a	n/a	n/a	-999	16	[-999, -999, -999]	n/a	catFR1	0	R1163T
2320.322	17.053	2342220	PROB	17.016	n/a	n/a	n/a	-999	16	[8, 9, 7]	23.0	catFR1	0	R1163T
2337.375	14.717	2359272	PROB	14.717	n/a	n/a	n/a	-999	16	[3, 2, 7]	14.0	catFR1	0	R1163T
2352.092	0.019	2373988	STOP	n/a	n/a	n/a	n/a	-999	16	[-999, -999, -999]	n/a	catFR1	0	R1163T
2352.111	0.65	2374007	DISTRACT_END	n/a	n/a	n/a	n/a	-999	15	[0, 0, 0]	n/a	catFR1	0	R1163T
2352.761	0.517	2374657	RETRIEVAL_ORIENT	n/a	n/a	n/a	n/a	-999	15	[0, 0, 0]	n/a	catFR1	0	R1163T
2353.278	2.293	2375174	REC_START	n/a	n/a	n/a	n/a	-999	15	[0, 0, 0]	n/a	catFR1	0	R1163T
2355.571	2.234	2377467	REC_WORD	2.293	n/a	HAMMER	Tools	4	15	[0, 0, 0]	n/a	catFR1	0	R1163T
2357.805	25.487	2379701	REC_WORD	4.527	n/a	DOOR	Building	12	15	[0, 0, 0]	n/a	catFR1	0	R1163T
2383.292	11.41	2405186	REC_END	n/a	n/a	n/a	n/a	-999	15	[0, 0, 0]	n/a	catFR1	0	R1163T
2394.702	0.5	2416596	TRIAL	n/a	n/a	n/a	n/a	-999	16	[0, 0, 0]	n/a	catFR1	0	R1163T
2395.202	10.428	2417096	COUNTDOWN_START	n/a	n/a	n/a	n/a	-999	16	[0, 0, 0]	n/a	catFR1	0	R1163T
2405.63	0.007	2427523	COUNTDOWN_END	n/a	n/a	n/a	n/a	-999	16	[0, 0, 0]	n/a	catFR1	0	R1163T
2405.637	1.617	2427530	ORIENT	n/a	n/a	n/a	n/a	-999	16	[0, 0, 0]	n/a	catFR1	0	R1163T
2407.254	1.884	2429147	ORIENT_OFF	n/a	n/a	n/a	n/a	-999	16	[0, 0, 0]	n/a	catFR1	0	R1163T
2409.138	1.617	2431031	WORD	n/a	wordpools/wordpool_categorized_EN.txt	PEAS	Vegetables	1	16	[0, 0, 0]	n/a	catFR1	0	R1163T
2410.755	0.883	2432648	WORD_OFF	n/a	n/a	PEAS	n/a	1	16	[0, 0, 0]	n/a	catFR1	0	R1163T
2411.638	1.617	2433531	WORD	n/a	wordpools/wordpool_categorized_EN.txt	POTATO	Vegetables	2	16	[0, 0, 0]	n/a	catFR1	0	R1163T
2413.255	0.9	2435148	WORD_OFF	n/a	n/a	POTATO	n/a	2	16	[0, 0, 0]	n/a	catFR1	0	R1163T
2414.155	1.617	2436047	WORD	n/a	wordpools/wordpool_categorized_EN.txt	DRESS	Clothing	3	16	[0, 0, 0]	n/a	catFR1	0	R1163T
2415.772	0.95	2437664	WORD_OFF	n/a	n/a	DRESS	n/a	3	16	[0, 0, 0]	n/a	catFR1	0	R1163T
2416.722	1.617	2438614	WORD	n/a	wordpools/wordpool_categorized_EN.txt	SHORTS	Clothing	4	16	[0, 0, 0]	n/a	catFR1	0	R1163T
2418.339	0.951	2440231	WORD_OFF	n/a	n/a	SHORTS	n/a	4	16	[0, 0, 0]	n/a	catFR1	0	R1163T
2419.29	1.618	2441182	WORD	n/a	wordpools/wordpool_categorized_EN.txt	PEACH	Fruit	5	16	[0, 0, 0]	n/a	catFR1	0	R1163T
2420.908	0.882	2442800	WORD_OFF	n/a	n/a	PEACH	n/a	5	16	[0, 0, 0]	n/a	catFR1	0	R1163T
2421.79	1.617	2443682	WORD	n/a	wordpools/wordpool_categorized_EN.txt	LEMON	Fruit	6	16	[0, 0, 0]	n/a	catFR1	0	R1163T
2423.407	0.9	2445299	WORD_OFF	n/a	n/a	LEMON	n/a	6	16	[0, 0, 0]	n/a	catFR1	0	R1163T
2424.307	1.618	2446199	WORD	n/a	wordpools/wordpool_categorized_EN.txt	CUCUMBER	Vegetables	7	16	[0, 0, 0]	n/a	catFR1	0	R1163T
2425.925	0.883	2447817	WORD_OFF	n/a	n/a	CUCUMBER	n/a	7	16	[0, 0, 0]	n/a	catFR1	0	R1163T
2426.808	1.617	2448700	WORD	n/a	wordpools/wordpool_categorized_EN.txt	LETTUCE	Vegetables	8	16	[0, 0, 0]	n/a	catFR1	0	R1163T
2428.425	0.916	2450317	WORD_OFF	n/a	n/a	LETTUCE	n/a	8	16	[0, 0, 0]	n/a	catFR1	0	R1163T
2429.341	1.618	2451233	WORD	n/a	wordpools/wordpool_categorized_EN.txt	UNDERWEAR	Clothing	9	16	[0, 0, 0]	n/a	catFR1	0	R1163T
2430.959	0.833	2452850	WORD_OFF	n/a	n/a	UNDERWEAR	n/a	9	16	[0, 0, 0]	n/a	catFR1	0	R1163T
2431.792	1.617	2453683	WORD	n/a	wordpools/wordpool_categorized_EN.txt	SHIRT	Clothing	10	16	[0, 0, 0]	n/a	catFR1	0	R1163T
2433.409	0.95	2455300	WORD_OFF	n/a	n/a	SHIRT	n/a	10	16	[0, 0, 0]	n/a	catFR1	0	R1163T
2434.359	1.618	2456250	WORD	n/a	wordpools/wordpool_categorized_EN.txt	LIME	Fruit	11	16	[0, 0, 0]	n/a	catFR1	0	R1163T
2435.977	0.884	2457868	WORD_OFF	n/a	n/a	LIME	n/a	11	16	[0, 0, 0]	n/a	catFR1	0	R1163T
2436.861	1.615	2458752	WORD	n/a	wordpools/wordpool_categorized_EN.txt	STRAWBERRY	Fruit	12	16	[0, 0, 0]	n/a	catFR1	0	R1163T
2438.476	0.001	2460367	WORD_OFF	n/a	n/a	STRAWBERRY	n/a	12	16	[0, 0, 0]	n/a	catFR1	0	R1163T
2438.477	0.099	2460368	ENCODING_END	n/a	n/a	n/a	n/a	-999	16	[0, 0, 0]	n/a	catFR1	0	R1163T
2438.576	0.0	2460467	DISTRACT_START	n/a	n/a	n/a	n/a	-999	16	[0, 0, 0]	n/a	catFR1	0	R1163T
2438.576	0.017	2460467	START	n/a	n/a	n/a	n/a	-999	17	[-999, -999, -999]	n/a	catFR1	0	R1163T
2438.593	15.636	2460484	PROB	15.601	n/a	n/a	n/a	-999	17	[9, 9, 4]	23.0	catFR1	0	R1163T
2454.229	9.83	2476119	PROB	9.83	n/a	n/a	n/a	-999	17	[8, 2, 7]	27.0	catFR1	0	R1163T
2464.059	0.006	2485949	STOP	n/a	n/a	n/a	n/a	-999	17	[-999, -999, -999]	n/a	catFR1	0	R1163T
2464.065	0.666	2485955	DISTRACT_END	n/a	n/a	n/a	n/a	-999	16	[0, 0, 0]	n/a	catFR1	0	R1163T
2464.731	0.518	2486620	RETRIEVAL_ORIENT	n/a	n/a	n/a	n/a	-999	16	[0, 0, 0]	n/a	catFR1	0	R1163T
2465.249	1.537	2487138	REC_START	n/a	n/a	n/a	n/a	-999	16	[0, 0, 0]	n/a	catFR1	0	R1163T
2466.786	2.494	2488675	REC_WORD	1.537	n/a	POTATO	Vegetables	2	16	[0, 0, 0]	n/a	catFR1	0	R1163T
2469.28	1.0	2491169	REC_WORD	4.031	n/a	CUCUMBER	Vegetables	7	16	[0, 0, 0]	n/a	catFR1	0	R1163T
2470.28	24.981	2492169	REC_WORD_VV	5.031	n/a	<>	n/a	-999	16	[0, 0, 0]	n/a	catFR1	0	R1163T
2495.261	14.045	2517149	REC_END	n/a	n/a	n/a	n/a	-999	16	[0, 0, 0]	n/a	catFR1	0	R1163T
2509.306	0.5	2531193	TRIAL	n/a	n/a	n/a	n/a	-999	17	[0, 0, 0]	n/a	catFR1	0	R1163T
2509.806	10.428	2531693	COUNTDOWN_START	n/a	n/a	n/a	n/a	-999	17	[0, 0, 0]	n/a	catFR1	0	R1163T
2520.234	0.007	2542120	COUNTDOWN_END	n/a	n/a	n/a	n/a	-999	17	[0, 0, 0]	n/a	catFR1	0	R1163T
2520.241	1.618	2542127	ORIENT	n/a	n/a	n/a	n/a	-999	17	[0, 0, 0]	n/a	catFR1	0	R1163T
2521.859	2.3	2543745	ORIENT_OFF	n/a	n/a	n/a	n/a	-999	17	[0, 0, 0]	n/a	catFR1	0	R1163T
2524.159	1.617	2546045	WORD	n/a	wordpools/wordpool_categorized_EN.txt	CIDER	Beverages	1	17	[0, 0, 0]	n/a	catFR1	0	R1163T
2525.776	0.8	2547662	WORD_OFF	n/a	n/a	CIDER	n/a	1	17	[0, 0, 0]	n/a	catFR1	0	R1163T
2526.576	1.617	2548462	WORD	n/a	wordpools/wordpool_categorized_EN.txt	JUICE	Beverages	2	17	[0, 0, 0]	n/a	catFR1	0	R1163T
2528.193	0.834	2550079	WORD_OFF	n/a	n/a	JUICE	n/a	2	17	[0, 0, 0]	n/a	catFR1	0	R1163T
2529.027	1.616	2550913	WORD	n/a	wordpools/wordpool_categorized_EN.txt	AXE	Tools	3	17	[0, 0, 0]	n/a	catFR1	0	R1163T
2530.643	0.867	2552529	WORD_OFF	n/a	n/a	AXE	n/a	3	17	[0, 0, 0]	n/a	catFR1	0	R1163T
2531.51	1.617	2553396	WORD	n/a	wordpools/wordpool_categorized_EN.txt	RATCHET	Tools	4	17	[0, 0, 0]	n/a	catFR1	0	R1163T
2533.127	0.984	2555012	WORD_OFF	n/a	n/a	RATCHET	n/a	4	17	[0, 0, 0]	n/a	catFR1	0	R1163T
2534.111	1.616	2555996	WORD	n/a	wordpools/wordpool_categorized_EN.txt	HORSE	FarmAnimals	5	17	[0, 0, 0]	n/a	catFR1	0	R1163T
2535.727	0.784	2557612	WORD_OFF	n/a	n/a	HORSE	n/a	5	17	[0, 0, 0]	n/a	catFR1	0	R1163T
2536.511	1.617	2558396	WORD	n/a	wordpools/wordpool_categorized_EN.txt	HEN	FarmAnimals	6	17	[0, 0, 0]	n/a	catFR1	0	R1163T
2538.128	0.818	2560013	WORD_OFF	n/a	n/a	HEN	n/a	6	17	[0, 0, 0]	n/a	catFR1	0	R1163T
2538.946	1.616	2560831	WORD	n/a	wordpools/wordpool_categorized_EN.txt	LEVEL	Tools	7	17	[0, 0, 0]	n/a	catFR1	0	R1163T
2540.562	0.917	2562447	WORD_OFF	n/a	n/a	LEVEL	n/a	7	17	[0, 0, 0]	n/a	catFR1	0	R1163T
2541.479	1.617	2563364	WORD	n/a	wordpools/wordpool_categorized_EN.txt	SCREWDRIVER	Tools	8	17	[0, 0, 0]	n/a	catFR1	0	R1163T
2543.096	0.967	2564981	WORD_OFF	n/a	n/a	SCREWDRIVER	n/a	8	17	[0, 0, 0]	n/a	catFR1	0	R1163T
2544.063	1.616	2565948	WORD	n/a	wordpools/wordpool_categorized_EN.txt	COLA	Beverages	9	17	[0, 0, 0]	n/a	catFR1	0	R1163T
2545.679	0.884	2567564	WORD_OFF	n/a	n/a	COLA	n/a	9	17	[0, 0, 0]	n/a	catFR1	0	R1163T
2546.563	1.617	2568448	WORD	n/a	wordpools/wordpool_categorized_EN.txt	WATER	Beverages	10	17	[0, 0, 0]	n/a	catFR1	0	R1163T
2548.18	0.95	2570065	WORD_OFF	n/a	n/a	WATER	n/a	10	17	[0, 0, 0]	n/a	catFR1	0	R1163T
2549.13	1.617	2571014	WORD	n/a	wordpools/wordpool_categorized_EN.txt	GOAT	FarmAnimals	11	17	[0, 0, 0]	n/a	catFR1	0	R1163T
2550.747	1.017	2572631	WORD_OFF	n/a	n/a	GOAT	n/a	11	17	[0, 0, 0]	n/a	catFR1	0	R1163T
2551.764	1.617	2573648	WORD	n/a	wordpools/wordpool_categorized_EN.txt	PIG	FarmAnimals	12	17	[0, 0, 0]	n/a	catFR1	0	R1163T
2553.381	0.0	2575265	ENCODING_END	n/a	n/a	n/a	n/a	-999	17	[0, 0, 0]	n/a	catFR1	0	R1163T
2553.381	0.102	2575265	WORD_OFF	n/a	n/a	PIG	n/a	12	17	[0, 0, 0]	n/a	catFR1	0	R1163T
2553.483	0.0	2575367	DISTRACT_START	n/a	n/a	n/a	n/a	-999	17	[0, 0, 0]	n/a	catFR1	0	R1163T
2553.483	0.014	2575367	START	n/a	n/a	n/a	n/a	-999	18	[-999, -999, -999]	n/a	catFR1	0	R1163T
2553.497	17.854	2575381	PROB	17.826	n/a	n/a	n/a	-999	18	[9, 8, 5]	18.0	catFR1	0	R1163T
2571.351	12.756	2593234	PROB	12.756	n/a	n/a	n/a	-999	18	[6, 4, 8]	14.0	catFR1	0	R1163T
2584.107	0.013	2605989	STOP	n/a	n/a	n/a	n/a	-999	18	[-999, -999, -999]	n/a	catFR1	0	R1163T
2584.12	0.616	2606002	DISTRACT_END	n/a	n/a	n/a	n/a	-999	17	[0, 0, 0]	n/a	catFR1	0	R1163T
2584.736	0.518	2606618	RETRIEVAL_ORIENT	n/a	n/a	n/a	n/a	-999	17	[0, 0, 0]	n/a	catFR1	0	R1163T
2585.254	1.721	2607136	REC_START	n/a	n/a	n/a	n/a	-999	17	[0, 0, 0]	n/a	catFR1	0	R1163T
2586.975	3.825	2608857	REC_WORD	1.721	n/a	HEN	FarmAnimals	6	17	[0, 0, 0]	n/a	catFR1	0	R1163T
2590.8	24.467	2612682	REC_WORD	5.546	n/a	GOAT	FarmAnimals	11	17	[0, 0, 0]	n/a	catFR1	0	R1163T
2615.267	8.893	2637148	REC_END	n/a	n/a	n/a	n/a	-999	17	[0, 0, 0]	n/a	catFR1	0	R1163T
2624.16	0.5	2646040	TRIAL	n/a	n/a	n/a	n/a	-999	18	[0, 0, 0]	n/a	catFR1	0	R1163T
2624.66	10.428	2646540	COUNTDOWN_START	n/a	n/a	n/a	n/a	-999	18	[0, 0, 0]	n/a	catFR1	0	R1163T
2635.088	0.008	2656967	COUNTDOWN_END	n/a	n/a	n/a	n/a	-999	18	[0, 0, 0]	n/a	catFR1	0	R1163T
2635.096	1.617	2656975	ORIENT	n/a	n/a	n/a	n/a	-999	18	[0, 0, 0]	n/a	catFR1	0	R1163T
2636.713	2.284	2658592	ORIENT_OFF	n/a	n/a	n/a	n/a	-999	18	[0, 0, 0]	n/a	catFR1	0	R1163T
2638.997	1.616	2660876	WORD	n/a	wordpools/wordpool_categorized_EN.txt	DAISY	Flowers	1	18	[0, 0, 0]	n/a	catFR1	0	R1163T
2640.613	0.834	2662492	WORD_OFF	n/a	n/a	DAISY	n/a	1	18	[0, 0, 0]	n/a	catFR1	0	R1163T
2641.447	1.618	2663326	WORD	n/a	wordpools/wordpool_categorized_EN.txt	LILY	Flowers	2	18	[0, 0, 0]	n/a	catFR1	0	R1163T
2643.065	0.983	2664944	WORD_OFF	n/a	n/a	LILY	n/a	2	18	[0, 0, 0]	n/a	catFR1	0	R1163T
2644.048	1.616	2665927	WORD	n/a	wordpools/wordpool_categorized_EN.txt	PIGEON	Birds	3	18	[0, 0, 0]	n/a	catFR1	0	R1163T
2645.664	0.867	2667543	WORD_OFF	n/a	n/a	PIGEON	n/a	3	18	[0, 0, 0]	n/a	catFR1	0	R1163T
2646.531	1.617	2668410	WORD	n/a	wordpools/wordpool_categorized_EN.txt	SPARROW	Birds	4	18	[0, 0, 0]	n/a	catFR1	0	R1163T
2648.148	0.935	2670027	WORD_OFF	n/a	n/a	SPARROW	n/a	4	18	[0, 0, 0]	n/a	catFR1	0	R1163T
2649.083	1.615	2670962	WORD	n/a	wordpools/wordpool_categorized_EN.txt	STAIRS	Building	5	18	[0, 0, 0]	n/a	catFR1	0	R1163T
2650.698	0.767	2672576	WORD_OFF	n/a	n/a	STAIRS	n/a	5	18	[0, 0, 0]	n/a	catFR1	0	R1163T
2651.465	1.618	2673343	WORD	n/a	wordpools/wordpool_categorized_EN.txt	FLOOR	Building	6	18	[0, 0, 0]	n/a	catFR1	0	R1163T
2653.083	0.95	2674961	WORD_OFF	n/a	n/a	FLOOR	n/a	6	18	[0, 0, 0]	n/a	catFR1	0	R1163T
2654.033	1.616	2675911	WORD	n/a	wordpools/wordpool_categorized_EN.txt	CARNATION	Flowers	7	18	[0, 0, 0]	n/a	catFR1	0	R1163T
2655.649	0.967	2677527	WORD_OFF	n/a	n/a	CARNATION	n/a	7	18	[0, 0, 0]	n/a	catFR1	0	R1163T
2656.616	1.617	2678494	WORD	n/a	wordpools/wordpool_categorized_EN.txt	TULIP	Flowers	8	18	[0, 0, 0]	n/a	catFR1	0	R1163T
2658.233	0.934	2680111	WORD_OFF	n/a	n/a	TULIP	n/a	8	18	[0, 0, 0]	n/a	catFR1	0	R1163T
2659.167	1.617	2681045	WORD	n/a	wordpools/wordpool_categorized_EN.txt	ROBIN	Birds	9	18	[0, 0, 0]	n/a	catFR1	0	R1163T
2660.784	0.983	2682662	WORD_OFF	n/a	n/a	ROBIN	n/a	9	18	[0, 0, 0]	n/a	catFR1	0	R1163T
2661.767	1.617	2683645	WORD	n/a	wordpools/wordpool_categorized_EN.txt	HAWK	Birds	10	18	[0, 0, 0]	n/a	catFR1	0	R1163T
2663.384	0.817	2685262	WORD_OFF	n/a	n/a	HAWK	n/a	10	18	[0, 0, 0]	n/a	catFR1	0	R1163T
2664.201	1.617	2686079	WORD	n/a	wordpools/wordpool_categorized_EN.txt	WINDOW	Building	11	18	[0, 0, 0]	n/a	catFR1	0	R1163T
2665.818	0.817	2687696	WORD_OFF	n/a	n/a	WINDOW	n/a	11	18	[0, 0, 0]	n/a	catFR1	0	R1163T
2666.635	1.617	2688513	WORD	n/a	wordpools/wordpool_categorized_EN.txt	ATTIC	Building	12	18	[0, 0, 0]	n/a	catFR1	0	R1163T
2668.252	0.0	2690129	ENCODING_END	n/a	n/a	n/a	n/a	-999	18	[0, 0, 0]	n/a	catFR1	0	R1163T
2668.252	0.133	2690129	WORD_OFF	n/a	n/a	ATTIC	n/a	12	18	[0, 0, 0]	n/a	catFR1	0	R1163T
2668.385	0.0	2690262	DISTRACT_START	n/a	n/a	n/a	n/a	-999	18	[0, 0, 0]	n/a	catFR1	0	R1163T
2668.385	0.017	2690262	START	n/a	n/a	n/a	n/a	-999	19	[-999, -999, -999]	n/a	catFR1	0	R1163T
2668.402	25.474	2690279	PROB	25.474	n/a	n/a	n/a	-999	19	[6, 2, 6]	18.0	catFR1	0	R1163T
2693.876	0.015	2715752	STOP	n/a	n/a	n/a	n/a	-999	19	[-999, -999, -999]	n/a	catFR1	0	R1163T
2693.891	0.632	2715767	DISTRACT_END	n/a	n/a	n/a	n/a	-999	18	[0, 0, 0]	n/a	catFR1	0	R1163T
2694.523	0.502	2716399	RETRIEVAL_ORIENT	n/a	n/a	n/a	n/a	-999	18	[0, 0, 0]	n/a	catFR1	0	R1163T
2695.025	23.261	2716901	REC_START	n/a	n/a	n/a	n/a	-999	18	[0, 0, 0]	n/a	catFR1	0	R1163T
2718.286	6.751	2740160	REC_WORD	23.261	n/a	HAWK	Birds	10	18	[0, 0, 0]	n/a	catFR1	0	R1163T
2725.037	180.408	2746911	REC_END	n/a	n/a	n/a	n/a	-999	18	[0, 0, 0]	n/a	catFR1	0	R1163T
2905.445	0.5	2927308	TRIAL	n/a	n/a	n/a	n/a	-999	19	[0, 0, 0]	n/a	catFR1	0	R1163T
2905.945	10.428	2927808	COUNTDOWN_START	n/a	n/a	n/a	n/a	-999	19	[0, 0, 0]	n/a	catFR1	0	R1163T
2916.373	0.007	2938236	COUNTDOWN_END	n/a	n/a	n/a	n/a	-999	19	[0, 0, 0]	n/a	catFR1	0	R1163T
2916.38	1.601	2938243	ORIENT	n/a	n/a	n/a	n/a	-999	19	[0, 0, 0]	n/a	catFR1	0	R1163T
2917.981	2.333	2939844	ORIENT_OFF	n/a	n/a	n/a	n/a	-999	19	[0, 0, 0]	n/a	catFR1	0	R1163T
2920.314	1.601	2942176	WORD	n/a	wordpools/wordpool_categorized_EN.txt	HURRICANE	Weather	1	19	[0, 0, 0]	n/a	catFR1	0	R1163T
2921.915	1.001	2943777	WORD_OFF	n/a	n/a	HURRICANE	n/a	1	19	[0, 0, 0]	n/a	catFR1	0	R1163T
2922.916	1.616	2944778	WORD	n/a	wordpools/wordpool_categorized_EN.txt	THUNDER	Weather	2	19	[0, 0, 0]	n/a	catFR1	0	R1163T
2924.532	0.85	2946394	WORD_OFF	n/a	n/a	THUNDER	n/a	2	19	[0, 0, 0]	n/a	catFR1	0	R1163T
2925.382	1.618	2947244	WORD	n/a	wordpools/wordpool_categorized_EN.txt	CABBAGE	Vegetables	3	19	[0, 0, 0]	n/a	catFR1	0	R1163T
2927.0	0.815	2948862	WORD_OFF	n/a	n/a	CABBAGE	n/a	3	19	[0, 0, 0]	n/a	catFR1	0	R1163T
2927.815	1.617	2949677	WORD	n/a	wordpools/wordpool_categorized_EN.txt	CELERY	Vegetables	4	19	[0, 0, 0]	n/a	catFR1	0	R1163T
2929.432	0.767	2951294	WORD_OFF	n/a	n/a	CELERY	n/a	4	19	[0, 0, 0]	n/a	catFR1	0	R1163T
2930.199	1.617	2952061	WORD	n/a	wordpools/wordpool_categorized_EN.txt	SEAGULL	Birds	5	19	[0, 0, 0]	n/a	catFR1	0	R1163T
2931.816	0.784	2953678	WORD_OFF	n/a	n/a	SEAGULL	n/a	5	19	[0, 0, 0]	n/a	catFR1	0	R1163T
2932.6	1.617	2954462	WORD	n/a	wordpools/wordpool_categorized_EN.txt	FINCH	Birds	6	19	[0, 0, 0]	n/a	catFR1	0	R1163T
2934.217	0.883	2956079	WORD_OFF	n/a	n/a	FINCH	n/a	6	19	[0, 0, 0]	n/a	catFR1	0	R1163T
2935.1	1.617	2956962	WORD	n/a	wordpools/wordpool_categorized_EN.txt	DRIZZLE	Weather	7	19	[0, 0, 0]	n/a	catFR1	0	R1163T
2936.717	0.8	2958579	WORD_OFF	n/a	n/a	DRIZZLE	n/a	7	19	[0, 0, 0]	n/a	catFR1	0	R1163T
2937.517	1.617	2959378	WORD	n/a	wordpools/wordpool_categorized_EN.txt	LIGHTNING	Weather	8	19	[0, 0, 0]	n/a	catFR1	0	R1163T
2939.134	0.901	2960995	WORD_OFF	n/a	n/a	LIGHTNING	n/a	8	19	[0, 0, 0]	n/a	catFR1	0	R1163T
2940.035	1.616	2961896	WORD	n/a	wordpools/wordpool_categorized_EN.txt	ONION	Vegetables	9	19	[0, 0, 0]	n/a	catFR1	0	R1163T
2941.651	1.0	2963512	WORD_OFF	n/a	n/a	ONION	n/a	9	19	[0, 0, 0]	n/a	catFR1	0	R1163T
2942.651	1.617	2964512	WORD	n/a	wordpools/wordpool_categorized_EN.txt	SPINACH	Vegetables	10	19	[0, 0, 0]	n/a	catFR1	0	R1163T
2944.268	0.834	2966129	WORD_OFF	n/a	n/a	SPINACH	n/a	10	19	[0, 0, 0]	n/a	catFR1	0	R1163T
2945.102	1.617	2966963	WORD	n/a	wordpools/wordpool_categorized_EN.txt	BLUEBIRD	Birds	11	19	[0, 0, 0]	n/a	catFR1	0	R1163T
2946.719	0.967	2968580	WORD_OFF	n/a	n/a	BLUEBIRD	n/a	11	19	[0, 0, 0]	n/a	catFR1	0	R1163T
2947.686	1.617	2969547	WORD	n/a	wordpools/wordpool_categorized_EN.txt	CROW	Birds	12	19	[0, 0, 0]	n/a	catFR1	0	R1163T
2949.303	0.0	2971164	ENCODING_END	n/a	n/a	n/a	n/a	-999	19	[0, 0, 0]	n/a	catFR1	0	R1163T
2949.303	0.107	2971164	WORD_OFF	n/a	n/a	CROW	n/a	12	19	[0, 0, 0]	n/a	catFR1	0	R1163T
2949.41	0.001	2971271	DISTRACT_START	n/a	n/a	n/a	n/a	-999	19	[0, 0, 0]	n/a	catFR1	0	R1163T
2949.411	0.008	2971272	START	n/a	n/a	n/a	n/a	-999	20	[-999, -999, -999]	n/a	catFR1	0	R1163T
2949.419	9.67	2971280	PROB	9.633	n/a	n/a	n/a	-999	20	[7, 7, 2]	18.0	catFR1	0	R1163T
2959.089	12.882	2980949	PROB	12.882	n/a	n/a	n/a	-999	20	[4, 4, 3]	7.0	catFR1	0	R1163T
2971.971	0.02	2993830	STOP	n/a	n/a	n/a	n/a	-999	20	[-999, -999, -999]	n/a	catFR1	0	R1163T
2971.991	0.683	2993850	DISTRACT_END	n/a	n/a	n/a	n/a	-999	19	[0, 0, 0]	n/a	catFR1	0	R1163T
2972.674	0.517	2994533	RETRIEVAL_ORIENT	n/a	n/a	n/a	n/a	-999	19	[0, 0, 0]	n/a	catFR1	0	R1163T
2973.191	13.731	2995050	REC_START	n/a	n/a	n/a	n/a	-999	19	[0, 0, 0]	n/a	catFR1	0	R1163T
2986.922	1.319	3008781	REC_WORD	13.731	n/a	HURRICANE	Weather	1	19	[0, 0, 0]	n/a	catFR1	0	R1163T
2988.241	4.23	3010099	REC_WORD	15.05	n/a	LIGHTNING	Weather	8	19	[0, 0, 0]	n/a	catFR1	0	R1163T
2992.471	10.732	3014329	REC_WORD	19.28	n/a	THUNDER	Weather	2	19	[0, 0, 0]	n/a	catFR1	0	R1163T
3003.203	60.987	3025061	REC_END	n/a	n/a	n/a	n/a	-999	19	[0, 0, 0]	n/a	catFR1	0	R1163T
3064.19	0.5	3086044	TRIAL	n/a	n/a	n/a	n/a	-999	20	[0, 0, 0]	n/a	catFR1	0	R1163T
3064.69	10.428	3086544	COUNTDOWN_START	n/a	n/a	n/a	n/a	-999	20	[0, 0, 0]	n/a	catFR1	0	R1163T
3075.118	0.008	3096971	COUNTDOWN_END	n/a	n/a	n/a	n/a	-999	20	[0, 0, 0]	n/a	catFR1	0	R1163T
3075.126	1.616	3096979	ORIENT	n/a	n/a	n/a	n/a	-999	20	[0, 0, 0]	n/a	catFR1	0	R1163T
3076.742	2.185	3098595	ORIENT_OFF	n/a	n/a	n/a	n/a	-999	20	[0, 0, 0]	n/a	catFR1	0	R1163T
3078.927	1.616	3100780	WORD	n/a	wordpools/wordpool_categorized_EN.txt	CABINET	Furniture	1	20	[0, 0, 0]	n/a	catFR1	0	R1163T
3080.543	0.95	3102396	WORD_OFF	n/a	n/a	CABINET	n/a	1	20	[0, 0, 0]	n/a	catFR1	0	R1163T
3081.493	1.617	3103346	WORD	n/a	wordpools/wordpool_categorized_EN.txt	COUCH	Furniture	2	20	[0, 0, 0]	n/a	catFR1	0	R1163T
3083.11	0.935	3104963	WORD_OFF	n/a	n/a	COUCH	n/a	2	20	[0, 0, 0]	n/a	catFR1	0	R1163T
3084.045	1.616	3105898	WORD	n/a	wordpools/wordpool_categorized_EN.txt	CORKSCREW	KitchenTools	3	20	[0, 0, 0]	n/a	catFR1	0	R1163T
3085.661	1.0	3107514	WORD_OFF	n/a	n/a	CORKSCREW	n/a	3	20	[0, 0, 0]	n/a	catFR1	0	R1163T
3086.661	1.617	3108514	WORD	n/a	wordpools/wordpool_categorized_EN.txt	SPOON	KitchenTools	4	20	[0, 0, 0]	n/a	catFR1	0	R1163T
3088.278	0.833	3110131	WORD_OFF	n/a	n/a	SPOON	n/a	4	20	[0, 0, 0]	n/a	catFR1	0	R1163T
3089.111	1.617	3110963	WORD	n/a	wordpools/wordpool_categorized_EN.txt	IRON	Appliances	5	20	[0, 0, 0]	n/a	catFR1	0	R1163T
3090.728	0.8	3112580	WORD_OFF	n/a	n/a	IRON	n/a	5	20	[0, 0, 0]	n/a	catFR1	0	R1163T
3091.528	1.618	3113380	WORD	n/a	wordpools/wordpool_categorized_EN.txt	MIXER	Appliances	6	20	[0, 0, 0]	n/a	catFR1	0	R1163T
3093.146	0.834	3114998	WORD_OFF	n/a	n/a	MIXER	n/a	6	20	[0, 0, 0]	n/a	catFR1	0	R1163T
3093.98	1.616	3115832	WORD	n/a	wordpools/wordpool_categorized_EN.txt	WHISK	KitchenTools	7	20	[0, 0, 0]	n/a	catFR1	0	R1163T
3095.596	0.817	3117448	WORD_OFF	n/a	n/a	WHISK	n/a	7	20	[0, 0, 0]	n/a	catFR1	0	R1163T
3096.413	1.618	3118265	WORD	n/a	wordpools/wordpool_categorized_EN.txt	PEELER	KitchenTools	8	20	[0, 0, 0]	n/a	catFR1	0	R1163T
3098.031	0.866	3119883	WORD_OFF	n/a	n/a	PEELER	n/a	8	20	[0, 0, 0]	n/a	catFR1	0	R1163T
3098.897	1.616	3120749	WORD	n/a	wordpools/wordpool_categorized_EN.txt	SHELF	Furniture	9	20	[0, 0, 0]	n/a	catFR1	0	R1163T
3100.513	1.001	3122365	WORD_OFF	n/a	n/a	SHELF	n/a	9	20	[0, 0, 0]	n/a	catFR1	0	R1163T
3101.514	1.617	3123366	WORD	n/a	wordpools/wordpool_categorized_EN.txt	CHAIR	Furniture	10	20	[0, 0, 0]	n/a	catFR1	0	R1163T
3103.131	0.901	3124983	WORD_OFF	n/a	n/a	CHAIR	n/a	10	20	[0, 0, 0]	n/a	catFR1	0	R1163T
3104.032	1.616	3125884	WORD	n/a	wordpools/wordpool_categorized_EN.txt	TOASTER	Appliances	11	20	[0, 0, 0]	n/a	catFR1	0	R1163T
3105.648	0.967	3127499	WORD_OFF	n/a	n/a	TOASTER	n/a	11	20	[0, 0, 0]	n/a	catFR1	0	R1163T
3106.615	1.617	3128466	WORD	n/a	wordpools/wordpool_categorized_EN.txt	DISHWASHER	Appliances	12	20	[0, 0, 0]	n/a	catFR1	0	R1163T
3108.232	0.0	3130083	ENCODING_END	n/a	n/a	n/a	n/a	-999	20	[0, 0, 0]	n/a	catFR1	0	R1163T
3108.232	0.103	3130083	WORD_OFF	n/a	n/a	DISHWASHER	n/a	12	20	[0, 0, 0]	n/a	catFR1	0	R1163T
3108.335	0.0	3130186	DISTRACT_START	n/a	n/a	n/a	n/a	-999	20	[0, 0, 0]	n/a	catFR1	0	R1163T
3108.335	0.013	3130186	START	n/a	n/a	n/a	n/a	-999	21	[-999, -999, -999]	n/a	catFR1	0	R1163T
3108.348	16.77	3130199	PROB	16.743	n/a	n/a	n/a	-999	21	[3, 4, 2]	6.0	catFR1	0	R1163T
3125.118	25.588	3146968	PROB	25.588	n/a	n/a	n/a	-999	21	[2, 6, 5]	8.0	catFR1	0	R1163T
3150.706	0.017	3172555	STOP	n/a	n/a	n/a	n/a	-999	21	[-999, -999, -999]	n/a	catFR1	0	R1163T
3150.723	0.6	3172572	DISTRACT_END	n/a	n/a	n/a	n/a	-999	20	[0, 0, 0]	n/a	catFR1	0	R1163T
3151.323	0.518	3173172	RETRIEVAL_ORIENT	n/a	n/a	n/a	n/a	-999	20	[0, 0, 0]	n/a	catFR1	0	R1163T
3151.841	7.648	3173690	REC_START	n/a	n/a	n/a	n/a	-999	20	[0, 0, 0]	n/a	catFR1	0	R1163T
3159.489	22.365	3181337	REC_WORD	7.648	n/a	SPOON	KitchenTools	4	20	[0, 0, 0]	n/a	catFR1	0	R1163T
3181.854	11.776	3203701	REC_END	n/a	n/a	n/a	n/a	-999	20	[0, 0, 0]	n/a	catFR1	0	R1163T
3193.63	0.5	3215476	TRIAL	n/a	n/a	n/a	n/a	-999	21	[0, 0, 0]	n/a	catFR1	0	R1163T
3194.13	10.428	3215976	COUNTDOWN_START	n/a	n/a	n/a	n/a	-999	21	[0, 0, 0]	n/a	catFR1	0	R1163T
3204.558	0.008	3226404	COUNTDOWN_END	n/a	n/a	n/a	n/a	-999	21	[0, 0, 0]	n/a	catFR1	0	R1163T
3204.566	1.617	3226412	ORIENT	n/a	n/a	n/a	n/a	-999	21	[0, 0, 0]	n/a	catFR1	0	R1163T
3206.183	2.367	3228029	ORIENT_OFF	n/a	n/a	n/a	n/a	-999	21	[0, 0, 0]	n/a	catFR1	0	R1163T
3208.55	1.617	3230395	WORD	n/a	wordpools/wordpool_categorized_EN.txt	SKIRT	Clothing	1	21	[0, 0, 0]	n/a	catFR1	0	R1163T
3210.167	0.801	3232012	WORD_OFF	n/a	n/a	SKIRT	n/a	1	21	[0, 0, 0]	n/a	catFR1	0	R1163T
3210.968	1.616	3232813	WORD	n/a	wordpools/wordpool_categorized_EN.txt	SOCKS	Clothing	2	21	[0, 0, 0]	n/a	catFR1	0	R1163T
3212.584	0.883	3234429	WORD_OFF	n/a	n/a	SOCKS	n/a	2	21	[0, 0, 0]	n/a	catFR1	0	R1163T
3213.467	1.618	3235312	WORD	n/a	wordpools/wordpool_categorized_EN.txt	LEMONADE	Beverages	3	21	[0, 0, 0]	n/a	catFR1	0	R1163T
3215.085	0.901	3236930	WORD_OFF	n/a	n/a	LEMONADE	n/a	3	21	[0, 0, 0]	n/a	catFR1	0	R1163T
3215.986	1.615	3237831	WORD	n/a	wordpools/wordpool_categorized_EN.txt	SODA	Beverages	4	21	[0, 0, 0]	n/a	catFR1	0	R1163T
3217.601	0.951	3239446	WORD_OFF	n/a	n/a	SODA	n/a	4	21	[0, 0, 0]	n/a	catFR1	0	R1163T
3218.552	1.617	3240397	WORD	n/a	wordpools/wordpool_categorized_EN.txt	DUCK	Birds	5	21	[0, 0, 0]	n/a	catFR1	0	R1163T
3220.169	0.767	3242014	WORD_OFF	n/a	n/a	DUCK	n/a	5	21	[0, 0, 0]	n/a	catFR1	0	R1163T
3220.936	1.616	3242781	WORD	n/a	wordpools/wordpool_categorized_EN.txt	CARDINAL	Birds	6	21	[0, 0, 0]	n/a	catFR1	0	R1163T
3222.552	0.801	3244397	WORD_OFF	n/a	n/a	CARDINAL	n/a	6	21	[0, 0, 0]	n/a	catFR1	0	R1163T
3223.353	1.617	3245198	WORD	n/a	wordpools/wordpool_categorized_EN.txt	JEANS	Clothing	7	21	[0, 0, 0]	n/a	catFR1	0	R1163T
3224.97	0.766	3246814	WORD_OFF	n/a	n/a	JEANS	n/a	7	21	[0, 0, 0]	n/a	catFR1	0	R1163T
3225.736	1.617	3247580	WORD	n/a	wordpools/wordpool_categorized_EN.txt	JACKET	Clothing	8	21	[0, 0, 0]	n/a	catFR1	0	R1163T
3227.353	0.967	3249197	WORD_OFF	n/a	n/a	JACKET	n/a	8	21	[0, 0, 0]	n/a	catFR1	0	R1163T
3228.32	1.601	3250164	WORD	n/a	wordpools/wordpool_categorized_EN.txt	COFFEE	Beverages	9	21	[0, 0, 0]	n/a	catFR1	0	R1163T
3229.921	0.967	3251765	WORD_OFF	n/a	n/a	COFFEE	n/a	9	21	[0, 0, 0]	n/a	catFR1	0	R1163T
3230.888	1.616	3252732	WORD	n/a	wordpools/wordpool_categorized_EN.txt	TEA	Beverages	10	21	[0, 0, 0]	n/a	catFR1	0	R1163T
3232.504	0.834	3254348	WORD_OFF	n/a	n/a	TEA	n/a	10	21	[0, 0, 0]	n/a	catFR1	0	R1163T
3233.338	1.618	3255182	WORD	n/a	wordpools/wordpool_categorized_EN.txt	GOOSE	Birds	11	21	[0, 0, 0]	n/a	catFR1	0	R1163T
3234.956	0.95	3256800	WORD_OFF	n/a	n/a	GOOSE	n/a	11	21	[0, 0, 0]	n/a	catFR1	0	R1163T
3235.906	1.616	3257750	WORD	n/a	wordpools/wordpool_categorized_EN.txt	DOVE	Birds	12	21	[0, 0, 0]	n/a	catFR1	0	R1163T
3237.522	0.0	3259366	ENCODING_END	n/a	n/a	n/a	n/a	-999	21	[0, 0, 0]	n/a	catFR1	0	R1163T
3237.522	0.135	3259366	WORD_OFF	n/a	n/a	DOVE	n/a	12	21	[0, 0, 0]	n/a	catFR1	0	R1163T
3237.657	0.001	3259501	DISTRACT_START	n/a	n/a	n/a	n/a	-999	21	[0, 0, 0]	n/a	catFR1	0	R1163T
3237.658	0.014	3259502	START	n/a	n/a	n/a	n/a	-999	22	[-999, -999, -999]	n/a	catFR1	0	R1163T
3237.672	26.795	3259516	PROB	26.795	n/a	n/a	n/a	-999	22	[2, 5, 6]	17.0	catFR1	0	R1163T
3264.467	0.01	3286309	STOP	n/a	n/a	n/a	n/a	-999	22	[-999, -999, -999]	n/a	catFR1	0	R1163T
3264.477	0.683	3286319	DISTRACT_END	n/a	n/a	n/a	n/a	-999	21	[0, 0, 0]	n/a	catFR1	0	R1163T
3265.16	0.517	3287002	RETRIEVAL_ORIENT	n/a	n/a	n/a	n/a	-999	21	[0, 0, 0]	n/a	catFR1	0	R1163T
3265.677	3.058	3287519	REC_START	n/a	n/a	n/a	n/a	-999	21	[0, 0, 0]	n/a	catFR1	0	R1163T
3268.735	1.166	3290577	REC_WORD	3.058	n/a	COFFEE	Beverages	9	21	[0, 0, 0]	n/a	catFR1	0	R1163T
3269.901	25.789	3291743	REC_WORD	4.224	n/a	TEA	Beverages	10	21	[0, 0, 0]	n/a	catFR1	0	R1163T
3295.69	10.511	3317530	REC_END	n/a	n/a	n/a	n/a	-999	21	[0, 0, 0]	n/a	catFR1	0	R1163T
3306.201	0.5	3328041	TRIAL	n/a	n/a	n/a	n/a	-999	22	[0, 0, 0]	n/a	catFR1	0	R1163T
3306.701	10.428	3328541	COUNTDOWN_START	n/a	n/a	n/a	n/a	-999	22	[0, 0, 0]	n/a	catFR1	0	R1163T
3317.129	0.007	3338968	COUNTDOWN_END	n/a	n/a	n/a	n/a	-999	22	[0, 0, 0]	n/a	catFR1	0	R1163T
3317.136	1.617	3338975	ORIENT	n/a	n/a	n/a	n/a	-999	22	[0, 0, 0]	n/a	catFR1	0	R1163T
3318.753	1.884	3340592	ORIENT_OFF	n/a	n/a	n/a	n/a	-999	22	[0, 0, 0]	n/a	catFR1	0	R1163T
3320.637	1.617	3342476	WORD	n/a	wordpools/wordpool_categorized_EN.txt	PUZZLE	Toys	1	22	[0, 0, 0]	n/a	catFR1	0	R1163T
3322.254	0.917	3344093	WORD_OFF	n/a	n/a	PUZZLE	n/a	1	22	[0, 0, 0]	n/a	catFR1	0	R1163T
3323.171	1.617	3345010	WORD	n/a	wordpools/wordpool_categorized_EN.txt	FOOTBALL	Toys	2	22	[0, 0, 0]	n/a	catFR1	0	R1163T
3324.788	0.833	3346626	WORD_OFF	n/a	n/a	FOOTBALL	n/a	2	22	[0, 0, 0]	n/a	catFR1	0	R1163T
3325.621	1.617	3347459	WORD	n/a	wordpools/wordpool_categorized_EN.txt	BASS	Instruments	3	22	[0, 0, 0]	n/a	catFR1	0	R1163T
3327.238	0.95	3349076	WORD_OFF	n/a	n/a	BASS	n/a	3	22	[0, 0, 0]	n/a	catFR1	0	R1163T
3328.188	1.617	3350026	WORD	n/a	wordpools/wordpool_categorized_EN.txt	FLUTE	Instruments	4	22	[0, 0, 0]	n/a	catFR1	0	R1163T
3329.805	0.967	3351643	WORD_OFF	n/a	n/a	FLUTE	n/a	4	22	[0, 0, 0]	n/a	catFR1	0	R1163T
3330.772	1.617	3352610	WORD	n/a	wordpools/wordpool_categorized_EN.txt	GIRAFFE	Zoo	5	22	[0, 0, 0]	n/a	catFR1	0	R1163T
3332.389	0.8	3354227	WORD_OFF	n/a	n/a	GIRAFFE	n/a	5	22	[0, 0, 0]	n/a	catFR1	0	R1163T
3333.189	1.617	3355027	WORD	n/a	wordpools/wordpool_categorized_EN.txt	ORANGUTAN	Zoo	6	22	[0, 0, 0]	n/a	catFR1	0	R1163T
3334.806	0.95	3356644	WORD_OFF	n/a	n/a	ORANGUTAN	n/a	6	22	[0, 0, 0]	n/a	catFR1	0	R1163T
3335.756	1.617	3357594	WORD	n/a	wordpools/wordpool_categorized_EN.txt	BALL	Toys	7	22	[0, 0, 0]	n/a	catFR1	0	R1163T
3337.373	0.867	3359211	WORD_OFF	n/a	n/a	BALL	n/a	7	22	[0, 0, 0]	n/a	catFR1	0	R1163T
3338.24	1.618	3360078	WORD	n/a	wordpools/wordpool_categorized_EN.txt	BARBIE	Toys	8	22	[0, 0, 0]	n/a	catFR1	0	R1163T
3339.858	0.966	3361696	WORD_OFF	n/a	n/a	BARBIE	n/a	8	22	[0, 0, 0]	n/a	catFR1	0	R1163T
3340.824	1.617	3362662	WORD	n/a	wordpools/wordpool_categorized_EN.txt	TUBA	Instruments	9	22	[0, 0, 0]	n/a	catFR1	0	R1163T
3342.441	0.783	3364278	WORD_OFF	n/a	n/a	TUBA	n/a	9	22	[0, 0, 0]	n/a	catFR1	0	R1163T
3343.224	1.618	3365061	WORD	n/a	wordpools/wordpool_categorized_EN.txt	TROMBONE	Instruments	10	22	[0, 0, 0]	n/a	catFR1	0	R1163T
3344.842	0.933	3366679	WORD_OFF	n/a	n/a	TROMBONE	n/a	10	22	[0, 0, 0]	n/a	catFR1	0	R1163T
3345.775	1.617	3367612	WORD	n/a	wordpools/wordpool_categorized_EN.txt	TIGER	Zoo	11	22	[0, 0, 0]	n/a	catFR1	0	R1163T
3347.392	0.783	3369229	WORD_OFF	n/a	n/a	TIGER	n/a	11	22	[0, 0, 0]	n/a	catFR1	0	R1163T
3348.175	1.617	3370012	WORD	n/a	wordpools/wordpool_categorized_EN.txt	CHIMPANZEE	Zoo	12	22	[0, 0, 0]	n/a	catFR1	0	R1163T
3349.792	0.0	3371629	ENCODING_END	n/a	n/a	n/a	n/a	-999	22	[0, 0, 0]	n/a	catFR1	0	R1163T
3349.792	0.102	3371629	WORD_OFF	n/a	n/a	CHIMPANZEE	n/a	12	22	[0, 0, 0]	n/a	catFR1	0	R1163T
3349.894	0.001	3371731	DISTRACT_START	n/a	n/a	n/a	n/a	-999	22	[0, 0, 0]	n/a	catFR1	0	R1163T
3349.895	0.015	3371732	START	n/a	n/a	n/a	n/a	-999	23	[-999, -999, -999]	n/a	catFR1	0	R1163T
3349.91	15.618	3371747	PROB	15.588	n/a	n/a	n/a	-999	23	[7, 3, 9]	19.0	catFR1	0	R1163T
3365.528	16.914	3387364	PROB	16.914	n/a	n/a	n/a	-999	23	[8, 7, 4]	21.0	catFR1	0	R1163T
3382.442	0.006	3404277	STOP	n/a	n/a	n/a	n/a	-999	23	[-999, -999, -999]	n/a	catFR1	0	R1163T
3382.448	0.618	3404283	DISTRACT_END	n/a	n/a	n/a	n/a	-999	22	[0, 0, 0]	n/a	catFR1	0	R1163T
3383.066	0.517	3404901	RETRIEVAL_ORIENT	n/a	n/a	n/a	n/a	-999	22	[0, 0, 0]	n/a	catFR1	0	R1163T
3383.583	29.994	3405418	REC_START	n/a	n/a	n/a	n/a	-999	22	[0, 0, 0]	n/a	catFR1	0	R1163T
3413.577	0.016	3435410	REC_WORD_VV	29.994	n/a	<>	n/a	-999	22	[0, 0, 0]	n/a	catFR1	0	R1163T
3413.593	7.779	3435426	REC_END	n/a	n/a	n/a	n/a	-999	22	[0, 0, 0]	n/a	catFR1	0	R1163T
3421.372	0.5	3443205	TRIAL	n/a	n/a	n/a	n/a	-999	23	[0, 0, 0]	n/a	catFR1	0	R1163T
3421.872	10.428	3443705	COUNTDOWN_START	n/a	n/a	n/a	n/a	-999	23	[0, 0, 0]	n/a	catFR1	0	R1163T
3432.3	0.007	3454132	COUNTDOWN_END	n/a	n/a	n/a	n/a	-999	23	[0, 0, 0]	n/a	catFR1	0	R1163T
3432.307	1.618	3454139	ORIENT	n/a	n/a	n/a	n/a	-999	23	[0, 0, 0]	n/a	catFR1	0	R1163T
3433.925	1.984	3455757	ORIENT_OFF	n/a	n/a	n/a	n/a	-999	23	[0, 0, 0]	n/a	catFR1	0	R1163T
3435.909	1.616	3457741	WORD	n/a	wordpools/wordpool_categorized_EN.txt	BOOKCASE	Furniture	1	23	[0, 0, 0]	n/a	catFR1	0	R1163T
3437.525	0.833	3459357	WORD_OFF	n/a	n/a	BOOKCASE	n/a	1	23	[0, 0, 0]	n/a	catFR1	0	R1163T
3438.358	1.601	3460190	WORD	n/a	wordpools/wordpool_categorized_EN.txt	BED	Furniture	2	23	[0, 0, 0]	n/a	catFR1	0	R1163T
3439.959	0.934	3461791	WORD_OFF	n/a	n/a	BED	n/a	2	23	[0, 0, 0]	n/a	catFR1	0	R1163T
3440.893	1.616	3462725	WORD	n/a	wordpools/wordpool_categorized_EN.txt	ORANGE	Fruit	3	23	[0, 0, 0]	n/a	catFR1	0	R1163T
3442.509	0.85	3464341	WORD_OFF	n/a	n/a	ORANGE	n/a	3	23	[0, 0, 0]	n/a	catFR1	0	R1163T
3443.359	1.618	3465190	WORD	n/a	wordpools/wordpool_categorized_EN.txt	BLUEBERRY	Fruit	4	23	[0, 0, 0]	n/a	catFR1	0	R1163T
3444.977	0.867	3466808	WORD_OFF	n/a	n/a	BLUEBERRY	n/a	4	23	[0, 0, 0]	n/a	catFR1	0	R1163T
3445.844	1.616	3467675	WORD	n/a	wordpools/wordpool_categorized_EN.txt	OCTOPUS	OceanAnimals	5	23	[0, 0, 0]	n/a	catFR1	0	R1163T
3447.46	0.983	3469291	WORD_OFF	n/a	n/a	OCTOPUS	n/a	5	23	[0, 0, 0]	n/a	catFR1	0	R1163T
3448.443	1.618	3470274	WORD	n/a	wordpools/wordpool_categorized_EN.txt	DOLPHIN	OceanAnimals	6	23	[0, 0, 0]	n/a	catFR1	0	R1163T
3450.061	0.951	3471892	WORD_OFF	n/a	n/a	DOLPHIN	n/a	6	23	[0, 0, 0]	n/a	catFR1	0	R1163T
3451.012	1.616	3472843	WORD	n/a	wordpools/wordpool_categorized_EN.txt	DRESSER	Furniture	7	23	[0, 0, 0]	n/a	catFR1	0	R1163T
3452.628	0.916	3474459	WORD_OFF	n/a	n/a	DRESSER	n/a	7	23	[0, 0, 0]	n/a	catFR1	0	R1163T
3453.544	1.617	3475375	WORD	n/a	wordpools/wordpool_categorized_EN.txt	NIGHTSTAND	Furniture	8	23	[0, 0, 0]	n/a	catFR1	0	R1163T
3455.161	0.984	3476992	WORD_OFF	n/a	n/a	NIGHTSTAND	n/a	8	23	[0, 0, 0]	n/a	catFR1	0	R1163T
3456.145	1.617	3477976	WORD	n/a	wordpools/wordpool_categorized_EN.txt	BANANA	Fruit	9	23	[0, 0, 0]	n/a	catFR1	0	R1163T
3457.762	0.933	3479593	WORD_OFF	n/a	n/a	BANANA	n/a	9	23	[0, 0, 0]	n/a	catFR1	0	R1163T
3458.695	1.617	3480526	WORD	n/a	wordpools/wordpool_categorized_EN.txt	APPLE	Fruit	10	23	[0, 0, 0]	n/a	catFR1	0	R1163T
3460.312	0.8	3482142	WORD_OFF	n/a	n/a	APPLE	n/a	10	23	[0, 0, 0]	n/a	catFR1	0	R1163T
3461.112	1.617	3482942	WORD	n/a	wordpools/wordpool_categorized_EN.txt	LOBSTER	OceanAnimals	11	23	[0, 0, 0]	n/a	catFR1	0	R1163T
3462.729	1.017	3484559	WORD_OFF	n/a	n/a	LOBSTER	n/a	11	23	[0, 0, 0]	n/a	catFR1	0	R1163T
3463.746	1.617	3485576	WORD	n/a	wordpools/wordpool_categorized_EN.txt	PLANKTON	OceanAnimals	12	23	[0, 0, 0]	n/a	catFR1	0	R1163T
3465.363	0.0	3487193	ENCODING_END	n/a	n/a	n/a	n/a	-999	23	[0, 0, 0]	n/a	catFR1	0	R1163T
3465.363	0.103	3487193	WORD_OFF	n/a	n/a	PLANKTON	n/a	12	23	[0, 0, 0]	n/a	catFR1	0	R1163T
3465.466	0.0	3487296	DISTRACT_START	n/a	n/a	n/a	n/a	-999	23	[0, 0, 0]	n/a	catFR1	0	R1163T
3465.466	0.014	3487296	START	n/a	n/a	n/a	n/a	-999	24	[-999, -999, -999]	n/a	catFR1	0	R1163T
3465.48	21.018	3487310	PROB	21.018	n/a	n/a	n/a	-999	24	[6, 9, 3]	19.0	catFR1	0	R1163T
3486.498	0.019	3508327	STOP	n/a	n/a	n/a	n/a	-999	24	[-999, -999, -999]	n/a	catFR1	0	R1163T
3486.517	0.551	3508346	DISTRACT_END	n/a	n/a	n/a	n/a	-999	23	[0, 0, 0]	n/a	catFR1	0	R1163T
3487.068	0.517	3508897	RETRIEVAL_ORIENT	n/a	n/a	n/a	n/a	-999	23	[0, 0, 0]	n/a	catFR1	0	R1163T
3487.585	5.536	3509414	REC_START	n/a	n/a	n/a	n/a	-999	23	[0, 0, 0]	n/a	catFR1	0	R1163T
3493.121	24.474	3514950	REC_WORD	5.536	n/a	BED	Furniture	2	23	[0, 0, 0]	n/a	catFR1	0	R1163T
3517.595	10.796	3539422	REC_END	n/a	n/a	n/a	n/a	-999	23	[0, 0, 0]	n/a	catFR1	0	R1163T
3528.391	0.5	3550217	TRIAL	n/a	n/a	n/a	n/a	-999	24	[0, 0, 0]	n/a	catFR1	0	R1163T
3528.891	10.428	3550717	COUNTDOWN_START	n/a	n/a	n/a	n/a	-999	24	[0, 0, 0]	n/a	catFR1	0	R1163T
3539.319	0.008	3561145	COUNTDOWN_END	n/a	n/a	n/a	n/a	-999	24	[0, 0, 0]	n/a	catFR1	0	R1163T
3539.327	1.618	3561153	ORIENT	n/a	n/a	n/a	n/a	-999	24	[0, 0, 0]	n/a	catFR1	0	R1163T
3540.945	2.149	3562771	ORIENT_OFF	n/a	n/a	n/a	n/a	-999	24	[0, 0, 0]	n/a	catFR1	0	R1163T
3543.094	1.617	3564920	WORD	n/a	wordpools/wordpool_categorized_EN.txt	DOLLHOUSE	Toys	1	24	[0, 0, 0]	n/a	catFR1	0	R1163T
3544.711	0.817	3566536	WORD_OFF	n/a	n/a	DOLLHOUSE	n/a	1	24	[0, 0, 0]	n/a	catFR1	0	R1163T
3545.528	1.617	3567353	WORD	n/a	wordpools/wordpool_categorized_EN.txt	MARBLES	Toys	2	24	[0, 0, 0]	n/a	catFR1	0	R1163T
3547.145	0.95	3568970	WORD_OFF	n/a	n/a	MARBLES	n/a	2	24	[0, 0, 0]	n/a	catFR1	0	R1163T
3548.095	1.617	3569920	WORD	n/a	wordpools/wordpool_categorized_EN.txt	RECLINER	Furniture	3	24	[0, 0, 0]	n/a	catFR1	0	R1163T
3549.712	0.883	3571537	WORD_OFF	n/a	n/a	RECLINER	n/a	3	24	[0, 0, 0]	n/a	catFR1	0	R1163T
3550.595	1.617	3572420	WORD	n/a	wordpools/wordpool_categorized_EN.txt	SOFA	Furniture	4	24	[0, 0, 0]	n/a	catFR1	0	R1163T
3552.212	1.001	3574037	WORD_OFF	n/a	n/a	SOFA	n/a	4	24	[0, 0, 0]	n/a	catFR1	0	R1163T
3553.213	1.616	3575038	WORD	n/a	wordpools/wordpool_categorized_EN.txt	WINE	Beverages	5	24	[0, 0, 0]	n/a	catFR1	0	R1163T
3554.829	0.767	3576654	WORD_OFF	n/a	n/a	WINE	n/a	5	24	[0, 0, 0]	n/a	catFR1	0	R1163T
3555.596	1.617	3577421	WORD	n/a	wordpools/wordpool_categorized_EN.txt	RUM	Beverages	6	24	[0, 0, 0]	n/a	catFR1	0	R1163T
3557.213	0.984	3579038	WORD_OFF	n/a	n/a	RUM	n/a	6	24	[0, 0, 0]	n/a	catFR1	0	R1163T
3558.197	1.617	3580022	WORD	n/a	wordpools/wordpool_categorized_EN.txt	DOLL	Toys	7	24	[0, 0, 0]	n/a	catFR1	0	R1163T
3559.814	0.85	3581639	WORD_OFF	n/a	n/a	DOLL	n/a	7	24	[0, 0, 0]	n/a	catFR1	0	R1163T
3560.664	1.617	3582489	WORD	n/a	wordpools/wordpool_categorized_EN.txt	BLOCKS	Toys	8	24	[0, 0, 0]	n/a	catFR1	0	R1163T
3562.281	0.784	3584105	WORD_OFF	n/a	n/a	BLOCKS	n/a	8	24	[0, 0, 0]	n/a	catFR1	0	R1163T
3563.065	1.616	3584889	WORD	n/a	wordpools/wordpool_categorized_EN.txt	DESK	Furniture	9	24	[0, 0, 0]	n/a	catFR1	0	R1163T
3564.681	0.867	3586505	WORD_OFF	n/a	n/a	DESK	n/a	9	24	[0, 0, 0]	n/a	catFR1	0	R1163T
3565.548	1.617	3587372	WORD	n/a	wordpools/wordpool_categorized_EN.txt	TABLE	Furniture	10	24	[0, 0, 0]	n/a	catFR1	0	R1163T
3567.165	0.868	3588989	WORD_OFF	n/a	n/a	TABLE	n/a	10	24	[0, 0, 0]	n/a	catFR1	0	R1163T
3568.033	1.616	3589857	WORD	n/a	wordpools/wordpool_categorized_EN.txt	MILK	Beverages	11	24	[0, 0, 0]	n/a	catFR1	0	R1163T
3569.649	0.883	3591473	WORD_OFF	n/a	n/a	MILK	n/a	11	24	[0, 0, 0]	n/a	catFR1	0	R1163T
3570.532	1.617	3592356	WORD	n/a	wordpools/wordpool_categorized_EN.txt	BEER	Beverages	12	24	[0, 0, 0]	n/a	catFR1	0	R1163T
3572.149	0.001	3593973	WORD_OFF	n/a	n/a	BEER	n/a	12	24	[0, 0, 0]	n/a	catFR1	0	R1163T
3572.15	0.136	3593974	ENCODING_END	n/a	n/a	n/a	n/a	-999	24	[0, 0, 0]	n/a	catFR1	0	R1163T
3572.286	0.0	3594110	DISTRACT_START	n/a	n/a	n/a	n/a	-999	24	[0, 0, 0]	n/a	catFR1	0	R1163T
3572.286	0.013	3594110	START	n/a	n/a	n/a	n/a	-999	25	[-999, -999, -999]	n/a	catFR1	0	R1163T
3572.299	19.738	3594123	PROB	19.713	n/a	n/a	n/a	-999	25	[6, 9, 6]	21.0	catFR1	0	R1163T
3592.037	36.373	3613860	PROB	36.373	n/a	n/a	n/a	-999	25	[8, 8, 1]	19.0	catFR1	0	R1163T
3628.41	0.016	3650230	STOP	n/a	n/a	n/a	n/a	-999	25	[-999, -999, -999]	n/a	catFR1	0	R1163T
3628.426	0.667	3650246	DISTRACT_END	n/a	n/a	n/a	n/a	-999	24	[0, 0, 0]	n/a	catFR1	0	R1163T
3629.093	0.517	3650913	RETRIEVAL_ORIENT	n/a	n/a	n/a	n/a	-999	24	[0, 0, 0]	n/a	catFR1	0	R1163T
3629.61	18.64	3651430	REC_START	n/a	n/a	n/a	n/a	-999	24	[0, 0, 0]	n/a	catFR1	0	R1163T
3648.25	11.371	3670069	REC_WORD	18.64	n/a	BEER	Beverages	12	24	[0, 0, 0]	n/a	catFR1	0	R1163T
3659.621	47.036	3681440	REC_END	n/a	n/a	n/a	n/a	-999	24	[0, 0, 0]	n/a	catFR1	0	R1163T
3706.657	0.5	3728473	TRIAL	n/a	n/a	n/a	n/a	-999	25	[0, 0, 0]	n/a	catFR1	0	R1163T
3707.157	10.428	3728973	COUNTDOWN_START	n/a	n/a	n/a	n/a	-999	25	[0, 0, 0]	n/a	catFR1	0	R1163T
3717.585	0.008	3739400	COUNTDOWN_END	n/a	n/a	n/a	n/a	-999	25	[0, 0, 0]	n/a	catFR1	0	R1163T
3717.593	1.616	3739408	ORIENT	n/a	n/a	n/a	n/a	-999	25	[0, 0, 0]	n/a	catFR1	0	R1163T
3719.209	2.051	3741024	ORIENT_OFF	n/a	n/a	n/a	n/a	-999	25	[0, 0, 0]	n/a	catFR1	0	R1163T
3721.26	1.618	3743075	WORD	n/a	wordpools/wordpool_categorized_EN.txt	WIND	Weather	1	25	[0, 0, 0]	n/a	catFR1	0	R1163T
3722.878	0.916	3744693	WORD_OFF	n/a	n/a	WIND	n/a	1	25	[0, 0, 0]	n/a	catFR1	0	R1163T
3723.794	1.617	3745609	WORD	n/a	wordpools/wordpool_categorized_EN.txt	RAIN	Weather	2	25	[0, 0, 0]	n/a	catFR1	0	R1163T
3725.411	0.916	3747226	WORD_OFF	n/a	n/a	RAIN	n/a	2	25	[0, 0, 0]	n/a	catFR1	0	R1163T
3726.327	1.602	3748142	WORD	n/a	wordpools/wordpool_categorized_EN.txt	WHALE	OceanAnimals	3	25	[0, 0, 0]	n/a	catFR1	0	R1163T
3727.929	0.849	3749744	WORD_OFF	n/a	n/a	WHALE	n/a	3	25	[0, 0, 0]	n/a	catFR1	0	R1163T
3728.778	1.617	3750593	WORD	n/a	wordpools/wordpool_categorized_EN.txt	CRAB	OceanAnimals	4	25	[0, 0, 0]	n/a	catFR1	0	R1163T
3730.395	0.817	3752209	WORD_OFF	n/a	n/a	CRAB	n/a	4	25	[0, 0, 0]	n/a	catFR1	0	R1163T
3731.212	1.617	3753026	WORD	n/a	wordpools/wordpool_categorized_EN.txt	TRUMPET	Instruments	5	25	[0, 0, 0]	n/a	catFR1	0	R1163T
3732.829	0.85	3754643	WORD_OFF	n/a	n/a	TRUMPET	n/a	5	25	[0, 0, 0]	n/a	catFR1	0	R1163T
3733.679	1.617	3755493	WORD	n/a	wordpools/wordpool_categorized_EN.txt	DRUM	Instruments	6	25	[0, 0, 0]	n/a	catFR1	0	R1163T
3735.296	0.767	3757110	WORD_OFF	n/a	n/a	DRUM	n/a	6	25	[0, 0, 0]	n/a	catFR1	0	R1163T
