onset	duration	sample	trial_type	response_time	stim_file	item_name	category	serialpos	list	test	answer	experiment	session	subject
0.0	0.0	845211	INSTRUCT_START	n/a	n/a	n/a	n/a	-999	-999	[0, 0, 0]	n/a	catFR1	1	R1207J
0.0	11.142	845211	INSTRUCT_END	n/a	n/a	n/a	n/a	-999	-999	[0, 0, 0]	n/a	catFR1	1	R1207J
11.142	0.0	856353	SESS_START	n/a	n/a	n/a	n/a	-999	-999	[0, 0, 0]	n/a	catFR1	1	R1207J
11.142	14.001	856353	MIC_TEST	n/a	n/a	n/a	n/a	-999	-999	[0, 0, 0]	n/a	catFR1	1	R1207J
25.143	2.027	870354	PRACTICE_TRIAL	n/a	n/a	n/a	n/a	-999	-1	[0, 0, 0]	n/a	catFR1	1	R1207J
27.17	10.428	872381	COUNTDOWN_START	n/a	n/a	n/a	n/a	-999	-1	[0, 0, 0]	n/a	catFR1	1	R1207J
37.598	0.024	882809	COUNTDOWN_END	n/a	n/a	n/a	n/a	-999	-1	[0, 0, 0]	n/a	catFR1	1	R1207J
37.622	1.615	882833	PRACTICE_ORIENT	n/a	n/a	n/a	n/a	-999	-1	[0, 0, 0]	n/a	catFR1	1	R1207J
39.237	1.784	884448	PRACTICE_ORIENT_OFF	n/a	n/a	n/a	n/a	-999	-1	[0, 0, 0]	n/a	catFR1	1	R1207J
41.021	1.618	886232	PRACTICE_WORD	n/a	n/a	IRON	n/a	-1	-1	[0, 0, 0]	n/a	catFR1	1	R1207J
42.639	0.917	887850	PRACTICE_WORD_OFF	n/a	n/a	IRON	n/a	-999	-1	[0, 0, 0]	n/a	catFR1	1	R1207J
43.556	1.616	888767	PRACTICE_WORD	n/a	n/a	ATTIC	n/a	-1	-1	[0, 0, 0]	n/a	catFR1	1	R1207J
45.172	0.801	890383	PRACTICE_WORD_OFF	n/a	n/a	ATTIC	n/a	-999	-1	[0, 0, 0]	n/a	catFR1	1	R1207J
45.973	1.617	891184	PRACTICE_WORD	n/a	n/a	FLOOD	n/a	-1	-1	[0, 0, 0]	n/a	catFR1	1	R1207J
47.59	0.782	892801	PRACTICE_WORD_OFF	n/a	n/a	FLOOD	n/a	-999	-1	[0, 0, 0]	n/a	catFR1	1	R1207J
48.372	1.601	893583	PRACTICE_WORD	n/a	n/a	CHEST	n/a	-1	-1	[0, 0, 0]	n/a	catFR1	1	R1207J
49.973	0.817	895184	PRACTICE_WORD_OFF	n/a	n/a	CHEST	n/a	-999	-1	[0, 0, 0]	n/a	catFR1	1	R1207J
50.79	1.616	896001	PRACTICE_WORD	n/a	n/a	CAMEL	n/a	-1	-1	[0, 0, 0]	n/a	catFR1	1	R1207J
52.406	0.833	897617	PRACTICE_WORD_OFF	n/a	n/a	CAMEL	n/a	-999	-1	[0, 0, 0]	n/a	catFR1	1	R1207J
53.239	1.601	898450	PRACTICE_WORD	n/a	n/a	WAGON	n/a	-1	-1	[0, 0, 0]	n/a	catFR1	1	R1207J
54.84	0.901	900051	PRACTICE_WORD_OFF	n/a	n/a	WAGON	n/a	-999	-1	[0, 0, 0]	n/a	catFR1	1	R1207J
55.741	1.616	900952	PRACTICE_WORD	n/a	n/a	TONGUE	n/a	-1	-1	[0, 0, 0]	n/a	catFR1	1	R1207J
57.357	0.933	902568	PRACTICE_WORD_OFF	n/a	n/a	TONGUE	n/a	-999	-1	[0, 0, 0]	n/a	catFR1	1	R1207J
58.29	1.618	903501	PRACTICE_WORD	n/a	n/a	WATCH	n/a	-1	-1	[0, 0, 0]	n/a	catFR1	1	R1207J
59.908	0.933	905119	PRACTICE_WORD_OFF	n/a	n/a	WATCH	n/a	-999	-1	[0, 0, 0]	n/a	catFR1	1	R1207J
60.841	1.616	906052	PRACTICE_WORD	n/a	n/a	RHINO	n/a	-1	-1	[0, 0, 0]	n/a	catFR1	1	R1207J
62.457	0.95	907668	PRACTICE_WORD_OFF	n/a	n/a	RHINO	n/a	-999	-1	[0, 0, 0]	n/a	catFR1	1	R1207J
63.407	1.617	908618	PRACTICE_WORD	n/a	n/a	BEAM	n/a	-1	-1	[0, 0, 0]	n/a	catFR1	1	R1207J
65.024	0.918	910235	PRACTICE_WORD_OFF	n/a	n/a	BEAM	n/a	-999	-1	[0, 0, 0]	n/a	catFR1	1	R1207J
65.942	1.617	911153	PRACTICE_WORD	n/a	n/a	RING	n/a	-1	-1	[0, 0, 0]	n/a	catFR1	1	R1207J
67.559	0.966	912770	PRACTICE_WORD_OFF	n/a	n/a	RING	n/a	-999	-1	[0, 0, 0]	n/a	catFR1	1	R1207J
68.525	1.616	913736	PRACTICE_WORD	n/a	n/a	COTTON	n/a	-1	-1	[0, 0, 0]	n/a	catFR1	1	R1207J
70.141	0.001	915352	PRACTICE_WORD_OFF	n/a	n/a	COTTON	n/a	-999	-1	[0, 0, 0]	n/a	catFR1	1	R1207J
70.142	0.0	915353	ENCODING_END	n/a	n/a	n/a	n/a	-999	-1	[0, 0, 0]	n/a	catFR1	1	R1207J
70.142	0.0	915353	DISTRACT_START	n/a	n/a	n/a	n/a	-999	-1	[0, 0, 0]	n/a	catFR1	1	R1207J
70.142	0.016	915353	START	n/a	n/a	n/a	n/a	-999	-1	[-999, -999, -999]	n/a	catFR1	1	R1207J
70.158	20.957	915369	PROB	20.957	n/a	n/a	n/a	-999	-1	[8, 7, 9]	25	catFR1	1	R1207J
91.115	0.013	936326	STOP	n/a	n/a	n/a	n/a	-999	-1	[-999, -999, -999]	n/a	catFR1	1	R1207J
91.128	0.551	936339	DISTRACT_END	n/a	n/a	n/a	n/a	-999	-1	[0, 0, 0]	n/a	catFR1	1	R1207J
91.679	0.516	936890	RETRIEVAL_ORIENT	n/a	n/a	n/a	n/a	-999	-1	[0, 0, 0]	n/a	catFR1	1	R1207J
92.195	30.012	937406	PRACTICE_REC_START	n/a	n/a	n/a	n/a	-999	-1	[0, 0, 0]	n/a	catFR1	1	R1207J
122.207	12.91	967418	PRACTICE_REC_END	n/a	n/a	n/a	n/a	-999	-1	[0, 0, 0]	n/a	catFR1	1	R1207J
135.117	0.5	980329	TRIAL	n/a	n/a	n/a	n/a	-999	1	[0, 0, 0]	n/a	catFR1	1	R1207J
135.617	10.428	980829	COUNTDOWN_START	n/a	n/a	n/a	n/a	-999	1	[0, 0, 0]	n/a	catFR1	1	R1207J
146.045	0.006	991257	COUNTDOWN_END	n/a	n/a	n/a	n/a	-999	1	[0, 0, 0]	n/a	catFR1	1	R1207J
146.051	1.601	991263	ORIENT	n/a	n/a	n/a	n/a	-999	1	[0, 0, 0]	n/a	catFR1	1	R1207J
147.652	1.934	992864	ORIENT_OFF	n/a	n/a	n/a	n/a	-999	1	[0, 0, 0]	n/a	catFR1	1	R1207J
149.586	1.616	994798	WORD	n/a	wordpools/wordpool_categorized_EN.txt	BOAT	Vehicles	1	1	[0, 0, 0]	n/a	catFR1	1	R1207J
151.202	0.933	996414	WORD_OFF	n/a	n/a	BOAT	n/a	1	1	[0, 0, 0]	n/a	catFR1	1	R1207J
152.135	1.601	997347	WORD	n/a	wordpools/wordpool_categorized_EN.txt	TRAIN	Vehicles	2	1	[0, 0, 0]	n/a	catFR1	1	R1207J
153.736	1.001	998948	WORD_OFF	n/a	n/a	TRAIN	n/a	2	1	[0, 0, 0]	n/a	catFR1	1	R1207J
154.737	1.616	999949	WORD	n/a	wordpools/wordpool_categorized_EN.txt	STRAWBERRY	Fruit	3	1	[0, 0, 0]	n/a	catFR1	1	R1207J
156.353	0.983	1001565	WORD_OFF	n/a	n/a	STRAWBERRY	n/a	3	1	[0, 0, 0]	n/a	catFR1	1	R1207J
157.336	1.618	1002548	WORD	n/a	wordpools/wordpool_categorized_EN.txt	PEAR	Fruit	4	1	[0, 0, 0]	n/a	catFR1	1	R1207J
158.954	0.95	1004166	WORD_OFF	n/a	n/a	PEAR	n/a	4	1	[0, 0, 0]	n/a	catFR1	1	R1207J
159.904	1.616	1005116	WORD	n/a	wordpools/wordpool_categorized_EN.txt	TULIP	Flowers	5	1	[0, 0, 0]	n/a	catFR1	1	R1207J
161.52	0.767	1006732	WORD_OFF	n/a	n/a	TULIP	n/a	5	1	[0, 0, 0]	n/a	catFR1	1	R1207J
162.287	1.618	1007499	WORD	n/a	wordpools/wordpool_categorized_EN.txt	DAFFODIL	Flowers	6	1	[0, 0, 0]	n/a	catFR1	1	R1207J
163.905	0.983	1009117	WORD_OFF	n/a	n/a	DAFFODIL	n/a	6	1	[0, 0, 0]	n/a	catFR1	1	R1207J
164.888	1.616	1010100	WORD	n/a	wordpools/wordpool_categorized_EN.txt	PEACH	Fruit	7	1	[0, 0, 0]	n/a	catFR1	1	R1207J
166.504	0.933	1011716	WORD_OFF	n/a	n/a	PEACH	n/a	7	1	[0, 0, 0]	n/a	catFR1	1	R1207J
167.437	1.617	1012649	WORD	n/a	wordpools/wordpool_categorized_EN.txt	CHERRY	Fruit	8	1	[0, 0, 0]	n/a	catFR1	1	R1207J
169.054	0.818	1014266	WORD_OFF	n/a	n/a	CHERRY	n/a	8	1	[0, 0, 0]	n/a	catFR1	1	R1207J
169.872	1.616	1015084	WORD	n/a	wordpools/wordpool_categorized_EN.txt	JEEP	Vehicles	9	1	[0, 0, 0]	n/a	catFR1	1	R1207J
171.488	0.983	1016700	WORD_OFF	n/a	n/a	JEEP	n/a	9	1	[0, 0, 0]	n/a	catFR1	1	R1207J
172.471	1.617	1017683	WORD	n/a	wordpools/wordpool_categorized_EN.txt	MOTORCYCLE	Vehicles	10	1	[0, 0, 0]	n/a	catFR1	1	R1207J
174.088	0.934	1019300	WORD_OFF	n/a	n/a	MOTORCYCLE	n/a	10	1	[0, 0, 0]	n/a	catFR1	1	R1207J
175.022	1.618	1020234	WORD	n/a	wordpools/wordpool_categorized_EN.txt	PETUNIA	Flowers	11	1	[0, 0, 0]	n/a	catFR1	1	R1207J
176.64	0.882	1021852	WORD_OFF	n/a	n/a	PETUNIA	n/a	11	1	[0, 0, 0]	n/a	catFR1	1	R1207J
177.522	1.617	1022734	WORD	n/a	wordpools/wordpool_categorized_EN.txt	LILAC	Flowers	12	1	[0, 0, 0]	n/a	catFR1	1	R1207J
179.139	0.0	1024351	WORD_OFF	n/a	n/a	LILAC	n/a	12	1	[0, 0, 0]	n/a	catFR1	1	R1207J
179.139	0.129	1024351	ENCODING_END	n/a	n/a	n/a	n/a	-999	1	[0, 0, 0]	n/a	catFR1	1	R1207J
179.268	0.0	1024480	DISTRACT_START	n/a	n/a	n/a	n/a	-999	1	[0, 0, 0]	n/a	catFR1	1	R1207J
179.268	0.021	1024480	START	n/a	n/a	n/a	n/a	-999	1	[-999, -999, -999]	n/a	catFR1	1	R1207J
179.289	3.585	1024501	PROB	3.585	n/a	n/a	n/a	-999	1	[5, 2, 2]	9	catFR1	1	R1207J
182.874	5.05	1028086	PROB	5.05	n/a	n/a	n/a	-999	1	[6, 8, 1]	15	catFR1	1	R1207J
187.924	3.734	1033136	PROB	3.734	n/a	n/a	n/a	-999	1	[7, 4, 3]	14	catFR1	1	R1207J
191.658	6.084	1036870	PROB	6.084	n/a	n/a	n/a	-999	1	[2, 5, 6]	13	catFR1	1	R1207J
197.742	3.913	1042954	PROB	3.913	n/a	n/a	n/a	-999	1	[2, 1, 4]	7	catFR1	1	R1207J
201.655	0.021	1046867	STOP	n/a	n/a	n/a	n/a	-999	1	[-999, -999, -999]	n/a	catFR1	1	R1207J
201.676	0.566	1046888	DISTRACT_END	n/a	n/a	n/a	n/a	-999	1	[0, 0, 0]	n/a	catFR1	1	R1207J
202.242	0.518	1047454	RETRIEVAL_ORIENT	n/a	n/a	n/a	n/a	-999	1	[0, 0, 0]	n/a	catFR1	1	R1207J
202.76	1.453	1047972	REC_START	n/a	n/a	n/a	n/a	-999	1	[0, 0, 0]	n/a	catFR1	1	R1207J
204.213	1.038	1049425	REC_WORD	1.038	n/a	DAFFODIL	Flowers	6	1	[0, 0, 0]	n/a	catFR1	1	R1207J
205.251	1.652	1050463	REC_WORD	1.652	n/a	PETUNIA	Flowers	11	1	[0, 0, 0]	n/a	catFR1	1	R1207J
206.903	14.95	1052115	REC_WORD	14.95	n/a	TULIP	Flowers	5	1	[0, 0, 0]	n/a	catFR1	1	R1207J
221.853	4.282	1067065	REC_WORD_VV	4.282	n/a	<>	n/a	-999	1	[0, 0, 0]	n/a	catFR1	1	R1207J
226.135	6.636	1071347	REC_WORD	6.636	n/a	LILAC	Flowers	12	1	[0, 0, 0]	n/a	catFR1	1	R1207J
232.771	5.409	1077983	REC_END	n/a	n/a	n/a	n/a	-999	1	[0, 0, 0]	n/a	catFR1	1	R1207J
238.18	0.5	1083392	TRIAL	n/a	n/a	n/a	n/a	-999	2	[0, 0, 0]	n/a	catFR1	1	R1207J
238.68	10.428	1083892	COUNTDOWN_START	n/a	n/a	n/a	n/a	-999	2	[0, 0, 0]	n/a	catFR1	1	R1207J
249.108	0.006	1094320	COUNTDOWN_END	n/a	n/a	n/a	n/a	-999	2	[0, 0, 0]	n/a	catFR1	1	R1207J
249.114	1.601	1094326	ORIENT	n/a	n/a	n/a	n/a	-999	2	[0, 0, 0]	n/a	catFR1	1	R1207J
250.715	2.167	1095927	ORIENT_OFF	n/a	n/a	n/a	n/a	-999	2	[0, 0, 0]	n/a	catFR1	1	R1207J
252.882	1.616	1098094	WORD	n/a	wordpools/wordpool_categorized_EN.txt	FREEZER	Appliances	1	2	[0, 0, 0]	n/a	catFR1	1	R1207J
254.498	0.951	1099710	WORD_OFF	n/a	n/a	FREEZER	n/a	1	2	[0, 0, 0]	n/a	catFR1	1	R1207J
255.449	1.617	1100661	WORD	n/a	wordpools/wordpool_categorized_EN.txt	VACUUM	Appliances	2	2	[0, 0, 0]	n/a	catFR1	1	R1207J
257.066	0.851	1102278	WORD_OFF	n/a	n/a	VACUUM	n/a	2	2	[0, 0, 0]	n/a	catFR1	1	R1207J
257.917	1.615	1103129	WORD	n/a	wordpools/wordpool_categorized_EN.txt	SHRIMP	OceanAnimals	3	2	[0, 0, 0]	n/a	catFR1	1	R1207J
259.532	0.9	1104744	WORD_OFF	n/a	n/a	SHRIMP	n/a	3	2	[0, 0, 0]	n/a	catFR1	1	R1207J
260.432	1.617	1105644	WORD	n/a	wordpools/wordpool_categorized_EN.txt	JELLYFISH	OceanAnimals	4	2	[0, 0, 0]	n/a	catFR1	1	R1207J
262.049	0.835	1107261	WORD_OFF	n/a	n/a	JELLYFISH	n/a	4	2	[0, 0, 0]	n/a	catFR1	1	R1207J
262.884	1.616	1108096	WORD	n/a	wordpools/wordpool_categorized_EN.txt	GIRAFFE	Zoo	5	2	[0, 0, 0]	n/a	catFR1	1	R1207J
264.5	0.917	1109712	WORD_OFF	n/a	n/a	GIRAFFE	n/a	5	2	[0, 0, 0]	n/a	catFR1	1	R1207J
265.417	1.616	1110629	WORD	n/a	wordpools/wordpool_categorized_EN.txt	CHEETAH	Zoo	6	2	[0, 0, 0]	n/a	catFR1	1	R1207J
267.033	1.001	1112245	WORD_OFF	n/a	n/a	CHEETAH	n/a	6	2	[0, 0, 0]	n/a	catFR1	1	R1207J
268.034	1.617	1113246	WORD	n/a	wordpools/wordpool_categorized_EN.txt	SQUID	OceanAnimals	7	2	[0, 0, 0]	n/a	catFR1	1	R1207J
269.651	0.967	1114863	WORD_OFF	n/a	n/a	SQUID	n/a	7	2	[0, 0, 0]	n/a	catFR1	1	R1207J
270.618	1.616	1115830	WORD	n/a	wordpools/wordpool_categorized_EN.txt	TURTLE	OceanAnimals	8	2	[0, 0, 0]	n/a	catFR1	1	R1207J
272.234	0.867	1117446	WORD_OFF	n/a	n/a	TURTLE	n/a	8	2	[0, 0, 0]	n/a	catFR1	1	R1207J
273.101	1.618	1118313	WORD	n/a	wordpools/wordpool_categorized_EN.txt	WASHER	Appliances	9	2	[0, 0, 0]	n/a	catFR1	1	R1207J
274.719	0.9	1119931	WORD_OFF	n/a	n/a	WASHER	n/a	9	2	[0, 0, 0]	n/a	catFR1	1	R1207J
275.619	1.616	1120831	WORD	n/a	wordpools/wordpool_categorized_EN.txt	OVEN	Appliances	10	2	[0, 0, 0]	n/a	catFR1	1	R1207J
277.235	0.933	1122447	WORD_OFF	n/a	n/a	OVEN	n/a	10	2	[0, 0, 0]	n/a	catFR1	1	R1207J
278.168	1.618	1123380	WORD	n/a	wordpools/wordpool_categorized_EN.txt	LION	Zoo	11	2	[0, 0, 0]	n/a	catFR1	1	R1207J
279.786	0.95	1124998	WORD_OFF	n/a	n/a	LION	n/a	11	2	[0, 0, 0]	n/a	catFR1	1	R1207J
280.736	1.616	1125948	WORD	n/a	wordpools/wordpool_categorized_EN.txt	CHIMPANZEE	Zoo	12	2	[0, 0, 0]	n/a	catFR1	1	R1207J
282.352	0.0	1127564	WORD_OFF	n/a	n/a	CHIMPANZEE	n/a	12	2	[0, 0, 0]	n/a	catFR1	1	R1207J
282.352	0.096	1127564	ENCODING_END	n/a	n/a	n/a	n/a	-999	2	[0, 0, 0]	n/a	catFR1	1	R1207J
282.448	0.0	1127660	DISTRACT_START	n/a	n/a	n/a	n/a	-999	2	[0, 0, 0]	n/a	catFR1	1	R1207J
282.448	0.021	1127660	START	n/a	n/a	n/a	n/a	-999	2	[-999, -999, -999]	n/a	catFR1	1	R1207J
282.469	5.734	1127681	PROB	5.734	n/a	n/a	n/a	-999	2	[8, 5, 9]	22	catFR1	1	R1207J
288.203	5.618	1133415	PROB	5.618	n/a	n/a	n/a	-999	2	[7, 5, 6]	18	catFR1	1	R1207J
293.821	4.051	1139033	PROB	4.051	n/a	n/a	n/a	-999	2	[4, 8, 2]	14	catFR1	1	R1207J
297.872	5.052	1143084	PROB	5.052	n/a	n/a	n/a	-999	2	[4, 8, 1]	13	catFR1	1	R1207J
302.924	0.015	1148136	STOP	n/a	n/a	n/a	n/a	-999	2	[-999, -999, -999]	n/a	catFR1	1	R1207J
302.939	0.549	1148151	DISTRACT_END	n/a	n/a	n/a	n/a	-999	2	[0, 0, 0]	n/a	catFR1	1	R1207J
303.488	0.519	1148700	RETRIEVAL_ORIENT	n/a	n/a	n/a	n/a	-999	2	[0, 0, 0]	n/a	catFR1	1	R1207J
304.007	1.314	1149219	REC_START	n/a	n/a	n/a	n/a	-999	2	[0, 0, 0]	n/a	catFR1	1	R1207J
305.321	1.0	1150533	REC_WORD	1.0	n/a	CHIMPANZEE	Zoo	12	2	[0, 0, 0]	n/a	catFR1	1	R1207J
306.321	1.062	1151533	REC_WORD_VV	1.062	n/a	<>	n/a	-999	2	[0, 0, 0]	n/a	catFR1	1	R1207J
307.383	3.555	1152595	REC_WORD	3.555	n/a	CHEETAH	Zoo	6	2	[0, 0, 0]	n/a	catFR1	1	R1207J
310.938	11.677	1156150	REC_WORD	11.677	n/a	TURTLE	OceanAnimals	8	2	[0, 0, 0]	n/a	catFR1	1	R1207J
322.615	6.851	1167827	REC_WORD	6.851	n/a	FREEZER	Appliances	1	2	[0, 0, 0]	n/a	catFR1	1	R1207J
329.466	4.55	1174678	REC_WORD	4.55	n/a	OVEN	Appliances	10	2	[0, 0, 0]	n/a	catFR1	1	R1207J
334.016	4.944	1179228	REC_END	n/a	n/a	n/a	n/a	-999	2	[0, 0, 0]	n/a	catFR1	1	R1207J
338.96	0.5	1184172	TRIAL	n/a	n/a	n/a	n/a	-999	3	[0, 0, 0]	n/a	catFR1	1	R1207J
339.46	10.428	1184672	COUNTDOWN_START	n/a	n/a	n/a	n/a	-999	3	[0, 0, 0]	n/a	catFR1	1	R1207J
349.888	0.007	1195100	COUNTDOWN_END	n/a	n/a	n/a	n/a	-999	3	[0, 0, 0]	n/a	catFR1	1	R1207J
349.895	1.616	1195107	ORIENT	n/a	n/a	n/a	n/a	-999	3	[0, 0, 0]	n/a	catFR1	1	R1207J
351.511	1.967	1196723	ORIENT_OFF	n/a	n/a	n/a	n/a	-999	3	[0, 0, 0]	n/a	catFR1	1	R1207J
353.478	1.617	1198690	WORD	n/a	wordpools/wordpool_categorized_EN.txt	NOTEBOOK	OfficeSupplies	1	3	[0, 0, 0]	n/a	catFR1	1	R1207J
355.095	0.817	1200307	WORD_OFF	n/a	n/a	NOTEBOOK	n/a	1	3	[0, 0, 0]	n/a	catFR1	1	R1207J
355.912	1.616	1201124	WORD	n/a	wordpools/wordpool_categorized_EN.txt	BINDER	OfficeSupplies	2	3	[0, 0, 0]	n/a	catFR1	1	R1207J
357.528	0.884	1202740	WORD_OFF	n/a	n/a	BINDER	n/a	2	3	[0, 0, 0]	n/a	catFR1	1	R1207J
358.412	1.616	1203624	WORD	n/a	wordpools/wordpool_categorized_EN.txt	LILY	Flowers	3	3	[0, 0, 0]	n/a	catFR1	1	R1207J
360.028	0.968	1205240	WORD_OFF	n/a	n/a	LILY	n/a	3	3	[0, 0, 0]	n/a	catFR1	1	R1207J
360.996	1.617	1206208	WORD	n/a	wordpools/wordpool_categorized_EN.txt	MARIGOLD	Flowers	4	3	[0, 0, 0]	n/a	catFR1	1	R1207J
362.613	0.816	1207825	WORD_OFF	n/a	n/a	MARIGOLD	n/a	4	3	[0, 0, 0]	n/a	catFR1	1	R1207J
363.429	1.617	1208641	WORD	n/a	wordpools/wordpool_categorized_EN.txt	SOCKS	Clothing	5	3	[0, 0, 0]	n/a	catFR1	1	R1207J
365.046	0.784	1210258	WORD_OFF	n/a	n/a	SOCKS	n/a	5	3	[0, 0, 0]	n/a	catFR1	1	R1207J
365.83	1.616	1211042	WORD	n/a	wordpools/wordpool_categorized_EN.txt	DRESS	Clothing	6	3	[0, 0, 0]	n/a	catFR1	1	R1207J
367.446	1.0	1212658	WORD_OFF	n/a	n/a	DRESS	n/a	6	3	[0, 0, 0]	n/a	catFR1	1	R1207J
368.446	1.617	1213658	WORD	n/a	wordpools/wordpool_categorized_EN.txt	GLUE	OfficeSupplies	7	3	[0, 0, 0]	n/a	catFR1	1	R1207J
370.063	1.017	1215275	WORD_OFF	n/a	n/a	GLUE	n/a	7	3	[0, 0, 0]	n/a	catFR1	1	R1207J
371.08	1.618	1216292	WORD	n/a	wordpools/wordpool_categorized_EN.txt	PEN	OfficeSupplies	8	3	[0, 0, 0]	n/a	catFR1	1	R1207J
372.698	0.967	1217910	WORD_OFF	n/a	n/a	PEN	n/a	8	3	[0, 0, 0]	n/a	catFR1	1	R1207J
373.665	1.616	1218877	WORD	n/a	wordpools/wordpool_categorized_EN.txt	CARNATION	Flowers	9	3	[0, 0, 0]	n/a	catFR1	1	R1207J
375.281	0.983	1220493	WORD_OFF	n/a	n/a	CARNATION	n/a	9	3	[0, 0, 0]	n/a	catFR1	1	R1207J
376.264	1.618	1221476	WORD	n/a	wordpools/wordpool_categorized_EN.txt	ROSE	Flowers	10	3	[0, 0, 0]	n/a	catFR1	1	R1207J
377.882	1.0	1223094	WORD_OFF	n/a	n/a	ROSE	n/a	10	3	[0, 0, 0]	n/a	catFR1	1	R1207J
378.882	1.616	1224094	WORD	n/a	wordpools/wordpool_categorized_EN.txt	SHOES	Clothing	11	3	[0, 0, 0]	n/a	catFR1	1	R1207J
380.498	0.9	1225710	WORD_OFF	n/a	n/a	SHOES	n/a	11	3	[0, 0, 0]	n/a	catFR1	1	R1207J
381.398	1.617	1226610	WORD	n/a	wordpools/wordpool_categorized_EN.txt	SHORTS	Clothing	12	3	[0, 0, 0]	n/a	catFR1	1	R1207J
383.015	0.0	1228227	WORD_OFF	n/a	n/a	SHORTS	n/a	12	3	[0, 0, 0]	n/a	catFR1	1	R1207J
383.015	0.096	1228227	ENCODING_END	n/a	n/a	n/a	n/a	-999	3	[0, 0, 0]	n/a	catFR1	1	R1207J
383.111	0.0	1228323	DISTRACT_START	n/a	n/a	n/a	n/a	-999	3	[0, 0, 0]	n/a	catFR1	1	R1207J
383.111	0.02	1228323	START	n/a	n/a	n/a	n/a	-999	3	[-999, -999, -999]	n/a	catFR1	1	R1207J
383.131	3.569	1228343	PROB	3.569	n/a	n/a	n/a	-999	3	[5, 3, 3]	11	catFR1	1	R1207J
386.7	13.235	1231912	PROB	13.235	n/a	n/a	n/a	-999	3	[7, 6, 8]	22	catFR1	1	R1207J
399.935	5.488	1245147	PROB	5.488	n/a	n/a	n/a	-999	3	[4, 5, 7]	16	catFR1	1	R1207J
405.423	0.012	1250635	STOP	n/a	n/a	n/a	n/a	-999	3	[-999, -999, -999]	n/a	catFR1	1	R1207J
405.435	0.534	1250647	DISTRACT_END	n/a	n/a	n/a	n/a	-999	3	[0, 0, 0]	n/a	catFR1	1	R1207J
405.969	0.516	1251181	RETRIEVAL_ORIENT	n/a	n/a	n/a	n/a	-999	3	[0, 0, 0]	n/a	catFR1	1	R1207J
406.485	1.2	1251697	REC_START	n/a	n/a	n/a	n/a	-999	3	[0, 0, 0]	n/a	catFR1	1	R1207J
407.685	1.738	1252897	REC_WORD	1.738	n/a	SHOES	Clothing	11	3	[0, 0, 0]	n/a	catFR1	1	R1207J
409.423	1.534	1254635	REC_WORD	1.534	n/a	SOCKS	Clothing	5	3	[0, 0, 0]	n/a	catFR1	1	R1207J
410.957	5.48	1256169	REC_WORD	5.48	n/a	SHORTS	Clothing	12	3	[0, 0, 0]	n/a	catFR1	1	R1207J
416.437	3.696	1261649	REC_WORD	3.696	n/a	LILY	Flowers	3	3	[0, 0, 0]	n/a	catFR1	1	R1207J
420.133	4.455	1265345	REC_WORD	4.455	n/a	MARIGOLD	Flowers	4	3	[0, 0, 0]	n/a	catFR1	1	R1207J
424.588	6.745	1269800	REC_WORD	6.745	n/a	CARNATION	Flowers	9	3	[0, 0, 0]	n/a	catFR1	1	R1207J
431.333	5.163	1276545	REC_WORD	5.163	n/a	ROSE	Flowers	10	3	[0, 0, 0]	n/a	catFR1	1	R1207J
436.496	4.976	1281708	REC_END	n/a	n/a	n/a	n/a	-999	3	[0, 0, 0]	n/a	catFR1	1	R1207J
441.472	0.5	1286684	TRIAL	n/a	n/a	n/a	n/a	-999	4	[0, 0, 0]	n/a	catFR1	1	R1207J
441.972	10.428	1287184	COUNTDOWN_START	n/a	n/a	n/a	n/a	-999	4	[0, 0, 0]	n/a	catFR1	1	R1207J
452.4	0.007	1297612	COUNTDOWN_END	n/a	n/a	n/a	n/a	-999	4	[0, 0, 0]	n/a	catFR1	1	R1207J
452.407	1.617	1297619	ORIENT	n/a	n/a	n/a	n/a	-999	4	[0, 0, 0]	n/a	catFR1	1	R1207J
454.024	1.885	1299236	ORIENT_OFF	n/a	n/a	n/a	n/a	-999	4	[0, 0, 0]	n/a	catFR1	1	R1207J
455.909	1.616	1301121	WORD	n/a	wordpools/wordpool_categorized_EN.txt	PRINTER	Electronics	1	4	[0, 0, 0]	n/a	catFR1	1	R1207J
457.525	0.983	1302737	WORD_OFF	n/a	n/a	PRINTER	n/a	1	4	[0, 0, 0]	n/a	catFR1	1	R1207J
458.508	1.617	1303720	WORD	n/a	wordpools/wordpool_categorized_EN.txt	PHONE	Electronics	2	4	[0, 0, 0]	n/a	catFR1	1	R1207J
460.125	0.916	1305337	WORD_OFF	n/a	n/a	PHONE	n/a	2	4	[0, 0, 0]	n/a	catFR1	1	R1207J
461.041	1.618	1306253	WORD	n/a	wordpools/wordpool_categorized_EN.txt	SCREWDRIVER	Tools	3	4	[0, 0, 0]	n/a	catFR1	1	R1207J
462.659	0.766	1307871	WORD_OFF	n/a	n/a	SCREWDRIVER	n/a	3	4	[0, 0, 0]	n/a	catFR1	1	R1207J
463.425	1.617	1308637	WORD	n/a	wordpools/wordpool_categorized_EN.txt	SANDER	Tools	4	4	[0, 0, 0]	n/a	catFR1	1	R1207J
465.042	0.785	1310254	WORD_OFF	n/a	n/a	SANDER	n/a	4	4	[0, 0, 0]	n/a	catFR1	1	R1207J
465.827	1.616	1311039	WORD	n/a	wordpools/wordpool_categorized_EN.txt	HUMIDITY	Weather	5	4	[0, 0, 0]	n/a	catFR1	1	R1207J
467.443	0.9	1312655	WORD_OFF	n/a	n/a	HUMIDITY	n/a	5	4	[0, 0, 0]	n/a	catFR1	1	R1207J
468.343	1.617	1313555	WORD	n/a	wordpools/wordpool_categorized_EN.txt	SNOW	Weather	6	4	[0, 0, 0]	n/a	catFR1	1	R1207J
469.96	0.85	1315172	WORD_OFF	n/a	n/a	SNOW	n/a	6	4	[0, 0, 0]	n/a	catFR1	1	R1207J
470.81	1.616	1316022	WORD	n/a	wordpools/wordpool_categorized_EN.txt	HEADPHONES	Electronics	7	4	[0, 0, 0]	n/a	catFR1	1	R1207J
472.426	0.984	1317638	WORD_OFF	n/a	n/a	HEADPHONES	n/a	7	4	[0, 0, 0]	n/a	catFR1	1	R1207J
473.41	1.617	1318622	WORD	n/a	wordpools/wordpool_categorized_EN.txt	RADIO	Electronics	8	4	[0, 0, 0]	n/a	catFR1	1	R1207J
475.027	0.818	1320239	WORD_OFF	n/a	n/a	RADIO	n/a	8	4	[0, 0, 0]	n/a	catFR1	1	R1207J
475.845	1.615	1321057	WORD	n/a	wordpools/wordpool_categorized_EN.txt	DRILL	Tools	9	4	[0, 0, 0]	n/a	catFR1	1	R1207J
477.46	0.984	1322672	WORD_OFF	n/a	n/a	DRILL	n/a	9	4	[0, 0, 0]	n/a	catFR1	1	R1207J
478.444	1.616	1323656	WORD	n/a	wordpools/wordpool_categorized_EN.txt	SHOVEL	Tools	10	4	[0, 0, 0]	n/a	catFR1	1	R1207J
480.06	0.818	1325272	WORD_OFF	n/a	n/a	SHOVEL	n/a	10	4	[0, 0, 0]	n/a	catFR1	1	R1207J
480.878	1.616	1326090	WORD	n/a	wordpools/wordpool_categorized_EN.txt	RAIN	Weather	11	4	[0, 0, 0]	n/a	catFR1	1	R1207J
482.494	0.867	1327706	WORD_OFF	n/a	n/a	RAIN	n/a	11	4	[0, 0, 0]	n/a	catFR1	1	R1207J
483.361	1.618	1328573	WORD	n/a	wordpools/wordpool_categorized_EN.txt	FOG	Weather	12	4	[0, 0, 0]	n/a	catFR1	1	R1207J
484.979	0.0	1330191	WORD_OFF	n/a	n/a	FOG	n/a	12	4	[0, 0, 0]	n/a	catFR1	1	R1207J
484.979	0.126	1330191	ENCODING_END	n/a	n/a	n/a	n/a	-999	4	[0, 0, 0]	n/a	catFR1	1	R1207J
485.105	0.0	1330317	DISTRACT_START	n/a	n/a	n/a	n/a	-999	4	[0, 0, 0]	n/a	catFR1	1	R1207J
485.105	0.023	1330317	START	n/a	n/a	n/a	n/a	-999	4	[-999, -999, -999]	n/a	catFR1	1	R1207J
485.128	6.267	1330340	PROB	6.267	n/a	n/a	n/a	-999	4	[4, 1, 3]	8	catFR1	1	R1207J
491.395	3.402	1336607	PROB	3.402	n/a	n/a	n/a	-999	4	[2, 4, 5]	11	catFR1	1	R1207J
494.797	3.017	1340009	PROB	3.017	n/a	n/a	n/a	-999	4	[3, 3, 7]	13	catFR1	1	R1207J
497.814	4.649	1343026	PROB	4.649	n/a	n/a	n/a	-999	4	[6, 6, 8]	20	catFR1	1	R1207J
502.463	5.388	1347675	PROB	5.388	n/a	n/a	n/a	-999	4	[8, 5, 1]	14	catFR1	1	R1207J
507.851	0.015	1353063	STOP	n/a	n/a	n/a	n/a	-999	4	[-999, -999, -999]	n/a	catFR1	1	R1207J
507.866	0.665	1353078	DISTRACT_END	n/a	n/a	n/a	n/a	-999	4	[0, 0, 0]	n/a	catFR1	1	R1207J
508.531	0.517	1353743	RETRIEVAL_ORIENT	n/a	n/a	n/a	n/a	-999	4	[0, 0, 0]	n/a	catFR1	1	R1207J
509.048	9.977	1354260	REC_START	n/a	n/a	n/a	n/a	-999	4	[0, 0, 0]	n/a	catFR1	1	R1207J
519.025	8.956	1364237	REC_WORD	8.956	n/a	FREEZER	n/a	-999	4	[0, 0, 0]	n/a	catFR1	1	R1207J
527.981	2.732	1373193	REC_WORD_VV	2.732	n/a	<>	n/a	-999	4	[0, 0, 0]	n/a	catFR1	1	R1207J
530.713	1.0	1375925	REC_WORD_VV	1.0	n/a	<>	n/a	-999	4	[0, 0, 0]	n/a	catFR1	1	R1207J
531.713	1.0	1376925	REC_WORD_VV	1.0	n/a	<>	n/a	-999	4	[0, 0, 0]	n/a	catFR1	1	R1207J
532.713	2.02	1377925	REC_WORD_VV	2.02	n/a	<>	n/a	-999	4	[0, 0, 0]	n/a	catFR1	1	R1207J
534.733	4.324	1379945	REC_WORD	4.324	n/a	HEADPHONES	Electronics	7	4	[0, 0, 0]	n/a	catFR1	1	R1207J
539.057	5.179	1384269	REC_END	n/a	n/a	n/a	n/a	-999	4	[0, 0, 0]	n/a	catFR1	1	R1207J
544.236	0.5	1389448	TRIAL	n/a	n/a	n/a	n/a	-999	5	[0, 0, 0]	n/a	catFR1	1	R1207J
544.736	10.428	1389948	COUNTDOWN_START	n/a	n/a	n/a	n/a	-999	5	[0, 0, 0]	n/a	catFR1	1	R1207J
555.164	0.006	1400377	COUNTDOWN_END	n/a	n/a	n/a	n/a	-999	5	[0, 0, 0]	n/a	catFR1	1	R1207J
555.17	1.601	1400383	ORIENT	n/a	n/a	n/a	n/a	-999	5	[0, 0, 0]	n/a	catFR1	1	R1207J
556.771	2.266	1401984	ORIENT_OFF	n/a	n/a	n/a	n/a	-999	5	[0, 0, 0]	n/a	catFR1	1	R1207J
559.037	1.618	1404250	WORD	n/a	wordpools/wordpool_categorized_EN.txt	RUM	Beverages	1	5	[0, 0, 0]	n/a	catFR1	1	R1207J
560.655	0.783	1405868	WORD_OFF	n/a	n/a	RUM	n/a	1	5	[0, 0, 0]	n/a	catFR1	1	R1207J
561.438	1.617	1406651	WORD	n/a	wordpools/wordpool_categorized_EN.txt	LEMONADE	Beverages	2	5	[0, 0, 0]	n/a	catFR1	1	R1207J
563.055	0.884	1408268	WORD_OFF	n/a	n/a	LEMONADE	n/a	2	5	[0, 0, 0]	n/a	catFR1	1	R1207J
563.939	1.617	1409152	WORD	n/a	wordpools/wordpool_categorized_EN.txt	LADYBUG	Insects	3	5	[0, 0, 0]	n/a	catFR1	1	R1207J
565.556	0.782	1410769	WORD_OFF	n/a	n/a	LADYBUG	n/a	3	5	[0, 0, 0]	n/a	catFR1	1	R1207J
566.338	1.601	1411551	WORD	n/a	wordpools/wordpool_categorized_EN.txt	BUTTERFLY	Insects	4	5	[0, 0, 0]	n/a	catFR1	1	R1207J
567.939	0.884	1413152	WORD_OFF	n/a	n/a	BUTTERFLY	n/a	4	5	[0, 0, 0]	n/a	catFR1	1	R1207J
568.823	1.616	1414036	WORD	n/a	wordpools/wordpool_categorized_EN.txt	COAT	Clothing	5	5	[0, 0, 0]	n/a	catFR1	1	R1207J
570.439	0.85	1415652	WORD_OFF	n/a	n/a	COAT	n/a	5	5	[0, 0, 0]	n/a	catFR1	1	R1207J
571.289	1.618	1416502	WORD	n/a	wordpools/wordpool_categorized_EN.txt	SKIRT	Clothing	6	5	[0, 0, 0]	n/a	catFR1	1	R1207J
572.907	0.85	1418120	WORD_OFF	n/a	n/a	SKIRT	n/a	6	5	[0, 0, 0]	n/a	catFR1	1	R1207J
573.757	1.616	1418970	WORD	n/a	wordpools/wordpool_categorized_EN.txt	JUICE	Beverages	7	5	[0, 0, 0]	n/a	catFR1	1	R1207J
575.373	0.833	1420586	WORD_OFF	n/a	n/a	JUICE	n/a	7	5	[0, 0, 0]	n/a	catFR1	1	R1207J
576.206	1.618	1421419	WORD	n/a	wordpools/wordpool_categorized_EN.txt	TEA	Beverages	8	5	[0, 0, 0]	n/a	catFR1	1	R1207J
577.824	0.9	1423037	WORD_OFF	n/a	n/a	TEA	n/a	8	5	[0, 0, 0]	n/a	catFR1	1	R1207J
578.724	1.616	1423937	WORD	n/a	wordpools/wordpool_categorized_EN.txt	FLY	Insects	9	5	[0, 0, 0]	n/a	catFR1	1	R1207J
580.34	0.85	1425553	WORD_OFF	n/a	n/a	FLY	n/a	9	5	[0, 0, 0]	n/a	catFR1	1	R1207J
581.19	1.618	1426403	WORD	n/a	wordpools/wordpool_categorized_EN.txt	CRICKET	Insects	10	5	[0, 0, 0]	n/a	catFR1	1	R1207J
582.808	0.934	1428021	WORD_OFF	n/a	n/a	CRICKET	n/a	10	5	[0, 0, 0]	n/a	catFR1	1	R1207J
583.742	1.615	1428955	WORD	n/a	wordpools/wordpool_categorized_EN.txt	JEANS	Clothing	11	5	[0, 0, 0]	n/a	catFR1	1	R1207J
585.357	0.901	1430570	WORD_OFF	n/a	n/a	JEANS	n/a	11	5	[0, 0, 0]	n/a	catFR1	1	R1207J
586.258	1.618	1431471	WORD	n/a	wordpools/wordpool_categorized_EN.txt	BLOUSE	Clothing	12	5	[0, 0, 0]	n/a	catFR1	1	R1207J
587.876	0.0	1433089	WORD_OFF	n/a	n/a	BLOUSE	n/a	12	5	[0, 0, 0]	n/a	catFR1	1	R1207J
587.876	0.097	1433089	ENCODING_END	n/a	n/a	n/a	n/a	-999	5	[0, 0, 0]	n/a	catFR1	1	R1207J
587.973	0.0	1433186	DISTRACT_START	n/a	n/a	n/a	n/a	-999	5	[0, 0, 0]	n/a	catFR1	1	R1207J
587.973	0.019	1433186	START	n/a	n/a	n/a	n/a	-999	5	[-999, -999, -999]	n/a	catFR1	1	R1207J
587.992	5.533	1433205	PROB	5.533	n/a	n/a	n/a	-999	5	[9, 9, 3]	21	catFR1	1	R1207J
593.525	4.052	1438738	PROB	4.052	n/a	n/a	n/a	-999	5	[6, 2, 3]	11	catFR1	1	R1207J
597.577	3.499	1442790	PROB	3.499	n/a	n/a	n/a	-999	5	[3, 5, 1]	9	catFR1	1	R1207J
601.076	4.585	1446289	PROB	4.585	n/a	n/a	n/a	-999	5	[5, 2, 7]	14	catFR1	1	R1207J
605.661	4.177	1450874	PROB	4.177	n/a	n/a	n/a	-999	5	[3, 1, 6]	10	catFR1	1	R1207J
609.838	0.007	1455051	STOP	n/a	n/a	n/a	n/a	-999	5	[-999, -999, -999]	n/a	catFR1	1	R1207J
609.845	0.632	1455058	DISTRACT_END	n/a	n/a	n/a	n/a	-999	5	[0, 0, 0]	n/a	catFR1	1	R1207J
610.477	0.519	1455690	RETRIEVAL_ORIENT	n/a	n/a	n/a	n/a	-999	5	[0, 0, 0]	n/a	catFR1	1	R1207J
610.996	4.04	1456209	REC_START	n/a	n/a	n/a	n/a	-999	5	[0, 0, 0]	n/a	catFR1	1	R1207J
615.036	1.803	1460249	REC_WORD	1.803	n/a	RUM	Beverages	1	5	[0, 0, 0]	n/a	catFR1	1	R1207J
616.839	18.607	1462052	REC_WORD	18.607	n/a	LEMONADE	Beverages	2	5	[0, 0, 0]	n/a	catFR1	1	R1207J
635.446	5.561	1480659	REC_WORD	5.561	n/a	LADYBUG	Insects	3	5	[0, 0, 0]	n/a	catFR1	1	R1207J
641.007	16.661	1486220	REC_END	n/a	n/a	n/a	n/a	-999	5	[0, 0, 0]	n/a	catFR1	1	R1207J
657.668	0.5	1502881	TRIAL	n/a	n/a	n/a	n/a	-999	6	[0, 0, 0]	n/a	catFR1	1	R1207J
658.168	10.428	1503381	COUNTDOWN_START	n/a	n/a	n/a	n/a	-999	6	[0, 0, 0]	n/a	catFR1	1	R1207J
668.596	0.007	1513809	COUNTDOWN_END	n/a	n/a	n/a	n/a	-999	6	[0, 0, 0]	n/a	catFR1	1	R1207J
668.603	1.615	1513816	ORIENT	n/a	n/a	n/a	n/a	-999	6	[0, 0, 0]	n/a	catFR1	1	R1207J
670.218	1.785	1515431	ORIENT_OFF	n/a	n/a	n/a	n/a	-999	6	[0, 0, 0]	n/a	catFR1	1	R1207J
672.003	1.617	1517216	WORD	n/a	wordpools/wordpool_categorized_EN.txt	WOODS	Landscapes	1	6	[0, 0, 0]	n/a	catFR1	1	R1207J
673.62	0.882	1518833	WORD_OFF	n/a	n/a	WOODS	n/a	1	6	[0, 0, 0]	n/a	catFR1	1	R1207J
674.502	1.617	1519715	WORD	n/a	wordpools/wordpool_categorized_EN.txt	CREEK	Landscapes	2	6	[0, 0, 0]	n/a	catFR1	1	R1207J
676.119	0.984	1521332	WORD_OFF	n/a	n/a	CREEK	n/a	2	6	[0, 0, 0]	n/a	catFR1	1	R1207J
677.103	1.618	1522316	WORD	n/a	wordpools/wordpool_categorized_EN.txt	OCTOPUS	OceanAnimals	3	6	[0, 0, 0]	n/a	catFR1	1	R1207J
678.721	0.883	1523934	WORD_OFF	n/a	n/a	OCTOPUS	n/a	3	6	[0, 0, 0]	n/a	catFR1	1	R1207J
679.604	1.616	1524817	WORD	n/a	wordpools/wordpool_categorized_EN.txt	CRAB	OceanAnimals	4	6	[0, 0, 0]	n/a	catFR1	1	R1207J
681.22	0.983	1526433	WORD_OFF	n/a	n/a	CRAB	n/a	4	6	[0, 0, 0]	n/a	catFR1	1	R1207J
682.203	1.618	1527416	WORD	n/a	wordpools/wordpool_categorized_EN.txt	LIGHTNING	Weather	5	6	[0, 0, 0]	n/a	catFR1	1	R1207J
683.821	0.934	1529034	WORD_OFF	n/a	n/a	LIGHTNING	n/a	5	6	[0, 0, 0]	n/a	catFR1	1	R1207J
684.755	1.615	1529968	WORD	n/a	wordpools/wordpool_categorized_EN.txt	WIND	Weather	6	6	[0, 0, 0]	n/a	catFR1	1	R1207J
686.37	0.934	1531583	WORD_OFF	n/a	n/a	WIND	n/a	6	6	[0, 0, 0]	n/a	catFR1	1	R1207J
687.304	1.618	1532517	WORD	n/a	wordpools/wordpool_categorized_EN.txt	FOREST	Landscapes	7	6	[0, 0, 0]	n/a	catFR1	1	R1207J
688.922	0.983	1534135	WORD_OFF	n/a	n/a	FOREST	n/a	7	6	[0, 0, 0]	n/a	catFR1	1	R1207J
689.905	1.616	1535118	WORD	n/a	wordpools/wordpool_categorized_EN.txt	LAKE	Landscapes	8	6	[0, 0, 0]	n/a	catFR1	1	R1207J
691.521	0.817	1536734	WORD_OFF	n/a	n/a	LAKE	n/a	8	6	[0, 0, 0]	n/a	catFR1	1	R1207J
692.338	1.618	1537551	WORD	n/a	wordpools/wordpool_categorized_EN.txt	PLANKTON	OceanAnimals	9	6	[0, 0, 0]	n/a	catFR1	1	R1207J
693.956	0.8	1539169	WORD_OFF	n/a	n/a	PLANKTON	n/a	9	6	[0, 0, 0]	n/a	catFR1	1	R1207J
694.756	1.616	1539969	WORD	n/a	wordpools/wordpool_categorized_EN.txt	LOBSTER	OceanAnimals	10	6	[0, 0, 0]	n/a	catFR1	1	R1207J
696.372	0.867	1541585	WORD_OFF	n/a	n/a	LOBSTER	n/a	10	6	[0, 0, 0]	n/a	catFR1	1	R1207J
697.239	1.617	1542452	WORD	n/a	wordpools/wordpool_categorized_EN.txt	HURRICANE	Weather	11	6	[0, 0, 0]	n/a	catFR1	1	R1207J
698.856	0.967	1544069	WORD_OFF	n/a	n/a	HURRICANE	n/a	11	6	[0, 0, 0]	n/a	catFR1	1	R1207J
699.823	1.616	1545036	WORD	n/a	wordpools/wordpool_categorized_EN.txt	CLOUD	Weather	12	6	[0, 0, 0]	n/a	catFR1	1	R1207J
701.439	0.0	1546652	ENCODING_END	n/a	n/a	n/a	n/a	-999	6	[0, 0, 0]	n/a	catFR1	1	R1207J
701.439	0.126	1546652	WORD_OFF	n/a	n/a	CLOUD	n/a	12	6	[0, 0, 0]	n/a	catFR1	1	R1207J
701.565	0.001	1546778	DISTRACT_START	n/a	n/a	n/a	n/a	-999	6	[0, 0, 0]	n/a	catFR1	1	R1207J
701.566	0.007	1546779	START	n/a	n/a	n/a	n/a	-999	6	[-999, -999, -999]	n/a	catFR1	1	R1207J
701.573	6.085	1546786	PROB	6.085	n/a	n/a	n/a	-999	6	[3, 4, 5]	12	catFR1	1	R1207J
707.658	4.499	1552871	PROB	4.499	n/a	n/a	n/a	-999	6	[2, 4, 5]	11	catFR1	1	R1207J
712.157	2.967	1557370	PROB	2.967	n/a	n/a	n/a	-999	6	[1, 7, 1]	9	catFR1	1	R1207J
715.124	3.618	1560337	PROB	3.618	n/a	n/a	n/a	-999	6	[6, 1, 3]	10	catFR1	1	R1207J
718.742	7.02	1563955	PROB	7.02	n/a	n/a	n/a	-999	6	[4, 7, 5]	16	catFR1	1	R1207J
725.762	0.015	1570975	STOP	n/a	n/a	n/a	n/a	-999	6	[-999, -999, -999]	n/a	catFR1	1	R1207J
725.777	0.699	1570990	DISTRACT_END	n/a	n/a	n/a	n/a	-999	6	[0, 0, 0]	n/a	catFR1	1	R1207J
726.476	0.518	1571689	RETRIEVAL_ORIENT	n/a	n/a	n/a	n/a	-999	6	[0, 0, 0]	n/a	catFR1	1	R1207J
726.994	1.565	1572207	REC_START	n/a	n/a	n/a	n/a	-999	6	[0, 0, 0]	n/a	catFR1	1	R1207J
728.559	1.419	1573772	REC_WORD	1.419	n/a	PLANKTON	OceanAnimals	9	6	[0, 0, 0]	n/a	catFR1	1	R1207J
729.978	1.0	1575191	REC_WORD	1.0	n/a	OCTOPUS	OceanAnimals	3	6	[0, 0, 0]	n/a	catFR1	1	R1207J
730.978	0.975	1576191	REC_WORD_VV	0.975	n/a	<>	n/a	-999	6	[0, 0, 0]	n/a	catFR1	1	R1207J
731.953	19.016	1577166	REC_WORD	19.016	n/a	CRAB	OceanAnimals	4	6	[0, 0, 0]	n/a	catFR1	1	R1207J
750.969	2.585	1596182	REC_WORD_VV	2.585	n/a	<>	n/a	-999	6	[0, 0, 0]	n/a	catFR1	1	R1207J
753.554	3.45	1598767	REC_WORD_VV	3.45	n/a	<>	n/a	-999	6	[0, 0, 0]	n/a	catFR1	1	R1207J
757.004	5.059	1602217	REC_END	n/a	n/a	n/a	n/a	-999	6	[0, 0, 0]	n/a	catFR1	1	R1207J
762.063	0.5	1607276	TRIAL	n/a	n/a	n/a	n/a	-999	7	[0, 0, 0]	n/a	catFR1	1	R1207J
762.563	10.428	1607776	COUNTDOWN_START	n/a	n/a	n/a	n/a	-999	7	[0, 0, 0]	n/a	catFR1	1	R1207J
772.991	0.008	1618204	COUNTDOWN_END	n/a	n/a	n/a	n/a	-999	7	[0, 0, 0]	n/a	catFR1	1	R1207J
772.999	1.617	1618212	ORIENT	n/a	n/a	n/a	n/a	-999	7	[0, 0, 0]	n/a	catFR1	1	R1207J
774.616	2.034	1619829	ORIENT_OFF	n/a	n/a	n/a	n/a	-999	7	[0, 0, 0]	n/a	catFR1	1	R1207J
776.65	1.616	1621863	WORD	n/a	wordpools/wordpool_categorized_EN.txt	DRUM	Instruments	1	7	[0, 0, 0]	n/a	catFR1	1	R1207J
778.266	0.866	1623479	WORD_OFF	n/a	n/a	DRUM	n/a	1	7	[0, 0, 0]	n/a	catFR1	1	R1207J
779.132	1.618	1624345	WORD	n/a	wordpools/wordpool_categorized_EN.txt	TRUMPET	Instruments	2	7	[0, 0, 0]	n/a	catFR1	1	R1207J
780.75	0.917	1625963	WORD_OFF	n/a	n/a	TRUMPET	n/a	2	7	[0, 0, 0]	n/a	catFR1	1	R1207J
781.667	1.616	1626880	WORD	n/a	wordpools/wordpool_categorized_EN.txt	SHIRT	Clothing	3	7	[0, 0, 0]	n/a	catFR1	1	R1207J
783.283	0.85	1628496	WORD_OFF	n/a	n/a	SHIRT	n/a	3	7	[0, 0, 0]	n/a	catFR1	1	R1207J
784.133	1.618	1629346	WORD	n/a	wordpools/wordpool_categorized_EN.txt	PANTS	Clothing	4	7	[0, 0, 0]	n/a	catFR1	1	R1207J
785.751	0.867	1630964	WORD_OFF	n/a	n/a	PANTS	n/a	4	7	[0, 0, 0]	n/a	catFR1	1	R1207J
786.618	1.616	1631831	WORD	n/a	wordpools/wordpool_categorized_EN.txt	MOPED	Vehicles	5	7	[0, 0, 0]	n/a	catFR1	1	R1207J
788.234	0.833	1633447	WORD_OFF	n/a	n/a	MOPED	n/a	5	7	[0, 0, 0]	n/a	catFR1	1	R1207J
789.067	1.618	1634280	WORD	n/a	wordpools/wordpool_categorized_EN.txt	TRUCK	Vehicles	6	7	[0, 0, 0]	n/a	catFR1	1	R1207J
790.685	0.916	1635898	WORD_OFF	n/a	n/a	TRUCK	n/a	6	7	[0, 0, 0]	n/a	catFR1	1	R1207J
791.601	1.616	1636814	WORD	n/a	wordpools/wordpool_categorized_EN.txt	UNDERWEAR	Clothing	7	7	[0, 0, 0]	n/a	catFR1	1	R1207J
793.217	0.867	1638430	WORD_OFF	n/a	n/a	UNDERWEAR	n/a	7	7	[0, 0, 0]	n/a	catFR1	1	R1207J
794.084	1.618	1639297	WORD	n/a	wordpools/wordpool_categorized_EN.txt	JACKET	Clothing	8	7	[0, 0, 0]	n/a	catFR1	1	R1207J
795.702	1.017	1640915	WORD_OFF	n/a	n/a	JACKET	n/a	8	7	[0, 0, 0]	n/a	catFR1	1	R1207J
796.719	1.616	1641932	WORD	n/a	wordpools/wordpool_categorized_EN.txt	FLUTE	Instruments	9	7	[0, 0, 0]	n/a	catFR1	1	R1207J
798.335	0.9	1643548	WORD_OFF	n/a	n/a	FLUTE	n/a	9	7	[0, 0, 0]	n/a	catFR1	1	R1207J
799.235	1.618	1644448	WORD	n/a	wordpools/wordpool_categorized_EN.txt	BANJO	Instruments	10	7	[0, 0, 0]	n/a	catFR1	1	R1207J
800.853	0.783	1646066	WORD_OFF	n/a	n/a	BANJO	n/a	10	7	[0, 0, 0]	n/a	catFR1	1	R1207J
801.636	1.616	1646849	WORD	n/a	wordpools/wordpool_categorized_EN.txt	BIKE	Vehicles	11	7	[0, 0, 0]	n/a	catFR1	1	R1207J
803.252	1.0	1648465	WORD_OFF	n/a	n/a	BIKE	n/a	11	7	[0, 0, 0]	n/a	catFR1	1	R1207J
804.252	1.618	1649465	WORD	n/a	wordpools/wordpool_categorized_EN.txt	PLANE	Vehicles	12	7	[0, 0, 0]	n/a	catFR1	1	R1207J
805.87	0.0	1651083	ENCODING_END	n/a	n/a	n/a	n/a	-999	7	[0, 0, 0]	n/a	catFR1	1	R1207J
805.87	0.126	1651083	WORD_OFF	n/a	n/a	PLANE	n/a	12	7	[0, 0, 0]	n/a	catFR1	1	R1207J
805.996	0.0	1651209	DISTRACT_START	n/a	n/a	n/a	n/a	-999	7	[0, 0, 0]	n/a	catFR1	1	R1207J
805.996	0.007	1651209	START	n/a	n/a	n/a	n/a	-999	7	[-999, -999, -999]	n/a	catFR1	1	R1207J
806.003	3.817	1651216	PROB	3.817	n/a	n/a	n/a	-999	7	[2, 5, 2]	9	catFR1	1	R1207J
809.82	3.233	1655033	PROB	3.233	n/a	n/a	n/a	-999	7	[1, 3, 6]	10	catFR1	1	R1207J
813.053	5.284	1658266	PROB	5.284	n/a	n/a	n/a	-999	7	[6, 2, 6]	14	catFR1	1	R1207J
818.337	3.568	1663550	PROB	3.568	n/a	n/a	n/a	-999	7	[3, 3, 8]	14	catFR1	1	R1207J
821.905	3.45	1667118	PROB	3.45	n/a	n/a	n/a	-999	7	[3, 3, 6]	12	catFR1	1	R1207J
825.355	2.555	1670568	PROB	2.555	n/a	n/a	n/a	-999	7	[2, 3, 6]	11	catFR1	1	R1207J
827.91	0.013	1673123	STOP	n/a	n/a	n/a	n/a	-999	7	[-999, -999, -999]	n/a	catFR1	1	R1207J
827.923	0.7	1673136	DISTRACT_END	n/a	n/a	n/a	n/a	-999	7	[0, 0, 0]	n/a	catFR1	1	R1207J
828.623	0.516	1673836	RETRIEVAL_ORIENT	n/a	n/a	n/a	n/a	-999	7	[0, 0, 0]	n/a	catFR1	1	R1207J
829.139	8.477	1674352	REC_START	n/a	n/a	n/a	n/a	-999	7	[0, 0, 0]	n/a	catFR1	1	R1207J
837.616	1.0	1682829	REC_WORD_VV	1.0	n/a	<>	n/a	-999	7	[0, 0, 0]	n/a	catFR1	1	R1207J
838.616	3.117	1683829	REC_WORD_VV	3.117	n/a	<>	n/a	-999	7	[0, 0, 0]	n/a	catFR1	1	R1207J
841.733	1.547	1686946	REC_WORD_VV	1.547	n/a	<>	n/a	-999	7	[0, 0, 0]	n/a	catFR1	1	R1207J
843.28	6.255	1688493	REC_WORD_VV	6.255	n/a	<>	n/a	-999	7	[0, 0, 0]	n/a	catFR1	1	R1207J
849.535	7.604	1694748	REC_WORD	7.604	n/a	CRAB	n/a	-999	7	[0, 0, 0]	n/a	catFR1	1	R1207J
857.139	2.01	1702352	REC_WORD	2.01	n/a	LIGHTNING	n/a	-999	7	[0, 0, 0]	n/a	catFR1	1	R1207J
859.149	6.529	1704362	REC_END	n/a	n/a	n/a	n/a	-999	7	[0, 0, 0]	n/a	catFR1	1	R1207J
865.678	0.5	1710891	TRIAL	n/a	n/a	n/a	n/a	-999	8	[0, 0, 0]	n/a	catFR1	1	R1207J
866.178	10.428	1711391	COUNTDOWN_START	n/a	n/a	n/a	n/a	-999	8	[0, 0, 0]	n/a	catFR1	1	R1207J
876.606	0.007	1721819	COUNTDOWN_END	n/a	n/a	n/a	n/a	-999	8	[0, 0, 0]	n/a	catFR1	1	R1207J
876.613	1.616	1721826	ORIENT	n/a	n/a	n/a	n/a	-999	8	[0, 0, 0]	n/a	catFR1	1	R1207J
878.229	2.183	1723442	ORIENT_OFF	n/a	n/a	n/a	n/a	-999	8	[0, 0, 0]	n/a	catFR1	1	R1207J
880.412	1.617	1725625	WORD	n/a	wordpools/wordpool_categorized_EN.txt	PUZZLE	Toys	1	8	[0, 0, 0]	n/a	catFR1	1	R1207J
882.029	0.834	1727242	WORD_OFF	n/a	n/a	PUZZLE	n/a	1	8	[0, 0, 0]	n/a	catFR1	1	R1207J
882.863	1.616	1728076	WORD	n/a	wordpools/wordpool_categorized_EN.txt	FRISBEE	Toys	2	8	[0, 0, 0]	n/a	catFR1	1	R1207J
884.479	0.867	1729692	WORD_OFF	n/a	n/a	FRISBEE	n/a	2	8	[0, 0, 0]	n/a	catFR1	1	R1207J
885.346	1.618	1730559	WORD	n/a	wordpools/wordpool_categorized_EN.txt	LEVEL	Tools	3	8	[0, 0, 0]	n/a	catFR1	1	R1207J
886.964	0.85	1732177	WORD_OFF	n/a	n/a	LEVEL	n/a	3	8	[0, 0, 0]	n/a	catFR1	1	R1207J
887.814	1.615	1733027	WORD	n/a	wordpools/wordpool_categorized_EN.txt	HAMMER	Tools	4	8	[0, 0, 0]	n/a	catFR1	1	R1207J
889.429	0.967	1734642	WORD_OFF	n/a	n/a	HAMMER	n/a	4	8	[0, 0, 0]	n/a	catFR1	1	R1207J
890.396	1.601	1735609	WORD	n/a	wordpools/wordpool_categorized_EN.txt	MILK	Beverages	5	8	[0, 0, 0]	n/a	catFR1	1	R1207J
891.997	0.868	1737210	WORD_OFF	n/a	n/a	MILK	n/a	5	8	[0, 0, 0]	n/a	catFR1	1	R1207J
892.865	1.615	1738078	WORD	n/a	wordpools/wordpool_categorized_EN.txt	COLA	Beverages	6	8	[0, 0, 0]	n/a	catFR1	1	R1207J
894.48	0.767	1739693	WORD_OFF	n/a	n/a	COLA	n/a	6	8	[0, 0, 0]	n/a	catFR1	1	R1207J
895.247	1.618	1740460	WORD	n/a	wordpools/wordpool_categorized_EN.txt	RATCHET	Tools	7	8	[0, 0, 0]	n/a	catFR1	1	R1207J
896.865	0.767	1742078	WORD_OFF	n/a	n/a	RATCHET	n/a	7	8	[0, 0, 0]	n/a	catFR1	1	R1207J
897.632	1.615	1742845	WORD	n/a	wordpools/wordpool_categorized_EN.txt	AXE	Tools	8	8	[0, 0, 0]	n/a	catFR1	1	R1207J
899.247	0.884	1744460	WORD_OFF	n/a	n/a	AXE	n/a	8	8	[0, 0, 0]	n/a	catFR1	1	R1207J
900.131	1.618	1745344	WORD	n/a	wordpools/wordpool_categorized_EN.txt	MARBLES	Toys	9	8	[0, 0, 0]	n/a	catFR1	1	R1207J
901.749	0.9	1746962	WORD_OFF	n/a	n/a	MARBLES	n/a	9	8	[0, 0, 0]	n/a	catFR1	1	R1207J
902.649	1.616	1747862	WORD	n/a	wordpools/wordpool_categorized_EN.txt	FOOTBALL	Toys	10	8	[0, 0, 0]	n/a	catFR1	1	R1207J
904.265	0.95	1749478	WORD_OFF	n/a	n/a	FOOTBALL	n/a	10	8	[0, 0, 0]	n/a	catFR1	1	R1207J
905.215	1.618	1750428	WORD	n/a	wordpools/wordpool_categorized_EN.txt	WINE	Beverages	11	8	[0, 0, 0]	n/a	catFR1	1	R1207J
906.833	0.917	1752046	WORD_OFF	n/a	n/a	WINE	n/a	11	8	[0, 0, 0]	n/a	catFR1	1	R1207J
907.75	1.615	1752963	WORD	n/a	wordpools/wordpool_categorized_EN.txt	COFFEE	Beverages	12	8	[0, 0, 0]	n/a	catFR1	1	R1207J
909.365	0.001	1754578	WORD_OFF	n/a	n/a	COFFEE	n/a	12	8	[0, 0, 0]	n/a	catFR1	1	R1207J
909.366	0.102	1754579	ENCODING_END	n/a	n/a	n/a	n/a	-999	8	[0, 0, 0]	n/a	catFR1	1	R1207J
909.468	0.0	1754681	DISTRACT_START	n/a	n/a	n/a	n/a	-999	8	[0, 0, 0]	n/a	catFR1	1	R1207J
909.468	0.014	1754681	START	n/a	n/a	n/a	n/a	-999	8	[-999, -999, -999]	n/a	catFR1	1	R1207J
909.482	3.518	1754695	PROB	3.518	n/a	n/a	n/a	-999	8	[2, 4, 5]	11	catFR1	1	R1207J
913.0	8.067	1758213	PROB	8.067	n/a	n/a	n/a	-999	8	[9, 7, 6]	22	catFR1	1	R1207J
921.067	10.086	1766280	PROB	10.086	n/a	n/a	n/a	-999	8	[7, 6, 6]	19	catFR1	1	R1207J
931.153	0.015	1776366	STOP	n/a	n/a	n/a	n/a	-999	8	[-999, -999, -999]	n/a	catFR1	1	R1207J
931.168	0.668	1776381	DISTRACT_END	n/a	n/a	n/a	n/a	-999	8	[0, 0, 0]	n/a	catFR1	1	R1207J
931.836	0.517	1777049	RETRIEVAL_ORIENT	n/a	n/a	n/a	n/a	-999	8	[0, 0, 0]	n/a	catFR1	1	R1207J
932.353	5.0	1777566	REC_START	n/a	n/a	n/a	n/a	-999	8	[0, 0, 0]	n/a	catFR1	1	R1207J
937.353	2.29	1782566	REC_WORD	2.29	n/a	RATCHET	Tools	7	8	[0, 0, 0]	n/a	catFR1	1	R1207J
939.643	3.308	1784856	REC_WORD	3.308	n/a	AXE	Tools	8	8	[0, 0, 0]	n/a	catFR1	1	R1207J
942.951	4.926	1788164	REC_WORD	4.926	n/a	SHORTS	n/a	-999	8	[0, 0, 0]	n/a	catFR1	1	R1207J
947.877	12.633	1793090	REC_WORD	12.633	n/a	LADYBUG	n/a	-999	8	[0, 0, 0]	n/a	catFR1	1	R1207J
960.51	1.853	1805723	REC_WORD_VV	1.853	n/a	<>	n/a	-999	8	[0, 0, 0]	n/a	catFR1	1	R1207J
962.363	4.86	1807576	REC_END	n/a	n/a	n/a	n/a	-999	8	[0, 0, 0]	n/a	catFR1	1	R1207J
967.223	0.5	1812436	TRIAL	n/a	n/a	n/a	n/a	-999	9	[0, 0, 0]	n/a	catFR1	1	R1207J
967.723	10.428	1812936	COUNTDOWN_START	n/a	n/a	n/a	n/a	-999	9	[0, 0, 0]	n/a	catFR1	1	R1207J
978.151	0.007	1823365	COUNTDOWN_END	n/a	n/a	n/a	n/a	-999	9	[0, 0, 0]	n/a	catFR1	1	R1207J
978.158	1.617	1823372	ORIENT	n/a	n/a	n/a	n/a	-999	9	[0, 0, 0]	n/a	catFR1	1	R1207J
979.775	2.001	1824989	ORIENT_OFF	n/a	n/a	n/a	n/a	-999	9	[0, 0, 0]	n/a	catFR1	1	R1207J
981.776	1.616	1826990	WORD	n/a	wordpools/wordpool_categorized_EN.txt	VIOLIN	Instruments	1	9	[0, 0, 0]	n/a	catFR1	1	R1207J
983.392	0.767	1828606	WORD_OFF	n/a	n/a	VIOLIN	n/a	1	9	[0, 0, 0]	n/a	catFR1	1	R1207J
984.159	1.617	1829373	WORD	n/a	wordpools/wordpool_categorized_EN.txt	TUBA	Instruments	2	9	[0, 0, 0]	n/a	catFR1	1	R1207J
985.776	0.884	1830990	WORD_OFF	n/a	n/a	TUBA	n/a	2	9	[0, 0, 0]	n/a	catFR1	1	R1207J
986.66	1.616	1831874	WORD	n/a	wordpools/wordpool_categorized_EN.txt	GOAT	FarmAnimals	3	9	[0, 0, 0]	n/a	catFR1	1	R1207J
988.276	0.816	1833490	WORD_OFF	n/a	n/a	GOAT	n/a	3	9	[0, 0, 0]	n/a	catFR1	1	R1207J
989.092	1.618	1834306	WORD	n/a	wordpools/wordpool_categorized_EN.txt	SHEEP	FarmAnimals	4	9	[0, 0, 0]	n/a	catFR1	1	R1207J
990.71	0.799	1835924	WORD_OFF	n/a	n/a	SHEEP	n/a	4	9	[0, 0, 0]	n/a	catFR1	1	R1207J
991.509	1.617	1836723	WORD	n/a	wordpools/wordpool_categorized_EN.txt	DRYER	Appliances	5	9	[0, 0, 0]	n/a	catFR1	1	R1207J
993.126	0.884	1838340	WORD_OFF	n/a	n/a	DRYER	n/a	5	9	[0, 0, 0]	n/a	catFR1	1	R1207J
994.01	1.618	1839224	WORD	n/a	wordpools/wordpool_categorized_EN.txt	REFRIGERATOR	Appliances	6	9	[0, 0, 0]	n/a	catFR1	1	R1207J
995.628	0.967	1840842	WORD_OFF	n/a	n/a	REFRIGERATOR	n/a	6	9	[0, 0, 0]	n/a	catFR1	1	R1207J
996.595	1.616	1841809	WORD	n/a	wordpools/wordpool_categorized_EN.txt	PIANO	Instruments	7	9	[0, 0, 0]	n/a	catFR1	1	R1207J
998.211	0.916	1843425	WORD_OFF	n/a	n/a	PIANO	n/a	7	9	[0, 0, 0]	n/a	catFR1	1	R1207J
999.127	1.618	1844341	WORD	n/a	wordpools/wordpool_categorized_EN.txt	CELLO	Instruments	8	9	[0, 0, 0]	n/a	catFR1	1	R1207J
1000.745	0.917	1845959	WORD_OFF	n/a	n/a	CELLO	n/a	8	9	[0, 0, 0]	n/a	catFR1	1	R1207J
1001.662	1.616	1846876	WORD	n/a	wordpools/wordpool_categorized_EN.txt	ROOSTER	FarmAnimals	9	9	[0, 0, 0]	n/a	catFR1	1	R1207J
1003.278	0.9	1848492	WORD_OFF	n/a	n/a	ROOSTER	n/a	9	9	[0, 0, 0]	n/a	catFR1	1	R1207J
1004.178	1.618	1849392	WORD	n/a	wordpools/wordpool_categorized_EN.txt	COW	FarmAnimals	10	9	[0, 0, 0]	n/a	catFR1	1	R1207J
1005.796	0.867	1851010	WORD_OFF	n/a	n/a	COW	n/a	10	9	[0, 0, 0]	n/a	catFR1	1	R1207J
1006.663	1.615	1851877	WORD	n/a	wordpools/wordpool_categorized_EN.txt	STOVE	Appliances	11	9	[0, 0, 0]	n/a	catFR1	1	R1207J
1008.278	0.917	1853492	WORD_OFF	n/a	n/a	STOVE	n/a	11	9	[0, 0, 0]	n/a	catFR1	1	R1207J
1009.195	1.618	1854409	WORD	n/a	wordpools/wordpool_categorized_EN.txt	MIXER	Appliances	12	9	[0, 0, 0]	n/a	catFR1	1	R1207J
1010.813	0.0	1856027	ENCODING_END	n/a	n/a	n/a	n/a	-999	9	[0, 0, 0]	n/a	catFR1	1	R1207J
1010.813	0.129	1856027	WORD_OFF	n/a	n/a	MIXER	n/a	12	9	[0, 0, 0]	n/a	catFR1	1	R1207J
1010.942	0.0	1856156	DISTRACT_START	n/a	n/a	n/a	n/a	-999	9	[0, 0, 0]	n/a	catFR1	1	R1207J
1010.942	0.021	1856156	START	n/a	n/a	n/a	n/a	-999	9	[-999, -999, -999]	n/a	catFR1	1	R1207J
1010.963	9.868	1856177	PROB	9.868	n/a	n/a	n/a	-999	9	[7, 8, 6]	22	catFR1	1	R1207J
1020.831	3.466	1866045	PROB	3.466	n/a	n/a	n/a	-999	9	[2, 4, 1]	7	catFR1	1	R1207J
1024.297	2.485	1869511	PROB	2.485	n/a	n/a	n/a	-999	9	[3, 7, 3]	13	catFR1	1	R1207J
1026.782	5.286	1871996	PROB	5.286	n/a	n/a	n/a	-999	9	[4, 7, 8]	19	catFR1	1	R1207J
1032.068	0.014	1877282	STOP	n/a	n/a	n/a	n/a	-999	9	[-999, -999, -999]	n/a	catFR1	1	R1207J
1032.082	0.634	1877296	DISTRACT_END	n/a	n/a	n/a	n/a	-999	9	[0, 0, 0]	n/a	catFR1	1	R1207J
1032.716	0.517	1877930	RETRIEVAL_ORIENT	n/a	n/a	n/a	n/a	-999	9	[0, 0, 0]	n/a	catFR1	1	R1207J
1033.233	5.789	1878447	REC_START	n/a	n/a	n/a	n/a	-999	9	[0, 0, 0]	n/a	catFR1	1	R1207J
1039.022	4.041	1884236	REC_WORD	4.041	n/a	GOAT	FarmAnimals	3	9	[0, 0, 0]	n/a	catFR1	1	R1207J
1043.063	2.034	1888277	REC_WORD	2.034	n/a	CELLO	Instruments	8	9	[0, 0, 0]	n/a	catFR1	1	R1207J
1045.097	3.713	1890311	REC_WORD	3.713	n/a	VIOLIN	Instruments	1	9	[0, 0, 0]	n/a	catFR1	1	R1207J
1048.81	9.106	1894024	REC_WORD	9.106	n/a	TRUMPET	n/a	-999	9	[0, 0, 0]	n/a	catFR1	1	R1207J
1057.916	2.045	1903130	REC_WORD	2.045	n/a	WASHER	n/a	-999	9	[0, 0, 0]	n/a	catFR1	1	R1207J
1059.961	1.0	1905175	REC_WORD	1.0	n/a	REFRIGERATOR	Appliances	6	9	[0, 0, 0]	n/a	catFR1	1	R1207J
1060.961	1.412	1906175	REC_WORD_VV	1.412	n/a	<>	n/a	-999	9	[0, 0, 0]	n/a	catFR1	1	R1207J
1062.373	0.871	1907587	REC_WORD	0.871	n/a	MIXER	Appliances	12	9	[0, 0, 0]	n/a	catFR1	1	R1207J
1063.244	5.209	1908458	REC_END	n/a	n/a	n/a	n/a	-999	9	[0, 0, 0]	n/a	catFR1	1	R1207J
1068.453	0.5	1913667	TRIAL	n/a	n/a	n/a	n/a	-999	10	[0, 0, 0]	n/a	catFR1	1	R1207J
1068.953	10.428	1914167	COUNTDOWN_START	n/a	n/a	n/a	n/a	-999	10	[0, 0, 0]	n/a	catFR1	1	R1207J
1079.381	0.006	1924595	COUNTDOWN_END	n/a	n/a	n/a	n/a	-999	10	[0, 0, 0]	n/a	catFR1	1	R1207J
1079.387	1.618	1924601	ORIENT	n/a	n/a	n/a	n/a	-999	10	[0, 0, 0]	n/a	catFR1	1	R1207J
1081.005	2.116	1926219	ORIENT_OFF	n/a	n/a	n/a	n/a	-999	10	[0, 0, 0]	n/a	catFR1	1	R1207J
1083.121	1.618	1928335	WORD	n/a	wordpools/wordpool_categorized_EN.txt	BLUEBIRD	Birds	1	10	[0, 0, 0]	n/a	catFR1	1	R1207J
1084.739	1.0	1929953	WORD_OFF	n/a	n/a	BLUEBIRD	n/a	1	10	[0, 0, 0]	n/a	catFR1	1	R1207J
1085.739	1.616	1930953	WORD	n/a	wordpools/wordpool_categorized_EN.txt	FINCH	Birds	2	10	[0, 0, 0]	n/a	catFR1	1	R1207J
1087.355	1.017	1932569	WORD_OFF	n/a	n/a	FINCH	n/a	2	10	[0, 0, 0]	n/a	catFR1	1	R1207J
1088.372	1.618	1933586	WORD	n/a	wordpools/wordpool_categorized_EN.txt	EVERGREEN	Trees	3	10	[0, 0, 0]	n/a	catFR1	1	R1207J
1089.99	0.816	1935204	WORD_OFF	n/a	n/a	EVERGREEN	n/a	3	10	[0, 0, 0]	n/a	catFR1	1	R1207J
1090.806	1.616	1936020	WORD	n/a	wordpools/wordpool_categorized_EN.txt	OAK	Trees	4	10	[0, 0, 0]	n/a	catFR1	1	R1207J
1092.422	0.85	1937636	WORD_OFF	n/a	n/a	OAK	n/a	4	10	[0, 0, 0]	n/a	catFR1	1	R1207J
1093.272	1.601	1938486	WORD	n/a	wordpools/wordpool_categorized_EN.txt	BASS	Instruments	5	10	[0, 0, 0]	n/a	catFR1	1	R1207J
1094.873	0.784	1940087	WORD_OFF	n/a	n/a	BASS	n/a	5	10	[0, 0, 0]	n/a	catFR1	1	R1207J
1095.657	1.616	1940871	WORD	n/a	wordpools/wordpool_categorized_EN.txt	TROMBONE	Instruments	6	10	[0, 0, 0]	n/a	catFR1	1	R1207J
1097.273	0.767	1942487	WORD_OFF	n/a	n/a	TROMBONE	n/a	6	10	[0, 0, 0]	n/a	catFR1	1	R1207J
1098.04	1.618	1943254	WORD	n/a	wordpools/wordpool_categorized_EN.txt	WILLOW	Trees	7	10	[0, 0, 0]	n/a	catFR1	1	R1207J
1099.658	0.832	1944872	WORD_OFF	n/a	n/a	WILLOW	n/a	7	10	[0, 0, 0]	n/a	catFR1	1	R1207J
1100.49	1.617	1945704	WORD	n/a	wordpools/wordpool_categorized_EN.txt	MAPLE	Trees	8	10	[0, 0, 0]	n/a	catFR1	1	R1207J
1102.107	0.818	1947321	WORD_OFF	n/a	n/a	MAPLE	n/a	8	10	[0, 0, 0]	n/a	catFR1	1	R1207J
1102.925	1.616	1948139	WORD	n/a	wordpools/wordpool_categorized_EN.txt	DOVE	Birds	9	10	[0, 0, 0]	n/a	catFR1	1	R1207J
1104.541	0.85	1949755	WORD_OFF	n/a	n/a	DOVE	n/a	9	10	[0, 0, 0]	n/a	catFR1	1	R1207J
1105.391	1.618	1950605	WORD	n/a	wordpools/wordpool_categorized_EN.txt	PIGEON	Birds	10	10	[0, 0, 0]	n/a	catFR1	1	R1207J
1107.009	0.783	1952223	WORD_OFF	n/a	n/a	PIGEON	n/a	10	10	[0, 0, 0]	n/a	catFR1	1	R1207J
1107.792	1.616	1953006	WORD	n/a	wordpools/wordpool_categorized_EN.txt	GUITAR	Instruments	11	10	[0, 0, 0]	n/a	catFR1	1	R1207J
1109.408	0.816	1954622	WORD_OFF	n/a	n/a	GUITAR	n/a	11	10	[0, 0, 0]	n/a	catFR1	1	R1207J
1110.224	1.602	1955438	WORD	n/a	wordpools/wordpool_categorized_EN.txt	ORGAN	Instruments	12	10	[0, 0, 0]	n/a	catFR1	1	R1207J
1111.826	0.0	1957040	ENCODING_END	n/a	n/a	n/a	n/a	-999	10	[0, 0, 0]	n/a	catFR1	1	R1207J
1111.826	0.098	1957040	WORD_OFF	n/a	n/a	ORGAN	n/a	12	10	[0, 0, 0]	n/a	catFR1	1	R1207J
1111.924	0.0	1957138	DISTRACT_START	n/a	n/a	n/a	n/a	-999	10	[0, 0, 0]	n/a	catFR1	1	R1207J
1111.924	0.018	1957138	START	n/a	n/a	n/a	n/a	-999	10	[-999, -999, -999]	n/a	catFR1	1	R1207J
1111.942	4.1	1957156	PROB	4.1	n/a	n/a	n/a	-999	10	[3, 2, 7]	12	catFR1	1	R1207J
1116.042	3.785	1961256	PROB	3.785	n/a	n/a	n/a	-999	10	[3, 4, 3]	10	catFR1	1	R1207J
1119.827	3.817	1965041	PROB	3.817	n/a	n/a	n/a	-999	10	[2, 8, 4]	14	catFR1	1	R1207J
1123.644	3.383	1968858	PROB	3.383	n/a	n/a	n/a	-999	10	[8, 2, 1]	11	catFR1	1	R1207J
1127.027	3.417	1972241	PROB	3.417	n/a	n/a	n/a	-999	10	[8, 6, 2]	16	catFR1	1	R1207J
1130.444	2.316	1975658	PROB	2.316	n/a	n/a	n/a	-999	10	[1, 1, 9]	11	catFR1	1	R1207J
1132.76	0.019	1977974	STOP	n/a	n/a	n/a	n/a	-999	10	[-999, -999, -999]	n/a	catFR1	1	R1207J
1132.779	0.549	1977993	DISTRACT_END	n/a	n/a	n/a	n/a	-999	10	[0, 0, 0]	n/a	catFR1	1	R1207J
1133.328	0.518	1978542	RETRIEVAL_ORIENT	n/a	n/a	n/a	n/a	-999	10	[0, 0, 0]	n/a	catFR1	1	R1207J
1133.846	5.333	1979060	REC_START	n/a	n/a	n/a	n/a	-999	10	[0, 0, 0]	n/a	catFR1	1	R1207J
1139.179	2.368	1984393	REC_WORD	2.368	n/a	EVERGREEN	Trees	3	10	[0, 0, 0]	n/a	catFR1	1	R1207J
1141.547	10.65	1986761	REC_WORD	10.65	n/a	MAPLE	Trees	8	10	[0, 0, 0]	n/a	catFR1	1	R1207J
1152.197	9.944	1997411	REC_WORD	9.944	n/a	WILLOW	Trees	7	10	[0, 0, 0]	n/a	catFR1	1	R1207J
1162.141	1.716	2007355	REC_WORD	1.716	n/a	RATCHET	n/a	-999	10	[0, 0, 0]	n/a	catFR1	1	R1207J
1163.857	4.559	2009071	REC_END	n/a	n/a	n/a	n/a	-999	10	[0, 0, 0]	n/a	catFR1	1	R1207J
1168.416	0.5	2013630	TRIAL	n/a	n/a	n/a	n/a	-999	11	[0, 0, 0]	n/a	catFR1	1	R1207J
1168.916	10.428	2014130	COUNTDOWN_START	n/a	n/a	n/a	n/a	-999	11	[0, 0, 0]	n/a	catFR1	1	R1207J
1179.344	0.006	2024558	COUNTDOWN_END	n/a	n/a	n/a	n/a	-999	11	[0, 0, 0]	n/a	catFR1	1	R1207J
1179.35	1.618	2024564	ORIENT	n/a	n/a	n/a	n/a	-999	11	[0, 0, 0]	n/a	catFR1	1	R1207J
1180.968	2.366	2026182	ORIENT_OFF	n/a	n/a	n/a	n/a	-999	11	[0, 0, 0]	n/a	catFR1	1	R1207J
1183.334	1.618	2028548	WORD	n/a	wordpools/wordpool_categorized_EN.txt	ROBIN	Birds	1	11	[0, 0, 0]	n/a	catFR1	1	R1207J
1184.952	0.9	2030166	WORD_OFF	n/a	n/a	ROBIN	n/a	1	11	[0, 0, 0]	n/a	catFR1	1	R1207J
1185.852	1.616	2031066	WORD	n/a	wordpools/wordpool_categorized_EN.txt	GOOSE	Birds	2	11	[0, 0, 0]	n/a	catFR1	1	R1207J
1187.468	0.967	2032682	WORD_OFF	n/a	n/a	GOOSE	n/a	2	11	[0, 0, 0]	n/a	catFR1	1	R1207J
1188.435	1.616	2033649	WORD	n/a	wordpools/wordpool_categorized_EN.txt	BEACH	Landscapes	3	11	[0, 0, 0]	n/a	catFR1	1	R1207J
1190.051	0.785	2035265	WORD_OFF	n/a	n/a	BEACH	n/a	3	11	[0, 0, 0]	n/a	catFR1	1	R1207J
1190.836	1.616	2036050	WORD	n/a	wordpools/wordpool_categorized_EN.txt	STREAM	Landscapes	4	11	[0, 0, 0]	n/a	catFR1	1	R1207J
1192.452	0.767	2037666	WORD_OFF	n/a	n/a	STREAM	n/a	4	11	[0, 0, 0]	n/a	catFR1	1	R1207J
1193.219	1.618	2038433	WORD	n/a	wordpools/wordpool_categorized_EN.txt	CALCULATOR	Electronics	5	11	[0, 0, 0]	n/a	catFR1	1	R1207J
1194.837	0.9	2040051	WORD_OFF	n/a	n/a	CALCULATOR	n/a	5	11	[0, 0, 0]	n/a	catFR1	1	R1207J
1195.737	1.616	2040951	WORD	n/a	wordpools/wordpool_categorized_EN.txt	STEREO	Electronics	6	11	[0, 0, 0]	n/a	catFR1	1	R1207J
1197.353	0.783	2042567	WORD_OFF	n/a	n/a	STEREO	n/a	6	11	[0, 0, 0]	n/a	catFR1	1	R1207J
1198.136	1.618	2043350	WORD	n/a	wordpools/wordpool_categorized_EN.txt	CROW	Birds	7	11	[0, 0, 0]	n/a	catFR1	1	R1207J
1199.754	0.966	2044968	WORD_OFF	n/a	n/a	CROW	n/a	7	11	[0, 0, 0]	n/a	catFR1	1	R1207J
1200.72	1.616	2045934	WORD	n/a	wordpools/wordpool_categorized_EN.txt	SPARROW	Birds	8	11	[0, 0, 0]	n/a	catFR1	1	R1207J
1202.336	0.867	2047550	WORD_OFF	n/a	n/a	SPARROW	n/a	8	11	[0, 0, 0]	n/a	catFR1	1	R1207J
1203.203	1.618	2048417	WORD	n/a	wordpools/wordpool_categorized_EN.txt	ISLAND	Landscapes	9	11	[0, 0, 0]	n/a	catFR1	1	R1207J
1204.821	0.784	2050035	WORD_OFF	n/a	n/a	ISLAND	n/a	9	11	[0, 0, 0]	n/a	catFR1	1	R1207J
1205.605	1.616	2050819	WORD	n/a	wordpools/wordpool_categorized_EN.txt	HILLS	Landscapes	10	11	[0, 0, 0]	n/a	catFR1	1	R1207J
1207.221	0.784	2052435	WORD_OFF	n/a	n/a	HILLS	n/a	10	11	[0, 0, 0]	n/a	catFR1	1	R1207J
1208.005	1.616	2053219	WORD	n/a	wordpools/wordpool_categorized_EN.txt	TABLET	Electronics	11	11	[0, 0, 0]	n/a	catFR1	1	R1207J
1209.621	0.816	2054835	WORD_OFF	n/a	n/a	TABLET	n/a	11	11	[0, 0, 0]	n/a	catFR1	1	R1207J
1210.437	1.617	2055651	WORD	n/a	wordpools/wordpool_categorized_EN.txt	MICROWAVE	Electronics	12	11	[0, 0, 0]	n/a	catFR1	1	R1207J
1212.054	0.001	2057268	WORD_OFF	n/a	n/a	MICROWAVE	n/a	12	11	[0, 0, 0]	n/a	catFR1	1	R1207J
1212.055	0.098	2057269	ENCODING_END	n/a	n/a	n/a	n/a	-999	11	[0, 0, 0]	n/a	catFR1	1	R1207J
1212.153	0.0	2057367	DISTRACT_START	n/a	n/a	n/a	n/a	-999	11	[0, 0, 0]	n/a	catFR1	1	R1207J
1212.153	0.018	2057367	START	n/a	n/a	n/a	n/a	-999	11	[-999, -999, -999]	n/a	catFR1	1	R1207J
1212.171	6.519	2057385	PROB	6.519	n/a	n/a	n/a	-999	11	[7, 6, 6]	19	catFR1	1	R1207J
1218.69	4.267	2063904	PROB	4.267	n/a	n/a	n/a	-999	11	[6, 7, 1]	14	catFR1	1	R1207J
1222.957	3.65	2068171	PROB	3.65	n/a	n/a	n/a	-999	11	[5, 4, 4]	13	catFR1	1	R1207J
1226.607	6.279	2071821	PROB	6.279	n/a	n/a	n/a	-999	11	[5, 8, 7]	20	catFR1	1	R1207J
1232.886	0.005	2078100	STOP	n/a	n/a	n/a	n/a	-999	11	[-999, -999, -999]	n/a	catFR1	1	R1207J
1232.891	0.633	2078105	DISTRACT_END	n/a	n/a	n/a	n/a	-999	11	[0, 0, 0]	n/a	catFR1	1	R1207J
1233.524	0.517	2078738	RETRIEVAL_ORIENT	n/a	n/a	n/a	n/a	-999	11	[0, 0, 0]	n/a	catFR1	1	R1207J
1234.041	4.05	2079255	REC_START	n/a	n/a	n/a	n/a	-999	11	[0, 0, 0]	n/a	catFR1	1	R1207J
1238.091	4.216	2083305	REC_WORD	4.216	n/a	ROBIN	Birds	1	11	[0, 0, 0]	n/a	catFR1	1	R1207J
1242.307	21.741	2087521	REC_WORD	21.741	n/a	WILLOW	n/a	-999	11	[0, 0, 0]	n/a	catFR1	1	R1207J
1264.048	5.313	2109262	REC_END	n/a	n/a	n/a	n/a	-999	11	[0, 0, 0]	n/a	catFR1	1	R1207J
1269.361	0.5	2114575	TRIAL	n/a	n/a	n/a	n/a	-999	12	[0, 0, 0]	n/a	catFR1	1	R1207J
1269.861	10.428	2115075	COUNTDOWN_START	n/a	n/a	n/a	n/a	-999	12	[0, 0, 0]	n/a	catFR1	1	R1207J
1280.289	0.007	2125503	COUNTDOWN_END	n/a	n/a	n/a	n/a	-999	12	[0, 0, 0]	n/a	catFR1	1	R1207J
1280.296	1.618	2125510	ORIENT	n/a	n/a	n/a	n/a	-999	12	[0, 0, 0]	n/a	catFR1	1	R1207J
1281.914	1.967	2127128	ORIENT_OFF	n/a	n/a	n/a	n/a	-999	12	[0, 0, 0]	n/a	catFR1	1	R1207J
1283.881	1.616	2129095	WORD	n/a	wordpools/wordpool_categorized_EN.txt	DAISY	Flowers	1	12	[0, 0, 0]	n/a	catFR1	1	R1207J
1285.497	1.0	2130711	WORD_OFF	n/a	n/a	DAISY	n/a	1	12	[0, 0, 0]	n/a	catFR1	1	R1207J
1286.497	1.617	2131711	WORD	n/a	wordpools/wordpool_categorized_EN.txt	ORCHID	Flowers	2	12	[0, 0, 0]	n/a	catFR1	1	R1207J
1288.114	0.884	2133328	WORD_OFF	n/a	n/a	ORCHID	n/a	2	12	[0, 0, 0]	n/a	catFR1	1	R1207J
1288.998	1.617	2134212	WORD	n/a	wordpools/wordpool_categorized_EN.txt	COMPUTER	Electronics	3	12	[0, 0, 0]	n/a	catFR1	1	R1207J
1290.615	0.916	2135829	WORD_OFF	n/a	n/a	COMPUTER	n/a	3	12	[0, 0, 0]	n/a	catFR1	1	R1207J
1291.531	1.617	2136745	WORD	n/a	wordpools/wordpool_categorized_EN.txt	SPEAKER	Electronics	4	12	[0, 0, 0]	n/a	catFR1	1	R1207J
1293.148	1.0	2138362	WORD_OFF	n/a	n/a	SPEAKER	n/a	4	12	[0, 0, 0]	n/a	catFR1	1	R1207J
1294.148	1.601	2139362	WORD	n/a	wordpools/wordpool_categorized_EN.txt	PIE	Desserts	5	12	[0, 0, 0]	n/a	catFR1	1	R1207J
1295.749	0.867	2140963	WORD_OFF	n/a	n/a	PIE	n/a	5	12	[0, 0, 0]	n/a	catFR1	1	R1207J
1296.616	1.616	2141830	WORD	n/a	wordpools/wordpool_categorized_EN.txt	PASTRY	Desserts	6	12	[0, 0, 0]	n/a	catFR1	1	R1207J
1298.232	0.95	2143446	WORD_OFF	n/a	n/a	PASTRY	n/a	6	12	[0, 0, 0]	n/a	catFR1	1	R1207J
1299.182	1.618	2144396	WORD	n/a	wordpools/wordpool_categorized_EN.txt	SUNFLOWER	Flowers	7	12	[0, 0, 0]	n/a	catFR1	1	R1207J
1300.8	0.883	2146014	WORD_OFF	n/a	n/a	SUNFLOWER	n/a	7	12	[0, 0, 0]	n/a	catFR1	1	R1207J
1301.683	1.616	2146897	WORD	n/a	wordpools/wordpool_categorized_EN.txt	VIOLET	Flowers	8	12	[0, 0, 0]	n/a	catFR1	1	R1207J
1303.299	0.951	2148513	WORD_OFF	n/a	n/a	VIOLET	n/a	8	12	[0, 0, 0]	n/a	catFR1	1	R1207J
1304.25	1.617	2149464	WORD	n/a	wordpools/wordpool_categorized_EN.txt	TELEVISION	Electronics	9	12	[0, 0, 0]	n/a	catFR1	1	R1207J
1305.867	0.884	2151081	WORD_OFF	n/a	n/a	TELEVISION	n/a	9	12	[0, 0, 0]	n/a	catFR1	1	R1207J
1306.751	1.616	2151965	WORD	n/a	wordpools/wordpool_categorized_EN.txt	SCANNER	Electronics	10	12	[0, 0, 0]	n/a	catFR1	1	R1207J
1308.367	0.966	2153581	WORD_OFF	n/a	n/a	SCANNER	n/a	10	12	[0, 0, 0]	n/a	catFR1	1	R1207J
1309.333	1.601	2154547	WORD	n/a	wordpools/wordpool_categorized_EN.txt	CUPCAKE	Desserts	11	12	[0, 0, 0]	n/a	catFR1	1	R1207J
1310.934	0.901	2156148	WORD_OFF	n/a	n/a	CUPCAKE	n/a	11	12	[0, 0, 0]	n/a	catFR1	1	R1207J
1311.835	1.616	2157049	WORD	n/a	wordpools/wordpool_categorized_EN.txt	FUDGE	Desserts	12	12	[0, 0, 0]	n/a	catFR1	1	R1207J
1313.451	0.0	2158665	ENCODING_END	n/a	n/a	n/a	n/a	-999	12	[0, 0, 0]	n/a	catFR1	1	R1207J
1313.451	0.137	2158665	WORD_OFF	n/a	n/a	FUDGE	n/a	12	12	[0, 0, 0]	n/a	catFR1	1	R1207J
1313.588	0.0	2158802	DISTRACT_START	n/a	n/a	n/a	n/a	-999	12	[0, 0, 0]	n/a	catFR1	1	R1207J
1313.588	0.014	2158802	START	n/a	n/a	n/a	n/a	-999	12	[-999, -999, -999]	n/a	catFR1	1	R1207J
1313.602	4.9	2158816	PROB	4.9	n/a	n/a	n/a	-999	12	[6, 1, 4]	11	catFR1	1	R1207J
1318.502	3.334	2163716	PROB	3.334	n/a	n/a	n/a	-999	12	[2, 4, 1]	7	catFR1	1	R1207J
1321.836	3.767	2167050	PROB	3.767	n/a	n/a	n/a	-999	12	[7, 1, 8]	16	catFR1	1	R1207J
1325.603	7.251	2170817	PROB	7.251	n/a	n/a	n/a	-999	12	[1, 5, 7]	13	catFR1	1	R1207J
1332.854	5.61	2178068	PROB	5.61	n/a	n/a	n/a	-999	12	[9, 4, 3]	16	catFR1	1	R1207J
1338.464	0.007	2183678	STOP	n/a	n/a	n/a	n/a	-999	12	[-999, -999, -999]	n/a	catFR1	1	R1207J
1338.471	0.566	2183685	DISTRACT_END	n/a	n/a	n/a	n/a	-999	12	[0, 0, 0]	n/a	catFR1	1	R1207J
1339.037	0.518	2184251	RETRIEVAL_ORIENT	n/a	n/a	n/a	n/a	-999	12	[0, 0, 0]	n/a	catFR1	1	R1207J
1339.555	5.233	2184769	REC_START	n/a	n/a	n/a	n/a	-999	12	[0, 0, 0]	n/a	catFR1	1	R1207J
1344.788	1.713	2190002	REC_WORD	1.713	n/a	TELEVISION	Electronics	9	12	[0, 0, 0]	n/a	catFR1	1	R1207J
1346.501	5.3	2191715	REC_WORD	5.3	n/a	TABLET	n/a	-999	12	[0, 0, 0]	n/a	catFR1	1	R1207J
1351.801	17.766	2197015	REC_WORD	17.766	n/a	LILAC	n/a	-999	12	[0, 0, 0]	n/a	catFR1	1	R1207J
1369.567	12.626	2214781	REC_END	n/a	n/a	n/a	n/a	-999	12	[0, 0, 0]	n/a	catFR1	1	R1207J
1382.193	0.5	2227407	TRIAL	n/a	n/a	n/a	n/a	-999	13	[0, 0, 0]	n/a	catFR1	1	R1207J
1382.693	10.428	2227907	COUNTDOWN_START	n/a	n/a	n/a	n/a	-999	13	[0, 0, 0]	n/a	catFR1	1	R1207J
1393.121	0.006	2238335	COUNTDOWN_END	n/a	n/a	n/a	n/a	-999	13	[0, 0, 0]	n/a	catFR1	1	R1207J
1393.127	1.618	2238341	ORIENT	n/a	n/a	n/a	n/a	-999	13	[0, 0, 0]	n/a	catFR1	1	R1207J
1394.745	1.951	2239959	ORIENT_OFF	n/a	n/a	n/a	n/a	-999	13	[0, 0, 0]	n/a	catFR1	1	R1207J
1396.696	1.616	2241911	WORD	n/a	wordpools/wordpool_categorized_EN.txt	RULER	OfficeSupplies	1	13	[0, 0, 0]	n/a	catFR1	1	R1207J
1398.312	0.999	2243527	WORD_OFF	n/a	n/a	RULER	n/a	1	13	[0, 0, 0]	n/a	catFR1	1	R1207J
1399.311	1.602	2244526	WORD	n/a	wordpools/wordpool_categorized_EN.txt	ERASER	OfficeSupplies	2	13	[0, 0, 0]	n/a	catFR1	1	R1207J
1400.913	0.8	2246128	WORD_OFF	n/a	n/a	ERASER	n/a	2	13	[0, 0, 0]	n/a	catFR1	1	R1207J
1401.713	1.616	2246928	WORD	n/a	wordpools/wordpool_categorized_EN.txt	ORANGE	Fruit	3	13	[0, 0, 0]	n/a	catFR1	1	R1207J
1403.329	0.833	2248544	WORD_OFF	n/a	n/a	ORANGE	n/a	3	13	[0, 0, 0]	n/a	catFR1	1	R1207J
1404.162	1.618	2249377	WORD	n/a	wordpools/wordpool_categorized_EN.txt	PLUM	Fruit	4	13	[0, 0, 0]	n/a	catFR1	1	R1207J
1405.78	0.95	2250995	WORD_OFF	n/a	n/a	PLUM	n/a	4	13	[0, 0, 0]	n/a	catFR1	1	R1207J
1406.73	1.616	2251945	WORD	n/a	wordpools/wordpool_categorized_EN.txt	CEILING	Building	5	13	[0, 0, 0]	n/a	catFR1	1	R1207J
1408.346	0.783	2253561	WORD_OFF	n/a	n/a	CEILING	n/a	5	13	[0, 0, 0]	n/a	catFR1	1	R1207J
1409.129	1.618	2254344	WORD	n/a	wordpools/wordpool_categorized_EN.txt	STAIRS	Building	6	13	[0, 0, 0]	n/a	catFR1	1	R1207J
1410.747	0.817	2255962	WORD_OFF	n/a	n/a	STAIRS	n/a	6	13	[0, 0, 0]	n/a	catFR1	1	R1207J
1411.564	1.616	2256779	WORD	n/a	wordpools/wordpool_categorized_EN.txt	BANANA	Fruit	7	13	[0, 0, 0]	n/a	catFR1	1	R1207J
1413.18	0.967	2258395	WORD_OFF	n/a	n/a	BANANA	n/a	7	13	[0, 0, 0]	n/a	catFR1	1	R1207J
1414.147	1.618	2259362	WORD	n/a	wordpools/wordpool_categorized_EN.txt	BLUEBERRY	Fruit	8	13	[0, 0, 0]	n/a	catFR1	1	R1207J
1415.765	0.883	2260980	WORD_OFF	n/a	n/a	BLUEBERRY	n/a	8	13	[0, 0, 0]	n/a	catFR1	1	R1207J
1416.648	1.616	2261863	WORD	n/a	wordpools/wordpool_categorized_EN.txt	FOLDER	OfficeSupplies	9	13	[0, 0, 0]	n/a	catFR1	1	R1207J
1418.264	1.017	2263479	WORD_OFF	n/a	n/a	FOLDER	n/a	9	13	[0, 0, 0]	n/a	catFR1	1	R1207J
1419.281	1.618	2264496	WORD	n/a	wordpools/wordpool_categorized_EN.txt	PENCIL	OfficeSupplies	10	13	[0, 0, 0]	n/a	catFR1	1	R1207J
1420.899	0.783	2266114	WORD_OFF	n/a	n/a	PENCIL	n/a	10	13	[0, 0, 0]	n/a	catFR1	1	R1207J
1421.682	1.616	2266897	WORD	n/a	wordpools/wordpool_categorized_EN.txt	DOOR	Building	11	13	[0, 0, 0]	n/a	catFR1	1	R1207J
1423.298	0.917	2268513	WORD_OFF	n/a	n/a	DOOR	n/a	11	13	[0, 0, 0]	n/a	catFR1	1	R1207J
1424.215	1.601	2269430	WORD	n/a	wordpools/wordpool_categorized_EN.txt	WALL	Building	12	13	[0, 0, 0]	n/a	catFR1	1	R1207J
1425.816	0.0	2271031	ENCODING_END	n/a	n/a	n/a	n/a	-999	13	[0, 0, 0]	n/a	catFR1	1	R1207J
1425.816	0.094	2271031	WORD_OFF	n/a	n/a	WALL	n/a	12	13	[0, 0, 0]	n/a	catFR1	1	R1207J
1425.91	0.0	2271125	DISTRACT_START	n/a	n/a	n/a	n/a	-999	13	[0, 0, 0]	n/a	catFR1	1	R1207J
1425.91	0.023	2271125	START	n/a	n/a	n/a	n/a	-999	13	[-999, -999, -999]	n/a	catFR1	1	R1207J
1425.933	7.951	2271148	PROB	7.951	n/a	n/a	n/a	-999	13	[1, 2, 1]	4	catFR1	1	R1207J
1433.884	3.616	2279099	PROB	3.616	n/a	n/a	n/a	-999	13	[2, 8, 7]	17	catFR1	1	R1207J
1437.5	7.435	2282715	PROB	7.435	n/a	n/a	n/a	-999	13	[8, 9, 7]	23	catFR1	1	R1207J
1444.935	3.221	2290150	PROB	3.221	n/a	n/a	n/a	-999	13	[1, 2, 8]	11	catFR1	1	R1207J
1448.156	0.012	2293371	STOP	n/a	n/a	n/a	n/a	-999	13	[-999, -999, -999]	n/a	catFR1	1	R1207J
1448.168	0.618	2293383	DISTRACT_END	n/a	n/a	n/a	n/a	-999	13	[0, 0, 0]	n/a	catFR1	1	R1207J
1448.786	0.516	2294001	RETRIEVAL_ORIENT	n/a	n/a	n/a	n/a	-999	13	[0, 0, 0]	n/a	catFR1	1	R1207J
1449.302	1.663	2294517	REC_START	n/a	n/a	n/a	n/a	-999	13	[0, 0, 0]	n/a	catFR1	1	R1207J
1450.965	1.172	2296180	REC_WORD	1.172	n/a	RULER	OfficeSupplies	1	13	[0, 0, 0]	n/a	catFR1	1	R1207J
1452.137	11.948	2297352	REC_WORD	11.948	n/a	PENCIL	OfficeSupplies	10	13	[0, 0, 0]	n/a	catFR1	1	R1207J
1464.085	15.227	2309300	REC_WORD_VV	15.227	n/a	<>	n/a	-999	13	[0, 0, 0]	n/a	catFR1	1	R1207J
1479.312	4.562	2324527	REC_END	n/a	n/a	n/a	n/a	-999	13	[0, 0, 0]	n/a	catFR1	1	R1207J
1483.874	0.5	2329089	TRIAL	n/a	n/a	n/a	n/a	-999	14	[0, 0, 0]	n/a	catFR1	1	R1207J
1484.374	10.428	2329589	COUNTDOWN_START	n/a	n/a	n/a	n/a	-999	14	[0, 0, 0]	n/a	catFR1	1	R1207J
1494.802	0.006	2340017	COUNTDOWN_END	n/a	n/a	n/a	n/a	-999	14	[0, 0, 0]	n/a	catFR1	1	R1207J
1494.808	1.616	2340023	ORIENT	n/a	n/a	n/a	n/a	-999	14	[0, 0, 0]	n/a	catFR1	1	R1207J
1496.424	2.034	2341639	ORIENT_OFF	n/a	n/a	n/a	n/a	-999	14	[0, 0, 0]	n/a	catFR1	1	R1207J
1498.458	1.616	2343673	WORD	n/a	wordpools/wordpool_categorized_EN.txt	DUCK	Birds	1	14	[0, 0, 0]	n/a	catFR1	1	R1207J
1500.074	0.951	2345289	WORD_OFF	n/a	n/a	DUCK	n/a	1	14	[0, 0, 0]	n/a	catFR1	1	R1207J
1501.025	1.618	2346240	WORD	n/a	wordpools/wordpool_categorized_EN.txt	CARDINAL	Birds	2	14	[0, 0, 0]	n/a	catFR1	1	R1207J
1502.643	0.782	2347858	WORD_OFF	n/a	n/a	CARDINAL	n/a	2	14	[0, 0, 0]	n/a	catFR1	1	R1207J
1503.425	1.617	2348640	WORD	n/a	wordpools/wordpool_categorized_EN.txt	ROOM	Building	3	14	[0, 0, 0]	n/a	catFR1	1	R1207J
1505.042	0.934	2350257	WORD_OFF	n/a	n/a	ROOM	n/a	3	14	[0, 0, 0]	n/a	catFR1	1	R1207J
1505.976	1.617	2351191	WORD	n/a	wordpools/wordpool_categorized_EN.txt	BATHROOM	Building	4	14	[0, 0, 0]	n/a	catFR1	1	R1207J
1507.593	0.766	2352808	WORD_OFF	n/a	n/a	BATHROOM	n/a	4	14	[0, 0, 0]	n/a	catFR1	1	R1207J
1508.359	1.618	2353574	WORD	n/a	wordpools/wordpool_categorized_EN.txt	FINGERS	BodyParts	5	14	[0, 0, 0]	n/a	catFR1	1	R1207J
1509.977	0.85	2355192	WORD_OFF	n/a	n/a	FINGERS	n/a	5	14	[0, 0, 0]	n/a	catFR1	1	R1207J
1510.827	1.616	2356042	WORD	n/a	wordpools/wordpool_categorized_EN.txt	HAND	BodyParts	6	14	[0, 0, 0]	n/a	catFR1	1	R1207J
1512.443	0.783	2357658	WORD_OFF	n/a	n/a	HAND	n/a	6	14	[0, 0, 0]	n/a	catFR1	1	R1207J
1513.226	1.618	2358441	WORD	n/a	wordpools/wordpool_categorized_EN.txt	FLOOR	Building	7	14	[0, 0, 0]	n/a	catFR1	1	R1207J
1514.844	0.817	2360059	WORD_OFF	n/a	n/a	FLOOR	n/a	7	14	[0, 0, 0]	n/a	catFR1	1	R1207J
1515.661	1.616	2360876	WORD	n/a	wordpools/wordpool_categorized_EN.txt	FOUNDATION	Building	8	14	[0, 0, 0]	n/a	catFR1	1	R1207J
1517.277	0.8	2362492	WORD_OFF	n/a	n/a	FOUNDATION	n/a	8	14	[0, 0, 0]	n/a	catFR1	1	R1207J
1518.077	1.618	2363292	WORD	n/a	wordpools/wordpool_categorized_EN.txt	HAWK	Birds	9	14	[0, 0, 0]	n/a	catFR1	1	R1207J
1519.695	0.95	2364910	WORD_OFF	n/a	n/a	HAWK	n/a	9	14	[0, 0, 0]	n/a	catFR1	1	R1207J
1520.645	1.616	2365860	WORD	n/a	wordpools/wordpool_categorized_EN.txt	SEAGULL	Birds	10	14	[0, 0, 0]	n/a	catFR1	1	R1207J
1522.261	1.0	2367476	WORD_OFF	n/a	n/a	SEAGULL	n/a	10	14	[0, 0, 0]	n/a	catFR1	1	R1207J
1523.261	1.618	2368476	WORD	n/a	wordpools/wordpool_categorized_EN.txt	EAR	BodyParts	11	14	[0, 0, 0]	n/a	catFR1	1	R1207J
1524.879	0.983	2370094	WORD_OFF	n/a	n/a	EAR	n/a	11	14	[0, 0, 0]	n/a	catFR1	1	R1207J
1525.862	1.616	2371077	WORD	n/a	wordpools/wordpool_categorized_EN.txt	KNEE	BodyParts	12	14	[0, 0, 0]	n/a	catFR1	1	R1207J
1527.478	0.001	2372693	WORD_OFF	n/a	n/a	KNEE	n/a	12	14	[0, 0, 0]	n/a	catFR1	1	R1207J
1527.479	0.104	2372694	ENCODING_END	n/a	n/a	n/a	n/a	-999	14	[0, 0, 0]	n/a	catFR1	1	R1207J
1527.583	0.0	2372798	DISTRACT_START	n/a	n/a	n/a	n/a	-999	14	[0, 0, 0]	n/a	catFR1	1	R1207J
1527.583	0.013	2372798	START	n/a	n/a	n/a	n/a	-999	14	[-999, -999, -999]	n/a	catFR1	1	R1207J
1527.596	6.267	2372811	PROB	6.267	n/a	n/a	n/a	-999	14	[4, 8, 7]	19	catFR1	1	R1207J
1533.863	2.684	2379078	PROB	2.684	n/a	n/a	n/a	-999	14	[5, 5, 1]	11	catFR1	1	R1207J
1536.547	6.883	2381762	PROB	6.883	n/a	n/a	n/a	-999	14	[6, 3, 9]	18	catFR1	1	R1207J
1543.43	3.435	2388645	PROB	3.435	n/a	n/a	n/a	-999	14	[8, 3, 7]	18	catFR1	1	R1207J
1546.865	6.703	2392080	PROB	6.703	n/a	n/a	n/a	-999	14	[4, 8, 4]	16	catFR1	1	R1207J
1553.568	0.015	2398783	STOP	n/a	n/a	n/a	n/a	-999	14	[-999, -999, -999]	n/a	catFR1	1	R1207J
1553.583	0.682	2398798	DISTRACT_END	n/a	n/a	n/a	n/a	-999	14	[0, 0, 0]	n/a	catFR1	1	R1207J
1554.265	0.519	2399480	RETRIEVAL_ORIENT	n/a	n/a	n/a	n/a	-999	14	[0, 0, 0]	n/a	catFR1	1	R1207J
1554.784	5.21	2399999	REC_START	n/a	n/a	n/a	n/a	-999	14	[0, 0, 0]	n/a	catFR1	1	R1207J
1559.994	3.967	2405209	REC_WORD	3.967	n/a	STAIRS	n/a	-999	14	[0, 0, 0]	n/a	catFR1	1	R1207J
1563.961	19.434	2409176	REC_WORD	19.434	n/a	RULER	n/a	-999	14	[0, 0, 0]	n/a	catFR1	1	R1207J
1583.395	1.399	2428610	REC_WORD_VV	1.399	n/a	<>	n/a	-999	14	[0, 0, 0]	n/a	catFR1	1	R1207J
1584.794	4.81	2430009	REC_END	n/a	n/a	n/a	n/a	-999	14	[0, 0, 0]	n/a	catFR1	1	R1207J
1589.604	0.5	2434819	TRIAL	n/a	n/a	n/a	n/a	-999	15	[0, 0, 0]	n/a	catFR1	1	R1207J
1590.104	10.428	2435319	COUNTDOWN_START	n/a	n/a	n/a	n/a	-999	15	[0, 0, 0]	n/a	catFR1	1	R1207J
1600.532	0.005	2445747	COUNTDOWN_END	n/a	n/a	n/a	n/a	-999	15	[0, 0, 0]	n/a	catFR1	1	R1207J
1600.537	1.617	2445752	ORIENT	n/a	n/a	n/a	n/a	-999	15	[0, 0, 0]	n/a	catFR1	1	R1207J
1602.154	2.051	2447369	ORIENT_OFF	n/a	n/a	n/a	n/a	-999	15	[0, 0, 0]	n/a	catFR1	1	R1207J
1604.205	1.618	2449420	WORD	n/a	wordpools/wordpool_categorized_EN.txt	APPLE	Fruit	1	15	[0, 0, 0]	n/a	catFR1	1	R1207J
1605.823	0.883	2451038	WORD_OFF	n/a	n/a	APPLE	n/a	1	15	[0, 0, 0]	n/a	catFR1	1	R1207J
1606.706	1.616	2451921	WORD	n/a	wordpools/wordpool_categorized_EN.txt	LEMON	Fruit	2	15	[0, 0, 0]	n/a	catFR1	1	R1207J
1608.322	0.833	2453537	WORD_OFF	n/a	n/a	LEMON	n/a	2	15	[0, 0, 0]	n/a	catFR1	1	R1207J
1609.155	1.618	2454370	WORD	n/a	wordpools/wordpool_categorized_EN.txt	SPRUCE	Trees	3	15	[0, 0, 0]	n/a	catFR1	1	R1207J
1610.773	0.817	2455988	WORD_OFF	n/a	n/a	SPRUCE	n/a	3	15	[0, 0, 0]	n/a	catFR1	1	R1207J
1611.59	1.616	2456805	WORD	n/a	wordpools/wordpool_categorized_EN.txt	WALNUT	Trees	4	15	[0, 0, 0]	n/a	catFR1	1	R1207J
1613.206	0.9	2458421	WORD_OFF	n/a	n/a	WALNUT	n/a	4	15	[0, 0, 0]	n/a	catFR1	1	R1207J
1614.106	1.618	2459321	WORD	n/a	wordpools/wordpool_categorized_EN.txt	BROCCOLI	Vegetables	5	15	[0, 0, 0]	n/a	catFR1	1	R1207J
1615.724	0.782	2460939	WORD_OFF	n/a	n/a	BROCCOLI	n/a	5	15	[0, 0, 0]	n/a	catFR1	1	R1207J
1616.506	1.617	2461721	WORD	n/a	wordpools/wordpool_categorized_EN.txt	CABBAGE	Vegetables	6	15	[0, 0, 0]	n/a	catFR1	1	R1207J
1618.123	0.784	2463338	WORD_OFF	n/a	n/a	CABBAGE	n/a	6	15	[0, 0, 0]	n/a	catFR1	1	R1207J
1618.907	1.616	2464122	WORD	n/a	wordpools/wordpool_categorized_EN.txt	LIME	Fruit	7	15	[0, 0, 0]	n/a	catFR1	1	R1207J
1620.523	0.817	2465738	WORD_OFF	n/a	n/a	LIME	n/a	7	15	[0, 0, 0]	n/a	catFR1	1	R1207J
1621.34	1.618	2466555	WORD	n/a	wordpools/wordpool_categorized_EN.txt	GRAPE	Fruit	8	15	[0, 0, 0]	n/a	catFR1	1	R1207J
1622.958	0.9	2468173	WORD_OFF	n/a	n/a	GRAPE	n/a	8	15	[0, 0, 0]	n/a	catFR1	1	R1207J
1623.858	1.616	2469073	WORD	n/a	wordpools/wordpool_categorized_EN.txt	BIRCH	Trees	9	15	[0, 0, 0]	n/a	catFR1	1	R1207J
1625.474	0.883	2470689	WORD_OFF	n/a	n/a	BIRCH	n/a	9	15	[0, 0, 0]	n/a	catFR1	1	R1207J
1626.357	1.619	2471572	WORD	n/a	wordpools/wordpool_categorized_EN.txt	ELM	Trees	10	15	[0, 0, 0]	n/a	catFR1	1	R1207J
1627.976	0.966	2473191	WORD_OFF	n/a	n/a	ELM	n/a	10	15	[0, 0, 0]	n/a	catFR1	1	R1207J
1628.942	1.617	2474157	WORD	n/a	wordpools/wordpool_categorized_EN.txt	CORN	Vegetables	11	15	[0, 0, 0]	n/a	catFR1	1	R1207J
1630.559	0.799	2475774	WORD_OFF	n/a	n/a	CORN	n/a	11	15	[0, 0, 0]	n/a	catFR1	1	R1207J
1631.358	1.618	2476573	WORD	n/a	wordpools/wordpool_categorized_EN.txt	PEAS	Vegetables	12	15	[0, 0, 0]	n/a	catFR1	1	R1207J
1632.976	0.0	2478191	ENCODING_END	n/a	n/a	n/a	n/a	-999	15	[0, 0, 0]	n/a	catFR1	1	R1207J
1632.976	0.128	2478191	WORD_OFF	n/a	n/a	PEAS	n/a	12	15	[0, 0, 0]	n/a	catFR1	1	R1207J
1633.104	0.0	2478319	DISTRACT_START	n/a	n/a	n/a	n/a	-999	15	[0, 0, 0]	n/a	catFR1	1	R1207J
1633.104	0.021	2478319	START	n/a	n/a	n/a	n/a	-999	15	[-999, -999, -999]	n/a	catFR1	1	R1207J
1633.125	5.452	2478340	PROB	5.452	n/a	n/a	n/a	-999	15	[3, 2, 3]	8	catFR1	1	R1207J
1638.577	2.549	2483792	PROB	2.549	n/a	n/a	n/a	-999	15	[2, 4, 5]	11	catFR1	1	R1207J
1641.126	3.602	2486341	PROB	3.602	n/a	n/a	n/a	-999	15	[7, 4, 6]	17	catFR1	1	R1207J
1644.728	3.749	2489943	PROB	3.749	n/a	n/a	n/a	-999	15	[5, 1, 5]	11	catFR1	1	R1207J
1648.477	5.621	2493692	PROB	5.621	n/a	n/a	n/a	-999	15	[9, 8, 9]	26	catFR1	1	R1207J
1654.098	0.013	2499313	STOP	n/a	n/a	n/a	n/a	-999	15	[-999, -999, -999]	n/a	catFR1	1	R1207J
1654.111	0.701	2499326	DISTRACT_END	n/a	n/a	n/a	n/a	-999	15	[0, 0, 0]	n/a	catFR1	1	R1207J
1654.812	0.516	2500027	RETRIEVAL_ORIENT	n/a	n/a	n/a	n/a	-999	15	[0, 0, 0]	n/a	catFR1	1	R1207J
1655.328	5.285	2500543	REC_START	n/a	n/a	n/a	n/a	-999	15	[0, 0, 0]	n/a	catFR1	1	R1207J
1660.613	1.0	2505828	REC_WORD_VV	1.0	n/a	<>	n/a	-999	15	[0, 0, 0]	n/a	catFR1	1	R1207J
1661.613	3.519	2506828	REC_WORD_VV	3.519	n/a	<>	n/a	-999	15	[0, 0, 0]	n/a	catFR1	1	R1207J
1665.132	11.293	2510347	REC_WORD	11.293	n/a	BIRCH	Trees	9	15	[0, 0, 0]	n/a	catFR1	1	R1207J
1676.425	8.915	2521640	REC_WORD	8.915	n/a	SPRUCE	Trees	3	15	[0, 0, 0]	n/a	catFR1	1	R1207J
1685.34	5.41	2530555	REC_END	n/a	n/a	n/a	n/a	-999	15	[0, 0, 0]	n/a	catFR1	1	R1207J
1690.75	0.5	2535965	TRIAL	n/a	n/a	n/a	n/a	-999	16	[0, 0, 0]	n/a	catFR1	1	R1207J
1691.25	10.428	2536465	COUNTDOWN_START	n/a	n/a	n/a	n/a	-999	16	[0, 0, 0]	n/a	catFR1	1	R1207J
1701.678	0.007	2546893	COUNTDOWN_END	n/a	n/a	n/a	n/a	-999	16	[0, 0, 0]	n/a	catFR1	1	R1207J
1701.685	1.616	2546900	ORIENT	n/a	n/a	n/a	n/a	-999	16	[0, 0, 0]	n/a	catFR1	1	R1207J
1703.301	2.133	2548516	ORIENT_OFF	n/a	n/a	n/a	n/a	-999	16	[0, 0, 0]	n/a	catFR1	1	R1207J
1705.434	1.617	2550649	WORD	n/a	wordpools/wordpool_categorized_EN.txt	POTATO	Vegetables	1	16	[0, 0, 0]	n/a	catFR1	1	R1207J
1707.051	0.951	2552266	WORD_OFF	n/a	n/a	POTATO	n/a	1	16	[0, 0, 0]	n/a	catFR1	1	R1207J
1708.002	1.617	2553217	WORD	n/a	wordpools/wordpool_categorized_EN.txt	CAULIFLOWER	Vegetables	2	16	[0, 0, 0]	n/a	catFR1	1	R1207J
1709.619	0.916	2554834	WORD_OFF	n/a	n/a	CAULIFLOWER	n/a	2	16	[0, 0, 0]	n/a	catFR1	1	R1207J
1710.535	1.617	2555750	WORD	n/a	wordpools/wordpool_categorized_EN.txt	KNIFE	KitchenTools	3	16	[0, 0, 0]	n/a	catFR1	1	R1207J
1712.152	0.9	2557367	WORD_OFF	n/a	n/a	KNIFE	n/a	3	16	[0, 0, 0]	n/a	catFR1	1	R1207J
1713.052	1.618	2558267	WORD	n/a	wordpools/wordpool_categorized_EN.txt	CORKSCREW	KitchenTools	4	16	[0, 0, 0]	n/a	catFR1	1	R1207J
1714.67	0.816	2559885	WORD_OFF	n/a	n/a	CORKSCREW	n/a	4	16	[0, 0, 0]	n/a	catFR1	1	R1207J
1715.486	1.617	2560701	WORD	n/a	wordpools/wordpool_categorized_EN.txt	THUNDER	Weather	5	16	[0, 0, 0]	n/a	catFR1	1	R1207J
1717.103	0.867	2562318	WORD_OFF	n/a	n/a	THUNDER	n/a	5	16	[0, 0, 0]	n/a	catFR1	1	R1207J
1717.97	1.617	2563185	WORD	n/a	wordpools/wordpool_categorized_EN.txt	TORNADO	Weather	6	16	[0, 0, 0]	n/a	catFR1	1	R1207J
1719.587	0.899	2564802	WORD_OFF	n/a	n/a	TORNADO	n/a	6	16	[0, 0, 0]	n/a	catFR1	1	R1207J
1720.486	1.617	2565701	WORD	n/a	wordpools/wordpool_categorized_EN.txt	TONGS	KitchenTools	7	16	[0, 0, 0]	n/a	catFR1	1	R1207J
1722.103	0.901	2567318	WORD_OFF	n/a	n/a	TONGS	n/a	7	16	[0, 0, 0]	n/a	catFR1	1	R1207J
1723.004	1.617	2568219	WORD	n/a	wordpools/wordpool_categorized_EN.txt	LADLE	KitchenTools	8	16	[0, 0, 0]	n/a	catFR1	1	R1207J
1724.621	0.833	2569836	WORD_OFF	n/a	n/a	LADLE	n/a	8	16	[0, 0, 0]	n/a	catFR1	1	R1207J
1725.454	1.617	2570669	WORD	n/a	wordpools/wordpool_categorized_EN.txt	CELERY	Vegetables	9	16	[0, 0, 0]	n/a	catFR1	1	R1207J
1727.071	0.917	2572286	WORD_OFF	n/a	n/a	CELERY	n/a	9	16	[0, 0, 0]	n/a	catFR1	1	R1207J
1727.988	1.617	2573203	WORD	n/a	wordpools/wordpool_categorized_EN.txt	CARROT	Vegetables	10	16	[0, 0, 0]	n/a	catFR1	1	R1207J
1729.605	0.932	2574820	WORD_OFF	n/a	n/a	CARROT	n/a	10	16	[0, 0, 0]	n/a	catFR1	1	R1207J
1730.537	1.617	2575752	WORD	n/a	wordpools/wordpool_categorized_EN.txt	DRIZZLE	Weather	11	16	[0, 0, 0]	n/a	catFR1	1	R1207J
1732.154	0.851	2577369	WORD_OFF	n/a	n/a	DRIZZLE	n/a	11	16	[0, 0, 0]	n/a	catFR1	1	R1207J
1733.005	1.617	2578220	WORD	n/a	wordpools/wordpool_categorized_EN.txt	THUNDERSTORM	Weather	12	16	[0, 0, 0]	n/a	catFR1	1	R1207J
1734.622	0.001	2579837	WORD_OFF	n/a	n/a	THUNDERSTORM	n/a	12	16	[0, 0, 0]	n/a	catFR1	1	R1207J
1734.623	0.099	2579838	ENCODING_END	n/a	n/a	n/a	n/a	-999	16	[0, 0, 0]	n/a	catFR1	1	R1207J
1734.722	0.0	2579937	DISTRACT_START	n/a	n/a	n/a	n/a	-999	16	[0, 0, 0]	n/a	catFR1	1	R1207J
1734.722	0.017	2579937	START	n/a	n/a	n/a	n/a	-999	16	[-999, -999, -999]	n/a	catFR1	1	R1207J
1734.739	4.85	2579954	PROB	4.85	n/a	n/a	n/a	-999	16	[6, 4, 8]	18	catFR1	1	R1207J
1739.589	3.418	2584804	PROB	3.418	n/a	n/a	n/a	-999	16	[6, 7, 3]	16	catFR1	1	R1207J
1743.007	3.55	2588222	PROB	3.55	n/a	n/a	n/a	-999	16	[2, 7, 2]	11	catFR1	1	R1207J
1746.557	5.401	2591772	PROB	5.401	n/a	n/a	n/a	-999	16	[5, 3, 6]	14	catFR1	1	R1207J
1751.958	3.521	2597173	PROB	3.521	n/a	n/a	n/a	-999	16	[5, 2, 1]	8	catFR1	1	R1207J
1755.479	0.012	2600694	STOP	n/a	n/a	n/a	n/a	-999	16	[-999, -999, -999]	n/a	catFR1	1	R1207J
1755.491	0.683	2600706	DISTRACT_END	n/a	n/a	n/a	n/a	-999	16	[0, 0, 0]	n/a	catFR1	1	R1207J
1756.174	0.519	2601389	RETRIEVAL_ORIENT	n/a	n/a	n/a	n/a	-999	16	[0, 0, 0]	n/a	catFR1	1	R1207J
1756.693	1.818	2601908	REC_START	n/a	n/a	n/a	n/a	-999	16	[0, 0, 0]	n/a	catFR1	1	R1207J
1758.511	2.46	2603726	REC_WORD	2.46	n/a	LADLE	KitchenTools	8	16	[0, 0, 0]	n/a	catFR1	1	R1207J
1760.971	1.178	2606186	REC_WORD	1.178	n/a	BROCCOLI	n/a	-999	16	[0, 0, 0]	n/a	catFR1	1	R1207J
1762.149	1.0	2607364	REC_WORD	1.0	n/a	CAULIFLOWER	Vegetables	2	16	[0, 0, 0]	n/a	catFR1	1	R1207J
1763.149	2.942	2608364	REC_WORD_VV	2.942	n/a	<>	n/a	-999	16	[0, 0, 0]	n/a	catFR1	1	R1207J
1766.091	2.924	2611306	REC_WORD	2.924	n/a	CORKSCREW	KitchenTools	4	16	[0, 0, 0]	n/a	catFR1	1	R1207J
1769.015	17.689	2614230	REC_WORD	17.689	n/a	TONGS	KitchenTools	7	16	[0, 0, 0]	n/a	catFR1	1	R1207J
1786.704	13.96	2631919	REC_END	n/a	n/a	n/a	n/a	-999	16	[0, 0, 0]	n/a	catFR1	1	R1207J
1800.664	0.5	2645879	TRIAL	n/a	n/a	n/a	n/a	-999	17	[0, 0, 0]	n/a	catFR1	1	R1207J
1801.164	10.428	2646379	COUNTDOWN_START	n/a	n/a	n/a	n/a	-999	17	[0, 0, 0]	n/a	catFR1	1	R1207J
1811.592	0.007	2656807	COUNTDOWN_END	n/a	n/a	n/a	n/a	-999	17	[0, 0, 0]	n/a	catFR1	1	R1207J
1811.599	1.616	2656814	ORIENT	n/a	n/a	n/a	n/a	-999	17	[0, 0, 0]	n/a	catFR1	1	R1207J
1813.215	2.1	2658430	ORIENT_OFF	n/a	n/a	n/a	n/a	-999	17	[0, 0, 0]	n/a	catFR1	1	R1207J
1815.315	1.601	2660530	WORD	n/a	wordpools/wordpool_categorized_EN.txt	PANDA	Zoo	1	17	[0, 0, 0]	n/a	catFR1	1	R1207J
1816.916	0.884	2662131	WORD_OFF	n/a	n/a	PANDA	n/a	1	17	[0, 0, 0]	n/a	catFR1	1	R1207J
1817.8	1.615	2663015	WORD	n/a	wordpools/wordpool_categorized_EN.txt	TIGER	Zoo	2	17	[0, 0, 0]	n/a	catFR1	1	R1207J
1819.415	0.95	2664631	WORD_OFF	n/a	n/a	TIGER	n/a	2	17	[0, 0, 0]	n/a	catFR1	1	R1207J
1820.365	1.602	2665581	WORD	n/a	wordpools/wordpool_categorized_EN.txt	MOUSSE	Desserts	3	17	[0, 0, 0]	n/a	catFR1	1	R1207J
1821.967	0.867	2667183	WORD_OFF	n/a	n/a	MOUSSE	n/a	3	17	[0, 0, 0]	n/a	catFR1	1	R1207J
1822.834	1.616	2668050	WORD	n/a	wordpools/wordpool_categorized_EN.txt	CAKE	Desserts	4	17	[0, 0, 0]	n/a	catFR1	1	R1207J
1824.45	0.766	2669666	WORD_OFF	n/a	n/a	CAKE	n/a	4	17	[0, 0, 0]	n/a	catFR1	1	R1207J
1825.216	1.618	2670432	WORD	n/a	wordpools/wordpool_categorized_EN.txt	WINDOW	Building	5	17	[0, 0, 0]	n/a	catFR1	1	R1207J
1826.834	0.817	2672050	WORD_OFF	n/a	n/a	WINDOW	n/a	5	17	[0, 0, 0]	n/a	catFR1	1	R1207J
1827.651	1.616	2672867	WORD	n/a	wordpools/wordpool_categorized_EN.txt	ROOF	Building	6	17	[0, 0, 0]	n/a	catFR1	1	R1207J
1829.267	0.8	2674483	WORD_OFF	n/a	n/a	ROOF	n/a	6	17	[0, 0, 0]	n/a	catFR1	1	R1207J
1830.067	1.618	2675283	WORD	n/a	wordpools/wordpool_categorized_EN.txt	GORILLA	Zoo	7	17	[0, 0, 0]	n/a	catFR1	1	R1207J
1831.685	0.816	2676901	WORD_OFF	n/a	n/a	GORILLA	n/a	7	17	[0, 0, 0]	n/a	catFR1	1	R1207J
1832.501	1.616	2677717	WORD	n/a	wordpools/wordpool_categorized_EN.txt	BEAR	Zoo	8	17	[0, 0, 0]	n/a	catFR1	1	R1207J
1834.117	0.951	2679333	WORD_OFF	n/a	n/a	BEAR	n/a	8	17	[0, 0, 0]	n/a	catFR1	1	R1207J
1835.068	1.618	2680284	WORD	n/a	wordpools/wordpool_categorized_EN.txt	JELLO	Desserts	9	17	[0, 0, 0]	n/a	catFR1	1	R1207J
1836.686	0.815	2681902	WORD_OFF	n/a	n/a	JELLO	n/a	9	17	[0, 0, 0]	n/a	catFR1	1	R1207J
1837.501	1.617	2682717	WORD	n/a	wordpools/wordpool_categorized_EN.txt	COOKIE	Desserts	10	17	[0, 0, 0]	n/a	catFR1	1	R1207J
1839.118	0.818	2684334	WORD_OFF	n/a	n/a	COOKIE	n/a	10	17	[0, 0, 0]	n/a	catFR1	1	R1207J
1839.936	1.617	2685152	WORD	n/a	wordpools/wordpool_categorized_EN.txt	ATTIC	Building	11	17	[0, 0, 0]	n/a	catFR1	1	R1207J
1841.553	0.949	2686769	WORD_OFF	n/a	n/a	ATTIC	n/a	11	17	[0, 0, 0]	n/a	catFR1	1	R1207J
1842.502	1.617	2687718	WORD	n/a	wordpools/wordpool_categorized_EN.txt	HALLWAY	Building	12	17	[0, 0, 0]	n/a	catFR1	1	R1207J
1844.119	0.0	2689335	ENCODING_END	n/a	n/a	n/a	n/a	-999	17	[0, 0, 0]	n/a	catFR1	1	R1207J
1844.119	0.103	2689335	WORD_OFF	n/a	n/a	HALLWAY	n/a	12	17	[0, 0, 0]	n/a	catFR1	1	R1207J
1844.222	0.0	2689438	DISTRACT_START	n/a	n/a	n/a	n/a	-999	17	[0, 0, 0]	n/a	catFR1	1	R1207J
1844.222	0.013	2689438	START	n/a	n/a	n/a	n/a	-999	17	[-999, -999, -999]	n/a	catFR1	1	R1207J
1844.235	5.685	2689451	PROB	5.685	n/a	n/a	n/a	-999	17	[6, 1, 5]	13	catFR1	1	R1207J
1849.92	8.085	2695136	PROB	8.085	n/a	n/a	n/a	-999	17	[8, 4, 6]	18	catFR1	1	R1207J
1858.005	4.867	2703221	PROB	4.867	n/a	n/a	n/a	-999	17	[9, 2, 9]	20	catFR1	1	R1207J
1862.872	7.401	2708088	PROB	7.401	n/a	n/a	n/a	-999	17	[8, 7, 6]	22	catFR1	1	R1207J
1870.273	0.016	2715489	STOP	n/a	n/a	n/a	n/a	-999	17	[-999, -999, -999]	n/a	catFR1	1	R1207J
1870.289	0.667	2715505	DISTRACT_END	n/a	n/a	n/a	n/a	-999	17	[0, 0, 0]	n/a	catFR1	1	R1207J
1870.956	0.517	2716172	RETRIEVAL_ORIENT	n/a	n/a	n/a	n/a	-999	17	[0, 0, 0]	n/a	catFR1	1	R1207J
1871.473	1.815	2716689	REC_START	n/a	n/a	n/a	n/a	-999	17	[0, 0, 0]	n/a	catFR1	1	R1207J
1873.288	10.236	2718504	REC_WORD	10.236	n/a	MOUSSE	Desserts	3	17	[0, 0, 0]	n/a	catFR1	1	R1207J
1883.524	1.374	2728740	REC_WORD_VV	1.374	n/a	<>	n/a	-999	17	[0, 0, 0]	n/a	catFR1	1	R1207J
1884.898	7.913	2730114	REC_WORD_VV	7.913	n/a	<>	n/a	-999	17	[0, 0, 0]	n/a	catFR1	1	R1207J
1892.811	3.228	2738027	REC_WORD	3.228	n/a	THUNDER	n/a	-999	17	[0, 0, 0]	n/a	catFR1	1	R1207J
1896.039	3.489	2741255	REC_WORD	3.489	n/a	THUNDERSTORM	n/a	-999	17	[0, 0, 0]	n/a	catFR1	1	R1207J
1899.528	1.955	2744744	REC_WORD	1.955	n/a	RAIN	n/a	-999	17	[0, 0, 0]	n/a	catFR1	1	R1207J
1901.483	6.262	2746699	REC_END	n/a	n/a	n/a	n/a	-999	17	[0, 0, 0]	n/a	catFR1	1	R1207J
1907.745	0.5	2752961	TRIAL	n/a	n/a	n/a	n/a	-999	18	[0, 0, 0]	n/a	catFR1	1	R1207J
1908.245	10.428	2753461	COUNTDOWN_START	n/a	n/a	n/a	n/a	-999	18	[0, 0, 0]	n/a	catFR1	1	R1207J
1918.673	0.007	2763889	COUNTDOWN_END	n/a	n/a	n/a	n/a	-999	18	[0, 0, 0]	n/a	catFR1	1	R1207J
1918.68	1.615	2763896	ORIENT	n/a	n/a	n/a	n/a	-999	18	[0, 0, 0]	n/a	catFR1	1	R1207J
1920.295	2.268	2765511	ORIENT_OFF	n/a	n/a	n/a	n/a	-999	18	[0, 0, 0]	n/a	catFR1	1	R1207J
1922.563	1.616	2767779	WORD	n/a	wordpools/wordpool_categorized_EN.txt	MONKEY	Zoo	1	18	[0, 0, 0]	n/a	catFR1	1	R1207J
1924.179	0.867	2769395	WORD_OFF	n/a	n/a	MONKEY	n/a	1	18	[0, 0, 0]	n/a	catFR1	1	R1207J
1925.046	1.618	2770262	WORD	n/a	wordpools/wordpool_categorized_EN.txt	ORANGUTAN	Zoo	2	18	[0, 0, 0]	n/a	catFR1	1	R1207J
1926.664	0.9	2771880	WORD_OFF	n/a	n/a	ORANGUTAN	n/a	2	18	[0, 0, 0]	n/a	catFR1	1	R1207J
1927.564	1.615	2772780	WORD	n/a	wordpools/wordpool_categorized_EN.txt	BULL	FarmAnimals	3	18	[0, 0, 0]	n/a	catFR1	1	R1207J
1929.179	0.884	2774395	WORD_OFF	n/a	n/a	BULL	n/a	3	18	[0, 0, 0]	n/a	catFR1	1	R1207J
1930.063	1.618	2775279	WORD	n/a	wordpools/wordpool_categorized_EN.txt	CALF	FarmAnimals	4	18	[0, 0, 0]	n/a	catFR1	1	R1207J
1931.681	0.967	2776897	WORD_OFF	n/a	n/a	CALF	n/a	4	18	[0, 0, 0]	n/a	catFR1	1	R1207J
1932.648	1.616	2777864	WORD	n/a	wordpools/wordpool_categorized_EN.txt	STRAINER	KitchenTools	5	18	[0, 0, 0]	n/a	catFR1	1	R1207J
1934.264	0.783	2779480	WORD_OFF	n/a	n/a	STRAINER	n/a	5	18	[0, 0, 0]	n/a	catFR1	1	R1207J
1935.047	1.618	2780263	WORD	n/a	wordpools/wordpool_categorized_EN.txt	SPOON	KitchenTools	6	18	[0, 0, 0]	n/a	catFR1	1	R1207J
1936.665	0.816	2781881	WORD_OFF	n/a	n/a	SPOON	n/a	6	18	[0, 0, 0]	n/a	catFR1	1	R1207J
1937.481	1.616	2782697	WORD	n/a	wordpools/wordpool_categorized_EN.txt	LAMB	FarmAnimals	7	18	[0, 0, 0]	n/a	catFR1	1	R1207J
1939.097	0.885	2784313	WORD_OFF	n/a	n/a	LAMB	n/a	7	18	[0, 0, 0]	n/a	catFR1	1	R1207J
1939.982	1.617	2785198	WORD	n/a	wordpools/wordpool_categorized_EN.txt	TURKEY	FarmAnimals	8	18	[0, 0, 0]	n/a	catFR1	1	R1207J
1941.599	0.983	2786815	WORD_OFF	n/a	n/a	TURKEY	n/a	8	18	[0, 0, 0]	n/a	catFR1	1	R1207J
1942.582	1.616	2787798	WORD	n/a	wordpools/wordpool_categorized_EN.txt	ELEPHANT	Zoo	9	18	[0, 0, 0]	n/a	catFR1	1	R1207J
1944.198	0.984	2789414	WORD_OFF	n/a	n/a	ELEPHANT	n/a	9	18	[0, 0, 0]	n/a	catFR1	1	R1207J
1945.182	1.618	2790398	WORD	n/a	wordpools/wordpool_categorized_EN.txt	ZEBRA	Zoo	10	18	[0, 0, 0]	n/a	catFR1	1	R1207J
1946.8	0.783	2792016	WORD_OFF	n/a	n/a	ZEBRA	n/a	10	18	[0, 0, 0]	n/a	catFR1	1	R1207J
1947.583	1.616	2792799	WORD	n/a	wordpools/wordpool_categorized_EN.txt	FORK	KitchenTools	11	18	[0, 0, 0]	n/a	catFR1	1	R1207J
1949.199	0.883	2794415	WORD_OFF	n/a	n/a	FORK	n/a	11	18	[0, 0, 0]	n/a	catFR1	1	R1207J
1950.082	1.618	2795298	WORD	n/a	wordpools/wordpool_categorized_EN.txt	SPATULA	KitchenTools	12	18	[0, 0, 0]	n/a	catFR1	1	R1207J
1951.7	0.0	2796916	ENCODING_END	n/a	n/a	n/a	n/a	-999	18	[0, 0, 0]	n/a	catFR1	1	R1207J
1951.7	0.13	2796916	WORD_OFF	n/a	n/a	SPATULA	n/a	12	18	[0, 0, 0]	n/a	catFR1	1	R1207J
1951.83	0.0	2797046	DISTRACT_START	n/a	n/a	n/a	n/a	-999	18	[0, 0, 0]	n/a	catFR1	1	R1207J
1951.83	0.02	2797046	START	n/a	n/a	n/a	n/a	-999	18	[-999, -999, -999]	n/a	catFR1	1	R1207J
1951.85	4.683	2797066	PROB	4.683	n/a	n/a	n/a	-999	18	[2, 8, 3]	13	catFR1	1	R1207J
1956.533	7.069	2801749	PROB	7.069	n/a	n/a	n/a	-999	18	[7, 8, 3]	18	catFR1	1	R1207J
1963.602	5.967	2808818	PROB	5.967	n/a	n/a	n/a	-999	18	[5, 8, 8]	21	catFR1	1	R1207J
1969.569	4.925	2814785	PROB	4.925	n/a	n/a	n/a	-999	18	[2, 6, 9]	17	catFR1	1	R1207J
1974.494	0.008	2819710	STOP	n/a	n/a	n/a	n/a	-999	18	[-999, -999, -999]	n/a	catFR1	1	R1207J
1974.502	0.617	2819718	DISTRACT_END	n/a	n/a	n/a	n/a	-999	18	[0, 0, 0]	n/a	catFR1	1	R1207J
1975.119	0.518	2820335	RETRIEVAL_ORIENT	n/a	n/a	n/a	n/a	-999	18	[0, 0, 0]	n/a	catFR1	1	R1207J
1975.637	1.695	2820853	REC_START	n/a	n/a	n/a	n/a	-999	18	[0, 0, 0]	n/a	catFR1	1	R1207J
1977.332	1.0	2822548	REC_WORD	1.0	n/a	SPATULA	KitchenTools	12	18	[0, 0, 0]	n/a	catFR1	1	R1207J
1978.332	2.734	2823548	REC_WORD_VV	2.734	n/a	<>	n/a	-999	18	[0, 0, 0]	n/a	catFR1	1	R1207J
1981.066	1.469	2826282	REC_WORD	1.469	n/a	MONKEY	Zoo	1	18	[0, 0, 0]	n/a	catFR1	1	R1207J
1982.535	1.713	2827751	REC_WORD	1.713	n/a	ELEPHANT	Zoo	9	18	[0, 0, 0]	n/a	catFR1	1	R1207J
1984.248	2.528	2829464	REC_WORD	2.528	n/a	ZEBRA	Zoo	10	18	[0, 0, 0]	n/a	catFR1	1	R1207J
1986.776	14.209	2831992	REC_WORD	14.209	n/a	BULL	FarmAnimals	3	18	[0, 0, 0]	n/a	catFR1	1	R1207J
2000.985	4.664	2846201	REC_WORD	4.664	n/a	GIRAFFE	n/a	-999	18	[0, 0, 0]	n/a	catFR1	1	R1207J
2005.649	5.342	2850865	REC_END	n/a	n/a	n/a	n/a	-999	18	[0, 0, 0]	n/a	catFR1	1	R1207J
2010.991	0.5	2856207	TRIAL	n/a	n/a	n/a	n/a	-999	19	[0, 0, 0]	n/a	catFR1	1	R1207J
2011.491	10.428	2856707	COUNTDOWN_START	n/a	n/a	n/a	n/a	-999	19	[0, 0, 0]	n/a	catFR1	1	R1207J
2021.919	0.007	2867135	COUNTDOWN_END	n/a	n/a	n/a	n/a	-999	19	[0, 0, 0]	n/a	catFR1	1	R1207J
2021.926	1.617	2867142	ORIENT	n/a	n/a	n/a	n/a	-999	19	[0, 0, 0]	n/a	catFR1	1	R1207J
2023.543	1.966	2868759	ORIENT_OFF	n/a	n/a	n/a	n/a	-999	19	[0, 0, 0]	n/a	catFR1	1	R1207J
2025.509	1.617	2870725	WORD	n/a	wordpools/wordpool_categorized_EN.txt	COLANDER	KitchenTools	1	19	[0, 0, 0]	n/a	catFR1	1	R1207J
2027.126	0.966	2872342	WORD_OFF	n/a	n/a	COLANDER	n/a	1	19	[0, 0, 0]	n/a	catFR1	1	R1207J
2028.092	1.618	2873308	WORD	n/a	wordpools/wordpool_categorized_EN.txt	GRATER	KitchenTools	2	19	[0, 0, 0]	n/a	catFR1	1	R1207J
2029.71	0.883	2874926	WORD_OFF	n/a	n/a	GRATER	n/a	2	19	[0, 0, 0]	n/a	catFR1	1	R1207J
2030.593	1.616	2875809	WORD	n/a	wordpools/wordpool_categorized_EN.txt	SLINKY	Toys	3	19	[0, 0, 0]	n/a	catFR1	1	R1207J
2032.209	0.851	2877425	WORD_OFF	n/a	n/a	SLINKY	n/a	3	19	[0, 0, 0]	n/a	catFR1	1	R1207J
2033.06	1.617	2878276	WORD	n/a	wordpools/wordpool_categorized_EN.txt	DOLL	Toys	4	19	[0, 0, 0]	n/a	catFR1	1	R1207J
2034.677	0.967	2879893	WORD_OFF	n/a	n/a	DOLL	n/a	4	19	[0, 0, 0]	n/a	catFR1	1	R1207J
2035.644	1.616	2880860	WORD	n/a	wordpools/wordpool_categorized_EN.txt	IRON	Appliances	5	19	[0, 0, 0]	n/a	catFR1	1	R1207J
2037.26	0.784	2882476	WORD_OFF	n/a	n/a	IRON	n/a	5	19	[0, 0, 0]	n/a	catFR1	1	R1207J
2038.044	1.617	2883260	WORD	n/a	wordpools/wordpool_categorized_EN.txt	TOASTER	Appliances	6	19	[0, 0, 0]	n/a	catFR1	1	R1207J
2039.661	0.866	2884877	WORD_OFF	n/a	n/a	TOASTER	n/a	6	19	[0, 0, 0]	n/a	catFR1	1	R1207J
2040.527	1.617	2885743	WORD	n/a	wordpools/wordpool_categorized_EN.txt	WHISK	KitchenTools	7	19	[0, 0, 0]	n/a	catFR1	1	R1207J
2042.144	0.9	2887360	WORD_OFF	n/a	n/a	WHISK	n/a	7	19	[0, 0, 0]	n/a	catFR1	1	R1207J
2043.044	1.618	2888260	WORD	n/a	wordpools/wordpool_categorized_EN.txt	PEELER	KitchenTools	8	19	[0, 0, 0]	n/a	catFR1	1	R1207J
2044.662	0.967	2889878	WORD_OFF	n/a	n/a	PEELER	n/a	8	19	[0, 0, 0]	n/a	catFR1	1	R1207J
2045.629	1.616	2890845	WORD	n/a	wordpools/wordpool_categorized_EN.txt	BLOCKS	Toys	9	19	[0, 0, 0]	n/a	catFR1	1	R1207J
2047.245	0.833	2892461	WORD_OFF	n/a	n/a	BLOCKS	n/a	9	19	[0, 0, 0]	n/a	catFR1	1	R1207J
2048.078	1.601	2893294	WORD	n/a	wordpools/wordpool_categorized_EN.txt	DOLLHOUSE	Toys	10	19	[0, 0, 0]	n/a	catFR1	1	R1207J
2049.679	1.0	2894895	WORD_OFF	n/a	n/a	DOLLHOUSE	n/a	10	19	[0, 0, 0]	n/a	catFR1	1	R1207J
2050.679	1.616	2895895	WORD	n/a	wordpools/wordpool_categorized_EN.txt	BLENDER	Appliances	11	19	[0, 0, 0]	n/a	catFR1	1	R1207J
2052.295	0.984	2897511	WORD_OFF	n/a	n/a	BLENDER	n/a	11	19	[0, 0, 0]	n/a	catFR1	1	R1207J
2053.279	1.618	2898495	WORD	n/a	wordpools/wordpool_categorized_EN.txt	DISHWASHER	Appliances	12	19	[0, 0, 0]	n/a	catFR1	1	R1207J
2054.897	0.0	2900113	ENCODING_END	n/a	n/a	n/a	n/a	-999	19	[0, 0, 0]	n/a	catFR1	1	R1207J
2054.897	0.1	2900113	WORD_OFF	n/a	n/a	DISHWASHER	n/a	12	19	[0, 0, 0]	n/a	catFR1	1	R1207J
2054.997	0.001	2900213	DISTRACT_START	n/a	n/a	n/a	n/a	-999	19	[0, 0, 0]	n/a	catFR1	1	R1207J
2054.998	0.014	2900214	START	n/a	n/a	n/a	n/a	-999	19	[-999, -999, -999]	n/a	catFR1	1	R1207J
2055.012	3.602	2900228	PROB	3.602	n/a	n/a	n/a	-999	19	[3, 3, 1]	7	catFR1	1	R1207J
2058.614	4.15	2903830	PROB	4.15	n/a	n/a	n/a	-999	19	[9, 6, 9]	26	catFR1	1	R1207J
2062.764	4.683	2907980	PROB	4.683	n/a	n/a	n/a	-999	19	[3, 6, 7]	16	catFR1	1	R1207J
2067.447	5.984	2912663	PROB	5.984	n/a	n/a	n/a	-999	19	[5, 7, 8]	20	catFR1	1	R1207J
2073.431	5.227	2918647	PROB	5.227	n/a	n/a	n/a	-999	19	[3, 8, 1]	12	catFR1	1	R1207J
2078.658	0.009	2923874	STOP	n/a	n/a	n/a	n/a	-999	19	[-999, -999, -999]	n/a	catFR1	1	R1207J
2078.667	0.515	2923883	DISTRACT_END	n/a	n/a	n/a	n/a	-999	19	[0, 0, 0]	n/a	catFR1	1	R1207J
2079.182	0.518	2924398	RETRIEVAL_ORIENT	n/a	n/a	n/a	n/a	-999	19	[0, 0, 0]	n/a	catFR1	1	R1207J
2079.7	1.253	2924916	REC_START	n/a	n/a	n/a	n/a	-999	19	[0, 0, 0]	n/a	catFR1	1	R1207J
2080.953	2.937	2926169	REC_WORD	2.937	n/a	COLANDER	KitchenTools	1	19	[0, 0, 0]	n/a	catFR1	1	R1207J
2083.89	8.129	2929106	REC_WORD	8.129	n/a	PEEL	n/a	-999	19	[0, 0, 0]	n/a	catFR1	1	R1207J
2092.019	13.901	2937235	REC_WORD	13.901	n/a	GRAZE	n/a	-999	19	[0, 0, 0]	n/a	catFR1	1	R1207J
2105.92	3.792	2951136	REC_WORD_VV	3.792	n/a	<>	n/a	-999	19	[0, 0, 0]	n/a	catFR1	1	R1207J
2109.712	13.127	2954928	REC_END	n/a	n/a	n/a	n/a	-999	19	[0, 0, 0]	n/a	catFR1	1	R1207J
2122.839	0.5	2968055	TRIAL	n/a	n/a	n/a	n/a	-999	20	[0, 0, 0]	n/a	catFR1	1	R1207J
2123.339	10.428	2968555	COUNTDOWN_START	n/a	n/a	n/a	n/a	-999	20	[0, 0, 0]	n/a	catFR1	1	R1207J
2133.767	0.007	2978983	COUNTDOWN_END	n/a	n/a	n/a	n/a	-999	20	[0, 0, 0]	n/a	catFR1	1	R1207J
2133.774	1.615	2978990	ORIENT	n/a	n/a	n/a	n/a	-999	20	[0, 0, 0]	n/a	catFR1	1	R1207J
2135.389	2.285	2980605	ORIENT_OFF	n/a	n/a	n/a	n/a	-999	20	[0, 0, 0]	n/a	catFR1	1	R1207J
2137.674	1.616	2982890	WORD	n/a	wordpools/wordpool_categorized_EN.txt	CEDAR	Trees	1	20	[0, 0, 0]	n/a	catFR1	1	R1207J
2139.29	0.95	2984506	WORD_OFF	n/a	n/a	CEDAR	n/a	1	20	[0, 0, 0]	n/a	catFR1	1	R1207J
2140.24	1.618	2985456	WORD	n/a	wordpools/wordpool_categorized_EN.txt	CYPRESS	Trees	2	20	[0, 0, 0]	n/a	catFR1	1	R1207J
2141.858	0.9	2987074	WORD_OFF	n/a	n/a	CYPRESS	n/a	2	20	[0, 0, 0]	n/a	catFR1	1	R1207J
2142.758	1.616	2987974	WORD	n/a	wordpools/wordpool_categorized_EN.txt	LEG	BodyParts	3	20	[0, 0, 0]	n/a	catFR1	1	R1207J
2144.374	0.8	2989590	WORD_OFF	n/a	n/a	LEG	n/a	3	20	[0, 0, 0]	n/a	catFR1	1	R1207J
2145.174	1.618	2990390	WORD	n/a	wordpools/wordpool_categorized_EN.txt	TOE	BodyParts	4	20	[0, 0, 0]	n/a	catFR1	1	R1207J
2146.792	0.85	2992008	WORD_OFF	n/a	n/a	TOE	n/a	4	20	[0, 0, 0]	n/a	catFR1	1	R1207J
2147.642	1.616	2992858	WORD	n/a	wordpools/wordpool_categorized_EN.txt	ROACH	Insects	5	20	[0, 0, 0]	n/a	catFR1	1	R1207J
2149.258	0.833	2994474	WORD_OFF	n/a	n/a	ROACH	n/a	5	20	[0, 0, 0]	n/a	catFR1	1	R1207J
2150.091	1.601	2995307	WORD	n/a	wordpools/wordpool_categorized_EN.txt	ANT	Insects	6	20	[0, 0, 0]	n/a	catFR1	1	R1207J
2151.692	0.833	2996908	WORD_OFF	n/a	n/a	ANT	n/a	6	20	[0, 0, 0]	n/a	catFR1	1	R1207J
2152.525	1.617	2997741	WORD	n/a	wordpools/wordpool_categorized_EN.txt	HICKORY	Trees	7	20	[0, 0, 0]	n/a	catFR1	1	R1207J
2154.142	0.933	2999358	WORD_OFF	n/a	n/a	HICKORY	n/a	7	20	[0, 0, 0]	n/a	catFR1	1	R1207J
2155.075	1.618	3000291	WORD	n/a	wordpools/wordpool_categorized_EN.txt	PINE	Trees	8	20	[0, 0, 0]	n/a	catFR1	1	R1207J
2156.693	0.967	3001909	WORD_OFF	n/a	n/a	PINE	n/a	8	20	[0, 0, 0]	n/a	catFR1	1	R1207J
2157.66	1.616	3002876	WORD	n/a	wordpools/wordpool_categorized_EN.txt	ARM	BodyParts	9	20	[0, 0, 0]	n/a	catFR1	1	R1207J
2159.276	0.883	3004492	WORD_OFF	n/a	n/a	ARM	n/a	9	20	[0, 0, 0]	n/a	catFR1	1	R1207J
2160.159	1.601	3005375	WORD	n/a	wordpools/wordpool_categorized_EN.txt	EYE	BodyParts	10	20	[0, 0, 0]	n/a	catFR1	1	R1207J
2161.76	0.817	3006976	WORD_OFF	n/a	n/a	EYE	n/a	10	20	[0, 0, 0]	n/a	catFR1	1	R1207J
2162.577	1.616	3007793	WORD	n/a	wordpools/wordpool_categorized_EN.txt	SPIDER	Insects	11	20	[0, 0, 0]	n/a	catFR1	1	R1207J
2164.193	0.85	3009409	WORD_OFF	n/a	n/a	SPIDER	n/a	11	20	[0, 0, 0]	n/a	catFR1	1	R1207J
2165.043	1.618	3010259	WORD	n/a	wordpools/wordpool_categorized_EN.txt	BEE	Insects	12	20	[0, 0, 0]	n/a	catFR1	1	R1207J
2166.661	0.001	3011877	WORD_OFF	n/a	n/a	BEE	n/a	12	20	[0, 0, 0]	n/a	catFR1	1	R1207J
2166.662	0.131	3011878	ENCODING_END	n/a	n/a	n/a	n/a	-999	20	[0, 0, 0]	n/a	catFR1	1	R1207J
2166.793	0.0	3012009	DISTRACT_START	n/a	n/a	n/a	n/a	-999	20	[0, 0, 0]	n/a	catFR1	1	R1207J
2166.793	0.018	3012009	START	n/a	n/a	n/a	n/a	-999	20	[-999, -999, -999]	n/a	catFR1	1	R1207J
2166.811	9.151	3012027	PROB	9.151	n/a	n/a	n/a	-999	20	[6, 8, 4]	18	catFR1	1	R1207J
2175.962	4.651	3021178	PROB	4.651	n/a	n/a	n/a	-999	20	[5, 2, 9]	16	catFR1	1	R1207J
2180.613	4.934	3025829	PROB	4.934	n/a	n/a	n/a	-999	20	[3, 4, 5]	12	catFR1	1	R1207J
2185.547	3.561	3030763	PROB	3.561	n/a	n/a	n/a	-999	20	[8, 4, 4]	16	catFR1	1	R1207J
2189.108	0.022	3034324	STOP	n/a	n/a	n/a	n/a	-999	20	[-999, -999, -999]	n/a	catFR1	1	R1207J
2189.13	0.617	3034346	DISTRACT_END	n/a	n/a	n/a	n/a	-999	20	[0, 0, 0]	n/a	catFR1	1	R1207J
2189.747	0.517	3034963	RETRIEVAL_ORIENT	n/a	n/a	n/a	n/a	-999	20	[0, 0, 0]	n/a	catFR1	1	R1207J
2190.264	4.741	3035480	REC_START	n/a	n/a	n/a	n/a	-999	20	[0, 0, 0]	n/a	catFR1	1	R1207J
2195.005	9.703	3040221	REC_WORD_VV	9.703	n/a	<>	n/a	-999	20	[0, 0, 0]	n/a	catFR1	1	R1207J
2204.708	11.486	3049924	REC_WORD	11.486	n/a	DOLLHOUSE	n/a	-999	20	[0, 0, 0]	n/a	catFR1	1	R1207J
2216.194	4.08	3061410	REC_WORD_VV	4.08	n/a	<>	n/a	-999	20	[0, 0, 0]	n/a	catFR1	1	R1207J
2220.274	7.445	3065490	REC_END	n/a	n/a	n/a	n/a	-999	20	[0, 0, 0]	n/a	catFR1	1	R1207J
2227.719	0.5	3072935	TRIAL	n/a	n/a	n/a	n/a	-999	21	[0, 0, 0]	n/a	catFR1	1	R1207J
2228.219	10.428	3073435	COUNTDOWN_START	n/a	n/a	n/a	n/a	-999	21	[0, 0, 0]	n/a	catFR1	1	R1207J
2238.647	0.007	3083863	COUNTDOWN_END	n/a	n/a	n/a	n/a	-999	21	[0, 0, 0]	n/a	catFR1	1	R1207J
2238.654	1.615	3083870	ORIENT	n/a	n/a	n/a	n/a	-999	21	[0, 0, 0]	n/a	catFR1	1	R1207J
2240.269	2.218	3085486	ORIENT_OFF	n/a	n/a	n/a	n/a	-999	21	[0, 0, 0]	n/a	catFR1	1	R1207J
2242.487	1.616	3087704	WORD	n/a	wordpools/wordpool_categorized_EN.txt	BEER	Beverages	1	21	[0, 0, 0]	n/a	catFR1	1	R1207J
2244.103	0.934	3089320	WORD_OFF	n/a	n/a	BEER	n/a	1	21	[0, 0, 0]	n/a	catFR1	1	R1207J
2245.037	1.618	3090254	WORD	n/a	wordpools/wordpool_categorized_EN.txt	WATER	Beverages	2	21	[0, 0, 0]	n/a	catFR1	1	R1207J
2246.655	0.983	3091872	WORD_OFF	n/a	n/a	WATER	n/a	2	21	[0, 0, 0]	n/a	catFR1	1	R1207J
2247.638	1.616	3092855	WORD	n/a	wordpools/wordpool_categorized_EN.txt	COUCH	Furniture	3	21	[0, 0, 0]	n/a	catFR1	1	R1207J
2249.254	0.833	3094471	WORD_OFF	n/a	n/a	COUCH	n/a	3	21	[0, 0, 0]	n/a	catFR1	1	R1207J
2250.087	1.618	3095304	WORD	n/a	wordpools/wordpool_categorized_EN.txt	CABINET	Furniture	4	21	[0, 0, 0]	n/a	catFR1	1	R1207J
2251.705	0.984	3096922	WORD_OFF	n/a	n/a	CABINET	n/a	4	21	[0, 0, 0]	n/a	catFR1	1	R1207J
2252.689	1.616	3097906	WORD	n/a	wordpools/wordpool_categorized_EN.txt	HORSE	FarmAnimals	5	21	[0, 0, 0]	n/a	catFR1	1	R1207J
2254.305	0.867	3099522	WORD_OFF	n/a	n/a	HORSE	n/a	5	21	[0, 0, 0]	n/a	catFR1	1	R1207J
2255.172	1.617	3100389	WORD	n/a	wordpools/wordpool_categorized_EN.txt	CHICKEN	FarmAnimals	6	21	[0, 0, 0]	n/a	catFR1	1	R1207J
2256.789	0.951	3102006	WORD_OFF	n/a	n/a	CHICKEN	n/a	6	21	[0, 0, 0]	n/a	catFR1	1	R1207J
2257.74	1.615	3102957	WORD	n/a	wordpools/wordpool_categorized_EN.txt	CIDER	Beverages	7	21	[0, 0, 0]	n/a	catFR1	1	R1207J
2259.355	0.884	3104572	WORD_OFF	n/a	n/a	CIDER	n/a	7	21	[0, 0, 0]	n/a	catFR1	1	R1207J
2260.239	1.618	3105456	WORD	n/a	wordpools/wordpool_categorized_EN.txt	SODA	Beverages	8	21	[0, 0, 0]	n/a	catFR1	1	R1207J
2261.857	0.8	3107074	WORD_OFF	n/a	n/a	SODA	n/a	8	21	[0, 0, 0]	n/a	catFR1	1	R1207J
2262.657	1.616	3107874	WORD	n/a	wordpools/wordpool_categorized_EN.txt	SOFA	Furniture	9	21	[0, 0, 0]	n/a	catFR1	1	R1207J
2264.273	0.916	3109490	WORD_OFF	n/a	n/a	SOFA	n/a	9	21	[0, 0, 0]	n/a	catFR1	1	R1207J
2265.189	1.601	3110406	WORD	n/a	wordpools/wordpool_categorized_EN.txt	BOOKCASE	Furniture	10	21	[0, 0, 0]	n/a	catFR1	1	R1207J
2266.79	0.901	3112007	WORD_OFF	n/a	n/a	BOOKCASE	n/a	10	21	[0, 0, 0]	n/a	catFR1	1	R1207J
2267.691	1.615	3112908	WORD	n/a	wordpools/wordpool_categorized_EN.txt	HEN	FarmAnimals	11	21	[0, 0, 0]	n/a	catFR1	1	R1207J
2269.306	0.867	3114523	WORD_OFF	n/a	n/a	HEN	n/a	11	21	[0, 0, 0]	n/a	catFR1	1	R1207J
2270.173	1.618	3115390	WORD	n/a	wordpools/wordpool_categorized_EN.txt	PIG	FarmAnimals	12	21	[0, 0, 0]	n/a	catFR1	1	R1207J
2271.791	0.0	3117008	ENCODING_END	n/a	n/a	n/a	n/a	-999	21	[0, 0, 0]	n/a	catFR1	1	R1207J
2271.791	0.124	3117008	WORD_OFF	n/a	n/a	PIG	n/a	12	21	[0, 0, 0]	n/a	catFR1	1	R1207J
2271.915	0.0	3117132	DISTRACT_START	n/a	n/a	n/a	n/a	-999	21	[0, 0, 0]	n/a	catFR1	1	R1207J
2271.915	0.01	3117132	START	n/a	n/a	n/a	n/a	-999	21	[-999, -999, -999]	n/a	catFR1	1	R1207J
2271.925	5.116	3117142	PROB	5.116	n/a	n/a	n/a	-999	21	[5, 1, 2]	8	catFR1	1	R1207J
2277.041	4.851	3122258	PROB	4.851	n/a	n/a	n/a	-999	21	[8, 1, 9]	18	catFR1	1	R1207J
2281.892	7.417	3127109	PROB	7.417	n/a	n/a	n/a	-999	21	[9, 5, 6]	21	catFR1	1	R1207J
2289.309	3.524	3134526	PROB	3.524	n/a	n/a	n/a	-999	21	[4, 1, 2]	7	catFR1	1	R1207J
2292.833	0.011	3138050	STOP	n/a	n/a	n/a	n/a	-999	21	[-999, -999, -999]	n/a	catFR1	1	R1207J
2292.844	0.566	3138061	DISTRACT_END	n/a	n/a	n/a	n/a	-999	21	[0, 0, 0]	n/a	catFR1	1	R1207J
2293.41	0.519	3138627	RETRIEVAL_ORIENT	n/a	n/a	n/a	n/a	-999	21	[0, 0, 0]	n/a	catFR1	1	R1207J
2293.929	3.994	3139146	REC_START	n/a	n/a	n/a	n/a	-999	21	[0, 0, 0]	n/a	catFR1	1	R1207J
2297.923	2.214	3143140	REC_WORD	2.214	n/a	CIDER	Beverages	7	21	[0, 0, 0]	n/a	catFR1	1	R1207J
2300.137	9.897	3145354	REC_WORD	9.897	n/a	CABINET	Furniture	4	21	[0, 0, 0]	n/a	catFR1	1	R1207J
2310.034	1.185	3155251	REC_WORD	1.185	n/a	BEER	Beverages	1	21	[0, 0, 0]	n/a	catFR1	1	R1207J
2311.219	12.719	3156436	REC_WORD	12.719	n/a	SODA	Beverages	8	21	[0, 0, 0]	n/a	catFR1	1	R1207J
2323.938	0.0	3169155	REC_END	n/a	n/a	n/a	n/a	-999	21	[0, 0, 0]	n/a	catFR1	1	R1207J
