onset	duration	sample	trial_type	response_time	stim_file	item_name	category	serialpos	list	test	answer	experiment	session	subject
0.0	4.831	2012	INSTRUCT_START	n/a	n/a	n/a	n/a	-999	-999	[0, 0, 0]	n/a	catFR1	1	R1496T
4.831	34.116	6830	INSTRUCT_END	n/a	n/a	n/a	n/a	-999	-999	[0, 0, 0]	n/a	catFR1	1	R1496T
38.947	10.351	40955	COUNTDOWN_START	n/a	n/a	n/a	n/a	-999	-999	[0, 0, 0]	n/a	catFR1	1	R1496T
49.298	0.0	51300	COUNTDOWN_END	n/a	n/a	n/a	n/a	-999	-999	[0, 0, 0]	n/a	catFR1	1	R1496T
49.298	2.033	51300	ENCODING_START	n/a	n/a	n/a	n/a	-999	-1	[0, 0, 0]	n/a	catFR1	1	R1496T
51.331	1.616	53327	WORD	n/a	n/a	LILAC	Flowers	1	-1	[0, 0, 0]	n/a	catFR1	1	R1496T
52.947	0.834	54942	WORD_OFF	n/a	n/a	LILAC	Flowers	1	-1	[0, 0, 0]	n/a	catFR1	1	R1496T
53.781	1.618	55778	WORD	n/a	n/a	ROSE	Flowers	2	-1	[0, 0, 0]	n/a	catFR1	1	R1496T
55.399	0.765	57394	WORD_OFF	n/a	n/a	ROSE	Flowers	2	-1	[0, 0, 0]	n/a	catFR1	1	R1496T
56.164	1.616	58159	WORD	n/a	n/a	MARKER	OfficeSupplies	3	-1	[0, 0, 0]	n/a	catFR1	1	R1496T
57.78	0.8	59775	WORD_OFF	n/a	n/a	MARKER	OfficeSupplies	3	-1	[0, 0, 0]	n/a	catFR1	1	R1496T
58.58	1.601	60582	WORD	n/a	n/a	PAPER	OfficeSupplies	4	-1	[0, 0, 0]	n/a	catFR1	1	R1496T
60.181	0.766	62184	WORD_OFF	n/a	n/a	PAPER	OfficeSupplies	4	-1	[0, 0, 0]	n/a	catFR1	1	R1496T
60.947	1.6	62949	WORD	n/a	n/a	CAKE	Desserts	5	-1	[0, 0, 0]	n/a	catFR1	1	R1496T
62.547	0.934	64550	WORD_OFF	n/a	n/a	CAKE	Desserts	5	-1	[0, 0, 0]	n/a	catFR1	1	R1496T
63.481	1.616	65486	WORD	n/a	n/a	COOKIE	Desserts	6	-1	[0, 0, 0]	n/a	catFR1	1	R1496T
65.097	0.95	67101	WORD_OFF	n/a	n/a	COOKIE	Desserts	6	-1	[0, 0, 0]	n/a	catFR1	1	R1496T
66.047	1.617	68051	WORD	n/a	n/a	GLUE	OfficeSupplies	7	-1	[0, 0, 0]	n/a	catFR1	1	R1496T
67.664	0.85	69666	WORD_OFF	n/a	n/a	GLUE	OfficeSupplies	7	-1	[0, 0, 0]	n/a	catFR1	1	R1496T
68.514	1.617	70517	WORD	n/a	n/a	PENCIL	OfficeSupplies	8	-1	[0, 0, 0]	n/a	catFR1	1	R1496T
70.131	0.966	72132	WORD_OFF	n/a	n/a	PENCIL	OfficeSupplies	8	-1	[0, 0, 0]	n/a	catFR1	1	R1496T
71.097	1.6	73096	WORD	n/a	n/a	DAFFODIL	Flowers	9	-1	[0, 0, 0]	n/a	catFR1	1	R1496T
72.697	0.8	74697	WORD_OFF	n/a	n/a	DAFFODIL	Flowers	9	-1	[0, 0, 0]	n/a	catFR1	1	R1496T
73.497	1.601	75491	WORD	n/a	n/a	CARNATION	Flowers	10	-1	[0, 0, 0]	n/a	catFR1	1	R1496T
75.098	0.766	77092	WORD_OFF	n/a	n/a	CARNATION	Flowers	10	-1	[0, 0, 0]	n/a	catFR1	1	R1496T
75.864	1.617	77857	WORD	n/a	n/a	PIE	Desserts	11	-1	[0, 0, 0]	n/a	catFR1	1	R1496T
77.481	0.95	79473	WORD_OFF	n/a	n/a	PIE	Desserts	11	-1	[0, 0, 0]	n/a	catFR1	1	R1496T
78.431	1.618	80437	WORD	n/a	n/a	PUDDING	Desserts	12	-1	[0, 0, 0]	n/a	catFR1	1	R1496T
80.049	0.0	82044	START	n/a	n/a	n/a	n/a	-999	-1	[-999, -999, -999]	n/a	catFR1	1	R1496T
80.049	0.0	82044	PROB	0.0	n/a	n/a	n/a	-999	-1	[8, 8, 8]	20	catFR1	1	R1496T
80.047	0.002	82052	WORD_OFF	n/a	n/a	PUDDING	Desserts	12	-1	[0, 0, 0]	n/a	catFR1	1	R1496T
80.049	0.0	82052	ENCODING_END	n/a	n/a	n/a	n/a	-999	-1	[0, 0, 0]	n/a	catFR1	1	R1496T
80.049	32.465	82052	DISTRACT_START	n/a	n/a	n/a	n/a	-999	-1	[0, 0, 0]	n/a	catFR1	1	R1496T
112.514	0.0	114505	DISTRACT_END	n/a	n/a	n/a	n/a	-999	-1	[0, 0, 0]	n/a	catFR1	1	R1496T
112.514	2.217	114507	STOP	n/a	n/a	n/a	n/a	-999	-1	[-999, -999, -999]	n/a	catFR1	1	R1496T
114.731	1.743	116723	REC_START	n/a	n/a	n/a	n/a	-999	-1	[0, 0, 0]	n/a	catFR1	1	R1496T
116.474	0.672	118467	REC_WORD	0.672	n/a	ROSE	Flowers	2	-1	[0, 0, 0]	n/a	catFR1	1	R1496T
117.146	1.427	119139	REC_WORD	1.427	n/a	PAPER	OfficeSupplies	4	-1	[0, 0, 0]	n/a	catFR1	1	R1496T
118.573	2.133	120566	REC_WORD_VV	2.133	n/a	<>	n/a	-999	-1	[0, 0, 0]	n/a	catFR1	1	R1496T
120.706	0.472	122699	REC_WORD	0.472	n/a	ROSE	Flowers	2	-1	[0, 0, 0]	n/a	catFR1	1	R1496T
121.178	5.321	123171	REC_WORD	5.321	n/a	PAPER	OfficeSupplies	4	-1	[0, 0, 0]	n/a	catFR1	1	R1496T
126.499	18.447	128491	REC_WORD_VV	18.447	n/a	<>	n/a	-999	-1	[0, 0, 0]	n/a	catFR1	1	R1496T
144.946	18.916	146943	REC_END	n/a	n/a	n/a	n/a	-999	-1	[0, 0, 0]	n/a	catFR1	1	R1496T
163.862	10.351	165862	COUNTDOWN_START	n/a	n/a	n/a	n/a	-999	1	[0, 0, 0]	n/a	catFR1	1	R1496T
174.213	0.0	176207	COUNTDOWN_END	n/a	n/a	n/a	n/a	-999	1	[0, 0, 0]	n/a	catFR1	1	R1496T
174.213	1.833	176207	ENCODING_START	n/a	n/a	n/a	n/a	-999	1	[0, 0, 0]	n/a	catFR1	1	R1496T
176.046	1.6	178035	WORD	n/a	wordpools/wordpool_categorized_EN.txt	PANTS	Clothing	1	1	[0, 0, 0]	n/a	catFR1	1	R1496T
177.646	0.917	179636	WORD_OFF	n/a	n/a	PANTS	Clothing	1	1	[0, 0, 0]	n/a	catFR1	1	R1496T
178.563	1.6	180558	WORD	n/a	wordpools/wordpool_categorized_EN.txt	SHIRT	Clothing	2	1	[0, 0, 0]	n/a	catFR1	1	R1496T
180.163	0.883	182159	WORD_OFF	n/a	n/a	SHIRT	Clothing	2	1	[0, 0, 0]	n/a	catFR1	1	R1496T
181.046	1.617	183038	WORD	n/a	wordpools/wordpool_categorized_EN.txt	FORK	KitchenTools	3	1	[0, 0, 0]	n/a	catFR1	1	R1496T
182.663	0.917	184653	WORD_OFF	n/a	n/a	FORK	KitchenTools	3	1	[0, 0, 0]	n/a	catFR1	1	R1496T
183.58	1.599	185574	WORD	n/a	wordpools/wordpool_categorized_EN.txt	LADLE	KitchenTools	4	1	[0, 0, 0]	n/a	catFR1	1	R1496T
185.179	0.8	187176	WORD_OFF	n/a	n/a	LADLE	KitchenTools	4	1	[0, 0, 0]	n/a	catFR1	1	R1496T
185.979	1.617	187969	WORD	n/a	wordpools/wordpool_categorized_EN.txt	SPARROW	Birds	5	1	[0, 0, 0]	n/a	catFR1	1	R1496T
187.596	0.8	189585	WORD_OFF	n/a	n/a	SPARROW	Birds	5	1	[0, 0, 0]	n/a	catFR1	1	R1496T
188.396	1.617	190393	WORD	n/a	wordpools/wordpool_categorized_EN.txt	FINCH	Birds	6	1	[0, 0, 0]	n/a	catFR1	1	R1496T
190.013	0.916	192008	WORD_OFF	n/a	n/a	FINCH	Birds	6	1	[0, 0, 0]	n/a	catFR1	1	R1496T
190.929	1.6	192929	WORD	n/a	wordpools/wordpool_categorized_EN.txt	UNDERWEAR	Clothing	7	1	[0, 0, 0]	n/a	catFR1	1	R1496T
192.529	0.85	194516	WORD_OFF	n/a	n/a	UNDERWEAR	Clothing	7	1	[0, 0, 0]	n/a	catFR1	1	R1496T
193.379	1.601	195367	WORD	n/a	wordpools/wordpool_categorized_EN.txt	SKIRT	Clothing	8	1	[0, 0, 0]	n/a	catFR1	1	R1496T
194.98	0.901	196968	WORD_OFF	n/a	n/a	SKIRT	Clothing	8	1	[0, 0, 0]	n/a	catFR1	1	R1496T
195.881	1.6	197875	WORD	n/a	wordpools/wordpool_categorized_EN.txt	WHISK	KitchenTools	9	1	[0, 0, 0]	n/a	catFR1	1	R1496T
197.481	0.867	199476	WORD_OFF	n/a	n/a	WHISK	KitchenTools	9	1	[0, 0, 0]	n/a	catFR1	1	R1496T
198.348	1.616	200341	WORD	n/a	wordpools/wordpool_categorized_EN.txt	SPATULA	KitchenTools	10	1	[0, 0, 0]	n/a	catFR1	1	R1496T
199.964	0.983	201956	WORD_OFF	n/a	n/a	SPATULA	KitchenTools	10	1	[0, 0, 0]	n/a	catFR1	1	R1496T
200.947	1.617	202934	WORD	n/a	wordpools/wordpool_categorized_EN.txt	DUCK	Birds	11	1	[0, 0, 0]	n/a	catFR1	1	R1496T
202.564	0.767	204550	WORD_OFF	n/a	n/a	DUCK	Birds	11	1	[0, 0, 0]	n/a	catFR1	1	R1496T
203.331	1.617	205329	WORD	n/a	wordpools/wordpool_categorized_EN.txt	ROBIN	Birds	12	1	[0, 0, 0]	n/a	catFR1	1	R1496T
204.948	0.001	206936	PROB	0.001	n/a	n/a	n/a	-999	1	[4, 6, 1]	11	catFR1	1	R1496T
204.949	0.0	206937	START	n/a	n/a	n/a	n/a	-999	1	[-999, -999, -999]	n/a	catFR1	1	R1496T
204.947	0.002	206945	WORD_OFF	n/a	n/a	ROBIN	Birds	12	1	[0, 0, 0]	n/a	catFR1	1	R1496T
204.949	0.0	206945	ENCODING_END	n/a	n/a	n/a	n/a	-999	1	[0, 0, 0]	n/a	catFR1	1	R1496T
204.949	7.116	206945	DISTRACT_START	n/a	n/a	n/a	n/a	-999	1	[0, 0, 0]	n/a	catFR1	1	R1496T
212.065	14.216	214053	PROB	14.216	n/a	n/a	n/a	-999	1	[6, 7, 8]	21	catFR1	1	R1496T
226.281	0.0	228268	STOP	n/a	n/a	n/a	n/a	-999	1	[-999, -999, -999]	n/a	catFR1	1	R1496T
226.281	2.25	228273	DISTRACT_END	n/a	n/a	n/a	n/a	-999	1	[0, 0, 0]	n/a	catFR1	1	R1496T
228.531	2.067	230520	REC_START	n/a	n/a	n/a	n/a	-999	1	[0, 0, 0]	n/a	catFR1	1	R1496T
230.598	1.532	232585	REC_WORD	1.532	n/a	PANTS	Clothing	1	1	[0, 0, 0]	n/a	catFR1	1	R1496T
232.13	1.0	234117	REC_WORD	1.0	n/a	SHIRT	Clothing	2	1	[0, 0, 0]	n/a	catFR1	1	R1496T
233.13	3.839	235117	REC_WORD	3.839	n/a	SHIRT	Clothing	2	1	[0, 0, 0]	n/a	catFR1	1	R1496T
236.969	1.0	238956	REC_WORD	1.0	n/a	UNDERWEAR	Clothing	7	1	[0, 0, 0]	n/a	catFR1	1	R1496T
237.969	1.251	239956	REC_WORD	1.251	n/a	UNDERWEAR	Clothing	7	1	[0, 0, 0]	n/a	catFR1	1	R1496T
239.22	1.0	241206	REC_WORD	1.0	n/a	SKIRTS	n/a	-999	1	[0, 0, 0]	n/a	catFR1	1	R1496T
240.22	3.281	242206	REC_WORD	3.281	n/a	SKIRTS	n/a	-999	1	[0, 0, 0]	n/a	catFR1	1	R1496T
243.501	4.795	245487	REC_WORD_VV	4.795	n/a	<>	n/a	-999	1	[0, 0, 0]	n/a	catFR1	1	R1496T
248.296	10.424	250282	REC_WORD_VV	10.424	n/a	<>	n/a	-999	1	[0, 0, 0]	n/a	catFR1	1	R1496T
258.72	2.61	260711	REC_END	n/a	n/a	n/a	n/a	-999	1	[0, 0, 0]	n/a	catFR1	1	R1496T
261.33	10.35	263319	COUNTDOWN_START	n/a	n/a	n/a	n/a	-999	2	[0, 0, 0]	n/a	catFR1	1	R1496T
271.68	0.0	273664	COUNTDOWN_END	n/a	n/a	n/a	n/a	-999	2	[0, 0, 0]	n/a	catFR1	1	R1496T
271.68	2.116	273664	ENCODING_START	n/a	n/a	n/a	n/a	-999	2	[0, 0, 0]	n/a	catFR1	1	R1496T
273.796	1.601	275790	WORD	n/a	wordpools/wordpool_categorized_EN.txt	BASS	Instruments	1	2	[0, 0, 0]	n/a	catFR1	1	R1496T
275.397	0.867	277391	WORD_OFF	n/a	n/a	BASS	Instruments	1	2	[0, 0, 0]	n/a	catFR1	1	R1496T
276.264	1.6	278255	WORD	n/a	wordpools/wordpool_categorized_EN.txt	GUITAR	Instruments	2	2	[0, 0, 0]	n/a	catFR1	1	R1496T
277.864	0.8	279857	WORD_OFF	n/a	n/a	GUITAR	Instruments	2	2	[0, 0, 0]	n/a	catFR1	1	R1496T
278.664	1.617	280650	WORD	n/a	wordpools/wordpool_categorized_EN.txt	LEMON	Fruit	3	2	[0, 0, 0]	n/a	catFR1	1	R1496T
280.281	0.949	282266	WORD_OFF	n/a	n/a	LEMON	Fruit	3	2	[0, 0, 0]	n/a	catFR1	1	R1496T
281.23	1.601	283215	WORD	n/a	wordpools/wordpool_categorized_EN.txt	PEAR	Fruit	4	2	[0, 0, 0]	n/a	catFR1	1	R1496T
282.831	0.983	284817	WORD_OFF	n/a	n/a	PEAR	Fruit	4	2	[0, 0, 0]	n/a	catFR1	1	R1496T
283.814	1.6	285809	WORD	n/a	wordpools/wordpool_categorized_EN.txt	HUMIDITY	Weather	5	2	[0, 0, 0]	n/a	catFR1	1	R1496T
285.414	0.983	287396	WORD_OFF	n/a	n/a	HUMIDITY	Weather	5	2	[0, 0, 0]	n/a	catFR1	1	R1496T
286.397	1.6	288388	WORD	n/a	wordpools/wordpool_categorized_EN.txt	LIGHTNING	Weather	6	2	[0, 0, 0]	n/a	catFR1	1	R1496T
287.997	0.984	289989	WORD_OFF	n/a	n/a	LIGHTNING	Weather	6	2	[0, 0, 0]	n/a	catFR1	1	R1496T
288.981	1.6	290967	WORD	n/a	wordpools/wordpool_categorized_EN.txt	BANJO	Instruments	7	2	[0, 0, 0]	n/a	catFR1	1	R1496T
290.581	0.816	292568	WORD_OFF	n/a	n/a	BANJO	Instruments	7	2	[0, 0, 0]	n/a	catFR1	1	R1496T
291.397	1.601	293390	WORD	n/a	wordpools/wordpool_categorized_EN.txt	PIANO	Instruments	8	2	[0, 0, 0]	n/a	catFR1	1	R1496T
292.998	0.833	294992	WORD_OFF	n/a	n/a	PIANO	Instruments	8	2	[0, 0, 0]	n/a	catFR1	1	R1496T
293.831	1.616	295814	WORD	n/a	wordpools/wordpool_categorized_EN.txt	THUNDERSTORM	Weather	9	2	[0, 0, 0]	n/a	catFR1	1	R1496T
295.447	0.799	297429	WORD_OFF	n/a	n/a	THUNDERSTORM	Weather	9	2	[0, 0, 0]	n/a	catFR1	1	R1496T
296.246	1.602	298237	WORD	n/a	wordpools/wordpool_categorized_EN.txt	THUNDER	Weather	10	2	[0, 0, 0]	n/a	catFR1	1	R1496T
297.848	0.783	299838	WORD_OFF	n/a	n/a	THUNDER	Weather	10	2	[0, 0, 0]	n/a	catFR1	1	R1496T
298.631	1.6	300632	WORD	n/a	wordpools/wordpool_categorized_EN.txt	BANANA	Fruit	11	2	[0, 0, 0]	n/a	catFR1	1	R1496T
300.231	0.766	302219	WORD_OFF	n/a	n/a	BANANA	Fruit	11	2	[0, 0, 0]	n/a	catFR1	1	R1496T
300.997	1.601	302984	WORD	n/a	wordpools/wordpool_categorized_EN.txt	STRAWBERRY	Fruit	12	2	[0, 0, 0]	n/a	catFR1	1	R1496T
302.598	0.001	304581	PROB	0.001	n/a	n/a	n/a	-999	2	[8, 1, 4]	13	catFR1	1	R1496T
302.599	0.0	304582	START	n/a	n/a	n/a	n/a	-999	2	[-999, -999, -999]	n/a	catFR1	1	R1496T
302.597	0.002	304586	WORD_OFF	n/a	n/a	STRAWBERRY	Fruit	12	2	[0, 0, 0]	n/a	catFR1	1	R1496T
302.599	0.0	304586	ENCODING_END	n/a	n/a	n/a	n/a	-999	2	[0, 0, 0]	n/a	catFR1	1	R1496T
302.599	16.682	304586	DISTRACT_START	n/a	n/a	n/a	n/a	-999	2	[0, 0, 0]	n/a	catFR1	1	R1496T
319.281	9.466	321263	PROB	9.466	n/a	n/a	n/a	-999	2	[4, 5, 4]	13	catFR1	1	R1496T
328.747	0.0	330729	STOP	n/a	n/a	n/a	n/a	-999	2	[-999, -999, -999]	n/a	catFR1	1	R1496T
328.747	2.067	330732	DISTRACT_END	n/a	n/a	n/a	n/a	-999	2	[0, 0, 0]	n/a	catFR1	1	R1496T
330.814	1.178	332795	REC_START	n/a	n/a	n/a	n/a	-999	2	[0, 0, 0]	n/a	catFR1	1	R1496T
331.992	5.875	333974	REC_WORD_VV	5.875	n/a	<>	n/a	-999	2	[0, 0, 0]	n/a	catFR1	1	R1496T
337.867	7.198	339848	REC_WORD_VV	7.198	n/a	<>	n/a	-999	2	[0, 0, 0]	n/a	catFR1	1	R1496T
345.065	1.0	347046	REC_WORD_VV	1.0	n/a	<>	n/a	-999	2	[0, 0, 0]	n/a	catFR1	1	R1496T
346.065	14.986	348046	REC_WORD_VV	14.986	n/a	<>	n/a	-999	2	[0, 0, 0]	n/a	catFR1	1	R1496T
361.051	1.729	363029	REC_END	n/a	n/a	n/a	n/a	-999	2	[0, 0, 0]	n/a	catFR1	1	R1496T
362.78	10.35	364772	COUNTDOWN_START	n/a	n/a	n/a	n/a	-999	3	[0, 0, 0]	n/a	catFR1	1	R1496T
373.13	0.0	375117	COUNTDOWN_END	n/a	n/a	n/a	n/a	-999	3	[0, 0, 0]	n/a	catFR1	1	R1496T
373.13	2.151	375117	ENCODING_START	n/a	n/a	n/a	n/a	-999	3	[0, 0, 0]	n/a	catFR1	1	R1496T
375.281	1.6	377271	WORD	n/a	wordpools/wordpool_categorized_EN.txt	RULER	OfficeSupplies	1	3	[0, 0, 0]	n/a	catFR1	1	R1496T
376.881	0.816	378858	WORD_OFF	n/a	n/a	RULER	OfficeSupplies	1	3	[0, 0, 0]	n/a	catFR1	1	R1496T
377.697	1.6	379680	WORD	n/a	wordpools/wordpool_categorized_EN.txt	ERASER	OfficeSupplies	2	3	[0, 0, 0]	n/a	catFR1	1	R1496T
379.297	0.884	381282	WORD_OFF	n/a	n/a	ERASER	OfficeSupplies	2	3	[0, 0, 0]	n/a	catFR1	1	R1496T
380.181	1.616	382160	WORD	n/a	wordpools/wordpool_categorized_EN.txt	CHAIR	Furniture	3	3	[0, 0, 0]	n/a	catFR1	1	R1496T
381.797	1.0	383776	WORD_OFF	n/a	n/a	CHAIR	Furniture	3	3	[0, 0, 0]	n/a	catFR1	1	R1496T
382.797	1.6	384782	WORD	n/a	wordpools/wordpool_categorized_EN.txt	SOFA	Furniture	4	3	[0, 0, 0]	n/a	catFR1	1	R1496T
384.397	0.883	386383	WORD_OFF	n/a	n/a	SOFA	Furniture	4	3	[0, 0, 0]	n/a	catFR1	1	R1496T
385.28	1.6	387262	WORD	n/a	wordpools/wordpool_categorized_EN.txt	CHIMPANZEE	Zoo	5	3	[0, 0, 0]	n/a	catFR1	1	R1496T
386.88	0.984	388863	WORD_OFF	n/a	n/a	CHIMPANZEE	Zoo	5	3	[0, 0, 0]	n/a	catFR1	1	R1496T
387.864	1.6	389841	WORD	n/a	wordpools/wordpool_categorized_EN.txt	CHEETAH	Zoo	6	3	[0, 0, 0]	n/a	catFR1	1	R1496T
389.464	0.867	391442	WORD_OFF	n/a	n/a	CHEETAH	Zoo	6	3	[0, 0, 0]	n/a	catFR1	1	R1496T
390.331	1.616	392321	WORD	n/a	wordpools/wordpool_categorized_EN.txt	DESK	Furniture	7	3	[0, 0, 0]	n/a	catFR1	1	R1496T
391.947	0.934	393937	WORD_OFF	n/a	n/a	DESK	Furniture	7	3	[0, 0, 0]	n/a	catFR1	1	R1496T
392.881	1.6	394858	WORD	n/a	wordpools/wordpool_categorized_EN.txt	RECLINER	Furniture	8	3	[0, 0, 0]	n/a	catFR1	1	R1496T
394.481	0.8	396459	WORD_OFF	n/a	n/a	RECLINER	Furniture	8	3	[0, 0, 0]	n/a	catFR1	1	R1496T
395.281	1.6	397267	WORD	n/a	wordpools/wordpool_categorized_EN.txt	BINDER	OfficeSupplies	9	3	[0, 0, 0]	n/a	catFR1	1	R1496T
396.881	0.932	398868	WORD_OFF	n/a	n/a	BINDER	OfficeSupplies	9	3	[0, 0, 0]	n/a	catFR1	1	R1496T
397.813	1.6	399789	WORD	n/a	wordpools/wordpool_categorized_EN.txt	TAPE	OfficeSupplies	10	3	[0, 0, 0]	n/a	catFR1	1	R1496T
399.413	0.868	401391	WORD_OFF	n/a	n/a	TAPE	OfficeSupplies	10	3	[0, 0, 0]	n/a	catFR1	1	R1496T
400.281	1.616	402269	WORD	n/a	wordpools/wordpool_categorized_EN.txt	PANDA	Zoo	11	3	[0, 0, 0]	n/a	catFR1	1	R1496T
401.897	0.967	403885	WORD_OFF	n/a	n/a	PANDA	Zoo	11	3	[0, 0, 0]	n/a	catFR1	1	R1496T
402.864	1.601	404849	WORD	n/a	wordpools/wordpool_categorized_EN.txt	MONKEY	Zoo	12	3	[0, 0, 0]	n/a	catFR1	1	R1496T
404.465	0.003	406443	PROB	0.003	n/a	n/a	n/a	-999	3	[3, 8, 6]	17	catFR1	1	R1496T
404.468	0.0	406446	START	n/a	n/a	n/a	n/a	-999	3	[-999, -999, -999]	n/a	catFR1	1	R1496T
404.464	0.004	406450	WORD_OFF	n/a	n/a	MONKEY	Zoo	12	3	[0, 0, 0]	n/a	catFR1	1	R1496T
404.468	0.0	406450	ENCODING_END	n/a	n/a	n/a	n/a	-999	3	[0, 0, 0]	n/a	catFR1	1	R1496T
404.468	20.162	406450	DISTRACT_START	n/a	n/a	n/a	n/a	-999	3	[0, 0, 0]	n/a	catFR1	1	R1496T
424.63	0.0	426607	STOP	n/a	n/a	n/a	n/a	-999	3	[-999, -999, -999]	n/a	catFR1	1	R1496T
424.63	2.217	426616	DISTRACT_END	n/a	n/a	n/a	n/a	-999	3	[0, 0, 0]	n/a	catFR1	1	R1496T
426.847	2.6	428835	REC_START	n/a	n/a	n/a	n/a	-999	3	[0, 0, 0]	n/a	catFR1	1	R1496T
429.447	3.169	431424	REC_WORD_VV	3.169	n/a	<>	n/a	-999	3	[0, 0, 0]	n/a	catFR1	1	R1496T
432.616	1.277	434593	REC_WORD_VV	1.277	n/a	<>	n/a	-999	3	[0, 0, 0]	n/a	catFR1	1	R1496T
433.893	4.113	435869	REC_WORD	4.113	n/a	CHAIR	Furniture	3	3	[0, 0, 0]	n/a	catFR1	1	R1496T
438.006	12.481	439982	REC_WORD_VV	12.481	n/a	<>	n/a	-999	3	[0, 0, 0]	n/a	catFR1	1	R1496T
450.487	6.591	452463	REC_WORD_VV	6.591	n/a	<>	n/a	-999	3	[0, 0, 0]	n/a	catFR1	1	R1496T
457.078	2.905	459054	REC_END	n/a	n/a	n/a	n/a	-999	3	[0, 0, 0]	n/a	catFR1	1	R1496T
459.983	10.348	461959	COUNTDOWN_START	n/a	n/a	n/a	n/a	-999	4	[0, 0, 0]	n/a	catFR1	1	R1496T
470.331	0.0	472305	COUNTDOWN_END	n/a	n/a	n/a	n/a	-999	4	[0, 0, 0]	n/a	catFR1	1	R1496T
470.331	2.117	472305	ENCODING_START	n/a	n/a	n/a	n/a	-999	4	[0, 0, 0]	n/a	catFR1	1	R1496T
472.448	1.599	474430	WORD	n/a	wordpools/wordpool_categorized_EN.txt	DOVE	Birds	1	4	[0, 0, 0]	n/a	catFR1	1	R1496T
474.047	0.917	476032	WORD_OFF	n/a	n/a	DOVE	Birds	1	4	[0, 0, 0]	n/a	catFR1	1	R1496T
474.964	1.6	476939	WORD	n/a	wordpools/wordpool_categorized_EN.txt	PIGEON	Birds	2	4	[0, 0, 0]	n/a	catFR1	1	R1496T
476.564	0.933	478540	WORD_OFF	n/a	n/a	PIGEON	Birds	2	4	[0, 0, 0]	n/a	catFR1	1	R1496T
477.497	1.6	479475	WORD	n/a	wordpools/wordpool_categorized_EN.txt	PUZZLE	Toys	3	4	[0, 0, 0]	n/a	catFR1	1	R1496T
479.097	0.984	481077	WORD_OFF	n/a	n/a	PUZZLE	Toys	3	4	[0, 0, 0]	n/a	catFR1	1	R1496T
480.081	1.6	482054	WORD	n/a	wordpools/wordpool_categorized_EN.txt	DOLLHOUSE	Toys	4	4	[0, 0, 0]	n/a	catFR1	1	R1496T
481.681	0.833	483656	WORD_OFF	n/a	n/a	DOLLHOUSE	Toys	4	4	[0, 0, 0]	n/a	catFR1	1	R1496T
482.514	1.6	484492	WORD	n/a	wordpools/wordpool_categorized_EN.txt	CALCULATOR	Electronics	5	4	[0, 0, 0]	n/a	catFR1	1	R1496T
484.114	0.999	486093	WORD_OFF	n/a	n/a	CALCULATOR	Electronics	5	4	[0, 0, 0]	n/a	catFR1	1	R1496T
485.113	1.601	487085	WORD	n/a	wordpools/wordpool_categorized_EN.txt	TABLET	Electronics	6	4	[0, 0, 0]	n/a	catFR1	1	R1496T
486.714	0.783	488687	WORD_OFF	n/a	n/a	TABLET	Electronics	6	4	[0, 0, 0]	n/a	catFR1	1	R1496T
487.497	1.6	489480	WORD	n/a	wordpools/wordpool_categorized_EN.txt	GOOSE	Birds	7	4	[0, 0, 0]	n/a	catFR1	1	R1496T
489.097	0.85	491082	WORD_OFF	n/a	n/a	GOOSE	Birds	7	4	[0, 0, 0]	n/a	catFR1	1	R1496T
489.947	1.6	491932	WORD	n/a	wordpools/wordpool_categorized_EN.txt	CROW	Birds	8	4	[0, 0, 0]	n/a	catFR1	1	R1496T
491.547	0.983	493519	WORD_OFF	n/a	n/a	CROW	Birds	8	4	[0, 0, 0]	n/a	catFR1	1	R1496T
492.53	1.6	494511	WORD	n/a	wordpools/wordpool_categorized_EN.txt	SLINKY	Toys	9	4	[0, 0, 0]	n/a	catFR1	1	R1496T
494.13	0.817	496112	WORD_OFF	n/a	n/a	SLINKY	Toys	9	4	[0, 0, 0]	n/a	catFR1	1	R1496T
494.947	1.617	496920	WORD	n/a	wordpools/wordpool_categorized_EN.txt	MARBLES	Toys	10	4	[0, 0, 0]	n/a	catFR1	1	R1496T
496.564	0.932	498536	WORD_OFF	n/a	n/a	MARBLES	Toys	10	4	[0, 0, 0]	n/a	catFR1	1	R1496T
497.496	1.601	499471	WORD	n/a	wordpools/wordpool_categorized_EN.txt	PHONE	Electronics	11	4	[0, 0, 0]	n/a	catFR1	1	R1496T
499.097	0.851	501072	WORD_OFF	n/a	n/a	PHONE	Electronics	11	4	[0, 0, 0]	n/a	catFR1	1	R1496T
499.948	1.6	501923	WORD	n/a	wordpools/wordpool_categorized_EN.txt	STEREO	Electronics	12	4	[0, 0, 0]	n/a	catFR1	1	R1496T
501.548	0.0	503521	PROB	0.0	n/a	n/a	n/a	-999	4	[7, 8, 8]	23	catFR1	1	R1496T
501.547	0.004	503524	WORD_OFF	n/a	n/a	STEREO	Electronics	12	4	[0, 0, 0]	n/a	catFR1	1	R1496T
501.551	0.0	503524	START	n/a	n/a	n/a	n/a	-999	4	[-999, -999, -999]	n/a	catFR1	1	R1496T
501.551	0.0	503538	ENCODING_END	n/a	n/a	n/a	n/a	-999	4	[0, 0, 0]	n/a	catFR1	1	R1496T
501.551	21.345	503538	DISTRACT_START	n/a	n/a	n/a	n/a	-999	4	[0, 0, 0]	n/a	catFR1	1	R1496T
522.896	0.0	524866	DISTRACT_END	n/a	n/a	n/a	n/a	-999	4	[0, 0, 0]	n/a	catFR1	1	R1496T
522.896	2.118	524868	STOP	n/a	n/a	n/a	n/a	-999	4	[-999, -999, -999]	n/a	catFR1	1	R1496T
525.014	2.004	526986	REC_START	n/a	n/a	n/a	n/a	-999	4	[0, 0, 0]	n/a	catFR1	1	R1496T
527.018	1.625	528990	REC_WORD	1.625	n/a	DOVE	Birds	1	4	[0, 0, 0]	n/a	catFR1	1	R1496T
528.643	1.429	530615	REC_WORD_VV	1.429	n/a	<>	n/a	-999	4	[0, 0, 0]	n/a	catFR1	1	R1496T
530.072	1.0	532044	REC_WORD	1.0	n/a	DOLLHOUSE	Toys	4	4	[0, 0, 0]	n/a	catFR1	1	R1496T
531.072	7.678	533044	REC_WORD	7.678	n/a	DOLLHOUSE	Toys	4	4	[0, 0, 0]	n/a	catFR1	1	R1496T
538.75	16.514	540721	REC_WORD_VV	16.514	n/a	<>	n/a	-999	4	[0, 0, 0]	n/a	catFR1	1	R1496T
555.264	3.486	557234	REC_END	n/a	n/a	n/a	n/a	-999	4	[0, 0, 0]	n/a	catFR1	1	R1496T
558.75	10.347	560720	COUNTDOWN_START	n/a	n/a	n/a	n/a	-999	5	[0, 0, 0]	n/a	catFR1	1	R1496T
569.097	0.0	571065	COUNTDOWN_END	n/a	n/a	n/a	n/a	-999	5	[0, 0, 0]	n/a	catFR1	1	R1496T
569.097	1.833	571079	ENCODING_START	n/a	n/a	n/a	n/a	-999	5	[0, 0, 0]	n/a	catFR1	1	R1496T
570.93	1.601	572907	WORD	n/a	wordpools/wordpool_categorized_EN.txt	EAR	BodyParts	1	5	[0, 0, 0]	n/a	catFR1	1	R1496T
572.531	0.999	574509	WORD_OFF	n/a	n/a	EAR	BodyParts	1	5	[0, 0, 0]	n/a	catFR1	1	R1496T
573.53	1.601	575501	WORD	n/a	wordpools/wordpool_categorized_EN.txt	NOSE	BodyParts	2	5	[0, 0, 0]	n/a	catFR1	1	R1496T
575.131	0.983	577102	WORD_OFF	n/a	n/a	NOSE	BodyParts	2	5	[0, 0, 0]	n/a	catFR1	1	R1496T
576.114	1.6	578094	WORD	n/a	wordpools/wordpool_categorized_EN.txt	ATTIC	Building	3	5	[0, 0, 0]	n/a	catFR1	1	R1496T
577.714	0.817	579681	WORD_OFF	n/a	n/a	ATTIC	Building	3	5	[0, 0, 0]	n/a	catFR1	1	R1496T
578.531	1.616	580503	WORD	n/a	wordpools/wordpool_categorized_EN.txt	HALLWAY	Building	4	5	[0, 0, 0]	n/a	catFR1	1	R1496T
580.147	0.984	582119	WORD_OFF	n/a	n/a	HALLWAY	Building	4	5	[0, 0, 0]	n/a	catFR1	1	R1496T
581.131	1.616	583111	WORD	n/a	wordpools/wordpool_categorized_EN.txt	FOLDER	OfficeSupplies	5	5	[0, 0, 0]	n/a	catFR1	1	R1496T
582.747	0.766	584726	WORD_OFF	n/a	n/a	FOLDER	OfficeSupplies	5	5	[0, 0, 0]	n/a	catFR1	1	R1496T
583.513	1.601	585492	WORD	n/a	wordpools/wordpool_categorized_EN.txt	STAPLER	OfficeSupplies	6	5	[0, 0, 0]	n/a	catFR1	1	R1496T
585.114	0.967	587093	WORD_OFF	n/a	n/a	STAPLER	OfficeSupplies	6	5	[0, 0, 0]	n/a	catFR1	1	R1496T
586.081	1.616	588057	WORD	n/a	wordpools/wordpool_categorized_EN.txt	FOOT	BodyParts	7	5	[0, 0, 0]	n/a	catFR1	1	R1496T
587.697	0.866	589672	WORD_OFF	n/a	n/a	FOOT	BodyParts	7	5	[0, 0, 0]	n/a	catFR1	1	R1496T
588.563	1.601	590537	WORD	n/a	wordpools/wordpool_categorized_EN.txt	KNEE	BodyParts	8	5	[0, 0, 0]	n/a	catFR1	1	R1496T
590.164	0.967	592138	WORD_OFF	n/a	n/a	KNEE	BodyParts	8	5	[0, 0, 0]	n/a	catFR1	1	R1496T
591.131	1.6	593102	WORD	n/a	wordpools/wordpool_categorized_EN.txt	ROOM	Building	9	5	[0, 0, 0]	n/a	catFR1	1	R1496T
592.731	0.916	594703	WORD_OFF	n/a	n/a	ROOM	Building	9	5	[0, 0, 0]	n/a	catFR1	1	R1496T
593.647	1.601	595624	WORD	n/a	wordpools/wordpool_categorized_EN.txt	STAIRS	Building	10	5	[0, 0, 0]	n/a	catFR1	1	R1496T
595.248	0.782	597226	WORD_OFF	n/a	n/a	STAIRS	Building	10	5	[0, 0, 0]	n/a	catFR1	1	R1496T
596.03	1.601	598005	WORD	n/a	wordpools/wordpool_categorized_EN.txt	NOTEBOOK	OfficeSupplies	11	5	[0, 0, 0]	n/a	catFR1	1	R1496T
597.631	0.966	599606	WORD_OFF	n/a	n/a	NOTEBOOK	OfficeSupplies	11	5	[0, 0, 0]	n/a	catFR1	1	R1496T
598.597	1.601	600570	WORD	n/a	wordpools/wordpool_categorized_EN.txt	PEN	OfficeSupplies	12	5	[0, 0, 0]	n/a	catFR1	1	R1496T
600.198	0.003	602166	PROB	0.003	n/a	n/a	n/a	-999	5	[2, 4, 7]	13	catFR1	1	R1496T
600.201	0.0	602169	START	n/a	n/a	n/a	n/a	-999	5	[-999, -999, -999]	n/a	catFR1	1	R1496T
600.197	0.004	602171	WORD_OFF	n/a	n/a	PEN	OfficeSupplies	12	5	[0, 0, 0]	n/a	catFR1	1	R1496T
600.201	0.0	602171	ENCODING_END	n/a	n/a	n/a	n/a	-999	5	[0, 0, 0]	n/a	catFR1	1	R1496T
600.201	17.33	602171	DISTRACT_START	n/a	n/a	n/a	n/a	-999	5	[0, 0, 0]	n/a	catFR1	1	R1496T
617.531	16.183	619498	PROB	16.183	n/a	n/a	n/a	-999	5	[8, 7, 8]	23	catFR1	1	R1496T
633.714	0.0	635680	STOP	n/a	n/a	n/a	n/a	-999	5	[-999, -999, -999]	n/a	catFR1	1	R1496T
633.714	2.117	635687	DISTRACT_END	n/a	n/a	n/a	n/a	-999	5	[0, 0, 0]	n/a	catFR1	1	R1496T
635.831	1.315	637806	REC_START	n/a	n/a	n/a	n/a	-999	5	[0, 0, 0]	n/a	catFR1	1	R1496T
637.146	2.706	639112	REC_WORD_VV	2.706	n/a	<>	n/a	-999	5	[0, 0, 0]	n/a	catFR1	1	R1496T
639.852	0.681	641818	REC_WORD	0.681	n/a	EAR	BodyParts	1	5	[0, 0, 0]	n/a	catFR1	1	R1496T
640.533	1.0	642499	REC_WORD	1.0	n/a	NOSE	BodyParts	2	5	[0, 0, 0]	n/a	catFR1	1	R1496T
641.533	3.202	643499	REC_WORD	3.202	n/a	NOSE	BodyParts	2	5	[0, 0, 0]	n/a	catFR1	1	R1496T
644.735	1.0	646701	REC_WORD	1.0	n/a	HALLWAY	Building	4	5	[0, 0, 0]	n/a	catFR1	1	R1496T
645.735	2.142	647701	REC_WORD	2.142	n/a	HALLWAY	Building	4	5	[0, 0, 0]	n/a	catFR1	1	R1496T
647.877	0.544	649843	REC_WORD_VV	0.544	n/a	<>	n/a	-999	5	[0, 0, 0]	n/a	catFR1	1	R1496T
648.421	4.246	650386	REC_WORD	4.246	n/a	ATTIC	Building	3	5	[0, 0, 0]	n/a	catFR1	1	R1496T
652.667	4.734	654632	REC_WORD_VV	4.734	n/a	<>	n/a	-999	5	[0, 0, 0]	n/a	catFR1	1	R1496T
657.401	1.0	659366	REC_WORD	1.0	n/a	STAIRS	Building	10	5	[0, 0, 0]	n/a	catFR1	1	R1496T
658.401	7.683	660366	REC_WORD	7.683	n/a	STAIRS	Building	10	5	[0, 0, 0]	n/a	catFR1	1	R1496T
666.084	4.296	668054	REC_END	n/a	n/a	n/a	n/a	-999	5	[0, 0, 0]	n/a	catFR1	1	R1496T
670.38	10.351	672348	COUNTDOWN_START	n/a	n/a	n/a	n/a	-999	6	[0, 0, 0]	n/a	catFR1	1	R1496T
680.731	0.0	682693	COUNTDOWN_END	n/a	n/a	n/a	n/a	-999	6	[0, 0, 0]	n/a	catFR1	1	R1496T
680.731	1.983	682708	ENCODING_START	n/a	n/a	n/a	n/a	-999	6	[0, 0, 0]	n/a	catFR1	1	R1496T
682.714	1.6	684677	WORD	n/a	wordpools/wordpool_categorized_EN.txt	VAN	Vehicles	1	6	[0, 0, 0]	n/a	catFR1	1	R1496T
684.314	0.967	686279	WORD_OFF	n/a	n/a	VAN	Vehicles	1	6	[0, 0, 0]	n/a	catFR1	1	R1496T
685.281	1.616	687242	WORD	n/a	wordpools/wordpool_categorized_EN.txt	CAR	Vehicles	2	6	[0, 0, 0]	n/a	catFR1	1	R1496T
686.897	1.0	688858	WORD_OFF	n/a	n/a	CAR	Vehicles	2	6	[0, 0, 0]	n/a	catFR1	1	R1496T
687.897	1.601	689864	WORD	n/a	wordpools/wordpool_categorized_EN.txt	GORILLA	Zoo	3	6	[0, 0, 0]	n/a	catFR1	1	R1496T
689.498	0.833	691465	WORD_OFF	n/a	n/a	GORILLA	Zoo	3	6	[0, 0, 0]	n/a	catFR1	1	R1496T
690.331	1.616	692302	WORD	n/a	wordpools/wordpool_categorized_EN.txt	GIRAFFE	Zoo	4	6	[0, 0, 0]	n/a	catFR1	1	R1496T
691.947	0.951	693917	WORD_OFF	n/a	n/a	GIRAFFE	Zoo	4	6	[0, 0, 0]	n/a	catFR1	1	R1496T
692.898	1.599	694867	WORD	n/a	wordpools/wordpool_categorized_EN.txt	ELM	Trees	5	6	[0, 0, 0]	n/a	catFR1	1	R1496T
694.497	0.95	696468	WORD_OFF	n/a	n/a	ELM	Trees	5	6	[0, 0, 0]	n/a	catFR1	1	R1496T
695.447	1.6	697417	WORD	n/a	wordpools/wordpool_categorized_EN.txt	CYPRESS	Trees	6	6	[0, 0, 0]	n/a	catFR1	1	R1496T
697.047	0.884	699019	WORD_OFF	n/a	n/a	CYPRESS	Trees	6	6	[0, 0, 0]	n/a	catFR1	1	R1496T
697.931	1.614	699897	WORD	n/a	wordpools/wordpool_categorized_EN.txt	JEEP	Vehicles	7	6	[0, 0, 0]	n/a	catFR1	1	R1496T
699.545	0.969	701513	WORD_OFF	n/a	n/a	JEEP	Vehicles	7	6	[0, 0, 0]	n/a	catFR1	1	R1496T
700.514	1.618	702477	WORD	n/a	wordpools/wordpool_categorized_EN.txt	PLANE	Vehicles	8	6	[0, 0, 0]	n/a	catFR1	1	R1496T
702.132	0.965	704092	WORD_OFF	n/a	n/a	PLANE	Vehicles	8	6	[0, 0, 0]	n/a	catFR1	1	R1496T
703.097	1.6	705070	WORD	n/a	wordpools/wordpool_categorized_EN.txt	PINE	Trees	9	6	[0, 0, 0]	n/a	catFR1	1	R1496T
704.697	0.951	706671	WORD_OFF	n/a	n/a	PINE	Trees	9	6	[0, 0, 0]	n/a	catFR1	1	R1496T
705.648	1.616	707621	WORD	n/a	wordpools/wordpool_categorized_EN.txt	WILLOW	Trees	10	6	[0, 0, 0]	n/a	catFR1	1	R1496T
707.264	0.817	709236	WORD_OFF	n/a	n/a	WILLOW	Trees	10	6	[0, 0, 0]	n/a	catFR1	1	R1496T
708.081	1.616	710044	WORD	n/a	wordpools/wordpool_categorized_EN.txt	ZEBRA	Zoo	11	6	[0, 0, 0]	n/a	catFR1	1	R1496T
709.697	0.867	711660	WORD_OFF	n/a	n/a	ZEBRA	Zoo	11	6	[0, 0, 0]	n/a	catFR1	1	R1496T
710.564	1.6	712524	WORD	n/a	wordpools/wordpool_categorized_EN.txt	ELEPHANT	Zoo	12	6	[0, 0, 0]	n/a	catFR1	1	R1496T
712.164	0.002	714126	WORD_OFF	n/a	n/a	ELEPHANT	Zoo	12	6	[0, 0, 0]	n/a	catFR1	1	R1496T
712.166	0.0	714126	ENCODING_END	n/a	n/a	n/a	n/a	-999	6	[0, 0, 0]	n/a	catFR1	1	R1496T
712.165	0.001	714127	PROB	0.001	n/a	n/a	n/a	-999	6	[6, 1, 1]	8	catFR1	1	R1496T
712.166	0.0	714128	START	n/a	n/a	n/a	n/a	-999	6	[-999, -999, -999]	n/a	catFR1	1	R1496T
712.166	7.848	714140	DISTRACT_START	n/a	n/a	n/a	n/a	-999	6	[0, 0, 0]	n/a	catFR1	1	R1496T
720.014	5.733	721976	PROB	5.733	n/a	n/a	n/a	-999	6	[7, 3, 1]	11	catFR1	1	R1496T
725.747	17.317	727708	PROB	17.317	n/a	n/a	n/a	-999	6	[7, 7, 8]	22	catFR1	1	R1496T
743.064	0.0	745025	STOP	n/a	n/a	n/a	n/a	-999	6	[-999, -999, -999]	n/a	catFR1	1	R1496T
743.064	2.334	745033	DISTRACT_END	n/a	n/a	n/a	n/a	-999	6	[0, 0, 0]	n/a	catFR1	1	R1496T
745.398	1.833	747366	REC_START	n/a	n/a	n/a	n/a	-999	6	[0, 0, 0]	n/a	catFR1	1	R1496T
747.231	2.056	749191	REC_WORD_VV	2.056	n/a	<>	n/a	-999	6	[0, 0, 0]	n/a	catFR1	1	R1496T
749.287	9.843	751247	REC_WORD_VV	9.843	n/a	<>	n/a	-999	6	[0, 0, 0]	n/a	catFR1	1	R1496T
759.13	8.094	761090	REC_WORD_VV	8.094	n/a	<>	n/a	-999	6	[0, 0, 0]	n/a	catFR1	1	R1496T
767.224	8.408	769183	REC_WORD_VV	8.408	n/a	<>	n/a	-999	6	[0, 0, 0]	n/a	catFR1	1	R1496T
775.632	2.034	777599	REC_END	n/a	n/a	n/a	n/a	-999	6	[0, 0, 0]	n/a	catFR1	1	R1496T
777.666	10.347	779626	COUNTDOWN_START	n/a	n/a	n/a	n/a	-999	7	[0, 0, 0]	n/a	catFR1	1	R1496T
788.013	0.0	789971	COUNTDOWN_END	n/a	n/a	n/a	n/a	-999	7	[0, 0, 0]	n/a	catFR1	1	R1496T
788.013	2.135	789971	ENCODING_START	n/a	n/a	n/a	n/a	-999	7	[0, 0, 0]	n/a	catFR1	1	R1496T
790.148	1.616	792111	WORD	n/a	wordpools/wordpool_categorized_EN.txt	SCOOTER	Vehicles	1	7	[0, 0, 0]	n/a	catFR1	1	R1496T
791.764	0.784	793726	WORD_OFF	n/a	n/a	SCOOTER	Vehicles	1	7	[0, 0, 0]	n/a	catFR1	1	R1496T
792.548	1.617	794506	WORD	n/a	wordpools/wordpool_categorized_EN.txt	MOTORCYCLE	Vehicles	2	7	[0, 0, 0]	n/a	catFR1	1	R1496T
794.165	0.849	796121	WORD_OFF	n/a	n/a	MOTORCYCLE	Vehicles	2	7	[0, 0, 0]	n/a	catFR1	1	R1496T
795.014	1.617	796972	WORD	n/a	wordpools/wordpool_categorized_EN.txt	SCANNER	Electronics	3	7	[0, 0, 0]	n/a	catFR1	1	R1496T
796.631	0.999	798587	WORD_OFF	n/a	n/a	SCANNER	Electronics	3	7	[0, 0, 0]	n/a	catFR1	1	R1496T
797.63	1.601	799593	WORD	n/a	wordpools/wordpool_categorized_EN.txt	PRINTER	Electronics	4	7	[0, 0, 0]	n/a	catFR1	1	R1496T
799.231	0.799	801195	WORD_OFF	n/a	n/a	PRINTER	Electronics	4	7	[0, 0, 0]	n/a	catFR1	1	R1496T
800.03	1.6	801988	WORD	n/a	wordpools/wordpool_categorized_EN.txt	HICKORY	Trees	5	7	[0, 0, 0]	n/a	catFR1	1	R1496T
801.63	0.849	803590	WORD_OFF	n/a	n/a	HICKORY	Trees	5	7	[0, 0, 0]	n/a	catFR1	1	R1496T
802.479	1.602	804440	WORD	n/a	wordpools/wordpool_categorized_EN.txt	SPRUCE	Trees	6	7	[0, 0, 0]	n/a	catFR1	1	R1496T
804.081	0.816	806041	WORD_OFF	n/a	n/a	SPRUCE	Trees	6	7	[0, 0, 0]	n/a	catFR1	1	R1496T
804.897	1.6	806863	WORD	n/a	wordpools/wordpool_categorized_EN.txt	COMPUTER	Electronics	7	7	[0, 0, 0]	n/a	catFR1	1	R1496T
806.497	1.0	808465	WORD_OFF	n/a	n/a	COMPUTER	Electronics	7	7	[0, 0, 0]	n/a	catFR1	1	R1496T
807.497	1.6	809457	WORD	n/a	wordpools/wordpool_categorized_EN.txt	RADIO	Electronics	8	7	[0, 0, 0]	n/a	catFR1	1	R1496T
809.097	0.984	811058	WORD_OFF	n/a	n/a	RADIO	Electronics	8	7	[0, 0, 0]	n/a	catFR1	1	R1496T
810.081	1.616	812036	WORD	n/a	wordpools/wordpool_categorized_EN.txt	OAK	Trees	9	7	[0, 0, 0]	n/a	catFR1	1	R1496T
811.697	0.9	813651	WORD_OFF	n/a	n/a	OAK	Trees	9	7	[0, 0, 0]	n/a	catFR1	1	R1496T
812.597	1.6	814558	WORD	n/a	wordpools/wordpool_categorized_EN.txt	BIRCH	Trees	10	7	[0, 0, 0]	n/a	catFR1	1	R1496T
814.197	0.867	816160	WORD_OFF	n/a	n/a	BIRCH	Trees	10	7	[0, 0, 0]	n/a	catFR1	1	R1496T
815.064	1.617	817024	WORD	n/a	wordpools/wordpool_categorized_EN.txt	BOAT	Vehicles	11	7	[0, 0, 0]	n/a	catFR1	1	R1496T
816.681	0.949	818640	WORD_OFF	n/a	n/a	BOAT	Vehicles	11	7	[0, 0, 0]	n/a	catFR1	1	R1496T
817.63	1.6	819603	WORD	n/a	wordpools/wordpool_categorized_EN.txt	MOPED	Vehicles	12	7	[0, 0, 0]	n/a	catFR1	1	R1496T
819.23	0.001	821187	PROB	0.001	n/a	n/a	n/a	-999	7	[8, 5, 6]	19	catFR1	1	R1496T
819.231	0.0	821188	START	n/a	n/a	n/a	n/a	-999	7	[-999, -999, -999]	n/a	catFR1	1	R1496T
819.23	0.001	821191	WORD_OFF	n/a	n/a	MOPED	Vehicles	12	7	[0, 0, 0]	n/a	catFR1	1	R1496T
819.231	0.0	821191	ENCODING_END	n/a	n/a	n/a	n/a	-999	7	[0, 0, 0]	n/a	catFR1	1	R1496T
819.231	39.382	821191	DISTRACT_START	n/a	n/a	n/a	n/a	-999	7	[0, 0, 0]	n/a	catFR1	1	R1496T
858.613	0.0	860568	STOP	n/a	n/a	n/a	n/a	-999	7	[-999, -999, -999]	n/a	catFR1	1	R1496T
858.613	2.268	860573	DISTRACT_END	n/a	n/a	n/a	n/a	-999	7	[0, 0, 0]	n/a	catFR1	1	R1496T
860.881	2.112	862834	REC_START	n/a	n/a	n/a	n/a	-999	7	[0, 0, 0]	n/a	catFR1	1	R1496T
862.993	2.736	864947	REC_WORD_VV	2.736	n/a	<>	n/a	-999	7	[0, 0, 0]	n/a	catFR1	1	R1496T
865.729	25.389	867683	REC_WORD_VV	25.389	n/a	<>	n/a	-999	7	[0, 0, 0]	n/a	catFR1	1	R1496T
891.118	2.196	893082	REC_END	n/a	n/a	n/a	n/a	-999	7	[0, 0, 0]	n/a	catFR1	1	R1496T
893.314	10.35	895279	COUNTDOWN_START	n/a	n/a	n/a	n/a	-999	8	[0, 0, 0]	n/a	catFR1	1	R1496T
903.664	0.0	905624	COUNTDOWN_END	n/a	n/a	n/a	n/a	-999	8	[0, 0, 0]	n/a	catFR1	1	R1496T
903.664	2.232	905624	ENCODING_START	n/a	n/a	n/a	n/a	-999	8	[0, 0, 0]	n/a	catFR1	1	R1496T
905.896	1.601	907849	WORD	n/a	wordpools/wordpool_categorized_EN.txt	SPOON	KitchenTools	1	8	[0, 0, 0]	n/a	catFR1	1	R1496T
907.497	0.967	909450	WORD_OFF	n/a	n/a	SPOON	KitchenTools	1	8	[0, 0, 0]	n/a	catFR1	1	R1496T
908.464	1.617	910414	WORD	n/a	wordpools/wordpool_categorized_EN.txt	STRAINER	KitchenTools	2	8	[0, 0, 0]	n/a	catFR1	1	R1496T
910.081	0.95	912044	WORD_OFF	n/a	n/a	STRAINER	KitchenTools	2	8	[0, 0, 0]	n/a	catFR1	1	R1496T
911.031	1.6	912993	WORD	n/a	wordpools/wordpool_categorized_EN.txt	CUCUMBER	Vegetables	3	8	[0, 0, 0]	n/a	catFR1	1	R1496T
912.631	0.933	914580	WORD_OFF	n/a	n/a	CUCUMBER	Vegetables	3	8	[0, 0, 0]	n/a	catFR1	1	R1496T
913.564	1.6	915516	WORD	n/a	wordpools/wordpool_categorized_EN.txt	POTATO	Vegetables	4	8	[0, 0, 0]	n/a	catFR1	1	R1496T
915.164	0.966	917117	WORD_OFF	n/a	n/a	POTATO	Vegetables	4	8	[0, 0, 0]	n/a	catFR1	1	R1496T
916.13	1.601	918081	WORD	n/a	wordpools/wordpool_categorized_EN.txt	BLUEBERRY	Fruit	5	8	[0, 0, 0]	n/a	catFR1	1	R1496T
917.731	0.933	919682	WORD_OFF	n/a	n/a	BLUEBERRY	Fruit	5	8	[0, 0, 0]	n/a	catFR1	1	R1496T
918.664	1.617	920617	WORD	n/a	wordpools/wordpool_categorized_EN.txt	ORANGE	Fruit	6	8	[0, 0, 0]	n/a	catFR1	1	R1496T
920.281	0.8	922233	WORD_OFF	n/a	n/a	ORANGE	Fruit	6	8	[0, 0, 0]	n/a	catFR1	1	R1496T
921.081	1.617	923041	WORD	n/a	wordpools/wordpool_categorized_EN.txt	CABBAGE	Vegetables	7	8	[0, 0, 0]	n/a	catFR1	1	R1496T
922.698	0.9	924656	WORD_OFF	n/a	n/a	CABBAGE	Vegetables	7	8	[0, 0, 0]	n/a	catFR1	1	R1496T
923.598	1.616	925549	WORD	n/a	wordpools/wordpool_categorized_EN.txt	PEAS	Vegetables	8	8	[0, 0, 0]	n/a	catFR1	1	R1496T
925.214	0.767	927164	WORD_OFF	n/a	n/a	PEAS	Vegetables	8	8	[0, 0, 0]	n/a	catFR1	1	R1496T
925.981	1.616	927930	WORD	n/a	wordpools/wordpool_categorized_EN.txt	KNIFE	KitchenTools	9	8	[0, 0, 0]	n/a	catFR1	1	R1496T
927.597	0.867	929559	WORD_OFF	n/a	n/a	KNIFE	KitchenTools	9	8	[0, 0, 0]	n/a	catFR1	1	R1496T
928.464	1.6	930424	WORD	n/a	wordpools/wordpool_categorized_EN.txt	CORKSCREW	KitchenTools	10	8	[0, 0, 0]	n/a	catFR1	1	R1496T
930.064	0.85	932025	WORD_OFF	n/a	n/a	CORKSCREW	KitchenTools	10	8	[0, 0, 0]	n/a	catFR1	1	R1496T
930.914	1.6	932876	WORD	n/a	wordpools/wordpool_categorized_EN.txt	CHERRY	Fruit	11	8	[0, 0, 0]	n/a	catFR1	1	R1496T
932.514	0.883	934463	WORD_OFF	n/a	n/a	CHERRY	Fruit	11	8	[0, 0, 0]	n/a	catFR1	1	R1496T
933.397	1.601	935356	WORD	n/a	wordpools/wordpool_categorized_EN.txt	APPLE	Fruit	12	8	[0, 0, 0]	n/a	catFR1	1	R1496T
934.998	0.001	936949	PROB	0.001	n/a	n/a	n/a	-999	8	[8, 8, 4]	20	catFR1	1	R1496T
934.999	0.0	936950	START	n/a	n/a	n/a	n/a	-999	8	[-999, -999, -999]	n/a	catFR1	1	R1496T
934.997	0.002	936957	WORD_OFF	n/a	n/a	APPLE	Fruit	12	8	[0, 0, 0]	n/a	catFR1	1	R1496T
934.999	0.0	936957	ENCODING_END	n/a	n/a	n/a	n/a	-999	8	[0, 0, 0]	n/a	catFR1	1	R1496T
934.999	8.466	936957	DISTRACT_START	n/a	n/a	n/a	n/a	-999	8	[0, 0, 0]	n/a	catFR1	1	R1496T
943.465	5.384	945415	PROB	5.384	n/a	n/a	n/a	-999	8	[2, 5, 4]	11	catFR1	1	R1496T
948.849	6.548	950799	PROB	6.548	n/a	n/a	n/a	-999	8	[5, 2, 3]	10	catFR1	1	R1496T
955.397	0.0	957347	STOP	n/a	n/a	n/a	n/a	-999	8	[-999, -999, -999]	n/a	catFR1	1	R1496T
955.397	2.25	957350	DISTRACT_END	n/a	n/a	n/a	n/a	-999	8	[0, 0, 0]	n/a	catFR1	1	R1496T
957.647	1.253	959597	REC_START	n/a	n/a	n/a	n/a	-999	8	[0, 0, 0]	n/a	catFR1	1	R1496T
958.9	1.0	960850	REC_WORD	1.0	n/a	CHERRY	Fruit	11	8	[0, 0, 0]	n/a	catFR1	1	R1496T
959.9	2.606	961850	REC_WORD	2.606	n/a	CHERRY	Fruit	11	8	[0, 0, 0]	n/a	catFR1	1	R1496T
962.506	1.98	964455	REC_WORD_VV	1.98	n/a	<>	n/a	-999	8	[0, 0, 0]	n/a	catFR1	1	R1496T
964.486	2.601	966435	REC_WORD_VV	2.601	n/a	<>	n/a	-999	8	[0, 0, 0]	n/a	catFR1	1	R1496T
967.087	1.0	969036	REC_WORD	1.0	n/a	CUCUMBER	Vegetables	3	8	[0, 0, 0]	n/a	catFR1	1	R1496T
968.087	12.034	970036	REC_WORD	12.034	n/a	CUCUMBER	Vegetables	3	8	[0, 0, 0]	n/a	catFR1	1	R1496T
980.121	7.785	982069	REC_WORD_VV	7.785	n/a	<>	n/a	-999	8	[0, 0, 0]	n/a	catFR1	1	R1496T
987.906	3.875	989859	REC_END	n/a	n/a	n/a	n/a	-999	8	[0, 0, 0]	n/a	catFR1	1	R1496T
991.781	10.349	993742	COUNTDOWN_START	n/a	n/a	n/a	n/a	-999	9	[0, 0, 0]	n/a	catFR1	1	R1496T
1002.13	0.0	1004087	COUNTDOWN_END	n/a	n/a	n/a	n/a	-999	9	[0, 0, 0]	n/a	catFR1	1	R1496T
1002.13	2.184	1004087	ENCODING_START	n/a	n/a	n/a	n/a	-999	9	[0, 0, 0]	n/a	catFR1	1	R1496T
1004.314	1.616	1006269	WORD	n/a	wordpools/wordpool_categorized_EN.txt	LEG	BodyParts	1	9	[0, 0, 0]	n/a	catFR1	1	R1496T
1005.93	0.917	1007885	WORD_OFF	n/a	n/a	LEG	BodyParts	1	9	[0, 0, 0]	n/a	catFR1	1	R1496T
1006.847	1.601	1008792	WORD	n/a	wordpools/wordpool_categorized_EN.txt	TOE	BodyParts	2	9	[0, 0, 0]	n/a	catFR1	1	R1496T
1008.448	0.983	1010393	WORD_OFF	n/a	n/a	TOE	BodyParts	2	9	[0, 0, 0]	n/a	catFR1	1	R1496T
1009.431	1.617	1011385	WORD	n/a	wordpools/wordpool_categorized_EN.txt	SPEAKER	Electronics	3	9	[0, 0, 0]	n/a	catFR1	1	R1496T
1011.048	0.965	1013001	WORD_OFF	n/a	n/a	SPEAKER	Electronics	3	9	[0, 0, 0]	n/a	catFR1	1	R1496T
1012.013	1.601	1013964	WORD	n/a	wordpools/wordpool_categorized_EN.txt	MICROWAVE	Electronics	4	9	[0, 0, 0]	n/a	catFR1	1	R1496T
1013.614	0.833	1015566	WORD_OFF	n/a	n/a	MICROWAVE	Electronics	4	9	[0, 0, 0]	n/a	catFR1	1	R1496T
1014.447	1.601	1016402	WORD	n/a	wordpools/wordpool_categorized_EN.txt	CARROT	Vegetables	5	9	[0, 0, 0]	n/a	catFR1	1	R1496T
1016.048	0.783	1018003	WORD_OFF	n/a	n/a	CARROT	Vegetables	5	9	[0, 0, 0]	n/a	catFR1	1	R1496T
1016.831	1.616	1018783	WORD	n/a	wordpools/wordpool_categorized_EN.txt	CORN	Vegetables	6	9	[0, 0, 0]	n/a	catFR1	1	R1496T
1018.447	0.967	1020398	WORD_OFF	n/a	n/a	CORN	Vegetables	6	9	[0, 0, 0]	n/a	catFR1	1	R1496T
1019.414	1.617	1021362	WORD	n/a	wordpools/wordpool_categorized_EN.txt	EYE	BodyParts	7	9	[0, 0, 0]	n/a	catFR1	1	R1496T
1021.031	0.95	1022977	WORD_OFF	n/a	n/a	EYE	BodyParts	7	9	[0, 0, 0]	n/a	catFR1	1	R1496T
1021.981	1.616	1023927	WORD	n/a	wordpools/wordpool_categorized_EN.txt	ELBOW	BodyParts	8	9	[0, 0, 0]	n/a	catFR1	1	R1496T
1023.597	0.934	1025542	WORD_OFF	n/a	n/a	ELBOW	BodyParts	8	9	[0, 0, 0]	n/a	catFR1	1	R1496T
1024.531	1.616	1026478	WORD	n/a	wordpools/wordpool_categorized_EN.txt	HEADPHONES	Electronics	9	9	[0, 0, 0]	n/a	catFR1	1	R1496T
1026.147	0.901	1028093	WORD_OFF	n/a	n/a	HEADPHONES	Electronics	9	9	[0, 0, 0]	n/a	catFR1	1	R1496T
1027.048	1.616	1029000	WORD	n/a	wordpools/wordpool_categorized_EN.txt	TELEVISION	Electronics	10	9	[0, 0, 0]	n/a	catFR1	1	R1496T
1028.664	1.0	1030616	WORD_OFF	n/a	n/a	TELEVISION	Electronics	10	9	[0, 0, 0]	n/a	catFR1	1	R1496T
1029.664	1.617	1031608	WORD	n/a	wordpools/wordpool_categorized_EN.txt	CELERY	Vegetables	11	9	[0, 0, 0]	n/a	catFR1	1	R1496T
1031.281	0.8	1033237	WORD_OFF	n/a	n/a	CELERY	Vegetables	11	9	[0, 0, 0]	n/a	catFR1	1	R1496T
1032.081	1.617	1034031	WORD	n/a	wordpools/wordpool_categorized_EN.txt	CAULIFLOWER	Vegetables	12	9	[0, 0, 0]	n/a	catFR1	1	R1496T
1033.698	0.001	1035644	PROB	0.001	n/a	n/a	n/a	-999	9	[6, 2, 8]	16	catFR1	1	R1496T
1033.699	0.0	1035645	START	n/a	n/a	n/a	n/a	-999	9	[-999, -999, -999]	n/a	catFR1	1	R1496T
1033.697	0.002	1035647	WORD_OFF	n/a	n/a	CAULIFLOWER	Vegetables	12	9	[0, 0, 0]	n/a	catFR1	1	R1496T
1033.699	0.0	1035647	ENCODING_END	n/a	n/a	n/a	n/a	-999	9	[0, 0, 0]	n/a	catFR1	1	R1496T
1033.699	6.581	1035647	DISTRACT_START	n/a	n/a	n/a	n/a	-999	9	[0, 0, 0]	n/a	catFR1	1	R1496T
1040.28	5.033	1042225	PROB	5.033	n/a	n/a	n/a	-999	9	[6, 2, 2]	10	catFR1	1	R1496T
1045.313	31.351	1047258	PROB	31.351	n/a	n/a	n/a	-999	9	[7, 5, 6]	18	catFR1	1	R1496T
1076.664	0.0	1078607	STOP	n/a	n/a	n/a	n/a	-999	9	[-999, -999, -999]	n/a	catFR1	1	R1496T
1076.664	2.366	1078614	DISTRACT_END	n/a	n/a	n/a	n/a	-999	9	[0, 0, 0]	n/a	catFR1	1	R1496T
1079.03	4.444	1080975	REC_START	n/a	n/a	n/a	n/a	-999	9	[0, 0, 0]	n/a	catFR1	1	R1496T
1083.474	22.819	1085417	REC_WORD_VV	22.819	n/a	<>	n/a	-999	9	[0, 0, 0]	n/a	catFR1	1	R1496T
1106.293	2.984	1108235	REC_WORD_VV	2.984	n/a	<>	n/a	-999	9	[0, 0, 0]	n/a	catFR1	1	R1496T
1109.277	10.02	1111223	REC_END	n/a	n/a	n/a	n/a	-999	9	[0, 0, 0]	n/a	catFR1	1	R1496T
1119.297	10.351	1121242	COUNTDOWN_START	n/a	n/a	n/a	n/a	-999	10	[0, 0, 0]	n/a	catFR1	1	R1496T
1129.648	0.0	1131587	COUNTDOWN_END	n/a	n/a	n/a	n/a	-999	10	[0, 0, 0]	n/a	catFR1	1	R1496T
1129.648	2.232	1131601	ENCODING_START	n/a	n/a	n/a	n/a	-999	10	[0, 0, 0]	n/a	catFR1	1	R1496T
1131.88	1.601	1133826	WORD	n/a	wordpools/wordpool_categorized_EN.txt	FLOOR	Building	1	10	[0, 0, 0]	n/a	catFR1	1	R1496T
1133.481	0.95	1135428	WORD_OFF	n/a	n/a	FLOOR	Building	1	10	[0, 0, 0]	n/a	catFR1	1	R1496T
1134.431	1.6	1136377	WORD	n/a	wordpools/wordpool_categorized_EN.txt	WALL	Building	2	10	[0, 0, 0]	n/a	catFR1	1	R1496T
1136.031	0.816	1137978	WORD_OFF	n/a	n/a	WALL	Building	2	10	[0, 0, 0]	n/a	catFR1	1	R1496T
1136.847	1.616	1138786	WORD	n/a	wordpools/wordpool_categorized_EN.txt	BARBIE	Toys	3	10	[0, 0, 0]	n/a	catFR1	1	R1496T
1138.463	0.917	1140402	WORD_OFF	n/a	n/a	BARBIE	Toys	3	10	[0, 0, 0]	n/a	catFR1	1	R1496T
1139.38	1.601	1141323	WORD	n/a	wordpools/wordpool_categorized_EN.txt	BASKETBALL	Toys	4	10	[0, 0, 0]	n/a	catFR1	1	R1496T
1140.981	0.833	1142924	WORD_OFF	n/a	n/a	BASKETBALL	Toys	4	10	[0, 0, 0]	n/a	catFR1	1	R1496T
1141.814	1.6	1143760	WORD	n/a	wordpools/wordpool_categorized_EN.txt	HAND	BodyParts	5	10	[0, 0, 0]	n/a	catFR1	1	R1496T
1143.414	0.783	1145362	WORD_OFF	n/a	n/a	HAND	BodyParts	5	10	[0, 0, 0]	n/a	catFR1	1	R1496T
1144.197	1.6	1146141	WORD	n/a	wordpools/wordpool_categorized_EN.txt	HEAD	BodyParts	6	10	[0, 0, 0]	n/a	catFR1	1	R1496T
1145.797	0.817	1147742	WORD_OFF	n/a	n/a	HEAD	BodyParts	6	10	[0, 0, 0]	n/a	catFR1	1	R1496T
1146.614	1.617	1148564	WORD	n/a	wordpools/wordpool_categorized_EN.txt	BATHROOM	Building	7	10	[0, 0, 0]	n/a	catFR1	1	R1496T
1148.231	0.865	1150180	WORD_OFF	n/a	n/a	BATHROOM	Building	7	10	[0, 0, 0]	n/a	catFR1	1	R1496T
1149.096	1.601	1151044	WORD	n/a	wordpools/wordpool_categorized_EN.txt	CEILING	Building	8	10	[0, 0, 0]	n/a	catFR1	1	R1496T
1150.697	0.766	1152646	WORD_OFF	n/a	n/a	CEILING	Building	8	10	[0, 0, 0]	n/a	catFR1	1	R1496T
1151.463	1.601	1153411	WORD	n/a	wordpools/wordpool_categorized_EN.txt	FINGERS	BodyParts	9	10	[0, 0, 0]	n/a	catFR1	1	R1496T
1153.064	0.983	1155012	WORD_OFF	n/a	n/a	FINGERS	BodyParts	9	10	[0, 0, 0]	n/a	catFR1	1	R1496T
1154.047	1.6	1155990	WORD	n/a	wordpools/wordpool_categorized_EN.txt	ARM	BodyParts	10	10	[0, 0, 0]	n/a	catFR1	1	R1496T
1155.647	0.917	1157592	WORD_OFF	n/a	n/a	ARM	BodyParts	10	10	[0, 0, 0]	n/a	catFR1	1	R1496T
1156.564	1.6	1158513	WORD	n/a	wordpools/wordpool_categorized_EN.txt	FOOTBALL	Toys	11	10	[0, 0, 0]	n/a	catFR1	1	R1496T
1158.164	0.899	1160114	WORD_OFF	n/a	n/a	FOOTBALL	Toys	11	10	[0, 0, 0]	n/a	catFR1	1	R1496T
1159.063	1.602	1161007	WORD	n/a	wordpools/wordpool_categorized_EN.txt	DOLL	Toys	12	10	[0, 0, 0]	n/a	catFR1	1	R1496T
1160.665	0.0	1162604	START	n/a	n/a	n/a	n/a	-999	10	[-999, -999, -999]	n/a	catFR1	1	R1496T
1160.665	0.0	1162604	PROB	0.0	n/a	n/a	n/a	-999	10	[6, 7, 2]	15	catFR1	1	R1496T
1160.664	0.001	1162608	WORD_OFF	n/a	n/a	DOLL	Toys	12	10	[0, 0, 0]	n/a	catFR1	1	R1496T
1160.665	0.0	1162608	ENCODING_END	n/a	n/a	n/a	n/a	-999	10	[0, 0, 0]	n/a	catFR1	1	R1496T
1160.665	22.332	1162608	DISTRACT_START	n/a	n/a	n/a	n/a	-999	10	[0, 0, 0]	n/a	catFR1	1	R1496T
1182.997	0.0	1184935	STOP	n/a	n/a	n/a	n/a	-999	10	[-999, -999, -999]	n/a	catFR1	1	R1496T
1182.997	2.399	1184942	DISTRACT_END	n/a	n/a	n/a	n/a	-999	10	[0, 0, 0]	n/a	catFR1	1	R1496T
1185.396	3.311	1187345	REC_START	n/a	n/a	n/a	n/a	-999	10	[0, 0, 0]	n/a	catFR1	1	R1496T
1188.707	1.0	1190645	REC_WORD_VV	1.0	n/a	<>	n/a	-999	10	[0, 0, 0]	n/a	catFR1	1	R1496T
1189.707	7.365	1191645	REC_WORD_VV	7.365	n/a	<>	n/a	-999	10	[0, 0, 0]	n/a	catFR1	1	R1496T
1197.072	1.0	1199009	REC_WORD_VV	1.0	n/a	<>	n/a	-999	10	[0, 0, 0]	n/a	catFR1	1	R1496T
1198.072	1.0	1200009	REC_WORD_VV	1.0	n/a	<>	n/a	-999	10	[0, 0, 0]	n/a	catFR1	1	R1496T
1199.072	16.547	1201009	REC_WORD_VV	16.547	n/a	<>	n/a	-999	10	[0, 0, 0]	n/a	catFR1	1	R1496T
1215.619	4.662	1217565	REC_END	n/a	n/a	n/a	n/a	-999	10	[0, 0, 0]	n/a	catFR1	1	R1496T
1220.281	10.349	1222227	COUNTDOWN_START	n/a	n/a	n/a	n/a	-999	11	[0, 0, 0]	n/a	catFR1	1	R1496T
1230.63	0.0	1232573	COUNTDOWN_END	n/a	n/a	n/a	n/a	-999	11	[0, 0, 0]	n/a	catFR1	1	R1496T
1230.63	2.168	1232573	ENCODING_START	n/a	n/a	n/a	n/a	-999	11	[0, 0, 0]	n/a	catFR1	1	R1496T
1232.798	1.599	1234741	WORD	n/a	wordpools/wordpool_categorized_EN.txt	BROCCOLI	Vegetables	1	11	[0, 0, 0]	n/a	catFR1	1	R1496T
1234.397	0.883	1236342	WORD_OFF	n/a	n/a	BROCCOLI	Vegetables	1	11	[0, 0, 0]	n/a	catFR1	1	R1496T
1235.28	1.601	1237221	WORD	n/a	wordpools/wordpool_categorized_EN.txt	ONION	Vegetables	2	11	[0, 0, 0]	n/a	catFR1	1	R1496T
1236.881	0.983	1238822	WORD_OFF	n/a	n/a	ONION	Vegetables	2	11	[0, 0, 0]	n/a	catFR1	1	R1496T
1237.864	1.617	1239800	WORD	n/a	wordpools/wordpool_categorized_EN.txt	LIME	Fruit	3	11	[0, 0, 0]	n/a	catFR1	1	R1496T
1239.481	0.95	1241416	WORD_OFF	n/a	n/a	LIME	Fruit	3	11	[0, 0, 0]	n/a	catFR1	1	R1496T
1240.431	1.6	1242365	WORD	n/a	wordpools/wordpool_categorized_EN.txt	GRAPE	Fruit	4	11	[0, 0, 0]	n/a	catFR1	1	R1496T
1242.031	0.916	1243966	WORD_OFF	n/a	n/a	GRAPE	Fruit	4	11	[0, 0, 0]	n/a	catFR1	1	R1496T
1242.947	1.601	1244888	WORD	n/a	wordpools/wordpool_categorized_EN.txt	DRYER	Appliances	5	11	[0, 0, 0]	n/a	catFR1	1	R1496T
1244.548	0.933	1246489	WORD_OFF	n/a	n/a	DRYER	Appliances	5	11	[0, 0, 0]	n/a	catFR1	1	R1496T
1245.481	1.615	1247424	WORD	n/a	wordpools/wordpool_categorized_EN.txt	MIXER	Appliances	6	11	[0, 0, 0]	n/a	catFR1	1	R1496T
1247.096	0.935	1249040	WORD_OFF	n/a	n/a	MIXER	Appliances	6	11	[0, 0, 0]	n/a	catFR1	1	R1496T
1248.031	1.6	1249975	WORD	n/a	wordpools/wordpool_categorized_EN.txt	PLUM	Fruit	7	11	[0, 0, 0]	n/a	catFR1	1	R1496T
1249.631	0.816	1251576	WORD_OFF	n/a	n/a	PLUM	Fruit	7	11	[0, 0, 0]	n/a	catFR1	1	R1496T
1250.447	1.601	1252384	WORD	n/a	wordpools/wordpool_categorized_EN.txt	PEACH	Fruit	8	11	[0, 0, 0]	n/a	catFR1	1	R1496T
1252.048	0.866	1253986	WORD_OFF	n/a	n/a	PEACH	Fruit	8	11	[0, 0, 0]	n/a	catFR1	1	R1496T
1252.914	1.617	1254850	WORD	n/a	wordpools/wordpool_categorized_EN.txt	SPINACH	Vegetables	9	11	[0, 0, 0]	n/a	catFR1	1	R1496T
1254.531	0.767	1256466	WORD_OFF	n/a	n/a	SPINACH	Vegetables	9	11	[0, 0, 0]	n/a	catFR1	1	R1496T
1255.298	1.6	1257231	WORD	n/a	wordpools/wordpool_categorized_EN.txt	LETTUCE	Vegetables	10	11	[0, 0, 0]	n/a	catFR1	1	R1496T
1256.898	0.783	1258832	WORD_OFF	n/a	n/a	LETTUCE	Vegetables	10	11	[0, 0, 0]	n/a	catFR1	1	R1496T
1257.681	1.6	1259626	WORD	n/a	wordpools/wordpool_categorized_EN.txt	REFRIGERATOR	Appliances	11	11	[0, 0, 0]	n/a	catFR1	1	R1496T
1259.281	0.816	1261213	WORD_OFF	n/a	n/a	REFRIGERATOR	Appliances	11	11	[0, 0, 0]	n/a	catFR1	1	R1496T
1260.097	1.618	1262035	WORD	n/a	wordpools/wordpool_categorized_EN.txt	WASHER	Appliances	12	11	[0, 0, 0]	n/a	catFR1	1	R1496T
1261.715	0.0	1263649	START	n/a	n/a	n/a	n/a	-999	11	[-999, -999, -999]	n/a	catFR1	1	R1496T
1261.715	0.0	1263649	PROB	0.0	n/a	n/a	n/a	-999	11	[8, 7, 4]	19	catFR1	1	R1496T
1261.714	0.001	1263650	WORD_OFF	n/a	n/a	WASHER	Appliances	12	11	[0, 0, 0]	n/a	catFR1	1	R1496T
1261.715	0.0	1263650	ENCODING_END	n/a	n/a	n/a	n/a	-999	11	[0, 0, 0]	n/a	catFR1	1	R1496T
1261.715	15.266	1263650	DISTRACT_START	n/a	n/a	n/a	n/a	-999	11	[0, 0, 0]	n/a	catFR1	1	R1496T
1276.981	12.099	1278914	PROB	12.099	n/a	n/a	n/a	-999	11	[8, 4, 3]	15	catFR1	1	R1496T
1289.08	0.0	1291013	STOP	n/a	n/a	n/a	n/a	-999	11	[-999, -999, -999]	n/a	catFR1	1	R1496T
1289.08	2.05	1291016	DISTRACT_END	n/a	n/a	n/a	n/a	-999	11	[0, 0, 0]	n/a	catFR1	1	R1496T
1291.13	1.127	1293064	REC_START	n/a	n/a	n/a	n/a	-999	11	[0, 0, 0]	n/a	catFR1	1	R1496T
1292.257	2.306	1294189	REC_WORD_VV	2.306	n/a	<>	n/a	-999	11	[0, 0, 0]	n/a	catFR1	1	R1496T
1294.563	5.661	1296495	REC_WORD_VV	5.661	n/a	<>	n/a	-999	11	[0, 0, 0]	n/a	catFR1	1	R1496T
1300.224	16.406	1302156	REC_WORD_VV	16.406	n/a	<>	n/a	-999	11	[0, 0, 0]	n/a	catFR1	1	R1496T
1316.63	4.722	1318561	REC_WORD_VV	4.722	n/a	<>	n/a	-999	11	[0, 0, 0]	n/a	catFR1	1	R1496T
1321.352	3.962	1323284	REC_END	n/a	n/a	n/a	n/a	-999	11	[0, 0, 0]	n/a	catFR1	1	R1496T
1325.314	10.349	1327252	COUNTDOWN_START	n/a	n/a	n/a	n/a	-999	12	[0, 0, 0]	n/a	catFR1	1	R1496T
1335.663	0.0	1337597	COUNTDOWN_END	n/a	n/a	n/a	n/a	-999	12	[0, 0, 0]	n/a	catFR1	1	R1496T
1335.663	2.218	1337597	ENCODING_START	n/a	n/a	n/a	n/a	-999	12	[0, 0, 0]	n/a	catFR1	1	R1496T
1337.881	1.6	1339822	WORD	n/a	wordpools/wordpool_categorized_EN.txt	ORGAN	Instruments	1	12	[0, 0, 0]	n/a	catFR1	1	R1496T
1339.481	0.931	1341409	WORD_OFF	n/a	n/a	ORGAN	Instruments	1	12	[0, 0, 0]	n/a	catFR1	1	R1496T
1340.412	1.602	1342344	WORD	n/a	wordpools/wordpool_categorized_EN.txt	TRUMPET	Instruments	2	12	[0, 0, 0]	n/a	catFR1	1	R1496T
1342.014	0.933	1343946	WORD_OFF	n/a	n/a	TRUMPET	Instruments	2	12	[0, 0, 0]	n/a	catFR1	1	R1496T
1342.947	1.6	1344881	WORD	n/a	wordpools/wordpool_categorized_EN.txt	LEVEL	Tools	3	12	[0, 0, 0]	n/a	catFR1	1	R1496T
1344.547	0.9	1346482	WORD_OFF	n/a	n/a	LEVEL	Tools	3	12	[0, 0, 0]	n/a	catFR1	1	R1496T
1345.447	1.6	1347375	WORD	n/a	wordpools/wordpool_categorized_EN.txt	SCREWDRIVER	Tools	4	12	[0, 0, 0]	n/a	catFR1	1	R1496T
1347.047	0.866	1348977	WORD_OFF	n/a	n/a	SCREWDRIVER	Tools	4	12	[0, 0, 0]	n/a	catFR1	1	R1496T
1347.913	1.601	1349841	WORD	n/a	wordpools/wordpool_categorized_EN.txt	MOSQUITO	Insects	5	12	[0, 0, 0]	n/a	catFR1	1	R1496T
1349.514	0.783	1351442	WORD_OFF	n/a	n/a	MOSQUITO	Insects	5	12	[0, 0, 0]	n/a	catFR1	1	R1496T
1350.297	1.617	1352236	WORD	n/a	wordpools/wordpool_categorized_EN.txt	GNAT	Insects	6	12	[0, 0, 0]	n/a	catFR1	1	R1496T
1351.914	0.967	1353852	WORD_OFF	n/a	n/a	GNAT	Insects	6	12	[0, 0, 0]	n/a	catFR1	1	R1496T
1352.881	1.616	1354815	WORD	n/a	wordpools/wordpool_categorized_EN.txt	DRUM	Instruments	7	12	[0, 0, 0]	n/a	catFR1	1	R1496T
1354.497	0.967	1356431	WORD_OFF	n/a	n/a	DRUM	Instruments	7	12	[0, 0, 0]	n/a	catFR1	1	R1496T
1355.464	1.617	1357394	WORD	n/a	wordpools/wordpool_categorized_EN.txt	CELLO	Instruments	8	12	[0, 0, 0]	n/a	catFR1	1	R1496T
1357.081	0.916	1359010	WORD_OFF	n/a	n/a	CELLO	Instruments	8	12	[0, 0, 0]	n/a	catFR1	1	R1496T
1357.997	1.616	1359931	WORD	n/a	wordpools/wordpool_categorized_EN.txt	AXE	Tools	9	12	[0, 0, 0]	n/a	catFR1	1	R1496T
1359.613	0.983	1361547	WORD_OFF	n/a	n/a	AXE	Tools	9	12	[0, 0, 0]	n/a	catFR1	1	R1496T
1360.596	1.601	1362524	WORD	n/a	wordpools/wordpool_categorized_EN.txt	PLIERS	Tools	10	12	[0, 0, 0]	n/a	catFR1	1	R1496T
1362.197	0.816	1364126	WORD_OFF	n/a	n/a	PLIERS	Tools	10	12	[0, 0, 0]	n/a	catFR1	1	R1496T
1363.013	1.601	1364948	WORD	n/a	wordpools/wordpool_categorized_EN.txt	ROACH	Insects	11	12	[0, 0, 0]	n/a	catFR1	1	R1496T
1364.614	0.95	1366549	WORD_OFF	n/a	n/a	ROACH	Insects	11	12	[0, 0, 0]	n/a	catFR1	1	R1496T
1365.564	1.601	1367499	WORD	n/a	wordpools/wordpool_categorized_EN.txt	LADYBUG	Insects	12	12	[0, 0, 0]	n/a	catFR1	1	R1496T
1367.165	0.002	1369094	PROB	0.002	n/a	n/a	n/a	-999	12	[5, 3, 4]	12	catFR1	1	R1496T
1367.167	0.0	1369096	START	n/a	n/a	n/a	n/a	-999	12	[-999, -999, -999]	n/a	catFR1	1	R1496T
1367.164	0.003	1369100	WORD_OFF	n/a	n/a	LADYBUG	Insects	12	12	[0, 0, 0]	n/a	catFR1	1	R1496T
1367.167	0.0	1369100	ENCODING_END	n/a	n/a	n/a	n/a	-999	12	[0, 0, 0]	n/a	catFR1	1	R1496T
1367.167	9.347	1369100	DISTRACT_START	n/a	n/a	n/a	n/a	-999	12	[0, 0, 0]	n/a	catFR1	1	R1496T
1376.514	20.518	1378442	PROB	20.518	n/a	n/a	n/a	-999	12	[3, 6, 8]	19	catFR1	1	R1496T
1397.032	0.0	1398959	DISTRACT_END	n/a	n/a	n/a	n/a	-999	12	[0, 0, 0]	n/a	catFR1	1	R1496T
1397.032	2.232	1398959	STOP	n/a	n/a	n/a	n/a	-999	12	[-999, -999, -999]	n/a	catFR1	1	R1496T
1399.264	3.717	1401192	REC_START	n/a	n/a	n/a	n/a	-999	12	[0, 0, 0]	n/a	catFR1	1	R1496T
1402.981	1.0	1404908	REC_WORD	1.0	n/a	MOSQUITO	Insects	5	12	[0, 0, 0]	n/a	catFR1	1	R1496T
1403.981	1.779	1405908	REC_WORD	1.779	n/a	MOSQUITO	Insects	5	12	[0, 0, 0]	n/a	catFR1	1	R1496T
1405.76	11.187	1407687	REC_WORD	11.187	n/a	GNAT	Insects	6	12	[0, 0, 0]	n/a	catFR1	1	R1496T
1416.947	0.172	1418873	REC_WORD_VV	0.172	n/a	<>	n/a	-999	12	[0, 0, 0]	n/a	catFR1	1	R1496T
1417.119	12.381	1419045	REC_WORD	12.381	n/a	ROACH	Insects	11	12	[0, 0, 0]	n/a	catFR1	1	R1496T
1429.5	0.0	1431426	REC_END	n/a	n/a	n/a	n/a	-999	12	[0, 0, 0]	n/a	catFR1	1	R1496T
