onset	duration	sample	trial_type	response_time	stim_file	item_name	category	serialpos	list	test	answer	experiment	session	subject
0.0	1.578	322411	INSTRUCT_START	n/a	n/a	n/a	n/a	-999	-999	[0, 0, 0]	n/a	catFR1	3	R1668S
1.578	18.32	323984	INSTRUCT_END	n/a	n/a	n/a	n/a	-999	-999	[0, 0, 0]	n/a	catFR1	3	R1668S
19.898	10.354	342312	COUNTDOWN_START	n/a	n/a	n/a	n/a	-999	-999	[0, 0, 0]	n/a	catFR1	3	R1668S
30.252	0.0	352655	COUNTDOWN_END	n/a	n/a	n/a	n/a	-999	-999	[0, 0, 0]	n/a	catFR1	3	R1668S
30.252	1.94	352667	ENCODING_START	n/a	n/a	n/a	n/a	-999	-1	[0, 0, 0]	n/a	catFR1	3	R1668S
32.192	1.603	354603	WORD	n/a	n/a	DENIM	Fabric	1	-1	[0, 0, 0]	n/a	catFR1	3	R1668S
33.795	0.912	356200	WORD_OFF	n/a	n/a	DENIM	Fabric	1	-1	[0, 0, 0]	n/a	catFR1	3	R1668S
34.707	1.606	357119	WORD	n/a	n/a	SUEDE	Fabric	2	-1	[0, 0, 0]	n/a	catFR1	3	R1668S
36.313	0.924	358716	WORD_OFF	n/a	n/a	SUEDE	Fabric	2	-1	[0, 0, 0]	n/a	catFR1	3	R1668S
37.237	1.61	359648	WORD	n/a	n/a	BOAT	Vehicles	3	-1	[0, 0, 0]	n/a	catFR1	3	R1668S
38.847	0.893	361257	WORD_OFF	n/a	n/a	BOAT	Vehicles	3	-1	[0, 0, 0]	n/a	catFR1	3	R1668S
39.74	1.606	362152	WORD	n/a	n/a	VAN	Vehicles	4	-1	[0, 0, 0]	n/a	catFR1	3	R1668S
41.346	0.792	363749	WORD_OFF	n/a	n/a	VAN	Vehicles	4	-1	[0, 0, 0]	n/a	catFR1	3	R1668S
42.138	1.601	364547	WORD	n/a	n/a	CELLO	Instruments	5	-1	[0, 0, 0]	n/a	catFR1	3	R1668S
43.739	0.874	366144	WORD_OFF	n/a	n/a	CELLO	Instruments	5	-1	[0, 0, 0]	n/a	catFR1	3	R1668S
44.613	1.601	367015	WORD	n/a	n/a	TROMBONE	Instruments	6	-1	[0, 0, 0]	n/a	catFR1	3	R1668S
46.214	0.899	368624	WORD_OFF	n/a	n/a	TROMBONE	Instruments	6	-1	[0, 0, 0]	n/a	catFR1	3	R1668S
47.113	1.6	369519	WORD	n/a	n/a	PLANE	Vehicles	7	-1	[0, 0, 0]	n/a	catFR1	3	R1668S
48.713	0.9	371116	WORD_OFF	n/a	n/a	PLANE	Vehicles	7	-1	[0, 0, 0]	n/a	catFR1	3	R1668S
49.613	1.6	372023	WORD	n/a	n/a	MOTORCYCLE	Vehicles	8	-1	[0, 0, 0]	n/a	catFR1	3	R1668S
51.213	0.86	373620	WORD_OFF	n/a	n/a	MOTORCYCLE	Vehicles	8	-1	[0, 0, 0]	n/a	catFR1	3	R1668S
52.073	1.606	374479	WORD	n/a	n/a	WOOL	Fabric	9	-1	[0, 0, 0]	n/a	catFR1	3	R1668S
53.679	0.768	376088	WORD_OFF	n/a	n/a	WOOL	Fabric	9	-1	[0, 0, 0]	n/a	catFR1	3	R1668S
54.447	1.609	376850	WORD	n/a	n/a	SILK	Fabric	10	-1	[0, 0, 0]	n/a	catFR1	3	R1668S
56.056	0.873	378471	WORD_OFF	n/a	n/a	SILK	Fabric	10	-1	[0, 0, 0]	n/a	catFR1	3	R1668S
56.929	1.609	379342	WORD	n/a	n/a	PIANO	Instruments	11	-1	[0, 0, 0]	n/a	catFR1	3	R1668S
58.538	0.967	380939	WORD_OFF	n/a	n/a	PIANO	Instruments	11	-1	[0, 0, 0]	n/a	catFR1	3	R1668S
59.505	1.6	381919	WORD	n/a	n/a	BASS	Instruments	12	-1	[0, 0, 0]	n/a	catFR1	3	R1668S
61.105	0.005	383516	WORD_OFF	n/a	n/a	BASS	Instruments	12	-1	[0, 0, 0]	n/a	catFR1	3	R1668S
61.11	0.0	383516	ENCODING_END	n/a	n/a	n/a	n/a	-999	-1	[0, 0, 0]	n/a	catFR1	3	R1668S
61.11	0.0	383516	DISTRACT_START	n/a	n/a	n/a	n/a	-999	-1	[0, 0, 0]	n/a	catFR1	3	R1668S
61.109	0.001	383521	PROB	0.001	n/a	n/a	n/a	-999	-1	[2, 5, 5]	12	catFR1	3	R1668S
61.11	4.528	383522	START	n/a	n/a	n/a	n/a	-999	-1	[-999, -999, -999]	n/a	catFR1	3	R1668S
65.638	5.2	388050	PROB	5.2	n/a	n/a	n/a	-999	-1	[8, 3, 4]	15	catFR1	3	R1668S
70.838	4.176	393250	PROB	4.176	n/a	n/a	n/a	-999	-1	[6, 2, 1]	9	catFR1	3	R1668S
75.014	6.516	397426	PROB	6.516	n/a	n/a	n/a	-999	-1	[3, 5, 7]	15	catFR1	3	R1668S
81.53	0.0	403937	DISTRACT_END	n/a	n/a	n/a	n/a	-999	-1	[0, 0, 0]	n/a	catFR1	3	R1668S
81.53	2.276	403942	STOP	n/a	n/a	n/a	n/a	-999	-1	[-999, -999, -999]	n/a	catFR1	3	R1668S
83.806	9.936	406211	REC_START	n/a	n/a	n/a	n/a	-999	-1	[0, 0, 0]	n/a	catFR1	3	R1668S
93.742	2.617	416154	REC_WORD_VV	2.617	n/a	<>	n/a	-999	-1	[0, 0, 0]	n/a	catFR1	3	R1668S
96.359	1.23	418771	REC_WORD	1.23	n/a	SUEDE	Fabric	2	-1	[0, 0, 0]	n/a	catFR1	3	R1668S
97.589	3.818	420002	REC_WORD_VV	3.818	n/a	<>	n/a	-999	-1	[0, 0, 0]	n/a	catFR1	3	R1668S
101.407	6.036	423820	REC_WORD_VV	6.036	n/a	<>	n/a	-999	-1	[0, 0, 0]	n/a	catFR1	3	R1668S
107.443	5.703	429856	REC_WORD	5.703	n/a	TRUCK	n/a	-999	-1	[0, 0, 0]	n/a	catFR1	3	R1668S
113.146	0.786	435559	REC_WORD	0.786	n/a	CAR	n/a	-999	-1	[0, 0, 0]	n/a	catFR1	3	R1668S
113.932	21.275	436334	REC_END	n/a	n/a	n/a	n/a	-999	-1	[0, 0, 0]	n/a	catFR1	3	R1668S
135.207	10.341	457614	COUNTDOWN_START	n/a	n/a	n/a	n/a	-999	1	[0, 0, 0]	n/a	catFR1	3	R1668S
145.548	0.001	467957	COUNTDOWN_END	n/a	n/a	n/a	n/a	-999	1	[0, 0, 0]	n/a	catFR1	3	R1668S
145.549	2.108	467957	ENCODING_START	n/a	n/a	n/a	n/a	-999	1	[0, 0, 0]	n/a	catFR1	3	R1668S
147.657	1.607	470074	WORD	n/a	wordpools/wordpool_categorized_EN.txt	PLUM	Fruit	1	1	[0, 0, 0]	n/a	catFR1	3	R1668S
149.264	0.775	471671	WORD_OFF	n/a	n/a	PLUM	Fruit	1	1	[0, 0, 0]	n/a	catFR1	3	R1668S
150.039	1.6	472445	WORD	n/a	wordpools/wordpool_categorized_EN.txt	PEACH	Fruit	2	1	[0, 0, 0]	n/a	catFR1	3	R1668S
151.639	0.95	474054	WORD_OFF	n/a	n/a	PEACH	Fruit	2	1	[0, 0, 0]	n/a	catFR1	3	R1668S
152.589	1.6	474998	WORD	n/a	wordpools/wordpool_categorized_EN.txt	TULIP	Flowers	3	1	[0, 0, 0]	n/a	catFR1	3	R1668S
154.189	0.884	476595	WORD_OFF	n/a	n/a	TULIP	Flowers	3	1	[0, 0, 0]	n/a	catFR1	3	R1668S
155.073	1.607	477478	WORD	n/a	wordpools/wordpool_categorized_EN.txt	ORCHID	Flowers	4	1	[0, 0, 0]	n/a	catFR1	3	R1668S
156.68	0.891	479087	WORD_OFF	n/a	n/a	ORCHID	Flowers	4	1	[0, 0, 0]	n/a	catFR1	3	R1668S
157.571	1.609	479982	WORD	n/a	wordpools/wordpool_categorized_EN.txt	BEAR	Zoo	5	1	[0, 0, 0]	n/a	catFR1	3	R1668S
159.18	1.0	481591	WORD_OFF	n/a	n/a	BEAR	Zoo	5	1	[0, 0, 0]	n/a	catFR1	3	R1668S
160.18	1.6	482583	WORD	n/a	wordpools/wordpool_categorized_EN.txt	ZEBRA	Zoo	6	1	[0, 0, 0]	n/a	catFR1	3	R1668S
161.78	0.876	484192	WORD_OFF	n/a	n/a	ZEBRA	Zoo	6	1	[0, 0, 0]	n/a	catFR1	3	R1668S
162.656	1.609	485063	WORD	n/a	wordpools/wordpool_categorized_EN.txt	VIOLET	Flowers	7	1	[0, 0, 0]	n/a	catFR1	3	R1668S
164.265	0.767	486672	WORD_OFF	n/a	n/a	VIOLET	Flowers	7	1	[0, 0, 0]	n/a	catFR1	3	R1668S
165.032	1.605	487434	WORD	n/a	wordpools/wordpool_categorized_EN.txt	ROSE	Flowers	8	1	[0, 0, 0]	n/a	catFR1	3	R1668S
166.637	0.795	489043	WORD_OFF	n/a	n/a	ROSE	Flowers	8	1	[0, 0, 0]	n/a	catFR1	3	R1668S
167.432	1.608	489841	WORD	n/a	wordpools/wordpool_categorized_EN.txt	BLUEBERRY	Fruit	9	1	[0, 0, 0]	n/a	catFR1	3	R1668S
169.04	0.966	491450	WORD_OFF	n/a	n/a	BLUEBERRY	Fruit	9	1	[0, 0, 0]	n/a	catFR1	3	R1668S
170.006	1.608	492418	WORD	n/a	wordpools/wordpool_categorized_EN.txt	LIME	Fruit	10	1	[0, 0, 0]	n/a	catFR1	3	R1668S
171.614	0.775	494027	WORD_OFF	n/a	n/a	LIME	Fruit	10	1	[0, 0, 0]	n/a	catFR1	3	R1668S
172.389	1.6	494801	WORD	n/a	wordpools/wordpool_categorized_EN.txt	PANDA	Zoo	11	1	[0, 0, 0]	n/a	catFR1	3	R1668S
173.989	0.999	496398	WORD_OFF	n/a	n/a	PANDA	Zoo	11	1	[0, 0, 0]	n/a	catFR1	3	R1668S
174.988	1.601	497390	WORD	n/a	wordpools/wordpool_categorized_EN.txt	CHIMPANZEE	Zoo	12	1	[0, 0, 0]	n/a	catFR1	3	R1668S
176.589	0.004	498999	WORD_OFF	n/a	n/a	CHIMPANZEE	Zoo	12	1	[0, 0, 0]	n/a	catFR1	3	R1668S
176.593	0.0	498999	ENCODING_END	n/a	n/a	n/a	n/a	-999	1	[0, 0, 0]	n/a	catFR1	3	R1668S
176.593	0.0	498999	DISTRACT_START	n/a	n/a	n/a	n/a	-999	1	[0, 0, 0]	n/a	catFR1	3	R1668S
176.589	0.004	499002	PROB	0.004	n/a	n/a	n/a	-999	1	[6, 6, 2]	14	catFR1	3	R1668S
176.593	3.588	499006	START	n/a	n/a	n/a	n/a	-999	1	[-999, -999, -999]	n/a	catFR1	3	R1668S
180.181	5.541	502594	PROB	5.541	n/a	n/a	n/a	-999	1	[7, 5, 3]	15	catFR1	3	R1668S
185.722	3.1	508135	PROB	3.1	n/a	n/a	n/a	-999	1	[3, 1, 1]	5	catFR1	3	R1668S
188.822	6.899	511235	PROB	6.899	n/a	n/a	n/a	-999	1	[6, 6, 6]	18	catFR1	3	R1668S
195.721	4.743	518134	PROB	4.743	n/a	n/a	n/a	-999	1	[6, 5, 1]	12	catFR1	3	R1668S
200.464	0.0	522868	DISTRACT_END	n/a	n/a	n/a	n/a	-999	1	[0, 0, 0]	n/a	catFR1	3	R1668S
200.464	2.025	522877	STOP	n/a	n/a	n/a	n/a	-999	1	[-999, -999, -999]	n/a	catFR1	3	R1668S
202.489	2.054	524900	REC_START	n/a	n/a	n/a	n/a	-999	1	[0, 0, 0]	n/a	catFR1	3	R1668S
204.543	0.944	526956	REC_WORD	0.944	n/a	CHIMPANZEE	Zoo	12	1	[0, 0, 0]	n/a	catFR1	3	R1668S
205.487	1.301	527900	REC_WORD	1.301	n/a	STRAWBERRY	n/a	-999	1	[0, 0, 0]	n/a	catFR1	3	R1668S
206.788	5.026	529201	REC_WORD	5.026	n/a	PLUM	Fruit	1	1	[0, 0, 0]	n/a	catFR1	3	R1668S
211.814	8.026	534227	REC_WORD	8.026	n/a	WATERMELON	n/a	-999	1	[0, 0, 0]	n/a	catFR1	3	R1668S
219.84	10.716	542253	REC_WORD	10.716	n/a	ZEBRA	Zoo	6	1	[0, 0, 0]	n/a	catFR1	3	R1668S
230.556	2.07	552969	REC_WORD_VV	2.07	n/a	<>	n/a	-999	1	[0, 0, 0]	n/a	catFR1	3	R1668S
232.626	3.095	555035	REC_END	n/a	n/a	n/a	n/a	-999	1	[0, 0, 0]	n/a	catFR1	3	R1668S
235.721	10.342	558132	COUNTDOWN_START	n/a	n/a	n/a	n/a	-999	2	[0, 0, 0]	n/a	catFR1	3	R1668S
246.063	0.0	568463	COUNTDOWN_END	n/a	n/a	n/a	n/a	-999	2	[0, 0, 0]	n/a	catFR1	3	R1668S
246.063	1.808	568476	ENCODING_START	n/a	n/a	n/a	n/a	-999	2	[0, 0, 0]	n/a	catFR1	3	R1668S
247.871	1.601	570278	WORD	n/a	wordpools/wordpool_categorized_EN.txt	SATIN	Fabric	1	2	[0, 0, 0]	n/a	catFR1	3	R1668S
249.472	0.874	571875	WORD_OFF	n/a	n/a	SATIN	Fabric	1	2	[0, 0, 0]	n/a	catFR1	3	R1668S
250.346	1.601	572758	WORD	n/a	wordpools/wordpool_categorized_EN.txt	COTTON	Fabric	2	2	[0, 0, 0]	n/a	catFR1	3	R1668S
251.947	0.848	574355	WORD_OFF	n/a	n/a	COTTON	Fabric	2	2	[0, 0, 0]	n/a	catFR1	3	R1668S
252.795	1.602	575202	WORD	n/a	wordpools/wordpool_categorized_EN.txt	LILAC	Flowers	3	2	[0, 0, 0]	n/a	catFR1	3	R1668S
254.397	0.891	576811	WORD_OFF	n/a	n/a	LILAC	Flowers	3	2	[0, 0, 0]	n/a	catFR1	3	R1668S
255.288	1.601	577694	WORD	n/a	wordpools/wordpool_categorized_EN.txt	SUNFLOWER	Flowers	4	2	[0, 0, 0]	n/a	catFR1	3	R1668S
256.889	0.967	579303	WORD_OFF	n/a	n/a	SUNFLOWER	Flowers	4	2	[0, 0, 0]	n/a	catFR1	3	R1668S
257.856	1.606	580259	WORD	n/a	wordpools/wordpool_categorized_EN.txt	GNAT	Insects	5	2	[0, 0, 0]	n/a	catFR1	3	R1668S
259.462	0.892	581868	WORD_OFF	n/a	n/a	GNAT	Insects	5	2	[0, 0, 0]	n/a	catFR1	3	R1668S
260.354	1.601	582763	WORD	n/a	wordpools/wordpool_categorized_EN.txt	MOTH	Insects	6	2	[0, 0, 0]	n/a	catFR1	3	R1668S
261.955	0.808	584360	WORD_OFF	n/a	n/a	MOTH	Insects	6	2	[0, 0, 0]	n/a	catFR1	3	R1668S
262.763	1.609	585170	WORD	n/a	wordpools/wordpool_categorized_EN.txt	LINEN	Fabric	7	2	[0, 0, 0]	n/a	catFR1	3	R1668S
264.372	0.792	586779	WORD_OFF	n/a	n/a	LINEN	Fabric	7	2	[0, 0, 0]	n/a	catFR1	3	R1668S
265.164	1.607	587578	WORD	n/a	wordpools/wordpool_categorized_EN.txt	NYLON	Fabric	8	2	[0, 0, 0]	n/a	catFR1	3	R1668S
266.771	0.875	589187	WORD_OFF	n/a	n/a	NYLON	Fabric	8	2	[0, 0, 0]	n/a	catFR1	3	R1668S
267.646	1.6	590058	WORD	n/a	wordpools/wordpool_categorized_EN.txt	DAISY	Flowers	9	2	[0, 0, 0]	n/a	catFR1	3	R1668S
269.246	0.759	591654	WORD_OFF	n/a	n/a	DAISY	Flowers	9	2	[0, 0, 0]	n/a	catFR1	3	R1668S
270.005	1.6	592417	WORD	n/a	wordpools/wordpool_categorized_EN.txt	DAFFODIL	Flowers	10	2	[0, 0, 0]	n/a	catFR1	3	R1668S
271.605	0.891	594014	WORD_OFF	n/a	n/a	DAFFODIL	Flowers	10	2	[0, 0, 0]	n/a	catFR1	3	R1668S
272.496	1.601	594909	WORD	n/a	wordpools/wordpool_categorized_EN.txt	LADYBUG	Insects	11	2	[0, 0, 0]	n/a	catFR1	3	R1668S
274.097	0.857	596506	WORD_OFF	n/a	n/a	LADYBUG	Insects	11	2	[0, 0, 0]	n/a	catFR1	3	R1668S
274.954	1.609	597365	WORD	n/a	wordpools/wordpool_categorized_EN.txt	BEE	Insects	12	2	[0, 0, 0]	n/a	catFR1	3	R1668S
276.563	0.006	598974	WORD_OFF	n/a	n/a	BEE	Insects	12	2	[0, 0, 0]	n/a	catFR1	3	R1668S
276.569	0.0	598974	ENCODING_END	n/a	n/a	n/a	n/a	-999	2	[0, 0, 0]	n/a	catFR1	3	R1668S
276.569	0.0	598974	DISTRACT_START	n/a	n/a	n/a	n/a	-999	2	[0, 0, 0]	n/a	catFR1	3	R1668S
276.563	0.006	598976	PROB	0.006	n/a	n/a	n/a	-999	2	[6, 5, 5]	16	catFR1	3	R1668S
276.569	6.411	598982	START	n/a	n/a	n/a	n/a	-999	2	[-999, -999, -999]	n/a	catFR1	3	R1668S
282.98	6.116	605393	PROB	6.116	n/a	n/a	n/a	-999	2	[7, 3, 8]	18	catFR1	3	R1668S
289.096	4.7	611509	PROB	4.7	n/a	n/a	n/a	-999	2	[7, 4, 7]	18	catFR1	3	R1668S
293.796	5.959	616209	PROB	5.959	n/a	n/a	n/a	-999	2	[7, 1, 5]	13	catFR1	3	R1668S
299.755	0.0	622164	DISTRACT_END	n/a	n/a	n/a	n/a	-999	2	[0, 0, 0]	n/a	catFR1	3	R1668S
299.755	2.367	622168	STOP	n/a	n/a	n/a	n/a	-999	2	[-999, -999, -999]	n/a	catFR1	3	R1668S
302.122	4.554	624524	REC_START	n/a	n/a	n/a	n/a	-999	2	[0, 0, 0]	n/a	catFR1	3	R1668S
306.676	2.421	629089	REC_WORD	2.421	n/a	VIOLET	Flowers	-999	2	[0, 0, 0]	n/a	catFR1	3	R1668S
309.097	1.522	631510	REC_WORD	1.522	n/a	NYLON	Fabric	8	2	[0, 0, 0]	n/a	catFR1	3	R1668S
310.619	5.523	633032	REC_WORD	5.523	n/a	COTTON	Fabric	2	2	[0, 0, 0]	n/a	catFR1	3	R1668S
316.142	16.12	638555	REC_WORD	16.12	n/a	ORANGE	n/a	-999	2	[0, 0, 0]	n/a	catFR1	3	R1668S
332.262	2.65	654671	REC_END	n/a	n/a	n/a	n/a	-999	2	[0, 0, 0]	n/a	catFR1	3	R1668S
334.912	10.344	657320	COUNTDOWN_START	n/a	n/a	n/a	n/a	-999	3	[0, 0, 0]	n/a	catFR1	3	R1668S
345.256	0.0	667663	COUNTDOWN_END	n/a	n/a	n/a	n/a	-999	3	[0, 0, 0]	n/a	catFR1	3	R1668S
345.256	2.208	667663	ENCODING_START	n/a	n/a	n/a	n/a	-999	3	[0, 0, 0]	n/a	catFR1	3	R1668S
347.464	1.606	669877	WORD	n/a	wordpools/wordpool_categorized_EN.txt	PUDDING	Desserts	1	3	[0, 0, 0]	n/a	catFR1	3	R1668S
349.07	0.891	671474	WORD_OFF	n/a	n/a	PUDDING	Desserts	1	3	[0, 0, 0]	n/a	catFR1	3	R1668S
349.961	1.6	672369	WORD	n/a	wordpools/wordpool_categorized_EN.txt	CAKE	Desserts	2	3	[0, 0, 0]	n/a	catFR1	3	R1668S
351.561	0.793	673966	WORD_OFF	n/a	n/a	CAKE	Desserts	2	3	[0, 0, 0]	n/a	catFR1	3	R1668S
352.354	1.607	674765	WORD	n/a	wordpools/wordpool_categorized_EN.txt	LOBSTER	OceanAnimals	3	3	[0, 0, 0]	n/a	catFR1	3	R1668S
353.961	0.984	676374	WORD_OFF	n/a	n/a	LOBSTER	OceanAnimals	3	3	[0, 0, 0]	n/a	catFR1	3	R1668S
354.945	1.6	677354	WORD	n/a	wordpools/wordpool_categorized_EN.txt	TURTLE	OceanAnimals	4	3	[0, 0, 0]	n/a	catFR1	3	R1668S
356.545	0.901	678950	WORD_OFF	n/a	n/a	TURTLE	OceanAnimals	4	3	[0, 0, 0]	n/a	catFR1	3	R1668S
357.446	1.608	679858	WORD	n/a	wordpools/wordpool_categorized_EN.txt	STOVE	Appliances	5	3	[0, 0, 0]	n/a	catFR1	3	R1668S
359.054	0.842	681467	WORD_OFF	n/a	n/a	STOVE	Appliances	5	3	[0, 0, 0]	n/a	catFR1	3	R1668S
359.896	1.601	682301	WORD	n/a	wordpools/wordpool_categorized_EN.txt	BLENDER	Appliances	6	3	[0, 0, 0]	n/a	catFR1	3	R1668S
361.497	0.956	683910	WORD_OFF	n/a	n/a	BLENDER	Appliances	6	3	[0, 0, 0]	n/a	catFR1	3	R1668S
362.453	1.609	684866	WORD	n/a	wordpools/wordpool_categorized_EN.txt	BROWNIES	Desserts	7	3	[0, 0, 0]	n/a	catFR1	3	R1668S
364.062	0.82	686475	WORD_OFF	n/a	n/a	BROWNIES	Desserts	7	3	[0, 0, 0]	n/a	catFR1	3	R1668S
364.882	1.604	687286	WORD	n/a	wordpools/wordpool_categorized_EN.txt	MOUSSE	Desserts	8	3	[0, 0, 0]	n/a	catFR1	3	R1668S
366.486	0.911	688895	WORD_OFF	n/a	n/a	MOUSSE	Desserts	8	3	[0, 0, 0]	n/a	catFR1	3	R1668S
367.397	1.606	689802	WORD	n/a	wordpools/wordpool_categorized_EN.txt	VACUUM	Appliances	9	3	[0, 0, 0]	n/a	catFR1	3	R1668S
369.003	0.785	691411	WORD_OFF	n/a	n/a	VACUUM	Appliances	9	3	[0, 0, 0]	n/a	catFR1	3	R1668S
369.788	1.607	692197	WORD	n/a	wordpools/wordpool_categorized_EN.txt	MIXER	Appliances	10	3	[0, 0, 0]	n/a	catFR1	3	R1668S
371.395	0.801	693806	WORD_OFF	n/a	n/a	MIXER	Appliances	10	3	[0, 0, 0]	n/a	catFR1	3	R1668S
372.196	1.607	694605	WORD	n/a	wordpools/wordpool_categorized_EN.txt	OYSTER	OceanAnimals	11	3	[0, 0, 0]	n/a	catFR1	3	R1668S
373.803	0.867	696214	WORD_OFF	n/a	n/a	OYSTER	OceanAnimals	11	3	[0, 0, 0]	n/a	catFR1	3	R1668S
374.67	1.602	697073	WORD	n/a	wordpools/wordpool_categorized_EN.txt	SQUID	OceanAnimals	12	3	[0, 0, 0]	n/a	catFR1	3	R1668S
376.272	0.003	698682	WORD_OFF	n/a	n/a	SQUID	OceanAnimals	12	3	[0, 0, 0]	n/a	catFR1	3	R1668S
376.275	0.0	698682	ENCODING_END	n/a	n/a	n/a	n/a	-999	3	[0, 0, 0]	n/a	catFR1	3	R1668S
376.275	0.0	698682	DISTRACT_START	n/a	n/a	n/a	n/a	-999	3	[0, 0, 0]	n/a	catFR1	3	R1668S
376.271	0.004	698684	PROB	0.004	n/a	n/a	n/a	-999	3	[6, 6, 4]	16	catFR1	3	R1668S
376.275	6.596	698688	START	n/a	n/a	n/a	n/a	-999	3	[-999, -999, -999]	n/a	catFR1	3	R1668S
382.871	6.133	705284	PROB	6.133	n/a	n/a	n/a	-999	3	[6, 3, 5]	14	catFR1	3	R1668S
389.004	4.225	711417	PROB	4.225	n/a	n/a	n/a	-999	3	[7, 3, 7]	17	catFR1	3	R1668S
393.229	6.882	715642	PROB	6.882	n/a	n/a	n/a	-999	3	[7, 6, 4]	17	catFR1	3	R1668S
400.111	0.0	722514	DISTRACT_END	n/a	n/a	n/a	n/a	-999	3	[0, 0, 0]	n/a	catFR1	3	R1668S
400.111	2.11	722524	STOP	n/a	n/a	n/a	n/a	-999	3	[-999, -999, -999]	n/a	catFR1	3	R1668S
402.221	2.937	724631	REC_START	n/a	n/a	n/a	n/a	-999	3	[0, 0, 0]	n/a	catFR1	3	R1668S
405.158	1.132	727571	REC_WORD	1.132	n/a	OYSTER	OceanAnimals	11	3	[0, 0, 0]	n/a	catFR1	3	R1668S
406.29	4.493	728703	REC_WORD	4.493	n/a	CHICKEN	n/a	-999	3	[0, 0, 0]	n/a	catFR1	3	R1668S
410.783	2.709	733196	REC_WORD	2.709	n/a	LOBSTER	OceanAnimals	3	3	[0, 0, 0]	n/a	catFR1	3	R1668S
413.492	8.175	735905	REC_WORD	8.175	n/a	FISH	n/a	-999	3	[0, 0, 0]	n/a	catFR1	3	R1668S
421.667	7.499	744080	REC_WORD	7.499	n/a	COTTON	Fabric	-999	3	[0, 0, 0]	n/a	catFR1	3	R1668S
429.166	1.0	751579	REC_WORD_VV	1.0	n/a	<>	n/a	-999	3	[0, 0, 0]	n/a	catFR1	3	R1668S
430.166	2.195	752579	REC_WORD_VV	2.195	n/a	<>	n/a	-999	3	[0, 0, 0]	n/a	catFR1	3	R1668S
432.361	0.167	754766	REC_END	n/a	n/a	n/a	n/a	-999	3	[0, 0, 0]	n/a	catFR1	3	R1668S
432.528	10.345	754935	COUNTDOWN_START	n/a	n/a	n/a	n/a	-999	4	[0, 0, 0]	n/a	catFR1	3	R1668S
442.873	0.0	765279	COUNTDOWN_END	n/a	n/a	n/a	n/a	-999	4	[0, 0, 0]	n/a	catFR1	3	R1668S
442.873	2.071	765279	ENCODING_START	n/a	n/a	n/a	n/a	-999	4	[0, 0, 0]	n/a	catFR1	3	R1668S
444.944	1.602	767347	WORD	n/a	wordpools/wordpool_categorized_EN.txt	BULL	FarmAnimals	1	4	[0, 0, 0]	n/a	catFR1	3	R1668S
446.546	0.851	768956	WORD_OFF	n/a	n/a	BULL	FarmAnimals	1	4	[0, 0, 0]	n/a	catFR1	3	R1668S
447.397	1.6	769803	WORD	n/a	wordpools/wordpool_categorized_EN.txt	LAMB	FarmAnimals	2	4	[0, 0, 0]	n/a	catFR1	3	R1668S
448.997	0.875	771412	WORD_OFF	n/a	n/a	LAMB	FarmAnimals	2	4	[0, 0, 0]	n/a	catFR1	3	R1668S
449.872	1.606	772283	WORD	n/a	wordpools/wordpool_categorized_EN.txt	MAPLE	Trees	3	4	[0, 0, 0]	n/a	catFR1	3	R1668S
451.478	0.909	773892	WORD_OFF	n/a	n/a	MAPLE	Trees	3	4	[0, 0, 0]	n/a	catFR1	3	R1668S
452.387	1.6	774799	WORD	n/a	wordpools/wordpool_categorized_EN.txt	OAK	Trees	4	4	[0, 0, 0]	n/a	catFR1	3	R1668S
453.987	0.859	776396	WORD_OFF	n/a	n/a	OAK	Trees	4	4	[0, 0, 0]	n/a	catFR1	3	R1668S
454.846	1.607	777255	WORD	n/a	wordpools/wordpool_categorized_EN.txt	RULER	OfficeSupplies	5	4	[0, 0, 0]	n/a	catFR1	3	R1668S
456.453	0.76	778864	WORD_OFF	n/a	n/a	RULER	OfficeSupplies	5	4	[0, 0, 0]	n/a	catFR1	3	R1668S
457.213	1.6	779626	WORD	n/a	wordpools/wordpool_categorized_EN.txt	STAPLER	OfficeSupplies	6	4	[0, 0, 0]	n/a	catFR1	3	R1668S
458.813	0.79	781223	WORD_OFF	n/a	n/a	STAPLER	OfficeSupplies	6	4	[0, 0, 0]	n/a	catFR1	3	R1668S
459.603	1.6	782009	WORD	n/a	wordpools/wordpool_categorized_EN.txt	CHICKEN	FarmAnimals	7	4	[0, 0, 0]	n/a	catFR1	3	R1668S
461.203	0.933	783618	WORD_OFF	n/a	n/a	CHICKEN	FarmAnimals	7	4	[0, 0, 0]	n/a	catFR1	3	R1668S
462.136	1.6	784538	WORD	n/a	wordpools/wordpool_categorized_EN.txt	ROOSTER	FarmAnimals	8	4	[0, 0, 0]	n/a	catFR1	3	R1668S
463.736	0.8	786147	WORD_OFF	n/a	n/a	ROOSTER	FarmAnimals	8	4	[0, 0, 0]	n/a	catFR1	3	R1668S
464.536	1.602	786945	WORD	n/a	wordpools/wordpool_categorized_EN.txt	ERASER	OfficeSupplies	9	4	[0, 0, 0]	n/a	catFR1	3	R1668S
466.138	0.858	788542	WORD_OFF	n/a	n/a	ERASER	OfficeSupplies	9	4	[0, 0, 0]	n/a	catFR1	3	R1668S
466.996	1.6	789401	WORD	n/a	wordpools/wordpool_categorized_EN.txt	PEN	OfficeSupplies	10	4	[0, 0, 0]	n/a	catFR1	3	R1668S
468.596	0.843	791010	WORD_OFF	n/a	n/a	PEN	OfficeSupplies	10	4	[0, 0, 0]	n/a	catFR1	3	R1668S
469.439	1.606	791845	WORD	n/a	wordpools/wordpool_categorized_EN.txt	HICKORY	Trees	11	4	[0, 0, 0]	n/a	catFR1	3	R1668S
471.045	0.836	793454	WORD_OFF	n/a	n/a	HICKORY	Trees	11	4	[0, 0, 0]	n/a	catFR1	3	R1668S
471.881	1.598	794288	WORD	n/a	wordpools/wordpool_categorized_EN.txt	BIRCH	Trees	12	4	[0, 0, 0]	n/a	catFR1	3	R1668S
473.479	0.004	795885	WORD_OFF	n/a	n/a	BIRCH	Trees	12	4	[0, 0, 0]	n/a	catFR1	3	R1668S
473.483	0.0	795885	ENCODING_END	n/a	n/a	n/a	n/a	-999	4	[0, 0, 0]	n/a	catFR1	3	R1668S
473.479	0.004	795892	PROB	0.004	n/a	n/a	n/a	-999	4	[8, 7, 1]	16	catFR1	3	R1668S
473.483	0.0	795896	START	n/a	n/a	n/a	n/a	-999	4	[-999, -999, -999]	n/a	catFR1	3	R1668S
473.483	8.488	795897	DISTRACT_START	n/a	n/a	n/a	n/a	-999	4	[0, 0, 0]	n/a	catFR1	3	R1668S
481.971	5.442	804384	PROB	5.442	n/a	n/a	n/a	-999	4	[1, 7, 6]	14	catFR1	3	R1668S
487.413	3.841	809826	PROB	3.841	n/a	n/a	n/a	-999	4	[2, 6, 2]	10	catFR1	3	R1668S
491.254	7.432	813667	PROB	7.432	n/a	n/a	n/a	-999	4	[5, 3, 7]	15	catFR1	3	R1668S
498.686	0.0	821097	DISTRACT_END	n/a	n/a	n/a	n/a	-999	4	[0, 0, 0]	n/a	catFR1	3	R1668S
498.686	2.292	821099	STOP	n/a	n/a	n/a	n/a	-999	4	[-999, -999, -999]	n/a	catFR1	3	R1668S
500.978	2.389	823383	REC_START	n/a	n/a	n/a	n/a	-999	4	[0, 0, 0]	n/a	catFR1	3	R1668S
503.367	1.397	825780	REC_WORD	1.397	n/a	CHICKEN	FarmAnimals	7	4	[0, 0, 0]	n/a	catFR1	3	R1668S
504.764	5.445	827177	REC_WORD	5.445	n/a	ROOSTER	FarmAnimals	8	4	[0, 0, 0]	n/a	catFR1	3	R1668S
510.209	2.46	832623	REC_WORD	2.46	n/a	OYSTER	OceanAnimals	-999	4	[0, 0, 0]	n/a	catFR1	3	R1668S
512.669	18.451	835083	REC_WORD	18.451	n/a	ERASER	OfficeSupplies	9	4	[0, 0, 0]	n/a	catFR1	3	R1668S
531.12	2.31	853530	REC_END	n/a	n/a	n/a	n/a	-999	4	[0, 0, 0]	n/a	catFR1	3	R1668S
533.43	10.34	855841	COUNTDOWN_START	n/a	n/a	n/a	n/a	-999	5	[0, 0, 0]	n/a	catFR1	3	R1668S
543.77	0.0	866184	COUNTDOWN_END	n/a	n/a	n/a	n/a	-999	5	[0, 0, 0]	n/a	catFR1	3	R1668S
543.77	2.34	866184	ENCODING_START	n/a	n/a	n/a	n/a	-999	5	[0, 0, 0]	n/a	catFR1	3	R1668S
546.11	1.6	868519	WORD	n/a	wordpools/wordpool_categorized_EN.txt	ELM	Trees	1	5	[0, 0, 0]	n/a	catFR1	3	R1668S
547.71	0.96	870116	WORD_OFF	n/a	n/a	ELM	Trees	1	5	[0, 0, 0]	n/a	catFR1	3	R1668S
548.67	1.601	871084	WORD	n/a	wordpools/wordpool_categorized_EN.txt	WALNUT	Trees	2	5	[0, 0, 0]	n/a	catFR1	3	R1668S
550.271	0.931	872681	WORD_OFF	n/a	n/a	WALNUT	Trees	2	5	[0, 0, 0]	n/a	catFR1	3	R1668S
551.202	1.603	873612	WORD	n/a	wordpools/wordpool_categorized_EN.txt	TRUCK	Vehicles	3	5	[0, 0, 0]	n/a	catFR1	3	R1668S
552.805	0.864	875209	WORD_OFF	n/a	n/a	TRUCK	Vehicles	3	5	[0, 0, 0]	n/a	catFR1	3	R1668S
553.669	1.602	876080	WORD	n/a	wordpools/wordpool_categorized_EN.txt	TRAIN	Vehicles	4	5	[0, 0, 0]	n/a	catFR1	3	R1668S
555.271	0.781	877677	WORD_OFF	n/a	n/a	TRAIN	Vehicles	4	5	[0, 0, 0]	n/a	catFR1	3	R1668S
556.052	1.601	878463	WORD	n/a	wordpools/wordpool_categorized_EN.txt	IRON	Appliances	5	5	[0, 0, 0]	n/a	catFR1	3	R1668S
557.653	0.758	880060	WORD_OFF	n/a	n/a	IRON	Appliances	5	5	[0, 0, 0]	n/a	catFR1	3	R1668S
558.411	1.609	880822	WORD	n/a	wordpools/wordpool_categorized_EN.txt	REFRIGERATOR	Appliances	6	5	[0, 0, 0]	n/a	catFR1	3	R1668S
560.02	0.874	882431	WORD_OFF	n/a	n/a	REFRIGERATOR	Appliances	6	5	[0, 0, 0]	n/a	catFR1	3	R1668S
560.894	1.601	883302	WORD	n/a	wordpools/wordpool_categorized_EN.txt	BUS	Vehicles	7	5	[0, 0, 0]	n/a	catFR1	3	R1668S
562.495	0.758	884899	WORD_OFF	n/a	n/a	BUS	Vehicles	7	5	[0, 0, 0]	n/a	catFR1	3	R1668S
563.253	1.608	885661	WORD	n/a	wordpools/wordpool_categorized_EN.txt	JEEP	Vehicles	8	5	[0, 0, 0]	n/a	catFR1	3	R1668S
564.861	0.786	887270	WORD_OFF	n/a	n/a	JEEP	Vehicles	8	5	[0, 0, 0]	n/a	catFR1	3	R1668S
565.647	1.607	888057	WORD	n/a	wordpools/wordpool_categorized_EN.txt	FREEZER	Appliances	9	5	[0, 0, 0]	n/a	catFR1	3	R1668S
567.254	0.915	889666	WORD_OFF	n/a	n/a	FREEZER	Appliances	9	5	[0, 0, 0]	n/a	catFR1	3	R1668S
568.169	1.608	890573	WORD	n/a	wordpools/wordpool_categorized_EN.txt	OVEN	Appliances	10	5	[0, 0, 0]	n/a	catFR1	3	R1668S
569.777	0.802	892182	WORD_OFF	n/a	n/a	OVEN	Appliances	10	5	[0, 0, 0]	n/a	catFR1	3	R1668S
570.579	1.608	892992	WORD	n/a	wordpools/wordpool_categorized_EN.txt	CEDAR	Trees	11	5	[0, 0, 0]	n/a	catFR1	3	R1668S
572.187	0.768	894601	WORD_OFF	n/a	n/a	CEDAR	Trees	11	5	[0, 0, 0]	n/a	catFR1	3	R1668S
572.955	1.599	895364	WORD	n/a	wordpools/wordpool_categorized_EN.txt	WILLOW	Trees	12	5	[0, 0, 0]	n/a	catFR1	3	R1668S
574.554	0.004	896960	WORD_OFF	n/a	n/a	WILLOW	Trees	12	5	[0, 0, 0]	n/a	catFR1	3	R1668S
574.558	0.0	896960	ENCODING_END	n/a	n/a	n/a	n/a	-999	5	[0, 0, 0]	n/a	catFR1	3	R1668S
574.553	0.005	896967	PROB	0.005	n/a	n/a	n/a	-999	5	[7, 6, 1]	14	catFR1	3	R1668S
574.558	0.0	896972	DISTRACT_START	n/a	n/a	n/a	n/a	-999	5	[0, 0, 0]	n/a	catFR1	3	R1668S
574.558	5.463	896972	START	n/a	n/a	n/a	n/a	-999	5	[-999, -999, -999]	n/a	catFR1	3	R1668S
580.021	2.59	902435	PROB	2.59	n/a	n/a	n/a	-999	5	[1, 4, 1]	6	catFR1	3	R1668S
582.611	5.568	905025	PROB	5.568	n/a	n/a	n/a	-999	5	[5, 6, 2]	13	catFR1	3	R1668S
588.179	3.092	910593	PROB	3.092	n/a	n/a	n/a	-999	5	[5, 1, 5]	11	catFR1	3	R1668S
591.271	6.108	913685	PROB	6.108	n/a	n/a	n/a	-999	5	[6, 2, 7]	15	catFR1	3	R1668S
597.379	0.0	919788	DISTRACT_END	n/a	n/a	n/a	n/a	-999	5	[0, 0, 0]	n/a	catFR1	3	R1668S
597.379	2.406	919793	STOP	n/a	n/a	n/a	n/a	-999	5	[-999, -999, -999]	n/a	catFR1	3	R1668S
599.785	3.851	922196	REC_START	n/a	n/a	n/a	n/a	-999	5	[0, 0, 0]	n/a	catFR1	3	R1668S
603.636	1.02	926050	REC_WORD	1.02	n/a	NYLON	Fabric	-999	5	[0, 0, 0]	n/a	catFR1	3	R1668S
604.656	3.224	927070	REC_WORD	3.224	n/a	CHICKEN	FarmAnimals	-999	5	[0, 0, 0]	n/a	catFR1	3	R1668S
607.88	8.356	930294	REC_WORD	8.356	n/a	TISSUE	n/a	-999	5	[0, 0, 0]	n/a	catFR1	3	R1668S
616.236	2.752	938650	REC_WORD	2.752	n/a	LOBSTER	OceanAnimals	-999	5	[0, 0, 0]	n/a	catFR1	3	R1668S
618.988	5.151	941402	REC_WORD	5.151	n/a	CEDAR	Trees	11	5	[0, 0, 0]	n/a	catFR1	3	R1668S
624.139	5.106	946553	REC_WORD_VV	5.106	n/a	<>	n/a	-999	5	[0, 0, 0]	n/a	catFR1	3	R1668S
629.245	0.674	951659	REC_WORD_VV	0.674	n/a	<>	n/a	-999	5	[0, 0, 0]	n/a	catFR1	3	R1668S
629.919	1.441	952331	REC_END	n/a	n/a	n/a	n/a	-999	5	[0, 0, 0]	n/a	catFR1	3	R1668S
631.36	10.344	953770	COUNTDOWN_START	n/a	n/a	n/a	n/a	-999	6	[0, 0, 0]	n/a	catFR1	3	R1668S
641.704	0.0	964114	COUNTDOWN_END	n/a	n/a	n/a	n/a	-999	6	[0, 0, 0]	n/a	catFR1	3	R1668S
641.704	2.109	964114	ENCODING_START	n/a	n/a	n/a	n/a	-999	6	[0, 0, 0]	n/a	catFR1	3	R1668S
643.813	1.607	966219	WORD	n/a	wordpools/wordpool_categorized_EN.txt	MARKER	OfficeSupplies	1	6	[0, 0, 0]	n/a	catFR1	3	R1668S
645.42	0.801	967828	WORD_OFF	n/a	n/a	MARKER	OfficeSupplies	1	6	[0, 0, 0]	n/a	catFR1	3	R1668S
646.221	1.6	968638	WORD	n/a	wordpools/wordpool_categorized_EN.txt	PENCIL	OfficeSupplies	2	6	[0, 0, 0]	n/a	catFR1	3	R1668S
647.821	0.799	970235	WORD_OFF	n/a	n/a	PENCIL	OfficeSupplies	2	6	[0, 0, 0]	n/a	catFR1	3	R1668S
648.62	1.608	971034	WORD	n/a	wordpools/wordpool_categorized_EN.txt	HORSE	FarmAnimals	3	6	[0, 0, 0]	n/a	catFR1	3	R1668S
650.228	0.799	972643	WORD_OFF	n/a	n/a	HORSE	FarmAnimals	3	6	[0, 0, 0]	n/a	catFR1	3	R1668S
651.027	1.601	973441	WORD	n/a	wordpools/wordpool_categorized_EN.txt	COW	FarmAnimals	4	6	[0, 0, 0]	n/a	catFR1	3	R1668S
652.628	0.859	975038	WORD_OFF	n/a	n/a	COW	FarmAnimals	4	6	[0, 0, 0]	n/a	catFR1	3	R1668S
653.487	1.601	975897	WORD	n/a	wordpools/wordpool_categorized_EN.txt	DOLPHIN	OceanAnimals	5	6	[0, 0, 0]	n/a	catFR1	3	R1668S
655.088	0.94	977494	WORD_OFF	n/a	n/a	DOLPHIN	OceanAnimals	5	6	[0, 0, 0]	n/a	catFR1	3	R1668S
656.028	1.608	978437	WORD	n/a	wordpools/wordpool_categorized_EN.txt	JELLYFISH	OceanAnimals	6	6	[0, 0, 0]	n/a	catFR1	3	R1668S
657.636	0.96	980046	WORD_OFF	n/a	n/a	JELLYFISH	OceanAnimals	6	6	[0, 0, 0]	n/a	catFR1	3	R1668S
658.596	1.609	981002	WORD	n/a	wordpools/wordpool_categorized_EN.txt	GLUE	OfficeSupplies	7	6	[0, 0, 0]	n/a	catFR1	3	R1668S
660.205	0.782	982611	WORD_OFF	n/a	n/a	GLUE	OfficeSupplies	7	6	[0, 0, 0]	n/a	catFR1	3	R1668S
660.987	1.607	983397	WORD	n/a	wordpools/wordpool_categorized_EN.txt	NOTEBOOK	OfficeSupplies	8	6	[0, 0, 0]	n/a	catFR1	3	R1668S
662.594	0.847	985006	WORD_OFF	n/a	n/a	NOTEBOOK	OfficeSupplies	8	6	[0, 0, 0]	n/a	catFR1	3	R1668S
663.441	1.603	985853	WORD	n/a	wordpools/wordpool_categorized_EN.txt	GOAT	FarmAnimals	9	6	[0, 0, 0]	n/a	catFR1	3	R1668S
665.044	0.828	987450	WORD_OFF	n/a	n/a	GOAT	FarmAnimals	9	6	[0, 0, 0]	n/a	catFR1	3	R1668S
665.872	1.606	988285	WORD	n/a	wordpools/wordpool_categorized_EN.txt	SHEEP	FarmAnimals	10	6	[0, 0, 0]	n/a	catFR1	3	R1668S
667.478	0.792	989882	WORD_OFF	n/a	n/a	SHEEP	FarmAnimals	10	6	[0, 0, 0]	n/a	catFR1	3	R1668S
668.27	1.608	990680	WORD	n/a	wordpools/wordpool_categorized_EN.txt	PLANKTON	OceanAnimals	11	6	[0, 0, 0]	n/a	catFR1	3	R1668S
669.878	0.953	992289	WORD_OFF	n/a	n/a	PLANKTON	OceanAnimals	11	6	[0, 0, 0]	n/a	catFR1	3	R1668S
670.831	1.606	993245	WORD	n/a	wordpools/wordpool_categorized_EN.txt	OCTOPUS	OceanAnimals	12	6	[0, 0, 0]	n/a	catFR1	3	R1668S
672.437	0.0	994842	WORD_OFF	n/a	n/a	OCTOPUS	OceanAnimals	12	6	[0, 0, 0]	n/a	catFR1	3	R1668S
672.436	0.007	994850	PROB	0.007	n/a	n/a	n/a	-999	6	[7, 4, 5]	16	catFR1	3	R1668S
672.443	0.0	994854	ENCODING_END	n/a	n/a	n/a	n/a	-999	6	[0, 0, 0]	n/a	catFR1	3	R1668S
672.443	0.0	994854	DISTRACT_START	n/a	n/a	n/a	n/a	-999	6	[0, 0, 0]	n/a	catFR1	3	R1668S
672.443	6.653	994857	START	n/a	n/a	n/a	n/a	-999	6	[-999, -999, -999]	n/a	catFR1	3	R1668S
679.096	6.398	1001510	PROB	6.398	n/a	n/a	n/a	-999	6	[8, 6, 5]	19	catFR1	3	R1668S
685.494	5.675	1007908	PROB	5.675	n/a	n/a	n/a	-999	6	[8, 5, 2]	15	catFR1	3	R1668S
691.169	4.933	1013583	PROB	4.933	n/a	n/a	n/a	-999	6	[6, 3, 3]	12	catFR1	3	R1668S
696.102	0.0	1018504	DISTRACT_END	n/a	n/a	n/a	n/a	-999	6	[0, 0, 0]	n/a	catFR1	3	R1668S
696.102	2.401	1018516	STOP	n/a	n/a	n/a	n/a	-999	6	[-999, -999, -999]	n/a	catFR1	3	R1668S
698.503	2.355	1020912	REC_START	n/a	n/a	n/a	n/a	-999	6	[0, 0, 0]	n/a	catFR1	3	R1668S
700.858	0.896	1023272	REC_WORD	0.896	n/a	PEN	OfficeSupplies	-999	6	[0, 0, 0]	n/a	catFR1	3	R1668S
701.754	1.277	1024168	REC_WORD	1.277	n/a	PENCIL	OfficeSupplies	2	6	[0, 0, 0]	n/a	catFR1	3	R1668S
703.031	3.906	1025445	REC_WORD	3.906	n/a	ERASER	OfficeSupplies	-999	6	[0, 0, 0]	n/a	catFR1	3	R1668S
706.937	1.909	1029351	REC_WORD	1.909	n/a	LAMB	FarmAnimals	-999	6	[0, 0, 0]	n/a	catFR1	3	R1668S
708.846	19.79	1031260	REC_WORD	19.79	n/a	FISH	n/a	-999	6	[0, 0, 0]	n/a	catFR1	3	R1668S
728.636	1.684	1051047	REC_END	n/a	n/a	n/a	n/a	-999	6	[0, 0, 0]	n/a	catFR1	3	R1668S
730.32	10.34	1052728	COUNTDOWN_START	n/a	n/a	n/a	n/a	-999	7	[0, 0, 0]	n/a	catFR1	3	R1668S
740.66	0.001	1063072	COUNTDOWN_END	n/a	n/a	n/a	n/a	-999	7	[0, 0, 0]	n/a	catFR1	3	R1668S
740.661	2.215	1063072	ENCODING_START	n/a	n/a	n/a	n/a	-999	7	[0, 0, 0]	n/a	catFR1	3	R1668S
742.876	1.601	1065286	WORD	n/a	wordpools/wordpool_categorized_EN.txt	FLOOR	Building	1	7	[0, 0, 0]	n/a	catFR1	3	R1668S
744.477	0.9	1066883	WORD_OFF	n/a	n/a	FLOOR	Building	1	7	[0, 0, 0]	n/a	catFR1	3	R1668S
745.377	1.601	1067790	WORD	n/a	wordpools/wordpool_categorized_EN.txt	FOUNDATION	Building	2	7	[0, 0, 0]	n/a	catFR1	3	R1668S
746.978	0.792	1069387	WORD_OFF	n/a	n/a	FOUNDATION	Building	2	7	[0, 0, 0]	n/a	catFR1	3	R1668S
747.77	1.6	1070173	WORD	n/a	wordpools/wordpool_categorized_EN.txt	RADIO	Electronics	3	7	[0, 0, 0]	n/a	catFR1	3	R1668S
749.37	0.781	1071782	WORD_OFF	n/a	n/a	RADIO	Electronics	3	7	[0, 0, 0]	n/a	catFR1	3	R1668S
750.151	1.601	1072556	WORD	n/a	wordpools/wordpool_categorized_EN.txt	SCANNER	Electronics	4	7	[0, 0, 0]	n/a	catFR1	3	R1668S
751.752	0.991	1074165	WORD_OFF	n/a	n/a	SCANNER	Electronics	4	7	[0, 0, 0]	n/a	catFR1	3	R1668S
752.743	1.601	1075157	WORD	n/a	wordpools/wordpool_categorized_EN.txt	GUITAR	Instruments	5	7	[0, 0, 0]	n/a	catFR1	3	R1668S
754.344	0.976	1076754	WORD_OFF	n/a	n/a	GUITAR	Instruments	5	7	[0, 0, 0]	n/a	catFR1	3	R1668S
755.32	1.601	1077734	WORD	n/a	wordpools/wordpool_categorized_EN.txt	TUBA	Instruments	6	7	[0, 0, 0]	n/a	catFR1	3	R1668S
756.921	0.951	1079331	WORD_OFF	n/a	n/a	TUBA	Instruments	6	7	[0, 0, 0]	n/a	catFR1	3	R1668S
757.872	1.598	1080275	WORD	n/a	wordpools/wordpool_categorized_EN.txt	SPEAKER	Electronics	7	7	[0, 0, 0]	n/a	catFR1	3	R1668S
759.47	0.992	1081884	WORD_OFF	n/a	n/a	SPEAKER	Electronics	7	7	[0, 0, 0]	n/a	catFR1	3	R1668S
760.462	1.608	1082876	WORD	n/a	wordpools/wordpool_categorized_EN.txt	MICROWAVE	Electronics	8	7	[0, 0, 0]	n/a	catFR1	3	R1668S
762.07	0.832	1084484	WORD_OFF	n/a	n/a	MICROWAVE	Electronics	8	7	[0, 0, 0]	n/a	catFR1	3	R1668S
762.902	1.6	1085307	WORD	n/a	wordpools/wordpool_categorized_EN.txt	VIOLIN	Instruments	9	7	[0, 0, 0]	n/a	catFR1	3	R1668S
764.502	0.985	1086916	WORD_OFF	n/a	n/a	VIOLIN	Instruments	9	7	[0, 0, 0]	n/a	catFR1	3	R1668S
765.487	1.599	1087896	WORD	n/a	wordpools/wordpool_categorized_EN.txt	TRUMPET	Instruments	10	7	[0, 0, 0]	n/a	catFR1	3	R1668S
767.086	0.833	1089493	WORD_OFF	n/a	n/a	TRUMPET	Instruments	10	7	[0, 0, 0]	n/a	catFR1	3	R1668S
767.919	1.61	1090328	WORD	n/a	wordpools/wordpool_categorized_EN.txt	ROOM	Building	11	7	[0, 0, 0]	n/a	catFR1	3	R1668S
769.529	0.915	1091949	WORD_OFF	n/a	n/a	ROOM	Building	11	7	[0, 0, 0]	n/a	catFR1	3	R1668S
770.444	1.601	1092856	WORD	n/a	wordpools/wordpool_categorized_EN.txt	WINDOW	Building	12	7	[0, 0, 0]	n/a	catFR1	3	R1668S
772.045	0.004	1094453	WORD_OFF	n/a	n/a	WINDOW	Building	12	7	[0, 0, 0]	n/a	catFR1	3	R1668S
772.049	0.0	1094453	ENCODING_END	n/a	n/a	n/a	n/a	-999	7	[0, 0, 0]	n/a	catFR1	3	R1668S
772.045	0.004	1094459	PROB	0.004	n/a	n/a	n/a	-999	7	[6, 8, 3]	17	catFR1	3	R1668S
772.049	0.0	1094463	START	n/a	n/a	n/a	n/a	-999	7	[-999, -999, -999]	n/a	catFR1	3	R1668S
772.049	6.178	1094465	DISTRACT_START	n/a	n/a	n/a	n/a	-999	7	[0, 0, 0]	n/a	catFR1	3	R1668S
778.227	3.809	1100641	PROB	3.809	n/a	n/a	n/a	-999	7	[1, 5, 4]	10	catFR1	3	R1668S
782.036	9.274	1104450	PROB	9.274	n/a	n/a	n/a	-999	7	[8, 2, 5]	15	catFR1	3	R1668S
791.31	2.708	1113724	PROB	2.708	n/a	n/a	n/a	-999	7	[4, 1, 4]	9	catFR1	3	R1668S
794.018	0.0	1116422	DISTRACT_END	n/a	n/a	n/a	n/a	-999	7	[0, 0, 0]	n/a	catFR1	3	R1668S
794.018	2.143	1116432	STOP	n/a	n/a	n/a	n/a	-999	7	[-999, -999, -999]	n/a	catFR1	3	R1668S
796.161	2.878	1118575	REC_START	n/a	n/a	n/a	n/a	-999	7	[0, 0, 0]	n/a	catFR1	3	R1668S
799.039	1.325	1121453	REC_WORD	1.325	n/a	NYLON	Fabric	-999	7	[0, 0, 0]	n/a	catFR1	3	R1668S
800.364	0.84	1122778	REC_WORD	0.84	n/a	CHICKEN	FarmAnimals	-999	7	[0, 0, 0]	n/a	catFR1	3	R1668S
801.204	6.376	1123618	REC_WORD	6.376	n/a	PEN	OfficeSupplies	-999	7	[0, 0, 0]	n/a	catFR1	3	R1668S
807.58	2.24	1129994	REC_WORD	2.24	n/a	NOTEBOOK	OfficeSupplies	-999	7	[0, 0, 0]	n/a	catFR1	3	R1668S
809.82	2.275	1132234	REC_WORD	2.275	n/a	FOUNDATION	Building	2	7	[0, 0, 0]	n/a	catFR1	3	R1668S
812.095	12.552	1134509	REC_WORD	12.552	n/a	FLOOR	Building	1	7	[0, 0, 0]	n/a	catFR1	3	R1668S
824.647	1.654	1147061	REC_WORD_VV	1.654	n/a	<>	n/a	-999	7	[0, 0, 0]	n/a	catFR1	3	R1668S
826.301	6.318	1148710	REC_END	n/a	n/a	n/a	n/a	-999	7	[0, 0, 0]	n/a	catFR1	3	R1668S
832.619	10.342	1155025	COUNTDOWN_START	n/a	n/a	n/a	n/a	-999	8	[0, 0, 0]	n/a	catFR1	3	R1668S
842.961	0.0	1165369	COUNTDOWN_END	n/a	n/a	n/a	n/a	-999	8	[0, 0, 0]	n/a	catFR1	3	R1668S
842.961	2.126	1165369	ENCODING_START	n/a	n/a	n/a	n/a	-999	8	[0, 0, 0]	n/a	catFR1	3	R1668S
845.087	1.607	1167498	WORD	n/a	wordpools/wordpool_categorized_EN.txt	RIVER	Landscapes	1	8	[0, 0, 0]	n/a	catFR1	3	R1668S
846.694	0.867	1169107	WORD_OFF	n/a	n/a	RIVER	Landscapes	1	8	[0, 0, 0]	n/a	catFR1	3	R1668S
847.561	1.601	1169966	WORD	n/a	wordpools/wordpool_categorized_EN.txt	MOUNTAIN	Landscapes	2	8	[0, 0, 0]	n/a	catFR1	3	R1668S
849.162	0.866	1171575	WORD_OFF	n/a	n/a	MOUNTAIN	Landscapes	2	8	[0, 0, 0]	n/a	catFR1	3	R1668S
850.028	1.608	1172434	WORD	n/a	wordpools/wordpool_categorized_EN.txt	CALCULATOR	Electronics	3	8	[0, 0, 0]	n/a	catFR1	3	R1668S
851.636	0.783	1174043	WORD_OFF	n/a	n/a	CALCULATOR	Electronics	3	8	[0, 0, 0]	n/a	catFR1	3	R1668S
852.419	1.601	1174829	WORD	n/a	wordpools/wordpool_categorized_EN.txt	PRINTER	Electronics	4	8	[0, 0, 0]	n/a	catFR1	3	R1668S
854.02	0.765	1176426	WORD_OFF	n/a	n/a	PRINTER	Electronics	4	8	[0, 0, 0]	n/a	catFR1	3	R1668S
854.785	1.61	1177188	WORD	n/a	wordpools/wordpool_categorized_EN.txt	DRYER	Appliances	5	8	[0, 0, 0]	n/a	catFR1	3	R1668S
856.395	0.958	1178809	WORD_OFF	n/a	n/a	DRYER	Appliances	5	8	[0, 0, 0]	n/a	catFR1	3	R1668S
857.353	1.6	1179765	WORD	n/a	wordpools/wordpool_categorized_EN.txt	WASHER	Appliances	6	8	[0, 0, 0]	n/a	catFR1	3	R1668S
858.953	0.799	1181362	WORD_OFF	n/a	n/a	WASHER	Appliances	6	8	[0, 0, 0]	n/a	catFR1	3	R1668S
859.752	1.601	1182160	WORD	n/a	wordpools/wordpool_categorized_EN.txt	STEREO	Electronics	7	8	[0, 0, 0]	n/a	catFR1	3	R1668S
861.353	0.991	1183757	WORD_OFF	n/a	n/a	STEREO	Electronics	7	8	[0, 0, 0]	n/a	catFR1	3	R1668S
862.344	1.601	1184749	WORD	n/a	wordpools/wordpool_categorized_EN.txt	TABLET	Electronics	8	8	[0, 0, 0]	n/a	catFR1	3	R1668S
863.945	0.765	1186358	WORD_OFF	n/a	n/a	TABLET	Electronics	8	8	[0, 0, 0]	n/a	catFR1	3	R1668S
864.71	1.617	1187120	WORD	n/a	wordpools/wordpool_categorized_EN.txt	TOASTER	Appliances	9	8	[0, 0, 0]	n/a	catFR1	3	R1668S
866.327	0.992	1188741	WORD_OFF	n/a	n/a	TOASTER	Appliances	9	8	[0, 0, 0]	n/a	catFR1	3	R1668S
867.319	1.6	1189733	WORD	n/a	wordpools/wordpool_categorized_EN.txt	DISHWASHER	Appliances	10	8	[0, 0, 0]	n/a	catFR1	3	R1668S
868.919	0.859	1191330	WORD_OFF	n/a	n/a	DISHWASHER	Appliances	10	8	[0, 0, 0]	n/a	catFR1	3	R1668S
869.778	1.6	1192189	WORD	n/a	wordpools/wordpool_categorized_EN.txt	LAKE	Landscapes	11	8	[0, 0, 0]	n/a	catFR1	3	R1668S
871.378	0.831	1193786	WORD_OFF	n/a	n/a	LAKE	Landscapes	11	8	[0, 0, 0]	n/a	catFR1	3	R1668S
872.209	1.603	1194621	WORD	n/a	wordpools/wordpool_categorized_EN.txt	WOODS	Landscapes	12	8	[0, 0, 0]	n/a	catFR1	3	R1668S
873.812	0.002	1196218	WORD_OFF	n/a	n/a	WOODS	Landscapes	12	8	[0, 0, 0]	n/a	catFR1	3	R1668S
873.814	0.0	1196218	ENCODING_END	n/a	n/a	n/a	n/a	-999	8	[0, 0, 0]	n/a	catFR1	3	R1668S
873.812	0.002	1196226	PROB	0.002	n/a	n/a	n/a	-999	8	[2, 7, 2]	11	catFR1	3	R1668S
873.814	0.0	1196228	START	n/a	n/a	n/a	n/a	-999	8	[-999, -999, -999]	n/a	catFR1	3	R1668S
873.814	4.772	1196230	DISTRACT_START	n/a	n/a	n/a	n/a	-999	8	[0, 0, 0]	n/a	catFR1	3	R1668S
878.586	7.335	1201000	PROB	7.335	n/a	n/a	n/a	-999	8	[5, 8, 7]	19	catFR1	3	R1668S
885.921	4.239	1208335	PROB	4.239	n/a	n/a	n/a	-999	8	[4, 1, 5]	10	catFR1	3	R1668S
890.16	6.233	1212574	PROB	6.233	n/a	n/a	n/a	-999	8	[6, 7, 6]	19	catFR1	3	R1668S
896.393	0.0	1218804	DISTRACT_END	n/a	n/a	n/a	n/a	-999	8	[0, 0, 0]	n/a	catFR1	3	R1668S
896.393	2.177	1218807	STOP	n/a	n/a	n/a	n/a	-999	8	[-999, -999, -999]	n/a	catFR1	3	R1668S
898.57	3.15	1220981	REC_START	n/a	n/a	n/a	n/a	-999	8	[0, 0, 0]	n/a	catFR1	3	R1668S
901.72	4.002	1224134	REC_WORD	4.002	n/a	MOUNTAIN	Landscapes	2	8	[0, 0, 0]	n/a	catFR1	3	R1668S
905.722	3.722	1228136	REC_WORD	3.722	n/a	PRINTER	Electronics	4	8	[0, 0, 0]	n/a	catFR1	3	R1668S
909.444	0.941	1231858	REC_WORD	0.941	n/a	WASHER	Appliances	6	8	[0, 0, 0]	n/a	catFR1	3	R1668S
910.385	2.932	1232799	REC_WORD	2.932	n/a	DRYER	Appliances	5	8	[0, 0, 0]	n/a	catFR1	3	R1668S
913.317	5.795	1235731	REC_WORD	5.795	n/a	ERASER	OfficeSupplies	-999	8	[0, 0, 0]	n/a	catFR1	3	R1668S
919.112	5.587	1241526	REC_WORD	5.587	n/a	RIVER	Landscapes	1	8	[0, 0, 0]	n/a	catFR1	3	R1668S
924.699	4.012	1247114	REC_WORD_VV	4.012	n/a	<>	n/a	-999	8	[0, 0, 0]	n/a	catFR1	3	R1668S
928.711	1.866	1251116	REC_END	n/a	n/a	n/a	n/a	-999	8	[0, 0, 0]	n/a	catFR1	3	R1668S
930.577	10.35	1252991	COUNTDOWN_START	n/a	n/a	n/a	n/a	-999	9	[0, 0, 0]	n/a	catFR1	3	R1668S
940.927	0.0	1263335	COUNTDOWN_END	n/a	n/a	n/a	n/a	-999	9	[0, 0, 0]	n/a	catFR1	3	R1668S
940.927	2.292	1263335	ENCODING_START	n/a	n/a	n/a	n/a	-999	9	[0, 0, 0]	n/a	catFR1	3	R1668S
943.219	1.6	1265633	WORD	n/a	wordpools/wordpool_categorized_EN.txt	UNDERWEAR	Clothing	1	9	[0, 0, 0]	n/a	catFR1	3	R1668S
944.819	0.85	1267230	WORD_OFF	n/a	n/a	UNDERWEAR	Clothing	1	9	[0, 0, 0]	n/a	catFR1	3	R1668S
945.669	1.6	1268077	WORD	n/a	wordpools/wordpool_categorized_EN.txt	COAT	Clothing	2	9	[0, 0, 0]	n/a	catFR1	3	R1668S
947.269	0.866	1269674	WORD_OFF	n/a	n/a	COAT	Clothing	2	9	[0, 0, 0]	n/a	catFR1	3	R1668S
948.135	1.609	1270545	WORD	n/a	wordpools/wordpool_categorized_EN.txt	PAPER	OfficeSupplies	3	9	[0, 0, 0]	n/a	catFR1	3	R1668S
949.744	0.833	1272154	WORD_OFF	n/a	n/a	PAPER	OfficeSupplies	3	9	[0, 0, 0]	n/a	catFR1	3	R1668S
950.577	1.609	1272989	WORD	n/a	wordpools/wordpool_categorized_EN.txt	FOLDER	OfficeSupplies	4	9	[0, 0, 0]	n/a	catFR1	3	R1668S
952.186	0.966	1274598	WORD_OFF	n/a	n/a	FOLDER	OfficeSupplies	4	9	[0, 0, 0]	n/a	catFR1	3	R1668S
953.152	1.601	1275565	WORD	n/a	wordpools/wordpool_categorized_EN.txt	NIGHTSTAND	Furniture	5	9	[0, 0, 0]	n/a	catFR1	3	R1668S
954.753	1.002	1277162	WORD_OFF	n/a	n/a	NIGHTSTAND	Furniture	5	9	[0, 0, 0]	n/a	catFR1	3	R1668S
955.755	1.597	1278166	WORD	n/a	wordpools/wordpool_categorized_EN.txt	SOFA	Furniture	6	9	[0, 0, 0]	n/a	catFR1	3	R1668S
957.352	0.934	1279763	WORD_OFF	n/a	n/a	SOFA	Furniture	6	9	[0, 0, 0]	n/a	catFR1	3	R1668S
958.286	1.6	1280695	WORD	n/a	wordpools/wordpool_categorized_EN.txt	BINDER	OfficeSupplies	7	9	[0, 0, 0]	n/a	catFR1	3	R1668S
959.886	0.9	1282292	WORD_OFF	n/a	n/a	BINDER	OfficeSupplies	7	9	[0, 0, 0]	n/a	catFR1	3	R1668S
960.786	1.608	1283199	WORD	n/a	wordpools/wordpool_categorized_EN.txt	TAPE	OfficeSupplies	8	9	[0, 0, 0]	n/a	catFR1	3	R1668S
962.394	0.759	1284808	WORD_OFF	n/a	n/a	TAPE	OfficeSupplies	8	9	[0, 0, 0]	n/a	catFR1	3	R1668S
963.153	1.607	1285558	WORD	n/a	wordpools/wordpool_categorized_EN.txt	DRESSER	Furniture	9	9	[0, 0, 0]	n/a	catFR1	3	R1668S
964.76	0.991	1287167	WORD_OFF	n/a	n/a	DRESSER	Furniture	9	9	[0, 0, 0]	n/a	catFR1	3	R1668S
965.751	1.601	1288159	WORD	n/a	wordpools/wordpool_categorized_EN.txt	RECLINER	Furniture	10	9	[0, 0, 0]	n/a	catFR1	3	R1668S
967.352	0.96	1289768	WORD_OFF	n/a	n/a	RECLINER	Furniture	10	9	[0, 0, 0]	n/a	catFR1	3	R1668S
968.312	1.606	1290724	WORD	n/a	wordpools/wordpool_categorized_EN.txt	BLOUSE	Clothing	11	9	[0, 0, 0]	n/a	catFR1	3	R1668S
969.918	0.851	1292333	WORD_OFF	n/a	n/a	BLOUSE	Clothing	11	9	[0, 0, 0]	n/a	catFR1	3	R1668S
970.769	1.599	1293179	WORD	n/a	wordpools/wordpool_categorized_EN.txt	SHOES	Clothing	12	9	[0, 0, 0]	n/a	catFR1	3	R1668S
972.368	0.003	1294776	WORD_OFF	n/a	n/a	SHOES	Clothing	12	9	[0, 0, 0]	n/a	catFR1	3	R1668S
972.371	0.0	1294776	ENCODING_END	n/a	n/a	n/a	n/a	-999	9	[0, 0, 0]	n/a	catFR1	3	R1668S
972.371	0.0	1294776	DISTRACT_START	n/a	n/a	n/a	n/a	-999	9	[0, 0, 0]	n/a	catFR1	3	R1668S
972.369	0.002	1294784	PROB	0.002	n/a	n/a	n/a	-999	9	[8, 2, 2]	12	catFR1	3	R1668S
972.371	4.774	1294786	START	n/a	n/a	n/a	n/a	-999	9	[-999, -999, -999]	n/a	catFR1	3	R1668S
977.145	6.325	1299560	PROB	6.325	n/a	n/a	n/a	-999	9	[5, 6, 5]	16	catFR1	3	R1668S
983.47	5.79	1305885	PROB	5.79	n/a	n/a	n/a	-999	9	[6, 4, 8]	18	catFR1	3	R1668S
989.26	3.634	1311675	PROB	3.634	n/a	n/a	n/a	-999	9	[7, 7, 7]	21	catFR1	3	R1668S
992.894	0.0	1315306	DISTRACT_END	n/a	n/a	n/a	n/a	-999	9	[0, 0, 0]	n/a	catFR1	3	R1668S
992.894	2.108	1315309	STOP	n/a	n/a	n/a	n/a	-999	9	[-999, -999, -999]	n/a	catFR1	3	R1668S
995.002	5.054	1317411	REC_START	n/a	n/a	n/a	n/a	-999	9	[0, 0, 0]	n/a	catFR1	3	R1668S
1000.056	3.08	1322471	REC_WORD	3.08	n/a	BLENDER	Appliances	-999	9	[0, 0, 0]	n/a	catFR1	3	R1668S
1003.136	20.288	1325551	REC_WORD	20.288	n/a	ERASER	OfficeSupplies	-999	9	[0, 0, 0]	n/a	catFR1	3	R1668S
1023.424	1.708	1345839	REC_WORD	1.708	n/a	CALCULATOR	Electronics	-999	9	[0, 0, 0]	n/a	catFR1	3	R1668S
1025.132	11.386	1347546	REC_END	n/a	n/a	n/a	n/a	-999	9	[0, 0, 0]	n/a	catFR1	3	R1668S
1036.518	10.342	1358930	COUNTDOWN_START	n/a	n/a	n/a	n/a	-999	10	[0, 0, 0]	n/a	catFR1	3	R1668S
1046.86	0.0	1369273	COUNTDOWN_END	n/a	n/a	n/a	n/a	-999	10	[0, 0, 0]	n/a	catFR1	3	R1668S
1046.86	2.109	1369273	ENCODING_START	n/a	n/a	n/a	n/a	-999	10	[0, 0, 0]	n/a	catFR1	3	R1668S
1048.969	1.6	1371378	WORD	n/a	wordpools/wordpool_categorized_EN.txt	SNOW	Weather	1	10	[0, 0, 0]	n/a	catFR1	3	R1668S
1050.569	1.0	1372975	WORD_OFF	n/a	n/a	SNOW	Weather	1	10	[0, 0, 0]	n/a	catFR1	3	R1668S
1051.569	1.599	1373979	WORD	n/a	wordpools/wordpool_categorized_EN.txt	CLOUD	Weather	2	10	[0, 0, 0]	n/a	catFR1	3	R1668S
1053.168	0.792	1375576	WORD_OFF	n/a	n/a	CLOUD	Weather	2	10	[0, 0, 0]	n/a	catFR1	3	R1668S
1053.96	1.608	1376374	WORD	n/a	wordpools/wordpool_categorized_EN.txt	CARROT	Vegetables	3	10	[0, 0, 0]	n/a	catFR1	3	R1668S
1055.568	0.884	1377983	WORD_OFF	n/a	n/a	CARROT	Vegetables	3	10	[0, 0, 0]	n/a	catFR1	3	R1668S
1056.452	1.6	1378866	WORD	n/a	wordpools/wordpool_categorized_EN.txt	CAULIFLOWER	Vegetables	4	10	[0, 0, 0]	n/a	catFR1	3	R1668S
1058.052	0.908	1380463	WORD_OFF	n/a	n/a	CAULIFLOWER	Vegetables	4	10	[0, 0, 0]	n/a	catFR1	3	R1668S
1058.96	1.6	1381370	WORD	n/a	wordpools/wordpool_categorized_EN.txt	SLINKY	Toys	5	10	[0, 0, 0]	n/a	catFR1	3	R1668S
1060.56	0.851	1382967	WORD_OFF	n/a	n/a	SLINKY	Toys	5	10	[0, 0, 0]	n/a	catFR1	3	R1668S
1061.411	1.6	1383826	WORD	n/a	wordpools/wordpool_categorized_EN.txt	DOLLHOUSE	Toys	6	10	[0, 0, 0]	n/a	catFR1	3	R1668S
1063.011	0.991	1385423	WORD_OFF	n/a	n/a	DOLLHOUSE	Toys	6	10	[0, 0, 0]	n/a	catFR1	3	R1668S
1064.002	1.607	1386415	WORD	n/a	wordpools/wordpool_categorized_EN.txt	THUNDERSTORM	Weather	7	10	[0, 0, 0]	n/a	catFR1	3	R1668S
1065.609	0.909	1388024	WORD_OFF	n/a	n/a	THUNDERSTORM	Weather	7	10	[0, 0, 0]	n/a	catFR1	3	R1668S
1066.518	1.609	1388931	WORD	n/a	wordpools/wordpool_categorized_EN.txt	WIND	Weather	8	10	[0, 0, 0]	n/a	catFR1	3	R1668S
1068.127	0.925	1390540	WORD_OFF	n/a	n/a	WIND	Weather	8	10	[0, 0, 0]	n/a	catFR1	3	R1668S
1069.052	1.6	1391460	WORD	n/a	wordpools/wordpool_categorized_EN.txt	CELERY	Vegetables	9	10	[0, 0, 0]	n/a	catFR1	3	R1668S
1070.652	0.984	1393057	WORD_OFF	n/a	n/a	CELERY	Vegetables	9	10	[0, 0, 0]	n/a	catFR1	3	R1668S
1071.636	1.607	1394049	WORD	n/a	wordpools/wordpool_categorized_EN.txt	SPINACH	Vegetables	10	10	[0, 0, 0]	n/a	catFR1	3	R1668S
1073.243	0.866	1395658	WORD_OFF	n/a	n/a	SPINACH	Vegetables	10	10	[0, 0, 0]	n/a	catFR1	3	R1668S
1074.109	1.6	1396517	WORD	n/a	wordpools/wordpool_categorized_EN.txt	MARBLES	Toys	11	10	[0, 0, 0]	n/a	catFR1	3	R1668S
1075.709	0.91	1398114	WORD_OFF	n/a	n/a	MARBLES	Toys	11	10	[0, 0, 0]	n/a	catFR1	3	R1668S
1076.619	1.602	1399033	WORD	n/a	wordpools/wordpool_categorized_EN.txt	BARBIE	Toys	12	10	[0, 0, 0]	n/a	catFR1	3	R1668S
1078.221	0.003	1400630	WORD_OFF	n/a	n/a	BARBIE	Toys	12	10	[0, 0, 0]	n/a	catFR1	3	R1668S
1078.224	0.0	1400630	ENCODING_END	n/a	n/a	n/a	n/a	-999	10	[0, 0, 0]	n/a	catFR1	3	R1668S
1078.224	0.0	1400630	DISTRACT_START	n/a	n/a	n/a	n/a	-999	10	[0, 0, 0]	n/a	catFR1	3	R1668S
1078.219	0.005	1400634	PROB	0.005	n/a	n/a	n/a	-999	10	[2, 7, 6]	15	catFR1	3	R1668S
1078.224	6.253	1400639	START	n/a	n/a	n/a	n/a	-999	10	[-999, -999, -999]	n/a	catFR1	3	R1668S
1084.477	2.766	1406892	PROB	2.766	n/a	n/a	n/a	-999	10	[3, 3, 2]	8	catFR1	3	R1668S
1087.243	5.816	1409658	PROB	5.816	n/a	n/a	n/a	-999	10	[8, 4, 6]	18	catFR1	3	R1668S
1093.059	5.791	1415474	PROB	5.791	n/a	n/a	n/a	-999	10	[4, 5, 4]	14	catFR1	3	R1668S
1098.85	0.0	1421256	DISTRACT_END	n/a	n/a	n/a	n/a	-999	10	[0, 0, 0]	n/a	catFR1	3	R1668S
1098.85	2.346	1421265	STOP	n/a	n/a	n/a	n/a	-999	10	[-999, -999, -999]	n/a	catFR1	3	R1668S
1101.196	30.007	1423603	REC_START	n/a	n/a	n/a	n/a	-999	10	[0, 0, 0]	n/a	catFR1	3	R1668S
1131.203	0.128	1453618	REC_WORD_VV	0.128	n/a	<>	n/a	-999	10	[0, 0, 0]	n/a	catFR1	3	R1668S
1131.331	1.137	1453738	REC_END	n/a	n/a	n/a	n/a	-999	10	[0, 0, 0]	n/a	catFR1	3	R1668S
1132.468	10.35	1454875	COUNTDOWN_START	n/a	n/a	n/a	n/a	-999	11	[0, 0, 0]	n/a	catFR1	3	R1668S
1142.818	0.0	1465231	COUNTDOWN_END	n/a	n/a	n/a	n/a	-999	11	[0, 0, 0]	n/a	catFR1	3	R1668S
1142.818	1.918	1465231	ENCODING_START	n/a	n/a	n/a	n/a	-999	11	[0, 0, 0]	n/a	catFR1	3	R1668S
1144.736	1.599	1467142	WORD	n/a	wordpools/wordpool_categorized_EN.txt	CABINET	Furniture	1	11	[0, 0, 0]	n/a	catFR1	3	R1668S
1146.335	0.916	1468751	WORD_OFF	n/a	n/a	CABINET	Furniture	1	11	[0, 0, 0]	n/a	catFR1	3	R1668S
1147.251	1.609	1469658	WORD	n/a	wordpools/wordpool_categorized_EN.txt	BOOKCASE	Furniture	2	11	[0, 0, 0]	n/a	catFR1	3	R1668S
1148.86	0.993	1471267	WORD_OFF	n/a	n/a	BOOKCASE	Furniture	2	11	[0, 0, 0]	n/a	catFR1	3	R1668S
1149.853	1.606	1472259	WORD	n/a	wordpools/wordpool_categorized_EN.txt	SPARROW	Birds	3	11	[0, 0, 0]	n/a	catFR1	3	R1668S
1151.459	0.976	1473868	WORD_OFF	n/a	n/a	SPARROW	Birds	3	11	[0, 0, 0]	n/a	catFR1	3	R1668S
1152.435	1.6	1474848	WORD	n/a	wordpools/wordpool_categorized_EN.txt	BLUEBIRD	Birds	4	11	[0, 0, 0]	n/a	catFR1	3	R1668S
1154.035	0.984	1476445	WORD_OFF	n/a	n/a	BLUEBIRD	Birds	4	11	[0, 0, 0]	n/a	catFR1	3	R1668S
1155.019	1.608	1477425	WORD	n/a	wordpools/wordpool_categorized_EN.txt	DRIZZLE	Weather	5	11	[0, 0, 0]	n/a	catFR1	3	R1668S
1156.627	0.976	1479034	WORD_OFF	n/a	n/a	DRIZZLE	Weather	5	11	[0, 0, 0]	n/a	catFR1	3	R1668S
1157.603	1.607	1480014	WORD	n/a	wordpools/wordpool_categorized_EN.txt	TORNADO	Weather	6	11	[0, 0, 0]	n/a	catFR1	3	R1668S
1159.21	0.84	1481623	WORD_OFF	n/a	n/a	TORNADO	Weather	6	11	[0, 0, 0]	n/a	catFR1	3	R1668S
1160.05	1.603	1482458	WORD	n/a	wordpools/wordpool_categorized_EN.txt	TABLE	Furniture	7	11	[0, 0, 0]	n/a	catFR1	3	R1668S
1161.653	0.916	1484067	WORD_OFF	n/a	n/a	TABLE	Furniture	7	11	[0, 0, 0]	n/a	catFR1	3	R1668S
1162.569	1.6	1484986	WORD	n/a	wordpools/wordpool_categorized_EN.txt	COUCH	Furniture	8	11	[0, 0, 0]	n/a	catFR1	3	R1668S
1164.169	0.999	1486583	WORD_OFF	n/a	n/a	COUCH	Furniture	8	11	[0, 0, 0]	n/a	catFR1	3	R1668S
1165.168	1.609	1487575	WORD	n/a	wordpools/wordpool_categorized_EN.txt	FOG	Weather	9	11	[0, 0, 0]	n/a	catFR1	3	R1668S
1166.777	0.773	1489184	WORD_OFF	n/a	n/a	FOG	Weather	9	11	[0, 0, 0]	n/a	catFR1	3	R1668S
1167.55	1.602	1489958	WORD	n/a	wordpools/wordpool_categorized_EN.txt	THUNDER	Weather	10	11	[0, 0, 0]	n/a	catFR1	3	R1668S
1169.152	0.759	1491567	WORD_OFF	n/a	n/a	THUNDER	Weather	10	11	[0, 0, 0]	n/a	catFR1	3	R1668S
1169.911	1.607	1492317	WORD	n/a	wordpools/wordpool_categorized_EN.txt	HAWK	Birds	11	11	[0, 0, 0]	n/a	catFR1	3	R1668S
1171.518	0.957	1493926	WORD_OFF	n/a	n/a	HAWK	Birds	11	11	[0, 0, 0]	n/a	catFR1	3	R1668S
1172.475	1.601	1494882	WORD	n/a	wordpools/wordpool_categorized_EN.txt	ROBIN	Birds	12	11	[0, 0, 0]	n/a	catFR1	3	R1668S
1174.076	0.005	1496491	WORD_OFF	n/a	n/a	ROBIN	Birds	12	11	[0, 0, 0]	n/a	catFR1	3	R1668S
1174.081	0.0	1496491	ENCODING_END	n/a	n/a	n/a	n/a	-999	11	[0, 0, 0]	n/a	catFR1	3	R1668S
1174.081	0.0	1496491	DISTRACT_START	n/a	n/a	n/a	n/a	-999	11	[0, 0, 0]	n/a	catFR1	3	R1668S
1174.078	0.003	1496493	PROB	0.003	n/a	n/a	n/a	-999	11	[5, 5, 2]	12	catFR1	3	R1668S
1174.081	4.087	1496496	START	n/a	n/a	n/a	n/a	-999	11	[-999, -999, -999]	n/a	catFR1	3	R1668S
1178.168	5.824	1500583	PROB	5.824	n/a	n/a	n/a	-999	11	[8, 3, 5]	16	catFR1	3	R1668S
1183.992	4.118	1506407	PROB	4.118	n/a	n/a	n/a	-999	11	[3, 1, 6]	10	catFR1	3	R1668S
1188.11	5.616	1510525	PROB	5.616	n/a	n/a	n/a	-999	11	[1, 5, 8]	14	catFR1	3	R1668S
1193.726	9.57	1516141	PROB	9.57	n/a	n/a	n/a	-999	11	[5, 6, 4]	15	catFR1	3	R1668S
1203.296	0.0	1525706	DISTRACT_END	n/a	n/a	n/a	n/a	-999	11	[0, 0, 0]	n/a	catFR1	3	R1668S
1203.296	2.281	1525711	STOP	n/a	n/a	n/a	n/a	-999	11	[-999, -999, -999]	n/a	catFR1	3	R1668S
1205.577	7.933	1527993	REC_START	n/a	n/a	n/a	n/a	-999	11	[0, 0, 0]	n/a	catFR1	3	R1668S
1213.51	2.868	1535925	REC_WORD	2.868	n/a	TABLE	Furniture	7	11	[0, 0, 0]	n/a	catFR1	3	R1668S
1216.378	1.28	1538793	REC_WORD	1.28	n/a	THUNDER	Weather	10	11	[0, 0, 0]	n/a	catFR1	3	R1668S
1217.658	7.284	1540073	REC_WORD	7.284	n/a	THUNDERSTORM	Weather	-999	11	[0, 0, 0]	n/a	catFR1	3	R1668S
1224.942	5.839	1547357	REC_WORD	5.839	n/a	SOFA	Furniture	-999	11	[0, 0, 0]	n/a	catFR1	3	R1668S
1230.781	4.932	1553196	REC_WORD_VV	4.932	n/a	<>	n/a	-999	11	[0, 0, 0]	n/a	catFR1	3	R1668S
1235.713	3.345	1558128	REC_END	n/a	n/a	n/a	n/a	-999	11	[0, 0, 0]	n/a	catFR1	3	R1668S
1239.058	10.35	1561467	COUNTDOWN_START	n/a	n/a	n/a	n/a	-999	12	[0, 0, 0]	n/a	catFR1	3	R1668S
1249.408	0.001	1571822	COUNTDOWN_END	n/a	n/a	n/a	n/a	-999	12	[0, 0, 0]	n/a	catFR1	3	R1668S
1249.409	2.124	1571822	ENCODING_START	n/a	n/a	n/a	n/a	-999	12	[0, 0, 0]	n/a	catFR1	3	R1668S
1251.533	1.601	1573939	WORD	n/a	wordpools/wordpool_categorized_EN.txt	HURRICANE	Weather	1	12	[0, 0, 0]	n/a	catFR1	3	R1668S
1253.134	0.826	1575548	WORD_OFF	n/a	n/a	HURRICANE	Weather	1	12	[0, 0, 0]	n/a	catFR1	3	R1668S
1253.96	1.607	1576371	WORD	n/a	wordpools/wordpool_categorized_EN.txt	LIGHTNING	Weather	2	12	[0, 0, 0]	n/a	catFR1	3	R1668S
1255.567	0.927	1577980	WORD_OFF	n/a	n/a	LIGHTNING	Weather	2	12	[0, 0, 0]	n/a	catFR1	3	R1668S
1256.494	1.609	1578911	WORD	n/a	wordpools/wordpool_categorized_EN.txt	DRESS	Clothing	3	12	[0, 0, 0]	n/a	catFR1	3	R1668S
1258.103	0.823	1580508	WORD_OFF	n/a	n/a	DRESS	Clothing	3	12	[0, 0, 0]	n/a	catFR1	3	R1668S
1258.926	1.599	1581343	WORD	n/a	wordpools/wordpool_categorized_EN.txt	SKIRT	Clothing	4	12	[0, 0, 0]	n/a	catFR1	3	R1668S
1260.525	0.9	1582940	WORD_OFF	n/a	n/a	SKIRT	Clothing	4	12	[0, 0, 0]	n/a	catFR1	3	R1668S
1261.425	1.601	1583835	WORD	n/a	wordpools/wordpool_categorized_EN.txt	CHAIR	Furniture	5	12	[0, 0, 0]	n/a	catFR1	3	R1668S
1263.026	0.934	1585432	WORD_OFF	n/a	n/a	CHAIR	Furniture	5	12	[0, 0, 0]	n/a	catFR1	3	R1668S
1263.96	1.609	1586376	WORD	n/a	wordpools/wordpool_categorized_EN.txt	SHELF	Furniture	6	12	[0, 0, 0]	n/a	catFR1	3	R1668S
1265.569	0.916	1587985	WORD_OFF	n/a	n/a	SHELF	Furniture	6	12	[0, 0, 0]	n/a	catFR1	3	R1668S
1266.485	1.609	1588892	WORD	n/a	wordpools/wordpool_categorized_EN.txt	PANTS	Clothing	7	12	[0, 0, 0]	n/a	catFR1	3	R1668S
1268.094	0.816	1590501	WORD_OFF	n/a	n/a	PANTS	Clothing	7	12	[0, 0, 0]	n/a	catFR1	3	R1668S
1268.91	1.6	1591324	WORD	n/a	wordpools/wordpool_categorized_EN.txt	JEANS	Clothing	8	12	[0, 0, 0]	n/a	catFR1	3	R1668S
1270.51	0.933	1592920	WORD_OFF	n/a	n/a	JEANS	Clothing	8	12	[0, 0, 0]	n/a	catFR1	3	R1668S
1271.443	1.6	1593852	WORD	n/a	wordpools/wordpool_categorized_EN.txt	RAIN	Weather	9	12	[0, 0, 0]	n/a	catFR1	3	R1668S
1273.043	0.909	1595449	WORD_OFF	n/a	n/a	RAIN	Weather	9	12	[0, 0, 0]	n/a	catFR1	3	R1668S
1273.952	1.606	1596368	WORD	n/a	wordpools/wordpool_categorized_EN.txt	HUMIDITY	Weather	10	12	[0, 0, 0]	n/a	catFR1	3	R1668S
1275.558	0.843	1597965	WORD_OFF	n/a	n/a	HUMIDITY	Weather	10	12	[0, 0, 0]	n/a	catFR1	3	R1668S
1276.401	1.6	1598812	WORD	n/a	wordpools/wordpool_categorized_EN.txt	BED	Furniture	11	12	[0, 0, 0]	n/a	catFR1	3	R1668S
1278.001	0.999	1600409	WORD_OFF	n/a	n/a	BED	Furniture	11	12	[0, 0, 0]	n/a	catFR1	3	R1668S
1279.0	1.601	1601413	WORD	n/a	wordpools/wordpool_categorized_EN.txt	DESK	Furniture	12	12	[0, 0, 0]	n/a	catFR1	3	R1668S
1280.601	0.004	1603010	WORD_OFF	n/a	n/a	DESK	Furniture	12	12	[0, 0, 0]	n/a	catFR1	3	R1668S
1280.605	0.0	1603010	ENCODING_END	n/a	n/a	n/a	n/a	-999	12	[0, 0, 0]	n/a	catFR1	3	R1668S
1280.601	0.004	1603016	PROB	0.004	n/a	n/a	n/a	-999	12	[6, 8, 7]	21	catFR1	3	R1668S
1280.605	0.0	1603020	START	n/a	n/a	n/a	n/a	-999	12	[-999, -999, -999]	n/a	catFR1	3	R1668S
1280.605	8.588	1603022	DISTRACT_START	n/a	n/a	n/a	n/a	-999	12	[0, 0, 0]	n/a	catFR1	3	R1668S
1289.193	6.001	1611608	PROB	6.001	n/a	n/a	n/a	-999	12	[8, 3, 6]	17	catFR1	3	R1668S
1295.194	5.15	1617609	PROB	5.15	n/a	n/a	n/a	-999	12	[5, 8, 1]	14	catFR1	3	R1668S
1300.344	6.181	1622759	PROB	6.181	n/a	n/a	n/a	-999	12	[3, 5, 6]	14	catFR1	3	R1668S
1306.525	0.0	1628935	DISTRACT_END	n/a	n/a	n/a	n/a	-999	12	[0, 0, 0]	n/a	catFR1	3	R1668S
1306.525	2.209	1628940	STOP	n/a	n/a	n/a	n/a	-999	12	[-999, -999, -999]	n/a	catFR1	3	R1668S
1308.734	12.31	1631149	REC_START	n/a	n/a	n/a	n/a	-999	12	[0, 0, 0]	n/a	catFR1	3	R1668S
1321.044	10.699	1643459	REC_WORD_VV	10.699	n/a	<>	n/a	-999	12	[0, 0, 0]	n/a	catFR1	3	R1668S
1331.743	1.0	1654158	REC_WORD_VV	1.0	n/a	<>	n/a	-999	12	[0, 0, 0]	n/a	catFR1	3	R1668S
1332.743	1.0	1655158	REC_WORD_VV	1.0	n/a	<>	n/a	-999	12	[0, 0, 0]	n/a	catFR1	3	R1668S
1333.743	5.13	1656158	REC_WORD_VV	5.13	n/a	<>	n/a	-999	12	[0, 0, 0]	n/a	catFR1	3	R1668S
1338.873	0.0	1661284	REC_END	n/a	n/a	n/a	n/a	-999	12	[0, 0, 0]	n/a	catFR1	3	R1668S
