onset	duration	sample	trial_type	response_time	stim_file	item_name	category	serialpos	list	test	answer	experiment	session	subject
0.0	0.01	68792	SESS_START	n/a	n/a	n/a	n/a	-999	0	[0, 0, 0]	n/a	catFR1	0	R1627T
0.01	39.204	68802	TRIAL	n/a	n/a	n/a	n/a	-999	-1	[0, 0, 0]	n/a	catFR1	0	R1627T
39.214	10.0	108006	COUNTDOWN	n/a	n/a	n/a	n/a	-999	-1	[0, 0, 0]	n/a	catFR1	0	R1627T
49.579	2.102	118371	ENCODING_START	n/a	n/a	n/a	n/a	-999	-1	[0, 0, 0]	n/a	catFR1	0	R1627T
51.681	1.6	120473	WORD	n/a	n/a	BOAT	Vehicles	1	-1	[0, 0, 0]	n/a	catFR1	0	R1627T
54.128	1.6	122920	WORD	n/a	n/a	TRUCK	Vehicles	2	-1	[0, 0, 0]	n/a	catFR1	0	R1627T
56.713	1.6	125505	WORD	n/a	n/a	SUNFLOWER	Flowers	3	-1	[0, 0, 0]	n/a	catFR1	0	R1627T
59.13	1.6	127922	WORD	n/a	n/a	LILY	Flowers	4	-1	[0, 0, 0]	n/a	catFR1	0	R1627T
61.513	1.6	130305	WORD	n/a	n/a	TRUMPET	Instruments	5	-1	[0, 0, 0]	n/a	catFR1	0	R1627T
63.963	1.6	132755	WORD	n/a	n/a	CELLO	Instruments	6	-1	[0, 0, 0]	n/a	catFR1	0	R1627T
66.396	1.6	135188	WORD	n/a	n/a	SCOOTER	Vehicles	7	-1	[0, 0, 0]	n/a	catFR1	0	R1627T
68.995	1.6	137787	WORD	n/a	n/a	JEEP	Vehicles	8	-1	[0, 0, 0]	n/a	catFR1	0	R1627T
71.462	1.6	140254	WORD	n/a	n/a	CARNATION	Flowers	9	-1	[0, 0, 0]	n/a	catFR1	0	R1627T
73.995	1.6	142787	WORD	n/a	n/a	PETUNIA	Flowers	10	-1	[0, 0, 0]	n/a	catFR1	0	R1627T
76.396	1.6	145188	WORD	n/a	n/a	DRUM	Instruments	11	-1	[0, 0, 0]	n/a	catFR1	0	R1627T
78.879	1.6	147671	WORD	n/a	n/a	BANJO	Instruments	12	-1	[0, 0, 0]	n/a	catFR1	0	R1627T
80.494	0.002	149286	DISTRACT_START	n/a	n/a	n/a	n/a	-999	0	[0, 0, 0]	n/a	catFR1	0	R1627T
80.496	4.565	149288	PROB	4.55	n/a	n/a	n/a	-999	0	[2, 1, 3]	6.0	catFR1	0	R1627T
85.061	3.334	153853	PROB	3.317	n/a	n/a	n/a	-999	0	[2, 5, 4]	11.0	catFR1	0	R1627T
88.395	3.384	157187	PROB	3.366	n/a	n/a	n/a	-999	0	[7, 3, 3]	13.0	catFR1	0	R1627T
91.779	4.284	160571	PROB	4.266	n/a	n/a	n/a	-999	0	[6, 5, 8]	19.0	catFR1	0	R1627T
96.063	3.616	164855	PROB	3.599	n/a	n/a	n/a	-999	0	[5, 7, 8]	20.0	catFR1	0	R1627T
99.679	5.039	168471	PROB	2.816	n/a	n/a	n/a	-999	0	[5, 3, 7]	15.0	catFR1	0	R1627T
104.718	1.064	173510	REC_START	n/a	n/a	n/a	n/a	-999	-1	[0, 0, 0]	n/a	catFR1	0	R1627T
105.782	1.153	174574	REC_WORD	1.064	n/a	BOAT	Vehicles	1	-1	[0, 0, 0]	n/a	catFR1	0	R1627T
106.935	1.247	175727	REC_WORD	2.217	n/a	TRUCK	Vehicles	2	-1	[0, 0, 0]	n/a	catFR1	0	R1627T
108.182	2.247	176974	REC_WORD	3.464	n/a	SCOOTER	Vehicles	7	-1	[0, 0, 0]	n/a	catFR1	0	R1627T
110.429	2.377	179221	REC_WORD	5.711	n/a	LILY	Flowers	4	-1	[0, 0, 0]	n/a	catFR1	0	R1627T
112.806	3.537	181598	REC_WORD	8.088	n/a	CARNATION	Flowers	9	-1	[0, 0, 0]	n/a	catFR1	0	R1627T
116.343	5.696	185135	REC_WORD	11.625	n/a	SUNFLOWER	Flowers	3	-1	[0, 0, 0]	n/a	catFR1	0	R1627T
122.039	2.754	190831	REC_WORD	17.321	n/a	JEEP	Vehicles	8	-1	[0, 0, 0]	n/a	catFR1	0	R1627T
124.793	6.277	193585	REC_WORD	20.075	n/a	CELLO	Instruments	6	-1	[0, 0, 0]	n/a	catFR1	0	R1627T
131.07	3.799	199862	REC_WORD	26.352	n/a	TRUMPET	Instruments	5	-1	[0, 0, 0]	n/a	catFR1	0	R1627T
134.869	9.04	203661	TRIAL	n/a	n/a	n/a	n/a	-999	1	[0, 0, 0]	n/a	catFR1	0	R1627T
143.909	10.0	212701	COUNTDOWN	n/a	n/a	n/a	n/a	-999	1	[0, 0, 0]	n/a	catFR1	0	R1627T
154.259	2.015	223051	ENCODING_START	n/a	n/a	n/a	n/a	-999	1	[0, 0, 0]	n/a	catFR1	0	R1627T
156.274	1.6	225066	WORD	n/a	wordpools/wordpool_categorized_EN.txt	SHELF	Furniture	1	1	[0, 0, 0]	n/a	catFR1	0	R1627T
158.809	1.6	227601	WORD	n/a	wordpools/wordpool_categorized_EN.txt	RECLINER	Furniture	2	1	[0, 0, 0]	n/a	catFR1	0	R1627T
161.309	1.6	230101	WORD	n/a	wordpools/wordpool_categorized_EN.txt	BIRCH	Trees	3	1	[0, 0, 0]	n/a	catFR1	0	R1627T
163.925	1.6	232717	WORD	n/a	wordpools/wordpool_categorized_EN.txt	MAPLE	Trees	4	1	[0, 0, 0]	n/a	catFR1	0	R1627T
166.491	1.6	235283	WORD	n/a	wordpools/wordpool_categorized_EN.txt	COLANDER	KitchenTools	5	1	[0, 0, 0]	n/a	catFR1	0	R1627T
168.924	1.6	237716	WORD	n/a	wordpools/wordpool_categorized_EN.txt	FORK	KitchenTools	6	1	[0, 0, 0]	n/a	catFR1	0	R1627T
171.458	1.6	240250	WORD	n/a	wordpools/wordpool_categorized_EN.txt	BOOKCASE	Furniture	7	1	[0, 0, 0]	n/a	catFR1	0	R1627T
173.942	1.6	242734	WORD	n/a	wordpools/wordpool_categorized_EN.txt	DRESSER	Furniture	8	1	[0, 0, 0]	n/a	catFR1	0	R1627T
176.34	1.6	245132	WORD	n/a	wordpools/wordpool_categorized_EN.txt	CEDAR	Trees	9	1	[0, 0, 0]	n/a	catFR1	0	R1627T
178.857	1.6	247649	WORD	n/a	wordpools/wordpool_categorized_EN.txt	EVERGREEN	Trees	10	1	[0, 0, 0]	n/a	catFR1	0	R1627T
181.34	1.6	250132	WORD	n/a	wordpools/wordpool_categorized_EN.txt	WHISK	KitchenTools	11	1	[0, 0, 0]	n/a	catFR1	0	R1627T
183.907	1.6	252699	WORD	n/a	wordpools/wordpool_categorized_EN.txt	LADLE	KitchenTools	12	1	[0, 0, 0]	n/a	catFR1	0	R1627T
185.525	0.0	254317	DISTRACT_START	n/a	n/a	n/a	n/a	-999	1	[0, 0, 0]	n/a	catFR1	0	R1627T
185.525	4.08	254317	PROB	4.066	n/a	n/a	n/a	-999	1	[5, 8, 6]	19.0	catFR1	0	R1627T
189.605	4.635	258397	PROB	4.616	n/a	n/a	n/a	-999	1	[6, 6, 8]	22.0	catFR1	0	R1627T
194.24	5.05	263032	PROB	5.032	n/a	n/a	n/a	-999	1	[6, 2, 6]	14.0	catFR1	0	R1627T
199.29	3.1	268082	PROB	3.083	n/a	n/a	n/a	-999	1	[6, 7, 8]	21.0	catFR1	0	R1627T
202.39	7.149	271182	PROB	4.784	n/a	n/a	n/a	-999	1	[6, 4, 4]	14.0	catFR1	0	R1627T
209.539	2.525	278331	REC_START	n/a	n/a	n/a	n/a	-999	1	[0, 0, 0]	n/a	catFR1	0	R1627T
212.064	2.656	280856	REC_WORD	2.525	n/a	SHELF	Furniture	1	1	[0, 0, 0]	n/a	catFR1	0	R1627T
214.72	1.17	283512	REC_WORD	5.181	n/a	BOOKCASE	Furniture	7	1	[0, 0, 0]	n/a	catFR1	0	R1627T
215.89	4.016	284682	REC_WORD	6.351	n/a	WHISK	KitchenTools	11	1	[0, 0, 0]	n/a	catFR1	0	R1627T
219.906	6.473	288698	REC_WORD	10.367	n/a	RECLINER	Furniture	2	1	[0, 0, 0]	n/a	catFR1	0	R1627T
226.379	13.307	295171	REC_WORD	16.84	n/a	COLANDER	KitchenTools	5	1	[0, 0, 0]	n/a	catFR1	0	R1627T
239.686	7.468	308478	TRIAL	n/a	n/a	n/a	n/a	-999	2	[0, 0, 0]	n/a	catFR1	0	R1627T
247.154	10.0	315946	COUNTDOWN	n/a	n/a	n/a	n/a	-999	2	[0, 0, 0]	n/a	catFR1	0	R1627T
257.521	1.983	326313	ENCODING_START	n/a	n/a	n/a	n/a	-999	2	[0, 0, 0]	n/a	catFR1	0	R1627T
259.504	1.6	328296	WORD	n/a	wordpools/wordpool_categorized_EN.txt	GLUE	OfficeSupplies	1	2	[0, 0, 0]	n/a	catFR1	0	R1627T
262.07	1.6	330862	WORD	n/a	wordpools/wordpool_categorized_EN.txt	PEN	OfficeSupplies	2	2	[0, 0, 0]	n/a	catFR1	0	R1627T
264.653	1.6	333445	WORD	n/a	wordpools/wordpool_categorized_EN.txt	CHIMPANZEE	Zoo	3	2	[0, 0, 0]	n/a	catFR1	0	R1627T
267.071	1.6	335863	WORD	n/a	wordpools/wordpool_categorized_EN.txt	BEAR	Zoo	4	2	[0, 0, 0]	n/a	catFR1	0	R1627T
269.587	1.6	338379	WORD	n/a	wordpools/wordpool_categorized_EN.txt	SODA	Beverages	5	2	[0, 0, 0]	n/a	catFR1	0	R1627T
272.187	1.6	340979	WORD	n/a	wordpools/wordpool_categorized_EN.txt	TEA	Beverages	6	2	[0, 0, 0]	n/a	catFR1	0	R1627T
274.77	1.6	343562	WORD	n/a	wordpools/wordpool_categorized_EN.txt	MARKER	OfficeSupplies	7	2	[0, 0, 0]	n/a	catFR1	0	R1627T
277.319	1.6	346111	WORD	n/a	wordpools/wordpool_categorized_EN.txt	ERASER	OfficeSupplies	8	2	[0, 0, 0]	n/a	catFR1	0	R1627T
279.887	1.6	348679	WORD	n/a	wordpools/wordpool_categorized_EN.txt	PANDA	Zoo	9	2	[0, 0, 0]	n/a	catFR1	0	R1627T
282.303	1.6	351095	WORD	n/a	wordpools/wordpool_categorized_EN.txt	ORANGUTAN	Zoo	10	2	[0, 0, 0]	n/a	catFR1	0	R1627T
284.77	1.6	353562	WORD	n/a	wordpools/wordpool_categorized_EN.txt	WATER	Beverages	11	2	[0, 0, 0]	n/a	catFR1	0	R1627T
287.168	1.6	355960	WORD	n/a	wordpools/wordpool_categorized_EN.txt	CIDER	Beverages	12	2	[0, 0, 0]	n/a	catFR1	0	R1627T
288.785	0.001	357577	PROB	4.966	n/a	n/a	n/a	-999	2	[7, 4, 4]	15.0	catFR1	0	R1627T
288.786	4.983	357578	DISTRACT_START	n/a	n/a	n/a	n/a	-999	2	[0, 0, 0]	n/a	catFR1	0	R1627T
293.769	2.284	362561	PROB	2.266	n/a	n/a	n/a	-999	2	[2, 2, 5]	9.0	catFR1	0	R1627T
296.053	6.132	364845	PROB	6.116	n/a	n/a	n/a	-999	2	[5, 7, 1]	13.0	catFR1	0	R1627T
302.185	4.1	370977	PROB	4.083	n/a	n/a	n/a	-999	2	[4, 5, 6]	15.0	catFR1	0	R1627T
306.285	5.221	375077	PROB	3.116	n/a	n/a	n/a	-999	2	[4, 5, 1]	10.0	catFR1	0	R1627T
311.506	0.497	380298	REC_START	n/a	n/a	n/a	n/a	-999	2	[0, 0, 0]	n/a	catFR1	0	R1627T
312.003	1.035	380795	REC_WORD	0.497	n/a	GLUE	OfficeSupplies	1	2	[0, 0, 0]	n/a	catFR1	0	R1627T
313.038	1.03	381830	REC_WORD	1.532	n/a	PEN	OfficeSupplies	2	2	[0, 0, 0]	n/a	catFR1	0	R1627T
314.068	1.439	382860	REC_WORD	2.562	n/a	MARKER	OfficeSupplies	7	2	[0, 0, 0]	n/a	catFR1	0	R1627T
315.507	1.865	384299	REC_WORD	4.001	n/a	CHIMPANZEE	Zoo	3	2	[0, 0, 0]	n/a	catFR1	0	R1627T
317.372	6.414	386164	REC_WORD	5.866	n/a	ORANGUTAN	Zoo	10	2	[0, 0, 0]	n/a	catFR1	0	R1627T
323.786	17.847	392578	REC_WORD	12.28	n/a	ERASER	OfficeSupplies	8	2	[0, 0, 0]	n/a	catFR1	0	R1627T
341.633	2.131	410425	TRIAL	n/a	n/a	n/a	n/a	-999	3	[0, 0, 0]	n/a	catFR1	0	R1627T
343.764	10.0	412556	COUNTDOWN	n/a	n/a	n/a	n/a	-999	3	[0, 0, 0]	n/a	catFR1	0	R1627T
354.116	2.233	422908	ENCODING_START	n/a	n/a	n/a	n/a	-999	3	[0, 0, 0]	n/a	catFR1	0	R1627T
356.349	1.6	425141	WORD	n/a	wordpools/wordpool_categorized_EN.txt	TRAIN	Vehicles	1	3	[0, 0, 0]	n/a	catFR1	0	R1627T
358.95	1.6	427742	WORD	n/a	wordpools/wordpool_categorized_EN.txt	MOPED	Vehicles	2	3	[0, 0, 0]	n/a	catFR1	0	R1627T
361.316	1.6	430108	WORD	n/a	wordpools/wordpool_categorized_EN.txt	FLY	Insects	3	3	[0, 0, 0]	n/a	catFR1	0	R1627T
363.898	1.6	432690	WORD	n/a	wordpools/wordpool_categorized_EN.txt	BUTTERFLY	Insects	4	3	[0, 0, 0]	n/a	catFR1	0	R1627T
366.482	1.6	435274	WORD	n/a	wordpools/wordpool_categorized_EN.txt	VALLEY	Landscapes	5	3	[0, 0, 0]	n/a	catFR1	0	R1627T
368.948	1.6	437740	WORD	n/a	wordpools/wordpool_categorized_EN.txt	LAKE	Landscapes	6	3	[0, 0, 0]	n/a	catFR1	0	R1627T
371.566	1.6	440358	WORD	n/a	wordpools/wordpool_categorized_EN.txt	BEETLE	Insects	7	3	[0, 0, 0]	n/a	catFR1	0	R1627T
373.981	1.6	442773	WORD	n/a	wordpools/wordpool_categorized_EN.txt	MOSQUITO	Insects	8	3	[0, 0, 0]	n/a	catFR1	0	R1627T
376.432	1.6	445224	WORD	n/a	wordpools/wordpool_categorized_EN.txt	BUS	Vehicles	9	3	[0, 0, 0]	n/a	catFR1	0	R1627T
378.93	1.6	447722	WORD	n/a	wordpools/wordpool_categorized_EN.txt	VAN	Vehicles	10	3	[0, 0, 0]	n/a	catFR1	0	R1627T
381.297	1.6	450089	WORD	n/a	wordpools/wordpool_categorized_EN.txt	OCEAN	Landscapes	11	3	[0, 0, 0]	n/a	catFR1	0	R1627T
383.681	1.6	452473	WORD	n/a	wordpools/wordpool_categorized_EN.txt	WOODS	Landscapes	12	3	[0, 0, 0]	n/a	catFR1	0	R1627T
385.282	0.0	454074	PROB	4.25	n/a	n/a	n/a	-999	3	[4, 4, 8]	16.0	catFR1	0	R1627T
385.282	4.266	454074	DISTRACT_START	n/a	n/a	n/a	n/a	-999	3	[0, 0, 0]	n/a	catFR1	0	R1627T
389.548	3.201	458340	PROB	3.183	n/a	n/a	n/a	-999	3	[5, 6, 5]	16.0	catFR1	0	R1627T
392.749	2.865	461541	PROB	2.849	n/a	n/a	n/a	-999	3	[2, 4, 7]	13.0	catFR1	0	R1627T
395.614	4.467	464406	PROB	4.449	n/a	n/a	n/a	-999	3	[7, 5, 6]	18.0	catFR1	0	R1627T
400.081	3.967	468873	PROB	3.95	n/a	n/a	n/a	-999	3	[2, 6, 3]	11.0	catFR1	0	R1627T
404.048	7.203	472840	PROB	4.916	n/a	n/a	n/a	-999	3	[7, 2, 4]	13.0	catFR1	0	R1627T
411.251	1.047	480043	REC_START	n/a	n/a	n/a	n/a	-999	3	[0, 0, 0]	n/a	catFR1	0	R1627T
412.298	0.826	481090	REC_WORD	1.047	n/a	MOSQUITO	Insects	8	3	[0, 0, 0]	n/a	catFR1	0	R1627T
413.124	1.205	481916	REC_WORD	1.873	n/a	BUTTERFLY	Insects	4	3	[0, 0, 0]	n/a	catFR1	0	R1627T
414.329	2.117	483121	REC_WORD	3.078	n/a	OCEAN	Landscapes	11	3	[0, 0, 0]	n/a	catFR1	0	R1627T
416.446	1.161	485238	REC_WORD	5.195	n/a	MOPED	Vehicles	2	3	[0, 0, 0]	n/a	catFR1	0	R1627T
417.607	1.387	486399	REC_WORD	6.356	n/a	SCOOTER	Vehicles	-999	3	[0, 0, 0]	n/a	catFR1	0	R1627T
418.994	3.103	487786	REC_WORD	7.743	n/a	FLY	Insects	3	3	[0, 0, 0]	n/a	catFR1	0	R1627T
422.097	19.286	490889	REC_WORD	10.846	n/a	LAKE	Landscapes	6	3	[0, 0, 0]	n/a	catFR1	0	R1627T
441.383	2.029	510175	TRIAL	n/a	n/a	n/a	n/a	-999	4	[0, 0, 0]	n/a	catFR1	0	R1627T
443.412	10.0	512204	COUNTDOWN	n/a	n/a	n/a	n/a	-999	4	[0, 0, 0]	n/a	catFR1	0	R1627T
453.778	1.984	522570	ENCODING_START	n/a	n/a	n/a	n/a	-999	4	[0, 0, 0]	n/a	catFR1	0	R1627T
455.762	1.6	524554	WORD	n/a	wordpools/wordpool_categorized_EN.txt	BASEBALL	Toys	1	4	[0, 0, 0]	n/a	catFR1	0	R1627T
458.278	1.6	527070	WORD	n/a	wordpools/wordpool_categorized_EN.txt	FOOTBALL	Toys	2	4	[0, 0, 0]	n/a	catFR1	0	R1627T
460.845	1.6	529637	WORD	n/a	wordpools/wordpool_categorized_EN.txt	COLA	Beverages	3	4	[0, 0, 0]	n/a	catFR1	0	R1627T
463.278	1.6	532070	WORD	n/a	wordpools/wordpool_categorized_EN.txt	BEER	Beverages	4	4	[0, 0, 0]	n/a	catFR1	0	R1627T
465.843	1.6	534635	WORD	n/a	wordpools/wordpool_categorized_EN.txt	CALCULATOR	Electronics	5	4	[0, 0, 0]	n/a	catFR1	0	R1627T
468.211	1.6	537003	WORD	n/a	wordpools/wordpool_categorized_EN.txt	STEREO	Electronics	6	4	[0, 0, 0]	n/a	catFR1	0	R1627T
470.676	1.6	539468	WORD	n/a	wordpools/wordpool_categorized_EN.txt	COFFEE	Beverages	7	4	[0, 0, 0]	n/a	catFR1	0	R1627T
473.226	1.6	542018	WORD	n/a	wordpools/wordpool_categorized_EN.txt	LEMONADE	Beverages	8	4	[0, 0, 0]	n/a	catFR1	0	R1627T
475.827	1.6	544619	WORD	n/a	wordpools/wordpool_categorized_EN.txt	SLINKY	Toys	9	4	[0, 0, 0]	n/a	catFR1	0	R1627T
478.211	1.6	547003	WORD	n/a	wordpools/wordpool_categorized_EN.txt	MARBLES	Toys	10	4	[0, 0, 0]	n/a	catFR1	0	R1627T
480.727	1.6	549519	WORD	n/a	wordpools/wordpool_categorized_EN.txt	PRINTER	Electronics	11	4	[0, 0, 0]	n/a	catFR1	0	R1627T
483.227	1.6	552019	WORD	n/a	wordpools/wordpool_categorized_EN.txt	TELEVISION	Electronics	12	4	[0, 0, 0]	n/a	catFR1	0	R1627T
484.828	0.0	553620	DISTRACT_START	n/a	n/a	n/a	n/a	-999	4	[0, 0, 0]	n/a	catFR1	0	R1627T
484.828	2.833	553620	PROB	2.815	n/a	n/a	n/a	-999	4	[1, 6, 1]	8.0	catFR1	0	R1627T
487.661	2.516	556453	PROB	2.498	n/a	n/a	n/a	-999	4	[2, 7, 1]	10.0	catFR1	0	R1627T
490.177	3.349	558969	PROB	3.334	n/a	n/a	n/a	-999	4	[5, 8, 1]	14.0	catFR1	0	R1627T
493.526	3.867	562318	PROB	3.849	n/a	n/a	n/a	-999	4	[8, 8, 7]	25.0	catFR1	0	R1627T
497.393	3.333	566185	PROB	3.316	n/a	n/a	n/a	-999	4	[5, 1, 3]	9.0	catFR1	0	R1627T
500.726	3.618	569518	PROB	3.6	n/a	n/a	n/a	-999	4	[5, 8, 7]	20.0	catFR1	0	R1627T
504.344	5.724	573136	PROB	3.249	n/a	n/a	n/a	-999	4	[4, 7, 2]	13.0	catFR1	0	R1627T
510.068	1.723	578860	REC_START	n/a	n/a	n/a	n/a	-999	4	[0, 0, 0]	n/a	catFR1	0	R1627T
511.791	0.696	580583	REC_WORD	1.723	n/a	BASEBALL	Toys	1	4	[0, 0, 0]	n/a	catFR1	0	R1627T
512.487	1.292	581279	REC_WORD	2.419	n/a	FOOTBALL	Toys	2	4	[0, 0, 0]	n/a	catFR1	0	R1627T
513.779	1.227	582571	REC_WORD	3.711	n/a	COLA	Beverages	3	4	[0, 0, 0]	n/a	catFR1	0	R1627T
515.006	1.516	583798	REC_WORD	4.938	n/a	BEER	Beverages	4	4	[0, 0, 0]	n/a	catFR1	0	R1627T
516.522	1.294	585314	REC_WORD	6.454	n/a	COFFEE	Beverages	7	4	[0, 0, 0]	n/a	catFR1	0	R1627T
517.816	2.041	586608	REC_WORD	7.748	n/a	SLIME	n/a	-999	4	[0, 0, 0]	n/a	catFR1	0	R1627T
519.857	2.426	588649	REC_WORD	9.789	n/a	SLINKY	Toys	9	4	[0, 0, 0]	n/a	catFR1	0	R1627T
522.283	2.035	591075	REC_WORD	12.215	n/a	CALCULATOR	Electronics	5	4	[0, 0, 0]	n/a	catFR1	0	R1627T
524.318	6.084	593110	REC_WORD	14.25	n/a	TELEVISION	Electronics	12	4	[0, 0, 0]	n/a	catFR1	0	R1627T
530.402	9.816	599194	REC_WORD	20.334	n/a	LEMONADE	Beverages	8	4	[0, 0, 0]	n/a	catFR1	0	R1627T
540.218	2.206	609010	TRIAL	n/a	n/a	n/a	n/a	-999	5	[0, 0, 0]	n/a	catFR1	0	R1627T
542.424	10.0	611216	COUNTDOWN	n/a	n/a	n/a	n/a	-999	5	[0, 0, 0]	n/a	catFR1	0	R1627T
552.774	2.2	621566	ENCODING_START	n/a	n/a	n/a	n/a	-999	5	[0, 0, 0]	n/a	catFR1	0	R1627T
554.974	1.6	623766	WORD	n/a	wordpools/wordpool_categorized_EN.txt	BIKE	Vehicles	1	5	[0, 0, 0]	n/a	catFR1	0	R1627T
557.457	1.6	626249	WORD	n/a	wordpools/wordpool_categorized_EN.txt	PLANE	Vehicles	2	5	[0, 0, 0]	n/a	catFR1	0	R1627T
559.906	1.6	628698	WORD	n/a	wordpools/wordpool_categorized_EN.txt	CHEESECAKE	Desserts	3	5	[0, 0, 0]	n/a	catFR1	0	R1627T
562.472	1.6	631264	WORD	n/a	wordpools/wordpool_categorized_EN.txt	PUDDING	Desserts	4	5	[0, 0, 0]	n/a	catFR1	0	R1627T
565.04	1.6	633832	WORD	n/a	wordpools/wordpool_categorized_EN.txt	FOG	Weather	5	5	[0, 0, 0]	n/a	catFR1	0	R1627T
567.44	1.6	636232	WORD	n/a	wordpools/wordpool_categorized_EN.txt	LIGHTNING	Weather	6	5	[0, 0, 0]	n/a	catFR1	0	R1627T
569.923	1.6	638715	WORD	n/a	wordpools/wordpool_categorized_EN.txt	CAR	Vehicles	7	5	[0, 0, 0]	n/a	catFR1	0	R1627T
572.44	1.6	641232	WORD	n/a	wordpools/wordpool_categorized_EN.txt	MOTORCYCLE	Vehicles	8	5	[0, 0, 0]	n/a	catFR1	0	R1627T
575.023	1.6	643815	WORD	n/a	wordpools/wordpool_categorized_EN.txt	TORNADO	Weather	9	5	[0, 0, 0]	n/a	catFR1	0	R1627T
577.589	1.6	646381	WORD	n/a	wordpools/wordpool_categorized_EN.txt	HUMIDITY	Weather	10	5	[0, 0, 0]	n/a	catFR1	0	R1627T
579.956	1.6	648748	WORD	n/a	wordpools/wordpool_categorized_EN.txt	BROWNIES	Desserts	11	5	[0, 0, 0]	n/a	catFR1	0	R1627T
582.339	1.6	651131	WORD	n/a	wordpools/wordpool_categorized_EN.txt	JELLO	Desserts	12	5	[0, 0, 0]	n/a	catFR1	0	R1627T
583.955	0.0	652747	DISTRACT_START	n/a	n/a	n/a	n/a	-999	5	[0, 0, 0]	n/a	catFR1	0	R1627T
583.955	4.918	652747	PROB	4.9	n/a	n/a	n/a	-999	5	[7, 2, 4]	13.0	catFR1	0	R1627T
588.873	2.499	657665	PROB	2.483	n/a	n/a	n/a	-999	5	[3, 1, 2]	6.0	catFR1	0	R1627T
591.372	1.866	660164	PROB	1.849	n/a	n/a	n/a	-999	5	[3, 2, 1]	5.0	catFR1	0	R1627T
593.238	5.252	662030	PROB	5.233	n/a	n/a	n/a	-999	5	[7, 6, 2]	14.0	catFR1	0	R1627T
598.49	2.315	667282	PROB	2.299	n/a	n/a	n/a	-999	5	[5, 4, 1]	10.0	catFR1	0	R1627T
600.805	6.628	669597	PROB	4.316	n/a	n/a	n/a	-999	5	[6, 8, 4]	16.0	catFR1	0	R1627T
607.433	1.66	676225	REC_START	n/a	n/a	n/a	n/a	-999	5	[0, 0, 0]	n/a	catFR1	0	R1627T
609.093	1.195	677885	REC_WORD	1.66	n/a	CHEESECAKE	Desserts	3	5	[0, 0, 0]	n/a	catFR1	0	R1627T
610.288	0.866	679080	REC_WORD	2.855	n/a	PUDDING	Desserts	4	5	[0, 0, 0]	n/a	catFR1	0	R1627T
611.154	5.115	679946	REC_WORD	3.721	n/a	JELLO	Desserts	12	5	[0, 0, 0]	n/a	catFR1	0	R1627T
616.269	0.998	685061	REC_WORD	8.836	n/a	STORM	n/a	-999	5	[0, 0, 0]	n/a	catFR1	0	R1627T
617.267	0.809	686059	REC_WORD	9.834	n/a	LIGHTNING	Weather	6	5	[0, 0, 0]	n/a	catFR1	0	R1627T
618.076	2.121	686868	REC_WORD	10.643	n/a	FOG	Weather	5	5	[0, 0, 0]	n/a	catFR1	0	R1627T
620.197	15.652	688989	REC_WORD	12.764	n/a	BIKE	Vehicles	1	5	[0, 0, 0]	n/a	catFR1	0	R1627T
635.849	1.729	704641	REC_WORD	28.416	n/a	THUNDER	n/a	-999	5	[0, 0, 0]	n/a	catFR1	0	R1627T
637.578	2.09	706370	TRIAL	n/a	n/a	n/a	n/a	-999	6	[0, 0, 0]	n/a	catFR1	0	R1627T
639.668	10.0	708460	COUNTDOWN	n/a	n/a	n/a	n/a	-999	6	[0, 0, 0]	n/a	catFR1	0	R1627T
650.035	2.183	718827	ENCODING_START	n/a	n/a	n/a	n/a	-999	6	[0, 0, 0]	n/a	catFR1	0	R1627T
652.218	1.6	721010	WORD	n/a	wordpools/wordpool_categorized_EN.txt	HORSE	FarmAnimals	1	6	[0, 0, 0]	n/a	catFR1	0	R1627T
654.652	1.6	723444	WORD	n/a	wordpools/wordpool_categorized_EN.txt	TURKEY	FarmAnimals	2	6	[0, 0, 0]	n/a	catFR1	0	R1627T
657.218	1.6	726010	WORD	n/a	wordpools/wordpool_categorized_EN.txt	BEE	Insects	3	6	[0, 0, 0]	n/a	catFR1	0	R1627T
659.636	1.6	728428	WORD	n/a	wordpools/wordpool_categorized_EN.txt	ANT	Insects	4	6	[0, 0, 0]	n/a	catFR1	0	R1627T
662.052	1.6	730844	WORD	n/a	wordpools/wordpool_categorized_EN.txt	BROCCOLI	Vegetables	5	6	[0, 0, 0]	n/a	catFR1	0	R1627T
664.502	1.6	733294	WORD	n/a	wordpools/wordpool_categorized_EN.txt	CORN	Vegetables	6	6	[0, 0, 0]	n/a	catFR1	0	R1627T
666.885	1.6	735677	WORD	n/a	wordpools/wordpool_categorized_EN.txt	LADYBUG	Insects	7	6	[0, 0, 0]	n/a	catFR1	0	R1627T
669.418	1.6	738210	WORD	n/a	wordpools/wordpool_categorized_EN.txt	MOTH	Insects	8	6	[0, 0, 0]	n/a	catFR1	0	R1627T
671.85	1.6	740642	WORD	n/a	wordpools/wordpool_categorized_EN.txt	ROOSTER	FarmAnimals	9	6	[0, 0, 0]	n/a	catFR1	0	R1627T
674.435	1.6	743227	WORD	n/a	wordpools/wordpool_categorized_EN.txt	LAMB	FarmAnimals	10	6	[0, 0, 0]	n/a	catFR1	0	R1627T
676.835	1.6	745627	WORD	n/a	wordpools/wordpool_categorized_EN.txt	CELERY	Vegetables	11	6	[0, 0, 0]	n/a	catFR1	0	R1627T
679.368	1.6	748160	WORD	n/a	wordpools/wordpool_categorized_EN.txt	CAULIFLOWER	Vegetables	12	6	[0, 0, 0]	n/a	catFR1	0	R1627T
680.985	0.0	749777	PROB	4.35	n/a	n/a	n/a	-999	6	[7, 7, 1]	15.0	catFR1	0	R1627T
680.985	4.366	749777	DISTRACT_START	n/a	n/a	n/a	n/a	-999	6	[0, 0, 0]	n/a	catFR1	0	R1627T
685.351	3.667	754143	PROB	3.65	n/a	n/a	n/a	-999	6	[4, 8, 3]	15.0	catFR1	0	R1627T
689.018	3.032	757810	PROB	3.016	n/a	n/a	n/a	-999	6	[8, 3, 7]	18.0	catFR1	0	R1627T
692.05	3.085	760842	PROB	3.067	n/a	n/a	n/a	-999	6	[4, 3, 7]	14.0	catFR1	0	R1627T
695.135	2.548	763927	PROB	2.533	n/a	n/a	n/a	-999	6	[4, 5, 2]	11.0	catFR1	0	R1627T
697.683	7.452	766475	PROB	5.233	n/a	n/a	n/a	-999	6	[6, 6, 8]	24.0	catFR1	0	R1627T
705.135	2.232	773927	REC_START	n/a	n/a	n/a	n/a	-999	6	[0, 0, 0]	n/a	catFR1	0	R1627T
707.367	1.205	776159	REC_WORD	2.232	n/a	LADYBUG	Insects	7	6	[0, 0, 0]	n/a	catFR1	0	R1627T
708.572	1.382	777364	REC_WORD	3.437	n/a	MOTH	Insects	8	6	[0, 0, 0]	n/a	catFR1	0	R1627T
709.954	2.954	778746	REC_WORD	4.819	n/a	ANT	Insects	4	6	[0, 0, 0]	n/a	catFR1	0	R1627T
712.908	0.963	781700	REC_WORD	7.773	n/a	CAULIFLOWER	Vegetables	12	6	[0, 0, 0]	n/a	catFR1	0	R1627T
713.871	18.955	782663	REC_WORD	8.736	n/a	BROCCOLI	Vegetables	5	6	[0, 0, 0]	n/a	catFR1	0	R1627T
732.826	2.444	801618	REC_WORD	27.691	n/a	HORSE	FarmAnimals	1	6	[0, 0, 0]	n/a	catFR1	0	R1627T
735.27	2.378	804062	TRIAL	n/a	n/a	n/a	n/a	-999	7	[0, 0, 0]	n/a	catFR1	0	R1627T
737.648	10.0	806440	COUNTDOWN	n/a	n/a	n/a	n/a	-999	7	[0, 0, 0]	n/a	catFR1	0	R1627T
748.015	2.0	816807	ENCODING_START	n/a	n/a	n/a	n/a	-999	7	[0, 0, 0]	n/a	catFR1	0	R1627T
750.015	1.6	818807	WORD	n/a	wordpools/wordpool_categorized_EN.txt	IRON	Appliances	1	7	[0, 0, 0]	n/a	catFR1	0	R1627T
752.382	1.6	821174	WORD	n/a	wordpools/wordpool_categorized_EN.txt	REFRIGERATOR	Appliances	2	7	[0, 0, 0]	n/a	catFR1	0	R1627T
754.898	1.6	823690	WORD	n/a	wordpools/wordpool_categorized_EN.txt	HEAD	BodyParts	3	7	[0, 0, 0]	n/a	catFR1	0	R1627T
757.381	1.6	826173	WORD	n/a	wordpools/wordpool_categorized_EN.txt	KNEE	BodyParts	4	7	[0, 0, 0]	n/a	catFR1	0	R1627T
759.948	1.6	828740	WORD	n/a	wordpools/wordpool_categorized_EN.txt	SPRUCE	Trees	5	7	[0, 0, 0]	n/a	catFR1	0	R1627T
762.447	1.6	831239	WORD	n/a	wordpools/wordpool_categorized_EN.txt	PINE	Trees	6	7	[0, 0, 0]	n/a	catFR1	0	R1627T
765.03	1.6	833822	WORD	n/a	wordpools/wordpool_categorized_EN.txt	WASHER	Appliances	7	7	[0, 0, 0]	n/a	catFR1	0	R1627T
767.564	1.6	836356	WORD	n/a	wordpools/wordpool_categorized_EN.txt	DISHWASHER	Appliances	8	7	[0, 0, 0]	n/a	catFR1	0	R1627T
770.08	1.6	838872	WORD	n/a	wordpools/wordpool_categorized_EN.txt	NOSE	BodyParts	9	7	[0, 0, 0]	n/a	catFR1	0	R1627T
772.563	1.6	841355	WORD	n/a	wordpools/wordpool_categorized_EN.txt	LEG	BodyParts	10	7	[0, 0, 0]	n/a	catFR1	0	R1627T
774.963	1.6	843755	WORD	n/a	wordpools/wordpool_categorized_EN.txt	HICKORY	Trees	11	7	[0, 0, 0]	n/a	catFR1	0	R1627T
777.447	1.6	846239	WORD	n/a	wordpools/wordpool_categorized_EN.txt	OAK	Trees	12	7	[0, 0, 0]	n/a	catFR1	0	R1627T
779.048	0.0	847840	DISTRACT_START	n/a	n/a	n/a	n/a	-999	7	[0, 0, 0]	n/a	catFR1	0	R1627T
779.048	3.383	847840	PROB	3.366	n/a	n/a	n/a	-999	7	[8, 1, 4]	13.0	catFR1	0	R1627T
782.431	5.766	851223	PROB	5.749	n/a	n/a	n/a	-999	7	[3, 6, 2]	11.0	catFR1	0	R1627T
788.197	5.883	856989	PROB	5.866	n/a	n/a	n/a	-999	7	[7, 1, 6]	14.0	catFR1	0	R1627T
794.08	2.665	862872	PROB	2.649	n/a	n/a	n/a	-999	7	[3, 1, 3]	7.0	catFR1	0	R1627T
796.745	5.265	865537	PROB	2.85	n/a	n/a	n/a	-999	7	[1, 6, 1]	8.0	catFR1	0	R1627T
802.01	1.515	870802	REC_START	n/a	n/a	n/a	n/a	-999	7	[0, 0, 0]	n/a	catFR1	0	R1627T
803.525	1.542	872317	REC_WORD	1.515	n/a	SPRUCE	Trees	5	7	[0, 0, 0]	n/a	catFR1	0	R1627T
805.067	2.53	873859	REC_WORD	3.057	n/a	OAK	Trees	12	7	[0, 0, 0]	n/a	catFR1	0	R1627T
807.597	3.207	876389	REC_WORD	5.587	n/a	ELM	n/a	-999	7	[0, 0, 0]	n/a	catFR1	0	R1627T
810.804	1.034	879596	REC_WORD	8.794	n/a	WASHER	Appliances	7	7	[0, 0, 0]	n/a	catFR1	0	R1627T
811.838	20.311	880630	REC_WORD	9.828	n/a	IRON	Appliances	1	7	[0, 0, 0]	n/a	catFR1	0	R1627T
832.149	2.144	900941	TRIAL	n/a	n/a	n/a	n/a	-999	8	[0, 0, 0]	n/a	catFR1	0	R1627T
834.293	10.0	903085	COUNTDOWN	n/a	n/a	n/a	n/a	-999	8	[0, 0, 0]	n/a	catFR1	0	R1627T
844.644	2.1	913436	ENCODING_START	n/a	n/a	n/a	n/a	-999	8	[0, 0, 0]	n/a	catFR1	0	R1627T
846.744	1.6	915536	WORD	n/a	wordpools/wordpool_categorized_EN.txt	FLEECE	Fabric	1	8	[0, 0, 0]	n/a	catFR1	0	R1627T
849.243	1.6	918035	WORD	n/a	wordpools/wordpool_categorized_EN.txt	WOOL	Fabric	2	8	[0, 0, 0]	n/a	catFR1	0	R1627T
851.693	1.6	920485	WORD	n/a	wordpools/wordpool_categorized_EN.txt	DOLL	Toys	3	8	[0, 0, 0]	n/a	catFR1	0	R1627T
854.177	1.6	922969	WORD	n/a	wordpools/wordpool_categorized_EN.txt	BLOCKS	Toys	4	8	[0, 0, 0]	n/a	catFR1	0	R1627T
856.676	1.6	925468	WORD	n/a	wordpools/wordpool_categorized_EN.txt	ARM	BodyParts	5	8	[0, 0, 0]	n/a	catFR1	0	R1627T
859.144	1.6	927936	WORD	n/a	wordpools/wordpool_categorized_EN.txt	FINGERS	BodyParts	6	8	[0, 0, 0]	n/a	catFR1	0	R1627T
861.56	1.6	930352	WORD	n/a	wordpools/wordpool_categorized_EN.txt	FRISBEE	Toys	7	8	[0, 0, 0]	n/a	catFR1	0	R1627T
864.01	1.6	932802	WORD	n/a	wordpools/wordpool_categorized_EN.txt	PUZZLE	Toys	8	8	[0, 0, 0]	n/a	catFR1	0	R1627T
866.46	1.6	935252	WORD	n/a	wordpools/wordpool_categorized_EN.txt	TOE	BodyParts	9	8	[0, 0, 0]	n/a	catFR1	0	R1627T
869.009	1.6	937801	WORD	n/a	wordpools/wordpool_categorized_EN.txt	ELBOW	BodyParts	10	8	[0, 0, 0]	n/a	catFR1	0	R1627T
871.576	1.6	940368	WORD	n/a	wordpools/wordpool_categorized_EN.txt	SUEDE	Fabric	11	8	[0, 0, 0]	n/a	catFR1	0	R1627T
874.026	1.6	942818	WORD	n/a	wordpools/wordpool_categorized_EN.txt	VELVET	Fabric	12	8	[0, 0, 0]	n/a	catFR1	0	R1627T
875.626	0.001	944418	PROB	3.333	n/a	n/a	n/a	-999	8	[4, 8, 1]	13.0	catFR1	0	R1627T
875.627	3.349	944419	DISTRACT_START	n/a	n/a	n/a	n/a	-999	8	[0, 0, 0]	n/a	catFR1	0	R1627T
878.976	4.318	947768	PROB	4.3	n/a	n/a	n/a	-999	8	[7, 4, 4]	15.0	catFR1	0	R1627T
883.294	3.382	952086	PROB	3.366	n/a	n/a	n/a	-999	8	[3, 8, 7]	25.0	catFR1	0	R1627T
886.676	3.133	955468	PROB	3.116	n/a	n/a	n/a	-999	8	[2, 8, 3]	13.0	catFR1	0	R1627T
889.809	3.299	958601	PROB	3.283	n/a	n/a	n/a	-999	8	[7, 4, 3]	14.0	catFR1	0	R1627T
893.108	4.995	961900	PROB	2.582	n/a	n/a	n/a	-999	8	[3, 3, 5]	11.0	catFR1	0	R1627T
898.103	1.404	966895	REC_START	n/a	n/a	n/a	n/a	-999	8	[0, 0, 0]	n/a	catFR1	0	R1627T
899.507	1.111	968299	REC_WORD	1.404	n/a	VELVET	Fabric	12	8	[0, 0, 0]	n/a	catFR1	0	R1627T
900.618	1.908	969410	REC_WORD	2.515	n/a	SUEDE	Fabric	11	8	[0, 0, 0]	n/a	catFR1	0	R1627T
902.526	2.189	971318	REC_WORD	4.423	n/a	DOLL	Toys	3	8	[0, 0, 0]	n/a	catFR1	0	R1627T
904.715	1.467	973507	REC_WORD	6.612	n/a	FLEECE	Fabric	1	8	[0, 0, 0]	n/a	catFR1	0	R1627T
906.182	1.414	974974	REC_WORD	8.079	n/a	WOOL	Fabric	2	8	[0, 0, 0]	n/a	catFR1	0	R1627T
907.596	2.007	976388	REC_WORD	9.493	n/a	TOE	BodyParts	9	8	[0, 0, 0]	n/a	catFR1	0	R1627T
909.603	2.899	978395	REC_WORD	11.5	n/a	PUZZLE	Toys	8	8	[0, 0, 0]	n/a	catFR1	0	R1627T
912.502	15.751	981294	REC_WORD	14.399	n/a	TOY	n/a	-999	8	[0, 0, 0]	n/a	catFR1	0	R1627T
928.253	1.854	997045	TRIAL	n/a	n/a	n/a	n/a	-999	9	[0, 0, 0]	n/a	catFR1	0	R1627T
930.107	10.0	998899	COUNTDOWN	n/a	n/a	n/a	n/a	-999	9	[0, 0, 0]	n/a	catFR1	0	R1627T
940.474	2.215	1009266	ENCODING_START	n/a	n/a	n/a	n/a	-999	9	[0, 0, 0]	n/a	catFR1	0	R1627T
942.689	1.6	1011481	WORD	n/a	wordpools/wordpool_categorized_EN.txt	BALL	Toys	1	9	[0, 0, 0]	n/a	catFR1	0	R1627T
945.088	1.6	1013880	WORD	n/a	wordpools/wordpool_categorized_EN.txt	DOLLHOUSE	Toys	2	9	[0, 0, 0]	n/a	catFR1	0	R1627T
947.489	1.6	1016281	WORD	n/a	wordpools/wordpool_categorized_EN.txt	BEACH	Landscapes	3	9	[0, 0, 0]	n/a	catFR1	0	R1627T
949.856	1.6	1018648	WORD	n/a	wordpools/wordpool_categorized_EN.txt	STREAM	Landscapes	4	9	[0, 0, 0]	n/a	catFR1	0	R1627T
952.272	1.6	1021064	WORD	n/a	wordpools/wordpool_categorized_EN.txt	WALNUT	Trees	5	9	[0, 0, 0]	n/a	catFR1	0	R1627T
954.739	1.6	1023531	WORD	n/a	wordpools/wordpool_categorized_EN.txt	WILLOW	Trees	6	9	[0, 0, 0]	n/a	catFR1	0	R1627T
957.289	1.6	1026081	WORD	n/a	wordpools/wordpool_categorized_EN.txt	MOUNTAIN	Landscapes	7	9	[0, 0, 0]	n/a	catFR1	0	R1627T
959.888	1.6	1028680	WORD	n/a	wordpools/wordpool_categorized_EN.txt	ISLAND	Landscapes	8	9	[0, 0, 0]	n/a	catFR1	0	R1627T
962.421	1.6	1031213	WORD	n/a	wordpools/wordpool_categorized_EN.txt	ELM	Trees	9	9	[0, 0, 0]	n/a	catFR1	0	R1627T
964.805	1.6	1033597	WORD	n/a	wordpools/wordpool_categorized_EN.txt	CYPRESS	Trees	10	9	[0, 0, 0]	n/a	catFR1	0	R1627T
967.355	1.6	1036147	WORD	n/a	wordpools/wordpool_categorized_EN.txt	BARBIE	Toys	11	9	[0, 0, 0]	n/a	catFR1	0	R1627T
969.805	1.6	1038597	WORD	n/a	wordpools/wordpool_categorized_EN.txt	BASKETBALL	Toys	12	9	[0, 0, 0]	n/a	catFR1	0	R1627T
971.405	0.0	1040197	DISTRACT_START	n/a	n/a	n/a	n/a	-999	9	[0, 0, 0]	n/a	catFR1	0	R1627T
971.405	5.7	1040197	PROB	5.683	n/a	n/a	n/a	-999	9	[2, 5, 6]	13.0	catFR1	0	R1627T
977.105	2.699	1045897	PROB	2.683	n/a	n/a	n/a	-999	9	[1, 2, 8]	11.0	catFR1	0	R1627T
979.804	3.9	1048596	PROB	3.883	n/a	n/a	n/a	-999	9	[5, 7, 7]	21.0	catFR1	0	R1627T
983.704	4.566	1052496	PROB	4.549	n/a	n/a	n/a	-999	9	[3, 3, 5]	11.0	catFR1	0	R1627T
988.27	7.294	1057062	PROB	5.117	n/a	n/a	n/a	-999	9	[4, 5, 8]	17.0	catFR1	0	R1627T
995.564	0.803	1064356	REC_START	n/a	n/a	n/a	n/a	-999	9	[0, 0, 0]	n/a	catFR1	0	R1627T
996.367	1.054	1065159	REC_WORD	0.803	n/a	BARBIE	Toys	11	9	[0, 0, 0]	n/a	catFR1	0	R1627T
997.421	3.824	1066213	REC_WORD	1.857	n/a	DOLLHOUSE	Toys	2	9	[0, 0, 0]	n/a	catFR1	0	R1627T
1001.245	1.484	1070037	REC_WORD	5.681	n/a	MOUNTAIN	Landscapes	7	9	[0, 0, 0]	n/a	catFR1	0	R1627T
1002.729	2.091	1071521	REC_WORD	7.165	n/a	BEACH	Landscapes	3	9	[0, 0, 0]	n/a	catFR1	0	R1627T
1004.82	2.894	1073612	REC_WORD	9.256	n/a	PALM	n/a	-999	9	[0, 0, 0]	n/a	catFR1	0	R1627T
1007.714	4.436	1076506	REC_WORD	12.15	n/a	BALL	Toys	1	9	[0, 0, 0]	n/a	catFR1	0	R1627T
1012.15	1.857	1080942	REC_WORD	16.586	n/a	WALNUT	Trees	5	9	[0, 0, 0]	n/a	catFR1	0	R1627T
1014.007	11.712	1082799	REC_WORD	18.443	n/a	WILLOW	Trees	6	9	[0, 0, 0]	n/a	catFR1	0	R1627T
1025.719	1.8	1094511	TRIAL	n/a	n/a	n/a	n/a	-999	10	[0, 0, 0]	n/a	catFR1	0	R1627T
1027.519	10.0	1096311	COUNTDOWN	n/a	n/a	n/a	n/a	-999	10	[0, 0, 0]	n/a	catFR1	0	R1627T
1037.868	1.899	1106660	ENCODING_START	n/a	n/a	n/a	n/a	-999	10	[0, 0, 0]	n/a	catFR1	0	R1627T
1039.767	1.6	1108559	WORD	n/a	wordpools/wordpool_categorized_EN.txt	ROACH	Insects	1	10	[0, 0, 0]	n/a	catFR1	0	R1627T
1042.185	1.6	1110977	WORD	n/a	wordpools/wordpool_categorized_EN.txt	GNAT	Insects	2	10	[0, 0, 0]	n/a	catFR1	0	R1627T
1044.635	1.6	1113427	WORD	n/a	wordpools/wordpool_categorized_EN.txt	ROOF	Building	3	10	[0, 0, 0]	n/a	catFR1	0	R1627T
1047.251	1.6	1116043	WORD	n/a	wordpools/wordpool_categorized_EN.txt	BATHROOM	Building	4	10	[0, 0, 0]	n/a	catFR1	0	R1627T
1049.768	1.6	1118560	WORD	n/a	wordpools/wordpool_categorized_EN.txt	EAR	BodyParts	5	10	[0, 0, 0]	n/a	catFR1	0	R1627T
1052.268	1.6	1121060	WORD	n/a	wordpools/wordpool_categorized_EN.txt	FOOT	BodyParts	6	10	[0, 0, 0]	n/a	catFR1	0	R1627T
1054.884	1.6	1123676	WORD	n/a	wordpools/wordpool_categorized_EN.txt	CRICKET	Insects	7	10	[0, 0, 0]	n/a	catFR1	0	R1627T
1057.468	1.6	1126260	WORD	n/a	wordpools/wordpool_categorized_EN.txt	SPIDER	Insects	8	10	[0, 0, 0]	n/a	catFR1	0	R1627T
1059.917	1.6	1128709	WORD	n/a	wordpools/wordpool_categorized_EN.txt	HAND	BodyParts	9	10	[0, 0, 0]	n/a	catFR1	0	R1627T
1062.317	1.6	1131109	WORD	n/a	wordpools/wordpool_categorized_EN.txt	EYE	BodyParts	10	10	[0, 0, 0]	n/a	catFR1	0	R1627T
1064.866	1.6	1133658	WORD	n/a	wordpools/wordpool_categorized_EN.txt	FOUNDATION	Building	11	10	[0, 0, 0]	n/a	catFR1	0	R1627T
1067.351	1.6	1136143	WORD	n/a	wordpools/wordpool_categorized_EN.txt	CEILING	Building	12	10	[0, 0, 0]	n/a	catFR1	0	R1627T
1068.951	0.001	1137743	PROB	6.566	n/a	n/a	n/a	-999	10	[8, 5, 7]	20.0	catFR1	0	R1627T
1068.952	6.582	1137744	DISTRACT_START	n/a	n/a	n/a	n/a	-999	10	[0, 0, 0]	n/a	catFR1	0	R1627T
1075.534	5.766	1144326	PROB	5.749	n/a	n/a	n/a	-999	10	[7, 4, 7]	18.0	catFR1	0	R1627T
1081.3	2.517	1150092	PROB	2.5	n/a	n/a	n/a	-999	10	[7, 3, 5]	15.0	catFR1	0	R1627T
1083.817	2.55	1152609	PROB	2.533	n/a	n/a	n/a	-999	10	[6, 6, 1]	13.0	catFR1	0	R1627T
1086.367	6.937	1155159	PROB	4.849	n/a	n/a	n/a	-999	10	[6, 8, 5]	19.0	catFR1	0	R1627T
1093.304	4.311	1162096	REC_START	n/a	n/a	n/a	n/a	-999	10	[0, 0, 0]	n/a	catFR1	0	R1627T
1097.615	0.802	1166407	REC_WORD	4.311	n/a	ROACH	Insects	1	10	[0, 0, 0]	n/a	catFR1	0	R1627T
1098.417	2.084	1167209	REC_WORD	5.113	n/a	SPIDER	Insects	8	10	[0, 0, 0]	n/a	catFR1	0	R1627T
1100.501	1.444	1169293	REC_WORD	7.197	n/a	GNAT	Insects	2	10	[0, 0, 0]	n/a	catFR1	0	R1627T
1101.945	0.919	1170737	REC_WORD	8.641	n/a	BATHROOM	Building	4	10	[0, 0, 0]	n/a	catFR1	0	R1627T
1102.864	7.364	1171656	REC_WORD	9.56	n/a	CEILING	Building	12	10	[0, 0, 0]	n/a	catFR1	0	R1627T
1110.228	4.748	1179020	REC_WORD	16.924	n/a	FLOOR	n/a	-999	10	[0, 0, 0]	n/a	catFR1	0	R1627T
1114.976	0.711	1183768	REC_WORD	21.672	n/a	EYE	BodyParts	10	10	[0, 0, 0]	n/a	catFR1	0	R1627T
1115.687	7.755	1184479	REC_WORD	22.383	n/a	EAR	BodyParts	5	10	[0, 0, 0]	n/a	catFR1	0	R1627T
1123.442	2.056	1192234	TRIAL	n/a	n/a	n/a	n/a	-999	11	[0, 0, 0]	n/a	catFR1	0	R1627T
1125.498	10.0	1194290	COUNTDOWN	n/a	n/a	n/a	n/a	-999	11	[0, 0, 0]	n/a	catFR1	0	R1627T
1135.847	2.167	1204639	ENCODING_START	n/a	n/a	n/a	n/a	-999	11	[0, 0, 0]	n/a	catFR1	0	R1627T
1138.014	1.6	1206806	WORD	n/a	wordpools/wordpool_categorized_EN.txt	HURRICANE	Weather	1	11	[0, 0, 0]	n/a	catFR1	0	R1627T
1140.447	1.6	1209239	WORD	n/a	wordpools/wordpool_categorized_EN.txt	THUNDERSTORM	Weather	2	11	[0, 0, 0]	n/a	catFR1	0	R1627T
1142.98	1.6	1211772	WORD	n/a	wordpools/wordpool_categorized_EN.txt	WINDOW	Building	3	11	[0, 0, 0]	n/a	catFR1	0	R1627T
1145.562	1.6	1214354	WORD	n/a	wordpools/wordpool_categorized_EN.txt	FLOOR	Building	4	11	[0, 0, 0]	n/a	catFR1	0	R1627T
1147.963	1.6	1216755	WORD	n/a	wordpools/wordpool_categorized_EN.txt	NYLON	Fabric	5	11	[0, 0, 0]	n/a	catFR1	0	R1627T
1150.514	1.6	1219306	WORD	n/a	wordpools/wordpool_categorized_EN.txt	SILK	Fabric	6	11	[0, 0, 0]	n/a	catFR1	0	R1627T
1152.88	1.6	1221672	WORD	n/a	wordpools/wordpool_categorized_EN.txt	ATTIC	Building	7	11	[0, 0, 0]	n/a	catFR1	0	R1627T
1155.363	1.6	1224155	WORD	n/a	wordpools/wordpool_categorized_EN.txt	STAIRS	Building	8	11	[0, 0, 0]	n/a	catFR1	0	R1627T
1157.896	1.6	1226688	WORD	n/a	wordpools/wordpool_categorized_EN.txt	WIND	Weather	9	11	[0, 0, 0]	n/a	catFR1	0	R1627T
1160.446	1.6	1229238	WORD	n/a	wordpools/wordpool_categorized_EN.txt	DRIZZLE	Weather	10	11	[0, 0, 0]	n/a	catFR1	0	R1627T
1162.963	1.6	1231755	WORD	n/a	wordpools/wordpool_categorized_EN.txt	DENIM	Fabric	11	11	[0, 0, 0]	n/a	catFR1	0	R1627T
1165.563	1.6	1234355	WORD	n/a	wordpools/wordpool_categorized_EN.txt	COTTON	Fabric	12	11	[0, 0, 0]	n/a	catFR1	0	R1627T
1167.179	0.0	1235971	PROB	6.217	n/a	n/a	n/a	-999	11	[7, 6, 7]	20.0	catFR1	0	R1627T
1167.179	6.234	1235971	DISTRACT_START	n/a	n/a	n/a	n/a	-999	11	[0, 0, 0]	n/a	catFR1	0	R1627T
1173.413	4.7	1242205	PROB	4.683	n/a	n/a	n/a	-999	11	[6, 7, 5]	18.0	catFR1	0	R1627T
1178.113	3.217	1246905	PROB	3.2	n/a	n/a	n/a	-999	11	[8, 2, 4]	14.0	catFR1	0	R1627T
1181.33	2.783	1250122	PROB	2.766	n/a	n/a	n/a	-999	11	[1, 1, 2]	4.0	catFR1	0	R1627T
1184.113	5.551	1252905	PROB	3.416	n/a	n/a	n/a	-999	11	[7, 3, 2]	12.0	catFR1	0	R1627T
1189.664	6.011	1258456	REC_START	n/a	n/a	n/a	n/a	-999	11	[0, 0, 0]	n/a	catFR1	0	R1627T
1195.675	0.667	1264467	REC_WORD_VV	6.011	n/a	<>	n/a	-999	11	[0, 0, 0]	n/a	catFR1	0	R1627T
1196.342	5.342	1265134	REC_WORD	6.678	n/a	THUNDER	n/a	-999	11	[0, 0, 0]	n/a	catFR1	0	R1627T
1201.684	2.977	1270476	REC_WORD	12.02	n/a	ATTIC	Building	7	11	[0, 0, 0]	n/a	catFR1	0	R1627T
1204.661	3.591	1273453	REC_WORD	14.997	n/a	STAIRS	Building	8	11	[0, 0, 0]	n/a	catFR1	0	R1627T
1208.252	1.005	1277044	REC_WORD	18.588	n/a	FLOOR	Building	4	11	[0, 0, 0]	n/a	catFR1	0	R1627T
1209.257	1.173	1278049	REC_WORD	19.593	n/a	NYLON	Fabric	5	11	[0, 0, 0]	n/a	catFR1	0	R1627T
1210.43	2.29	1279222	REC_WORD	20.766	n/a	COTTON	Fabric	12	11	[0, 0, 0]	n/a	catFR1	0	R1627T
1212.72	3.773	1281512	REC_WORD	23.056	n/a	SILK	Fabric	6	11	[0, 0, 0]	n/a	catFR1	0	R1627T
1216.493	3.316	1285285	REC_WORD	26.829	n/a	HURRICANE	Weather	1	11	[0, 0, 0]	n/a	catFR1	0	R1627T
1219.809	2.867	1288601	TRIAL	n/a	n/a	n/a	n/a	-999	12	[0, 0, 0]	n/a	catFR1	0	R1627T
1222.676	10.0	1291468	COUNTDOWN	n/a	n/a	n/a	n/a	-999	12	[0, 0, 0]	n/a	catFR1	0	R1627T
1233.026	2.167	1301818	ENCODING_START	n/a	n/a	n/a	n/a	-999	12	[0, 0, 0]	n/a	catFR1	0	R1627T
1235.193	1.6	1303985	WORD	n/a	wordpools/wordpool_categorized_EN.txt	SNOW	Weather	1	12	[0, 0, 0]	n/a	catFR1	0	R1627T
1237.676	1.6	1306468	WORD	n/a	wordpools/wordpool_categorized_EN.txt	CLOUD	Weather	2	12	[0, 0, 0]	n/a	catFR1	0	R1627T
1240.242	1.6	1309034	WORD	n/a	wordpools/wordpool_categorized_EN.txt	LEATHER	Fabric	3	12	[0, 0, 0]	n/a	catFR1	0	R1627T
1242.809	1.6	1311601	WORD	n/a	wordpools/wordpool_categorized_EN.txt	LINEN	Fabric	4	12	[0, 0, 0]	n/a	catFR1	0	R1627T
1245.408	1.6	1314200	WORD	n/a	wordpools/wordpool_categorized_EN.txt	HILLS	Landscapes	5	12	[0, 0, 0]	n/a	catFR1	0	R1627T
1247.773	1.6	1316565	WORD	n/a	wordpools/wordpool_categorized_EN.txt	RIVER	Landscapes	6	12	[0, 0, 0]	n/a	catFR1	0	R1627T
1250.358	1.6	1319150	WORD	n/a	wordpools/wordpool_categorized_EN.txt	SATIN	Fabric	7	12	[0, 0, 0]	n/a	catFR1	0	R1627T
1252.825	1.6	1321617	WORD	n/a	wordpools/wordpool_categorized_EN.txt	SPANDEX	Fabric	8	12	[0, 0, 0]	n/a	catFR1	0	R1627T
1255.341	1.6	1324133	WORD	n/a	wordpools/wordpool_categorized_EN.txt	THUNDER	Weather	9	12	[0, 0, 0]	n/a	catFR1	0	R1627T
1257.94	1.6	1326732	WORD	n/a	wordpools/wordpool_categorized_EN.txt	RAIN	Weather	10	12	[0, 0, 0]	n/a	catFR1	0	R1627T
1260.409	1.6	1329201	WORD	n/a	wordpools/wordpool_categorized_EN.txt	FOREST	Landscapes	11	12	[0, 0, 0]	n/a	catFR1	0	R1627T
1262.792	1.6	1331584	WORD	n/a	wordpools/wordpool_categorized_EN.txt	CREEK	Landscapes	12	12	[0, 0, 0]	n/a	catFR1	0	R1627T
1264.391	0.001	1333183	PROB	4.082	n/a	n/a	n/a	-999	12	[3, 5, 8]	16.0	catFR1	0	R1627T
1264.392	4.098	1333184	DISTRACT_START	n/a	n/a	n/a	n/a	-999	12	[0, 0, 0]	n/a	catFR1	0	R1627T
1268.49	4.532	1337282	PROB	4.515	n/a	n/a	n/a	-999	12	[3, 8, 3]	14.0	catFR1	0	R1627T
1273.022	4.335	1341814	PROB	4.317	n/a	n/a	n/a	-999	12	[4, 4, 7]	15.0	catFR1	0	R1627T
1277.357	3.801	1346149	PROB	3.783	n/a	n/a	n/a	-999	12	[6, 6, 3]	15.0	catFR1	0	R1627T
1281.158	6.55	1349950	PROB	4.299	n/a	n/a	n/a	-999	12	[4, 2, 3]	9.0	catFR1	0	R1627T
1287.708	1.972	1356500	REC_START	n/a	n/a	n/a	n/a	-999	12	[0, 0, 0]	n/a	catFR1	0	R1627T
1289.68	1.067	1358472	REC_WORD	1.972	n/a	THUNDER	Weather	9	12	[0, 0, 0]	n/a	catFR1	0	R1627T
1290.747	9.683	1359539	REC_WORD	3.039	n/a	SNOW	Weather	1	12	[0, 0, 0]	n/a	catFR1	0	R1627T
1300.43	2.53	1369222	REC_WORD_VV	12.722	n/a	<>	n/a	-999	12	[0, 0, 0]	n/a	catFR1	0	R1627T
1302.96	14.896	1371752	REC_WORD	15.252	n/a	SILK	Fabric	-999	12	[0, 0, 0]	n/a	catFR1	0	R1627T
1317.856	0.0	1386648	SESS_END	n/a	n/a	n/a	n/a	-999	12	[0, 0, 0]	n/a	catFR1	0	R1627T
