onset	duration	sample	trial_type	response_time	stim_file	item_name	category	serialpos	list	test	answer	experiment	session	subject
0.0	41.023	190668	SESS_START	n/a	n/a	n/a	n/a	-999	-999	[0, 0, 0]	n/a	catFR1	1	R1138T
41.023	10.428	231689	COUNTDOWN_START	n/a	n/a	n/a	n/a	-999	-999	[0, 0, 0]	n/a	catFR1	1	R1138T
51.451	3.592	242117	COUNTDOWN_END	n/a	n/a	n/a	n/a	-999	-999	[0, 0, 0]	n/a	catFR1	1	R1138T
55.043	2.449	245708	PRACTICE_WORD	n/a	n/a	FLOOD	n/a	-999	-999	[0, 0, 0]	n/a	catFR1	1	R1138T
57.492	2.518	248157	PRACTICE_WORD	n/a	n/a	TONGUE	n/a	-999	-999	[0, 0, 0]	n/a	catFR1	1	R1138T
60.01	2.483	250675	PRACTICE_WORD	n/a	n/a	CHEST	n/a	-999	-999	[0, 0, 0]	n/a	catFR1	1	R1138T
62.493	2.518	253158	PRACTICE_WORD	n/a	n/a	CAMEL	n/a	-999	-999	[0, 0, 0]	n/a	catFR1	1	R1138T
65.011	2.416	255676	PRACTICE_WORD	n/a	n/a	ATTIC	n/a	-999	-999	[0, 0, 0]	n/a	catFR1	1	R1138T
67.427	2.402	258092	PRACTICE_WORD	n/a	n/a	BEAM	n/a	-999	-999	[0, 0, 0]	n/a	catFR1	1	R1138T
69.829	2.4	260494	PRACTICE_WORD	n/a	n/a	WAGON	n/a	-999	-999	[0, 0, 0]	n/a	catFR1	1	R1138T
72.229	2.484	262893	PRACTICE_WORD	n/a	n/a	RHINO	n/a	-999	-999	[0, 0, 0]	n/a	catFR1	1	R1138T
74.713	2.45	265377	PRACTICE_WORD	n/a	n/a	WATCH	n/a	-999	-999	[0, 0, 0]	n/a	catFR1	1	R1138T
77.163	2.567	267827	PRACTICE_WORD	n/a	n/a	IRON	n/a	-999	-999	[0, 0, 0]	n/a	catFR1	1	R1138T
79.73	2.583	270394	PRACTICE_WORD	n/a	n/a	RING	n/a	-999	-999	[0, 0, 0]	n/a	catFR1	1	R1138T
82.313	1.601	272977	PRACTICE_WORD	n/a	n/a	COTTON	n/a	-999	-999	[0, 0, 0]	n/a	catFR1	1	R1138T
83.914	0.001	274578	PRACTICE_DISTRACT_START	n/a	n/a	n/a	n/a	-999	-999	[0, 0, 0]	n/a	catFR1	1	R1138T
83.915	0.016	274579	START	n/a	n/a	n/a	n/a	-999	-1	[-999, -999, -999]	n/a	catFR1	1	R1138T
83.931	4.5	274595	PROB	4.471	n/a	n/a	n/a	-999	-1	[2, 4, 7]	12.0	catFR1	1	R1138T
88.431	8.068	279095	PROB	8.035	n/a	n/a	n/a	-999	-1	[7, 8, 9]	24.0	catFR1	1	R1138T
96.499	3.818	287162	PROB	3.784	n/a	n/a	n/a	-999	-1	[1, 4, 8]	13.0	catFR1	1	R1138T
100.317	5.053	290980	PROB	5.053	n/a	n/a	n/a	-999	-1	[6, 4, 3]	13.0	catFR1	1	R1138T
105.37	0.014	296033	STOP	n/a	n/a	n/a	n/a	-999	-1	[-999, -999, -999]	n/a	catFR1	1	R1138T
105.384	0.704	296047	PRACTICE_DISTRACT_END	n/a	n/a	n/a	n/a	-999	-999	[0, 0, 0]	n/a	catFR1	1	R1138T
106.088	30.514	296751	PRACTICE_REC_START	n/a	n/a	n/a	n/a	-999	-999	[0, 0, 0]	n/a	catFR1	1	R1138T
136.602	8.074	327263	PRACTICE_REC_END	n/a	n/a	n/a	n/a	-999	-999	[0, 0, 0]	n/a	catFR1	1	R1138T
144.676	0.0	335337	TRIAL	n/a	n/a	n/a	n/a	-999	1	[0, 0, 0]	n/a	catFR1	1	R1138T
144.676	10.428	335337	COUNTDOWN_START	n/a	n/a	n/a	n/a	-999	1	[0, 0, 0]	n/a	catFR1	1	R1138T
155.104	0.007	345764	COUNTDOWN_END	n/a	n/a	n/a	n/a	-999	1	[0, 0, 0]	n/a	catFR1	1	R1138T
155.111	3.884	345771	ORIENT	n/a	n/a	n/a	n/a	-999	1	[0, 0, 0]	n/a	catFR1	1	R1138T
158.995	2.55	349655	WORD	n/a	wordpools/wordpool_categorized_EN.txt	CABINET	Furniture	1	1	[0, 0, 0]	n/a	catFR1	1	R1138T
161.545	2.601	352205	WORD	n/a	wordpools/wordpool_categorized_EN.txt	CHAIR	Furniture	2	1	[0, 0, 0]	n/a	catFR1	1	R1138T
164.146	2.55	354806	WORD	n/a	wordpools/wordpool_categorized_EN.txt	SEAGULL	Birds	3	1	[0, 0, 0]	n/a	catFR1	1	R1138T
166.696	2.484	357356	WORD	n/a	wordpools/wordpool_categorized_EN.txt	FINCH	Birds	4	1	[0, 0, 0]	n/a	catFR1	1	R1138T
169.18	2.484	359840	WORD	n/a	wordpools/wordpool_categorized_EN.txt	LEMONADE	Beverages	5	1	[0, 0, 0]	n/a	catFR1	1	R1138T
171.664	2.45	362323	WORD	n/a	wordpools/wordpool_categorized_EN.txt	BEER	Beverages	6	1	[0, 0, 0]	n/a	catFR1	1	R1138T
174.114	2.567	364773	WORD	n/a	wordpools/wordpool_categorized_EN.txt	GOOSE	Birds	7	1	[0, 0, 0]	n/a	catFR1	1	R1138T
176.681	2.434	367340	WORD	n/a	wordpools/wordpool_categorized_EN.txt	BLUEBIRD	Birds	8	1	[0, 0, 0]	n/a	catFR1	1	R1138T
179.115	2.517	369774	WORD	n/a	wordpools/wordpool_categorized_EN.txt	COUCH	Furniture	9	1	[0, 0, 0]	n/a	catFR1	1	R1138T
181.632	2.584	372291	WORD	n/a	wordpools/wordpool_categorized_EN.txt	TABLE	Furniture	10	1	[0, 0, 0]	n/a	catFR1	1	R1138T
184.216	2.551	374875	WORD	n/a	wordpools/wordpool_categorized_EN.txt	MILK	Beverages	11	1	[0, 0, 0]	n/a	catFR1	1	R1138T
186.767	1.616	377426	WORD	n/a	wordpools/wordpool_categorized_EN.txt	WATER	Beverages	12	1	[0, 0, 0]	n/a	catFR1	1	R1138T
188.383	0.001	379042	DISTRACT_START	n/a	n/a	n/a	n/a	-999	1	[0, 0, 0]	n/a	catFR1	1	R1138T
188.384	0.015	379043	START	n/a	n/a	n/a	n/a	-999	1	[-999, -999, -999]	n/a	catFR1	1	R1138T
188.399	4.719	379058	PROB	4.684	n/a	n/a	n/a	-999	1	[8, 5, 7]	20.0	catFR1	1	R1138T
193.118	6.034	383776	PROB	6.013	n/a	n/a	n/a	-999	1	[9, 4, 5]	18.0	catFR1	1	R1138T
199.152	4.984	389810	PROB	4.963	n/a	n/a	n/a	-999	1	[9, 2, 3]	14.0	catFR1	1	R1138T
204.136	8.387	394794	PROB	8.387	n/a	n/a	n/a	-999	1	[3, 4, 8]	15.0	catFR1	1	R1138T
212.523	0.015	403180	STOP	n/a	n/a	n/a	n/a	-999	1	[-999, -999, -999]	n/a	catFR1	1	R1138T
212.538	1.134	403195	DISTRACT_END	n/a	n/a	n/a	n/a	-999	1	[0, 0, 0]	n/a	catFR1	1	R1138T
213.672	1.743	404329	REC_START	n/a	n/a	n/a	n/a	-999	1	[0, 0, 0]	n/a	catFR1	1	R1138T
215.415	1.561	406072	REC_WORD	1.743	n/a	BLUEBIRD	Birds	8	1	[0, 0, 0]	n/a	catFR1	1	R1138T
216.976	2.098	407633	REC_WORD	3.304	n/a	BEER	Beverages	6	1	[0, 0, 0]	n/a	catFR1	1	R1138T
219.074	24.609	409731	REC_WORD	5.402	n/a	CABINET	Furniture	1	1	[0, 0, 0]	n/a	catFR1	1	R1138T
243.683	2.027	434339	REC_END	n/a	n/a	n/a	n/a	-999	1	[0, 0, 0]	n/a	catFR1	1	R1138T
245.71	0.0	436366	TRIAL	n/a	n/a	n/a	n/a	-999	2	[0, 0, 0]	n/a	catFR1	1	R1138T
245.71	10.428	436366	COUNTDOWN_START	n/a	n/a	n/a	n/a	-999	2	[0, 0, 0]	n/a	catFR1	1	R1138T
256.138	0.008	446793	COUNTDOWN_END	n/a	n/a	n/a	n/a	-999	2	[0, 0, 0]	n/a	catFR1	1	R1138T
256.146	3.534	446801	ORIENT	n/a	n/a	n/a	n/a	-999	2	[0, 0, 0]	n/a	catFR1	1	R1138T
259.68	2.467	450335	WORD	n/a	wordpools/wordpool_categorized_EN.txt	LION	Zoo	1	2	[0, 0, 0]	n/a	catFR1	1	R1138T
262.147	2.534	452802	WORD	n/a	wordpools/wordpool_categorized_EN.txt	GORILLA	Zoo	2	2	[0, 0, 0]	n/a	catFR1	1	R1138T
264.681	2.433	455336	WORD	n/a	wordpools/wordpool_categorized_EN.txt	SCANNER	Electronics	3	2	[0, 0, 0]	n/a	catFR1	1	R1138T
267.114	2.584	457769	WORD	n/a	wordpools/wordpool_categorized_EN.txt	TABLET	Electronics	4	2	[0, 0, 0]	n/a	catFR1	1	R1138T
269.698	2.501	460353	WORD	n/a	wordpools/wordpool_categorized_EN.txt	MOTH	Insects	5	2	[0, 0, 0]	n/a	catFR1	1	R1138T
272.199	2.433	462853	WORD	n/a	wordpools/wordpool_categorized_EN.txt	SPIDER	Insects	6	2	[0, 0, 0]	n/a	catFR1	1	R1138T
274.632	2.618	465286	WORD	n/a	wordpools/wordpool_categorized_EN.txt	PANDA	Zoo	7	2	[0, 0, 0]	n/a	catFR1	1	R1138T
277.25	2.45	467904	WORD	n/a	wordpools/wordpool_categorized_EN.txt	ZEBRA	Zoo	8	2	[0, 0, 0]	n/a	catFR1	1	R1138T
279.7	2.484	470354	WORD	n/a	wordpools/wordpool_categorized_EN.txt	ROACH	Insects	9	2	[0, 0, 0]	n/a	catFR1	1	R1138T
282.184	2.484	472838	WORD	n/a	wordpools/wordpool_categorized_EN.txt	GNAT	Insects	10	2	[0, 0, 0]	n/a	catFR1	1	R1138T
284.668	2.55	475322	WORD	n/a	wordpools/wordpool_categorized_EN.txt	PRINTER	Electronics	11	2	[0, 0, 0]	n/a	catFR1	1	R1138T
287.218	1.617	477872	WORD	n/a	wordpools/wordpool_categorized_EN.txt	STEREO	Electronics	12	2	[0, 0, 0]	n/a	catFR1	1	R1138T
288.835	0.001	479489	DISTRACT_START	n/a	n/a	n/a	n/a	-999	2	[0, 0, 0]	n/a	catFR1	1	R1138T
288.836	0.016	479490	START	n/a	n/a	n/a	n/a	-999	2	[-999, -999, -999]	n/a	catFR1	1	R1138T
288.852	3.8	479506	PROB	3.767	n/a	n/a	n/a	-999	2	[1, 3, 4]	8.0	catFR1	1	R1138T
292.652	2.901	483305	PROB	2.879	n/a	n/a	n/a	-999	2	[5, 5, 2]	12.0	catFR1	1	R1138T
295.553	2.15	486206	PROB	2.13	n/a	n/a	n/a	-999	2	[1, 1, 2]	4.0	catFR1	1	R1138T
297.703	3.568	488356	PROB	3.532	n/a	n/a	n/a	-999	2	[7, 2, 8]	17.0	catFR1	1	R1138T
301.271	10.34	491924	PROB	10.34	n/a	n/a	n/a	-999	2	[8, 7, 7]	23.0	catFR1	1	R1138T
311.611	0.011	502263	STOP	n/a	n/a	n/a	n/a	-999	2	[-999, -999, -999]	n/a	catFR1	1	R1138T
311.622	1.135	502274	DISTRACT_END	n/a	n/a	n/a	n/a	-999	2	[0, 0, 0]	n/a	catFR1	1	R1138T
312.757	1.521	503409	REC_START	n/a	n/a	n/a	n/a	-999	2	[0, 0, 0]	n/a	catFR1	1	R1138T
314.278	4.12	504930	REC_WORD	1.521	n/a	STEREO	Electronics	12	2	[0, 0, 0]	n/a	catFR1	1	R1138T
318.398	24.371	509050	REC_WORD	5.641	n/a	GORILLA	Zoo	2	2	[0, 0, 0]	n/a	catFR1	1	R1138T
342.769	2.393	533420	REC_END	n/a	n/a	n/a	n/a	-999	2	[0, 0, 0]	n/a	catFR1	1	R1138T
345.162	0.0	535813	TRIAL	n/a	n/a	n/a	n/a	-999	3	[0, 0, 0]	n/a	catFR1	1	R1138T
345.162	10.428	535813	COUNTDOWN_START	n/a	n/a	n/a	n/a	-999	3	[0, 0, 0]	n/a	catFR1	1	R1138T
355.59	0.007	546240	COUNTDOWN_END	n/a	n/a	n/a	n/a	-999	3	[0, 0, 0]	n/a	catFR1	1	R1138T
355.597	3.517	546247	ORIENT	n/a	n/a	n/a	n/a	-999	3	[0, 0, 0]	n/a	catFR1	1	R1138T
359.114	2.534	549764	WORD	n/a	wordpools/wordpool_categorized_EN.txt	EVERGREEN	Trees	1	3	[0, 0, 0]	n/a	catFR1	1	R1138T
361.648	2.401	552298	WORD	n/a	wordpools/wordpool_categorized_EN.txt	BIRCH	Trees	2	3	[0, 0, 0]	n/a	catFR1	1	R1138T
364.049	2.583	554699	WORD	n/a	wordpools/wordpool_categorized_EN.txt	BOOKCASE	Furniture	3	3	[0, 0, 0]	n/a	catFR1	1	R1138T
366.632	2.518	557282	WORD	n/a	wordpools/wordpool_categorized_EN.txt	SOFA	Furniture	4	3	[0, 0, 0]	n/a	catFR1	1	R1138T
369.15	2.617	559800	WORD	n/a	wordpools/wordpool_categorized_EN.txt	FREEZER	Appliances	5	3	[0, 0, 0]	n/a	catFR1	1	R1138T
371.767	2.483	562416	WORD	n/a	wordpools/wordpool_categorized_EN.txt	OVEN	Appliances	6	3	[0, 0, 0]	n/a	catFR1	1	R1138T
374.25	2.518	564899	WORD	n/a	wordpools/wordpool_categorized_EN.txt	SHELF	Furniture	7	3	[0, 0, 0]	n/a	catFR1	1	R1138T
376.768	2.599	567417	WORD	n/a	wordpools/wordpool_categorized_EN.txt	BED	Furniture	8	3	[0, 0, 0]	n/a	catFR1	1	R1138T
379.367	2.535	570016	WORD	n/a	wordpools/wordpool_categorized_EN.txt	CYPRESS	Trees	9	3	[0, 0, 0]	n/a	catFR1	1	R1138T
381.902	2.449	572551	WORD	n/a	wordpools/wordpool_categorized_EN.txt	WALNUT	Trees	10	3	[0, 0, 0]	n/a	catFR1	1	R1138T
384.351	2.468	575000	WORD	n/a	wordpools/wordpool_categorized_EN.txt	MIXER	Appliances	11	3	[0, 0, 0]	n/a	catFR1	1	R1138T
386.819	1.616	577468	WORD	n/a	wordpools/wordpool_categorized_EN.txt	REFRIGERATOR	Appliances	12	3	[0, 0, 0]	n/a	catFR1	1	R1138T
388.435	0.001	579084	DISTRACT_START	n/a	n/a	n/a	n/a	-999	3	[0, 0, 0]	n/a	catFR1	1	R1138T
388.436	0.016	579085	START	n/a	n/a	n/a	n/a	-999	3	[-999, -999, -999]	n/a	catFR1	1	R1138T
388.452	4.984	579101	PROB	4.958	n/a	n/a	n/a	-999	3	[1, 5, 9]	15.0	catFR1	1	R1138T
393.436	4.034	584084	PROB	4.014	n/a	n/a	n/a	-999	3	[3, 1, 4]	8.0	catFR1	1	R1138T
397.47	5.302	588118	PROB	5.277	n/a	n/a	n/a	-999	3	[8, 4, 9]	21.0	catFR1	1	R1138T
402.772	3.034	593420	PROB	2.999	n/a	n/a	n/a	-999	3	[3, 1, 7]	11.0	catFR1	1	R1138T
405.806	5.149	596454	PROB	5.149	n/a	n/a	n/a	-999	3	[2, 5, 2]	9.0	catFR1	1	R1138T
410.955	0.019	601602	STOP	n/a	n/a	n/a	n/a	-999	3	[-999, -999, -999]	n/a	catFR1	1	R1138T
410.974	1.184	601621	DISTRACT_END	n/a	n/a	n/a	n/a	-999	3	[0, 0, 0]	n/a	catFR1	1	R1138T
412.158	1.702	602805	REC_START	n/a	n/a	n/a	n/a	-999	3	[0, 0, 0]	n/a	catFR1	1	R1138T
413.86	1.401	604507	REC_WORD	1.702	n/a	REFRIGERATOR	Appliances	12	3	[0, 0, 0]	n/a	catFR1	1	R1138T
415.261	26.908	605908	REC_WORD	3.103	n/a	MOTH	n/a	-999	3	[0, 0, 0]	n/a	catFR1	1	R1138T
442.169	2.578	632815	REC_END	n/a	n/a	n/a	n/a	-999	3	[0, 0, 0]	n/a	catFR1	1	R1138T
444.747	0.0	635393	TRIAL	n/a	n/a	n/a	n/a	-999	4	[0, 0, 0]	n/a	catFR1	1	R1138T
444.747	10.428	635393	COUNTDOWN_START	n/a	n/a	n/a	n/a	-999	4	[0, 0, 0]	n/a	catFR1	1	R1138T
455.175	0.007	645820	COUNTDOWN_END	n/a	n/a	n/a	n/a	-999	4	[0, 0, 0]	n/a	catFR1	1	R1138T
455.182	3.567	645827	ORIENT	n/a	n/a	n/a	n/a	-999	4	[0, 0, 0]	n/a	catFR1	1	R1138T
458.749	2.501	649394	WORD	n/a	wordpools/wordpool_categorized_EN.txt	DOLLHOUSE	Toys	1	4	[0, 0, 0]	n/a	catFR1	1	R1138T
461.25	2.6	651895	WORD	n/a	wordpools/wordpool_categorized_EN.txt	FOOTBALL	Toys	2	4	[0, 0, 0]	n/a	catFR1	1	R1138T
463.85	2.499	654495	WORD	n/a	wordpools/wordpool_categorized_EN.txt	FLOOR	Building	3	4	[0, 0, 0]	n/a	catFR1	1	R1138T
466.349	2.369	656994	WORD	n/a	wordpools/wordpool_categorized_EN.txt	CEILING	Building	4	4	[0, 0, 0]	n/a	catFR1	1	R1138T
468.718	2.567	659363	WORD	n/a	wordpools/wordpool_categorized_EN.txt	WINE	Beverages	5	4	[0, 0, 0]	n/a	catFR1	1	R1138T
471.285	2.567	661929	WORD	n/a	wordpools/wordpool_categorized_EN.txt	CIDER	Beverages	6	4	[0, 0, 0]	n/a	catFR1	1	R1138T
473.852	2.533	664496	WORD	n/a	wordpools/wordpool_categorized_EN.txt	BALL	Toys	7	4	[0, 0, 0]	n/a	catFR1	1	R1138T
476.385	2.518	667029	WORD	n/a	wordpools/wordpool_categorized_EN.txt	SLINKY	Toys	8	4	[0, 0, 0]	n/a	catFR1	1	R1138T
478.903	2.533	669547	WORD	n/a	wordpools/wordpool_categorized_EN.txt	SODA	Beverages	9	4	[0, 0, 0]	n/a	catFR1	1	R1138T
481.436	2.551	672080	WORD	n/a	wordpools/wordpool_categorized_EN.txt	TEA	Beverages	10	4	[0, 0, 0]	n/a	catFR1	1	R1138T
483.987	2.584	674631	WORD	n/a	wordpools/wordpool_categorized_EN.txt	BATHROOM	Building	11	4	[0, 0, 0]	n/a	catFR1	1	R1138T
486.571	1.617	677215	WORD	n/a	wordpools/wordpool_categorized_EN.txt	ATTIC	Building	12	4	[0, 0, 0]	n/a	catFR1	1	R1138T
488.188	0.001	678832	DISTRACT_START	n/a	n/a	n/a	n/a	-999	4	[0, 0, 0]	n/a	catFR1	1	R1138T
488.189	0.015	678833	START	n/a	n/a	n/a	n/a	-999	4	[-999, -999, -999]	n/a	catFR1	1	R1138T
488.204	4.901	678848	PROB	4.879	n/a	n/a	n/a	-999	4	[6, 1, 8]	15.0	catFR1	1	R1138T
493.105	7.902	683748	PROB	7.866	n/a	n/a	n/a	-999	4	[7, 1, 1]	9.0	catFR1	1	R1138T
501.007	4.05	691650	PROB	4.028	n/a	n/a	n/a	-999	4	[4, 8, 8]	20.0	catFR1	1	R1138T
505.057	4.114	695700	PROB	4.114	n/a	n/a	n/a	-999	4	[1, 5, 3]	9.0	catFR1	1	R1138T
509.171	0.004	699814	STOP	n/a	n/a	n/a	n/a	-999	4	[-999, -999, -999]	n/a	catFR1	1	R1138T
509.175	1.236	699818	DISTRACT_END	n/a	n/a	n/a	n/a	-999	4	[0, 0, 0]	n/a	catFR1	1	R1138T
510.411	1.442	701054	REC_START	n/a	n/a	n/a	n/a	-999	4	[0, 0, 0]	n/a	catFR1	1	R1138T
511.853	1.827	702495	REC_WORD	1.442	n/a	FOOTBALL	Toys	2	4	[0, 0, 0]	n/a	catFR1	1	R1138T
513.68	2.197	704322	REC_WORD	3.269	n/a	BALL	Toys	7	4	[0, 0, 0]	n/a	catFR1	1	R1138T
515.877	24.542	706519	REC_WORD	5.466	n/a	SLINKY	Toys	8	4	[0, 0, 0]	n/a	catFR1	1	R1138T
540.419	2.044	731060	REC_END	n/a	n/a	n/a	n/a	-999	4	[0, 0, 0]	n/a	catFR1	1	R1138T
542.463	0.0	733104	TRIAL	n/a	n/a	n/a	n/a	-999	5	[0, 0, 0]	n/a	catFR1	1	R1138T
542.463	10.428	733104	COUNTDOWN_START	n/a	n/a	n/a	n/a	-999	5	[0, 0, 0]	n/a	catFR1	1	R1138T
552.891	0.009	743531	COUNTDOWN_END	n/a	n/a	n/a	n/a	-999	5	[0, 0, 0]	n/a	catFR1	1	R1138T
552.9	3.85	743540	ORIENT	n/a	n/a	n/a	n/a	-999	5	[0, 0, 0]	n/a	catFR1	1	R1138T
556.75	2.451	747390	WORD	n/a	wordpools/wordpool_categorized_EN.txt	CABBAGE	Vegetables	1	5	[0, 0, 0]	n/a	catFR1	1	R1138T
559.201	2.617	749841	WORD	n/a	wordpools/wordpool_categorized_EN.txt	CELERY	Vegetables	2	5	[0, 0, 0]	n/a	catFR1	1	R1138T
561.818	2.516	752458	WORD	n/a	wordpools/wordpool_categorized_EN.txt	DRYER	Appliances	3	5	[0, 0, 0]	n/a	catFR1	1	R1138T
564.334	2.468	754974	WORD	n/a	wordpools/wordpool_categorized_EN.txt	IRON	Appliances	4	5	[0, 0, 0]	n/a	catFR1	1	R1138T
566.802	2.583	757442	WORD	n/a	wordpools/wordpool_categorized_EN.txt	TIGER	Zoo	5	5	[0, 0, 0]	n/a	catFR1	1	R1138T
569.385	2.385	760025	WORD	n/a	wordpools/wordpool_categorized_EN.txt	GIRAFFE	Zoo	6	5	[0, 0, 0]	n/a	catFR1	1	R1138T
571.77	2.599	762409	WORD	n/a	wordpools/wordpool_categorized_EN.txt	BROCCOLI	Vegetables	7	5	[0, 0, 0]	n/a	catFR1	1	R1138T
574.369	2.535	765008	WORD	n/a	wordpools/wordpool_categorized_EN.txt	CORN	Vegetables	8	5	[0, 0, 0]	n/a	catFR1	1	R1138T
576.904	2.533	767543	WORD	n/a	wordpools/wordpool_categorized_EN.txt	CHEETAH	Zoo	9	5	[0, 0, 0]	n/a	catFR1	1	R1138T
579.437	2.384	770076	WORD	n/a	wordpools/wordpool_categorized_EN.txt	CHIMPANZEE	Zoo	10	5	[0, 0, 0]	n/a	catFR1	1	R1138T
581.821	2.533	772460	WORD	n/a	wordpools/wordpool_categorized_EN.txt	WASHER	Appliances	11	5	[0, 0, 0]	n/a	catFR1	1	R1138T
584.354	1.601	774993	WORD	n/a	wordpools/wordpool_categorized_EN.txt	VACUUM	Appliances	12	5	[0, 0, 0]	n/a	catFR1	1	R1138T
585.955	0.001	776594	DISTRACT_START	n/a	n/a	n/a	n/a	-999	5	[0, 0, 0]	n/a	catFR1	1	R1138T
585.956	0.016	776595	START	n/a	n/a	n/a	n/a	-999	5	[-999, -999, -999]	n/a	catFR1	1	R1138T
585.972	7.985	776611	PROB	7.959	n/a	n/a	n/a	-999	5	[9, 8, 8]	26.0	catFR1	1	R1138T
593.957	3.151	784595	PROB	3.126	n/a	n/a	n/a	-999	5	[3, 7, 2]	12.0	catFR1	1	R1138T
597.108	3.467	787746	PROB	3.439	n/a	n/a	n/a	-999	5	[3, 1, 6]	10.0	catFR1	1	R1138T
600.575	4.567	791213	PROB	4.532	n/a	n/a	n/a	-999	5	[8, 1, 1]	10.0	catFR1	1	R1138T
605.142	5.421	795780	PROB	5.421	n/a	n/a	n/a	-999	5	[9, 3, 2]	14.0	catFR1	1	R1138T
610.563	0.014	801200	STOP	n/a	n/a	n/a	n/a	-999	5	[-999, -999, -999]	n/a	catFR1	1	R1138T
610.577	1.117	801214	DISTRACT_END	n/a	n/a	n/a	n/a	-999	5	[0, 0, 0]	n/a	catFR1	1	R1138T
611.694	1.437	802331	REC_START	n/a	n/a	n/a	n/a	-999	5	[0, 0, 0]	n/a	catFR1	1	R1138T
613.131	28.574	803768	REC_WORD	1.437	n/a	CHEETAH	Zoo	9	5	[0, 0, 0]	n/a	catFR1	1	R1138T
641.705	1.743	832341	REC_END	n/a	n/a	n/a	n/a	-999	5	[0, 0, 0]	n/a	catFR1	1	R1138T
643.448	0.0	834084	TRIAL	n/a	n/a	n/a	n/a	-999	6	[0, 0, 0]	n/a	catFR1	1	R1138T
643.448	10.428	834084	COUNTDOWN_START	n/a	n/a	n/a	n/a	-999	6	[0, 0, 0]	n/a	catFR1	1	R1138T
653.876	0.008	844511	COUNTDOWN_END	n/a	n/a	n/a	n/a	-999	6	[0, 0, 0]	n/a	catFR1	1	R1138T
653.884	3.818	844519	ORIENT	n/a	n/a	n/a	n/a	-999	6	[0, 0, 0]	n/a	catFR1	1	R1138T
657.702	2.384	848337	WORD	n/a	wordpools/wordpool_categorized_EN.txt	ISLAND	Landscapes	1	6	[0, 0, 0]	n/a	catFR1	1	R1138T
660.086	2.382	850721	WORD	n/a	wordpools/wordpool_categorized_EN.txt	LAKE	Landscapes	2	6	[0, 0, 0]	n/a	catFR1	1	R1138T
662.468	2.368	853103	WORD	n/a	wordpools/wordpool_categorized_EN.txt	GLUE	OfficeSupplies	3	6	[0, 0, 0]	n/a	catFR1	1	R1138T
664.836	2.6	855471	WORD	n/a	wordpools/wordpool_categorized_EN.txt	NOTEBOOK	OfficeSupplies	4	6	[0, 0, 0]	n/a	catFR1	1	R1138T
667.436	2.501	858071	WORD	n/a	wordpools/wordpool_categorized_EN.txt	WRENCH	Tools	5	6	[0, 0, 0]	n/a	catFR1	1	R1138T
669.937	2.516	860572	WORD	n/a	wordpools/wordpool_categorized_EN.txt	SAW	Tools	6	6	[0, 0, 0]	n/a	catFR1	1	R1138T
672.453	2.369	863087	WORD	n/a	wordpools/wordpool_categorized_EN.txt	HILLS	Landscapes	7	6	[0, 0, 0]	n/a	catFR1	1	R1138T
674.822	2.549	865456	WORD	n/a	wordpools/wordpool_categorized_EN.txt	OCEAN	Landscapes	8	6	[0, 0, 0]	n/a	catFR1	1	R1138T
677.371	2.385	868005	WORD	n/a	wordpools/wordpool_categorized_EN.txt	LEVEL	Tools	9	6	[0, 0, 0]	n/a	catFR1	1	R1138T
679.756	2.566	870390	WORD	n/a	wordpools/wordpool_categorized_EN.txt	CROWBAR	Tools	10	6	[0, 0, 0]	n/a	catFR1	1	R1138T
682.322	2.451	872956	WORD	n/a	wordpools/wordpool_categorized_EN.txt	TAPE	OfficeSupplies	11	6	[0, 0, 0]	n/a	catFR1	1	R1138T
684.773	1.616	875407	WORD	n/a	wordpools/wordpool_categorized_EN.txt	BINDER	OfficeSupplies	12	6	[0, 0, 0]	n/a	catFR1	1	R1138T
686.389	0.001	877023	DISTRACT_START	n/a	n/a	n/a	n/a	-999	6	[0, 0, 0]	n/a	catFR1	1	R1138T
686.39	0.016	877024	START	n/a	n/a	n/a	n/a	-999	6	[-999, -999, -999]	n/a	catFR1	1	R1138T
686.406	3.435	877040	PROB	3.413	n/a	n/a	n/a	-999	6	[6, 3, 6]	15.0	catFR1	1	R1138T
689.841	3.717	880475	PROB	3.69	n/a	n/a	n/a	-999	6	[1, 6, 1]	8.0	catFR1	1	R1138T
693.558	4.301	884191	PROB	4.277	n/a	n/a	n/a	-999	6	[7, 6, 8]	21.0	catFR1	1	R1138T
697.859	3.051	888492	PROB	3.024	n/a	n/a	n/a	-999	6	[4, 6, 2]	12.0	catFR1	1	R1138T
700.91	4.634	891543	PROB	4.613	n/a	n/a	n/a	-999	6	[7, 3, 5]	15.0	catFR1	1	R1138T
705.544	4.786	896177	PROB	4.786	n/a	n/a	n/a	-999	6	[7, 8, 6]	21.0	catFR1	1	R1138T
710.33	0.014	900962	STOP	n/a	n/a	n/a	n/a	-999	6	[-999, -999, -999]	n/a	catFR1	1	R1138T
710.344	1.134	900976	DISTRACT_END	n/a	n/a	n/a	n/a	-999	6	[0, 0, 0]	n/a	catFR1	1	R1138T
711.478	1.219	902110	REC_START	n/a	n/a	n/a	n/a	-999	6	[0, 0, 0]	n/a	catFR1	1	R1138T
712.697	28.792	903329	REC_WORD	1.219	n/a	BENCH	n/a	-999	6	[0, 0, 0]	n/a	catFR1	1	R1138T
741.489	1.844	932120	REC_END	n/a	n/a	n/a	n/a	-999	6	[0, 0, 0]	n/a	catFR1	1	R1138T
743.333	0.0	933964	COUNTDOWN_START	n/a	n/a	n/a	n/a	-999	7	[0, 0, 0]	n/a	catFR1	1	R1138T
743.333	10.428	933964	TRIAL	n/a	n/a	n/a	n/a	-999	7	[0, 0, 0]	n/a	catFR1	1	R1138T
753.761	0.008	944391	COUNTDOWN_END	n/a	n/a	n/a	n/a	-999	7	[0, 0, 0]	n/a	catFR1	1	R1138T
753.769	3.434	944399	ORIENT	n/a	n/a	n/a	n/a	-999	7	[0, 0, 0]	n/a	catFR1	1	R1138T
757.203	2.501	947833	WORD	n/a	wordpools/wordpool_categorized_EN.txt	JELLYFISH	OceanAnimals	1	7	[0, 0, 0]	n/a	catFR1	1	R1138T
759.704	2.5	950334	WORD	n/a	wordpools/wordpool_categorized_EN.txt	LOBSTER	OceanAnimals	2	7	[0, 0, 0]	n/a	catFR1	1	R1138T
762.204	2.467	952834	WORD	n/a	wordpools/wordpool_categorized_EN.txt	MOUNTAIN	Landscapes	3	7	[0, 0, 0]	n/a	catFR1	1	R1138T
764.671	2.517	955301	WORD	n/a	wordpools/wordpool_categorized_EN.txt	VALLEY	Landscapes	4	7	[0, 0, 0]	n/a	catFR1	1	R1138T
767.188	2.617	957818	WORD	n/a	wordpools/wordpool_categorized_EN.txt	STOVE	Appliances	5	7	[0, 0, 0]	n/a	catFR1	1	R1138T
769.805	2.6	960435	WORD	n/a	wordpools/wordpool_categorized_EN.txt	TOASTER	Appliances	6	7	[0, 0, 0]	n/a	catFR1	1	R1138T
772.405	2.568	963034	WORD	n/a	wordpools/wordpool_categorized_EN.txt	SQUID	OceanAnimals	7	7	[0, 0, 0]	n/a	catFR1	1	R1138T
774.973	2.449	965602	WORD	n/a	wordpools/wordpool_categorized_EN.txt	SHRIMP	OceanAnimals	8	7	[0, 0, 0]	n/a	catFR1	1	R1138T
777.422	2.435	968051	WORD	n/a	wordpools/wordpool_categorized_EN.txt	DISHWASHER	Appliances	9	7	[0, 0, 0]	n/a	catFR1	1	R1138T
779.857	2.384	970486	WORD	n/a	wordpools/wordpool_categorized_EN.txt	BLENDER	Appliances	10	7	[0, 0, 0]	n/a	catFR1	1	R1138T
782.241	2.617	972870	WORD	n/a	wordpools/wordpool_categorized_EN.txt	STREAM	Landscapes	11	7	[0, 0, 0]	n/a	catFR1	1	R1138T
784.858	1.616	975487	WORD	n/a	wordpools/wordpool_categorized_EN.txt	CREEK	Landscapes	12	7	[0, 0, 0]	n/a	catFR1	1	R1138T
786.474	0.001	977103	DISTRACT_START	n/a	n/a	n/a	n/a	-999	7	[0, 0, 0]	n/a	catFR1	1	R1138T
786.475	0.016	977104	START	n/a	n/a	n/a	n/a	-999	7	[-999, -999, -999]	n/a	catFR1	1	R1138T
786.491	4.068	977120	PROB	4.048	n/a	n/a	n/a	-999	7	[7, 8, 2]	17.0	catFR1	1	R1138T
790.559	2.451	981187	PROB	2.42	n/a	n/a	n/a	-999	7	[2, 4, 5]	11.0	catFR1	1	R1138T
793.01	3.717	983638	PROB	3.681	n/a	n/a	n/a	-999	7	[3, 9, 6]	18.0	catFR1	1	R1138T
796.727	7.051	987355	PROB	7.028	n/a	n/a	n/a	-999	7	[9, 2, 1]	12.0	catFR1	1	R1138T
803.778	6.696	994406	PROB	6.696	n/a	n/a	n/a	-999	7	[6, 9, 9]	24.0	catFR1	1	R1138T
810.474	0.005	1001101	STOP	n/a	n/a	n/a	n/a	-999	7	[-999, -999, -999]	n/a	catFR1	1	R1138T
810.479	1.151	1001106	DISTRACT_END	n/a	n/a	n/a	n/a	-999	7	[0, 0, 0]	n/a	catFR1	1	R1138T
811.63	1.539	1002257	REC_START	n/a	n/a	n/a	n/a	-999	7	[0, 0, 0]	n/a	catFR1	1	R1138T
813.169	1.134	1003796	REC_WORD	1.539	n/a	SHRIMP	OceanAnimals	8	7	[0, 0, 0]	n/a	catFR1	1	R1138T
814.303	27.342	1004930	REC_WORD	2.673	n/a	SQUID	OceanAnimals	7	7	[0, 0, 0]	n/a	catFR1	1	R1138T
841.645	21.611	1032271	REC_END	n/a	n/a	n/a	n/a	-999	7	[0, 0, 0]	n/a	catFR1	1	R1138T
863.256	0.0	1053881	TRIAL	n/a	n/a	n/a	n/a	-999	8	[0, 0, 0]	n/a	catFR1	1	R1138T
863.256	10.428	1053881	COUNTDOWN_START	n/a	n/a	n/a	n/a	-999	8	[0, 0, 0]	n/a	catFR1	1	R1138T
873.684	0.007	1064308	COUNTDOWN_END	n/a	n/a	n/a	n/a	-999	8	[0, 0, 0]	n/a	catFR1	1	R1138T
873.691	3.75	1064315	ORIENT	n/a	n/a	n/a	n/a	-999	8	[0, 0, 0]	n/a	catFR1	1	R1138T
877.441	2.401	1068065	WORD	n/a	wordpools/wordpool_categorized_EN.txt	HAMMER	Tools	1	8	[0, 0, 0]	n/a	catFR1	1	R1138T
879.842	2.516	1070466	WORD	n/a	wordpools/wordpool_categorized_EN.txt	AXE	Tools	2	8	[0, 0, 0]	n/a	catFR1	1	R1138T
882.358	2.601	1072982	WORD	n/a	wordpools/wordpool_categorized_EN.txt	UNDERWEAR	Clothing	3	8	[0, 0, 0]	n/a	catFR1	1	R1138T
884.959	2.4	1075583	WORD	n/a	wordpools/wordpool_categorized_EN.txt	SHIRT	Clothing	4	8	[0, 0, 0]	n/a	catFR1	1	R1138T
887.359	2.602	1077983	WORD	n/a	wordpools/wordpool_categorized_EN.txt	APPLE	Fruit	5	8	[0, 0, 0]	n/a	catFR1	1	R1138T
889.961	2.499	1080584	WORD	n/a	wordpools/wordpool_categorized_EN.txt	BLUEBERRY	Fruit	6	8	[0, 0, 0]	n/a	catFR1	1	R1138T
892.46	2.552	1083083	WORD	n/a	wordpools/wordpool_categorized_EN.txt	SHOVEL	Tools	7	8	[0, 0, 0]	n/a	catFR1	1	R1138T
895.012	2.617	1085635	WORD	n/a	wordpools/wordpool_categorized_EN.txt	SANDER	Tools	8	8	[0, 0, 0]	n/a	catFR1	1	R1138T
897.629	2.6	1088252	WORD	n/a	wordpools/wordpool_categorized_EN.txt	PEAR	Fruit	9	8	[0, 0, 0]	n/a	catFR1	1	R1138T
900.229	2.617	1090852	WORD	n/a	wordpools/wordpool_categorized_EN.txt	BANANA	Fruit	10	8	[0, 0, 0]	n/a	catFR1	1	R1138T
902.846	2.566	1093469	WORD	n/a	wordpools/wordpool_categorized_EN.txt	JACKET	Clothing	11	8	[0, 0, 0]	n/a	catFR1	1	R1138T
905.412	1.601	1096035	WORD	n/a	wordpools/wordpool_categorized_EN.txt	COAT	Clothing	12	8	[0, 0, 0]	n/a	catFR1	1	R1138T
907.013	0.001	1097636	DISTRACT_START	n/a	n/a	n/a	n/a	-999	8	[0, 0, 0]	n/a	catFR1	1	R1138T
907.014	0.016	1097637	START	n/a	n/a	n/a	n/a	-999	8	[-999, -999, -999]	n/a	catFR1	1	R1138T
907.03	5.218	1097653	PROB	5.197	n/a	n/a	n/a	-999	8	[1, 6, 1]	8.0	catFR1	1	R1138T
912.248	4.584	1102870	PROB	4.563	n/a	n/a	n/a	-999	8	[6, 7, 8]	22.0	catFR1	1	R1138T
916.832	5.151	1107454	PROB	5.123	n/a	n/a	n/a	-999	8	[5, 9, 1]	15.0	catFR1	1	R1138T
921.983	4.234	1112605	PROB	4.212	n/a	n/a	n/a	-999	8	[6, 5, 4]	15.0	catFR1	1	R1138T
926.217	3.898	1116839	PROB	3.898	n/a	n/a	n/a	-999	8	[3, 9, 3]	15.0	catFR1	1	R1138T
930.115	0.02	1120736	STOP	n/a	n/a	n/a	n/a	-999	8	[-999, -999, -999]	n/a	catFR1	1	R1138T
930.135	1.117	1120756	DISTRACT_END	n/a	n/a	n/a	n/a	-999	8	[0, 0, 0]	n/a	catFR1	1	R1138T
931.252	1.739	1121873	REC_START	n/a	n/a	n/a	n/a	-999	8	[0, 0, 0]	n/a	catFR1	1	R1138T
932.991	2.362	1123612	REC_WORD	1.739	n/a	BLUEBERRY	Fruit	6	8	[0, 0, 0]	n/a	catFR1	1	R1138T
935.353	25.91	1125974	REC_WORD	4.101	n/a	AXE	Tools	2	8	[0, 0, 0]	n/a	catFR1	1	R1138T
961.263	1.894	1151883	REC_END	n/a	n/a	n/a	n/a	-999	8	[0, 0, 0]	n/a	catFR1	1	R1138T
963.157	0.001	1153777	COUNTDOWN_START	n/a	n/a	n/a	n/a	-999	9	[0, 0, 0]	n/a	catFR1	1	R1138T
963.158	10.427	1153778	TRIAL	n/a	n/a	n/a	n/a	-999	9	[0, 0, 0]	n/a	catFR1	1	R1138T
973.585	0.007	1164204	COUNTDOWN_END	n/a	n/a	n/a	n/a	-999	9	[0, 0, 0]	n/a	catFR1	1	R1138T
973.592	3.951	1164211	ORIENT	n/a	n/a	n/a	n/a	-999	9	[0, 0, 0]	n/a	catFR1	1	R1138T
977.543	2.484	1168162	WORD	n/a	wordpools/wordpool_categorized_EN.txt	POTATO	Vegetables	1	9	[0, 0, 0]	n/a	catFR1	1	R1138T
980.027	2.5	1170646	WORD	n/a	wordpools/wordpool_categorized_EN.txt	CARROT	Vegetables	2	9	[0, 0, 0]	n/a	catFR1	1	R1138T
982.527	2.551	1173146	WORD	n/a	wordpools/wordpool_categorized_EN.txt	RATCHET	Tools	3	9	[0, 0, 0]	n/a	catFR1	1	R1138T
985.078	2.534	1175697	WORD	n/a	wordpools/wordpool_categorized_EN.txt	PLIERS	Tools	4	9	[0, 0, 0]	n/a	catFR1	1	R1138T
987.612	2.6	1178231	WORD	n/a	wordpools/wordpool_categorized_EN.txt	FUDGE	Desserts	5	9	[0, 0, 0]	n/a	catFR1	1	R1138T
990.212	2.601	1180830	WORD	n/a	wordpools/wordpool_categorized_EN.txt	CHEESECAKE	Desserts	6	9	[0, 0, 0]	n/a	catFR1	1	R1138T
992.813	2.532	1183431	WORD	n/a	wordpools/wordpool_categorized_EN.txt	DRILL	Tools	7	9	[0, 0, 0]	n/a	catFR1	1	R1138T
995.345	2.535	1185963	WORD	n/a	wordpools/wordpool_categorized_EN.txt	SCREWDRIVER	Tools	8	9	[0, 0, 0]	n/a	catFR1	1	R1138T
997.88	2.416	1188498	WORD	n/a	wordpools/wordpool_categorized_EN.txt	ONION	Vegetables	9	9	[0, 0, 0]	n/a	catFR1	1	R1138T
1000.296	2.585	1190914	WORD	n/a	wordpools/wordpool_categorized_EN.txt	SPINACH	Vegetables	10	9	[0, 0, 0]	n/a	catFR1	1	R1138T
1002.881	2.583	1193499	WORD	n/a	wordpools/wordpool_categorized_EN.txt	PIE	Desserts	11	9	[0, 0, 0]	n/a	catFR1	1	R1138T
1005.464	1.601	1196082	WORD	n/a	wordpools/wordpool_categorized_EN.txt	COOKIE	Desserts	12	9	[0, 0, 0]	n/a	catFR1	1	R1138T
1007.065	0.001	1197683	DISTRACT_START	n/a	n/a	n/a	n/a	-999	9	[0, 0, 0]	n/a	catFR1	1	R1138T
1007.066	0.016	1197684	START	n/a	n/a	n/a	n/a	-999	9	[-999, -999, -999]	n/a	catFR1	1	R1138T
1007.082	4.084	1197700	PROB	4.049	n/a	n/a	n/a	-999	9	[5, 8, 7]	20.0	catFR1	1	R1138T
1011.166	2.517	1201783	PROB	2.493	n/a	n/a	n/a	-999	9	[5, 2, 5]	12.0	catFR1	1	R1138T
1013.683	3.351	1204300	PROB	3.32	n/a	n/a	n/a	-999	9	[8, 7, 7]	22.0	catFR1	1	R1138T
1017.034	3.9	1207651	PROB	3.873	n/a	n/a	n/a	-999	9	[7, 4, 3]	14.0	catFR1	1	R1138T
1020.934	5.051	1211551	PROB	5.029	n/a	n/a	n/a	-999	9	[7, 7, 4]	18.0	catFR1	1	R1138T
1025.985	5.954	1216602	PROB	5.954	n/a	n/a	n/a	-999	9	[9, 8, 6]	23.0	catFR1	1	R1138T
1031.939	0.014	1222555	STOP	n/a	n/a	n/a	n/a	-999	9	[-999, -999, -999]	n/a	catFR1	1	R1138T
1031.953	1.201	1222569	DISTRACT_END	n/a	n/a	n/a	n/a	-999	9	[0, 0, 0]	n/a	catFR1	1	R1138T
1033.154	1.671	1223770	REC_START	n/a	n/a	n/a	n/a	-999	9	[0, 0, 0]	n/a	catFR1	1	R1138T
1034.825	1.73	1225441	REC_WORD	1.671	n/a	POTATO	Vegetables	1	9	[0, 0, 0]	n/a	catFR1	1	R1138T
1036.555	3.802	1227171	REC_WORD	3.401	n/a	CARROT	Vegetables	2	9	[0, 0, 0]	n/a	catFR1	1	R1138T
1040.357	17.013	1230973	REC_WORD	7.203	n/a	SCREWDRIVER	Tools	8	9	[0, 0, 0]	n/a	catFR1	1	R1138T
1057.37	5.796	1247985	REC_WORD	24.216	n/a	PIE	Desserts	11	9	[0, 0, 0]	n/a	catFR1	1	R1138T
1063.166	1.943	1253781	REC_END	n/a	n/a	n/a	n/a	-999	9	[0, 0, 0]	n/a	catFR1	1	R1138T
1065.109	0.0	1255724	TRIAL	n/a	n/a	n/a	n/a	-999	10	[0, 0, 0]	n/a	catFR1	1	R1138T
1065.109	10.428	1255724	COUNTDOWN_START	n/a	n/a	n/a	n/a	-999	10	[0, 0, 0]	n/a	catFR1	1	R1138T
1075.537	0.007	1266151	COUNTDOWN_END	n/a	n/a	n/a	n/a	-999	10	[0, 0, 0]	n/a	catFR1	1	R1138T
1075.544	3.501	1266158	ORIENT	n/a	n/a	n/a	n/a	-999	10	[0, 0, 0]	n/a	catFR1	1	R1138T
1079.045	2.5	1269659	WORD	n/a	wordpools/wordpool_categorized_EN.txt	ROOF	Building	1	10	[0, 0, 0]	n/a	catFR1	1	R1138T
1081.545	2.401	1272159	WORD	n/a	wordpools/wordpool_categorized_EN.txt	ROOM	Building	2	10	[0, 0, 0]	n/a	catFR1	1	R1138T
1083.946	2.382	1274560	WORD	n/a	wordpools/wordpool_categorized_EN.txt	HORSE	FarmAnimals	3	10	[0, 0, 0]	n/a	catFR1	1	R1138T
1086.328	2.569	1276942	WORD	n/a	wordpools/wordpool_categorized_EN.txt	BULL	FarmAnimals	4	10	[0, 0, 0]	n/a	catFR1	1	R1138T
1088.897	2.399	1279511	WORD	n/a	wordpools/wordpool_categorized_EN.txt	PANTS	Clothing	5	10	[0, 0, 0]	n/a	catFR1	1	R1138T
1091.296	2.601	1281909	WORD	n/a	wordpools/wordpool_categorized_EN.txt	SHOES	Clothing	6	10	[0, 0, 0]	n/a	catFR1	1	R1138T
1093.897	2.483	1284510	WORD	n/a	wordpools/wordpool_categorized_EN.txt	WALL	Building	7	10	[0, 0, 0]	n/a	catFR1	1	R1138T
1096.38	2.602	1286993	WORD	n/a	wordpools/wordpool_categorized_EN.txt	WINDOW	Building	8	10	[0, 0, 0]	n/a	catFR1	1	R1138T
1098.982	2.383	1289595	WORD	n/a	wordpools/wordpool_categorized_EN.txt	BLOUSE	Clothing	9	10	[0, 0, 0]	n/a	catFR1	1	R1138T
1101.365	2.451	1291978	WORD	n/a	wordpools/wordpool_categorized_EN.txt	JEANS	Clothing	10	10	[0, 0, 0]	n/a	catFR1	1	R1138T
1103.816	2.5	1294429	WORD	n/a	wordpools/wordpool_categorized_EN.txt	CHICKEN	FarmAnimals	11	10	[0, 0, 0]	n/a	catFR1	1	R1138T
1106.316	1.617	1296929	WORD	n/a	wordpools/wordpool_categorized_EN.txt	HEN	FarmAnimals	12	10	[0, 0, 0]	n/a	catFR1	1	R1138T
1107.933	0.001	1298546	DISTRACT_START	n/a	n/a	n/a	n/a	-999	10	[0, 0, 0]	n/a	catFR1	1	R1138T
1107.934	0.016	1298547	START	n/a	n/a	n/a	n/a	-999	10	[-999, -999, -999]	n/a	catFR1	1	R1138T
1107.95	6.135	1298563	PROB	6.101	n/a	n/a	n/a	-999	10	[9, 3, 4]	16.0	catFR1	1	R1138T
1114.085	3.034	1304697	PROB	3.006	n/a	n/a	n/a	-999	10	[3, 4, 5]	12.0	catFR1	1	R1138T
1117.119	3.55	1307731	PROB	3.516	n/a	n/a	n/a	-999	10	[7, 2, 5]	14.0	catFR1	1	R1138T
1120.669	7.018	1311281	PROB	6.99	n/a	n/a	n/a	-999	10	[4, 7, 9]	20.0	catFR1	1	R1138T
1127.687	4.332	1318299	PROB	4.332	n/a	n/a	n/a	-999	10	[9, 1, 7]	17.0	catFR1	1	R1138T
1132.019	0.019	1322630	STOP	n/a	n/a	n/a	n/a	-999	10	[-999, -999, -999]	n/a	catFR1	1	R1138T
1132.038	1.167	1322649	DISTRACT_END	n/a	n/a	n/a	n/a	-999	10	[0, 0, 0]	n/a	catFR1	1	R1138T
1133.205	1.276	1323816	REC_START	n/a	n/a	n/a	n/a	-999	10	[0, 0, 0]	n/a	catFR1	1	R1138T
1134.481	28.74	1325092	REC_WORD	1.276	n/a	JEANS	Clothing	10	10	[0, 0, 0]	n/a	catFR1	1	R1138T
1163.221	164.185	1353831	REC_END	n/a	n/a	n/a	n/a	-999	10	[0, 0, 0]	n/a	catFR1	1	R1138T
1327.406	0.0	1518008	TRIAL	n/a	n/a	n/a	n/a	-999	11	[0, 0, 0]	n/a	catFR1	1	R1138T
1327.406	162313.31	1518008	COUNTDOWN_START	n/a	n/a	n/a	n/a	-999	11	[0, 0, 0]	n/a	catFR1	1	R1138T
163640.716	0.0	-1	SESSION_SKIPPED	n/a	n/a	n/a	n/a	-999	11	[0, 0, 0]	n/a	catFR1	1	R1138T
