onset	duration	sample	trial_type	response_time	stim_file	item_name	category	serialpos	list	test	answer	experiment	session	subject
0.0	164.841	35700	INSTRUCT_START	n/a	n/a	n/a	n/a	-999	-999	[0, 0, 0]	n/a	catFR1	0	R1405E
164.841	56.048	200543	INSTRUCT_END	n/a	n/a	n/a	n/a	-999	-999	[0, 0, 0]	n/a	catFR1	0	R1405E
220.889	10.401	256585	COUNTDOWN_START	n/a	n/a	n/a	n/a	-999	-999	[0, 0, 0]	n/a	catFR1	0	R1405E
231.29	0.0	266984	COUNTDOWN_END	n/a	n/a	n/a	n/a	-999	-999	[0, 0, 0]	n/a	catFR1	0	R1405E
231.29	2.033	266984	ENCODING_START	n/a	n/a	n/a	n/a	-999	-1	[0, 0, 0]	n/a	catFR1	0	R1405E
233.323	1.616	269014	WORD	n/a	n/a	COFFEE	Beverages	1	-1	[0, 0, 0]	n/a	catFR1	0	R1405E
234.939	0.9	270633	WORD_OFF	n/a	n/a	COFFEE	Beverages	1	-1	[0, 0, 0]	n/a	catFR1	0	R1405E
235.839	1.616	271534	WORD	n/a	n/a	COLA	Beverages	2	-1	[0, 0, 0]	n/a	catFR1	0	R1405E
237.455	1.0	273153	WORD_OFF	n/a	n/a	COLA	Beverages	2	-1	[0, 0, 0]	n/a	catFR1	0	R1405E
238.455	1.616	274156	WORD	n/a	n/a	DRESSER	Furniture	3	-1	[0, 0, 0]	n/a	catFR1	0	R1405E
240.071	0.751	275764	WORD_OFF	n/a	n/a	DRESSER	Furniture	3	-1	[0, 0, 0]	n/a	catFR1	0	R1405E
240.822	1.616	276516	WORD	n/a	n/a	BOOKCASE	Furniture	4	-1	[0, 0, 0]	n/a	catFR1	0	R1405E
242.438	0.817	278136	WORD_OFF	n/a	n/a	BOOKCASE	Furniture	4	-1	[0, 0, 0]	n/a	catFR1	0	R1405E
243.255	1.6	278945	WORD	n/a	n/a	FREEZER	Appliances	5	-1	[0, 0, 0]	n/a	catFR1	0	R1405E
244.855	0.917	280553	WORD_OFF	n/a	n/a	FREEZER	Appliances	5	-1	[0, 0, 0]	n/a	catFR1	0	R1405E
245.772	1.616	281465	WORD	n/a	n/a	TOASTER	Appliances	6	-1	[0, 0, 0]	n/a	catFR1	0	R1405E
247.388	1.0	283084	WORD_OFF	n/a	n/a	TOASTER	Appliances	6	-1	[0, 0, 0]	n/a	catFR1	0	R1405E
248.388	1.617	284088	WORD	n/a	n/a	DESK	Furniture	7	-1	[0, 0, 0]	n/a	catFR1	0	R1405E
250.005	0.916	285695	WORD_OFF	n/a	n/a	DESK	Furniture	7	-1	[0, 0, 0]	n/a	catFR1	0	R1405E
250.921	1.6	286619	WORD	n/a	n/a	RECLINER	Furniture	8	-1	[0, 0, 0]	n/a	catFR1	0	R1405E
252.521	1.0	288215	WORD_OFF	n/a	n/a	RECLINER	Furniture	8	-1	[0, 0, 0]	n/a	catFR1	0	R1405E
253.521	1.6	289219	WORD	n/a	n/a	RUM	Beverages	9	-1	[0, 0, 0]	n/a	catFR1	0	R1405E
255.121	0.799	290815	WORD_OFF	n/a	n/a	RUM	Beverages	9	-1	[0, 0, 0]	n/a	catFR1	0	R1405E
255.92	1.601	291613	WORD	n/a	n/a	MILK	Beverages	10	-1	[0, 0, 0]	n/a	catFR1	0	R1405E
257.521	0.783	293221	WORD_OFF	n/a	n/a	MILK	Beverages	10	-1	[0, 0, 0]	n/a	catFR1	0	R1405E
258.304	1.6	293996	WORD	n/a	n/a	MIXER	Appliances	11	-1	[0, 0, 0]	n/a	catFR1	0	R1405E
259.904	0.983	295604	WORD_OFF	n/a	n/a	MIXER	Appliances	11	-1	[0, 0, 0]	n/a	catFR1	0	R1405E
260.887	1.618	296585	WORD	n/a	n/a	DRYER	Appliances	12	-1	[0, 0, 0]	n/a	catFR1	0	R1405E
262.505	0.0	298200	START	n/a	n/a	n/a	n/a	-999	-1	[-999, -999, -999]	n/a	catFR1	0	R1405E
262.505	0.0	298200	PROB	10.783	n/a	n/a	n/a	-999	-1	[8, 2, 8]	10.0	catFR1	0	R1405E
262.503	0.002	298204	WORD_OFF	n/a	n/a	DRYER	Appliances	12	-1	[0, 0, 0]	n/a	catFR1	0	R1405E
262.505	0.0	298204	ENCODING_END	n/a	n/a	n/a	n/a	-999	-1	[0, 0, 0]	n/a	catFR1	0	R1405E
262.505	10.799	298204	DISTRACT_START	n/a	n/a	n/a	n/a	-999	-1	[0, 0, 0]	n/a	catFR1	0	R1405E
273.304	3.482	308999	PROB	3.466	n/a	n/a	n/a	-999	-1	[1, 1, 7]	9.0	catFR1	0	R1405E
276.786	3.701	312481	PROB	3.684	n/a	n/a	n/a	-999	-1	[4, 3, 1]	8.0	catFR1	0	R1405E
280.487	6.249	316182	PROB	6.233	n/a	n/a	n/a	-999	-1	[3, 4, 6]	13.0	catFR1	0	R1405E
286.736	0.0	322431	STOP	n/a	n/a	n/a	n/a	-999	-1	[-999, -999, -999]	n/a	catFR1	0	R1405E
286.736	2.233	322433	DISTRACT_END	n/a	n/a	n/a	n/a	-999	-1	[0, 0, 0]	n/a	catFR1	0	R1405E
288.969	29.999	324665	REC_START	n/a	n/a	n/a	n/a	-999	-1	[0, 0, 0]	n/a	catFR1	0	R1405E
318.968	0.268	354663	REC_WORD_VV	29.999	n/a	<>	n/a	-999	-1	[0, 0, 0]	n/a	catFR1	0	R1405E
319.236	108.745	354930	REC_END	n/a	n/a	n/a	n/a	-999	-1	[0, 0, 0]	n/a	catFR1	0	R1405E
427.981	10.351	463674	COUNTDOWN_START	n/a	n/a	n/a	n/a	-999	1	[0, 0, 0]	n/a	catFR1	0	R1405E
438.332	0.0	474027	COUNTDOWN_END	n/a	n/a	n/a	n/a	-999	1	[0, 0, 0]	n/a	catFR1	0	R1405E
438.332	2.016	474027	ENCODING_START	n/a	n/a	n/a	n/a	-999	1	[0, 0, 0]	n/a	catFR1	0	R1405E
440.348	1.616	476045	WORD	n/a	wordpools/wordpool_categorized_EN.txt	DOLPHIN	OceanAnimals	1	1	[0, 0, 0]	n/a	catFR1	0	R1405E
441.964	0.85	477664	WORD_OFF	n/a	n/a	DOLPHIN	OceanAnimals	1	1	[0, 0, 0]	n/a	catFR1	0	R1405E
442.814	1.617	478508	WORD	n/a	wordpools/wordpool_categorized_EN.txt	OYSTER	OceanAnimals	2	1	[0, 0, 0]	n/a	catFR1	0	R1405E
444.431	0.933	480127	WORD_OFF	n/a	n/a	OYSTER	OceanAnimals	2	1	[0, 0, 0]	n/a	catFR1	0	R1405E
445.364	1.617	481062	WORD	n/a	wordpools/wordpool_categorized_EN.txt	TRUCK	Vehicles	3	1	[0, 0, 0]	n/a	catFR1	0	R1405E
446.981	0.816	482681	WORD_OFF	n/a	n/a	TRUCK	Vehicles	3	1	[0, 0, 0]	n/a	catFR1	0	R1405E
447.797	1.617	483491	WORD	n/a	wordpools/wordpool_categorized_EN.txt	MOPED	Vehicles	4	1	[0, 0, 0]	n/a	catFR1	0	R1405E
449.414	0.8	485110	WORD_OFF	n/a	n/a	MOPED	Vehicles	4	1	[0, 0, 0]	n/a	catFR1	0	R1405E
450.214	1.616	485908	WORD	n/a	wordpools/wordpool_categorized_EN.txt	BLUEBIRD	Birds	5	1	[0, 0, 0]	n/a	catFR1	0	R1405E
451.83	0.934	487527	WORD_OFF	n/a	n/a	BLUEBIRD	Birds	5	1	[0, 0, 0]	n/a	catFR1	0	R1405E
452.764	1.616	488462	WORD	n/a	wordpools/wordpool_categorized_EN.txt	SPARROW	Birds	6	1	[0, 0, 0]	n/a	catFR1	0	R1405E
454.38	0.867	490081	WORD_OFF	n/a	n/a	SPARROW	Birds	6	1	[0, 0, 0]	n/a	catFR1	0	R1405E
455.247	1.6	490948	WORD	n/a	wordpools/wordpool_categorized_EN.txt	SQUID	OceanAnimals	7	1	[0, 0, 0]	n/a	catFR1	0	R1405E
456.847	0.866	492544	WORD_OFF	n/a	n/a	SQUID	OceanAnimals	7	1	[0, 0, 0]	n/a	catFR1	0	R1405E
457.713	1.616	493411	WORD	n/a	wordpools/wordpool_categorized_EN.txt	WHALE	OceanAnimals	8	1	[0, 0, 0]	n/a	catFR1	0	R1405E
459.329	0.767	495030	WORD_OFF	n/a	n/a	WHALE	OceanAnimals	8	1	[0, 0, 0]	n/a	catFR1	0	R1405E
460.096	1.617	495794	WORD	n/a	wordpools/wordpool_categorized_EN.txt	ROBIN	Birds	9	1	[0, 0, 0]	n/a	catFR1	0	R1405E
461.713	0.95	497413	WORD_OFF	n/a	n/a	ROBIN	Birds	9	1	[0, 0, 0]	n/a	catFR1	0	R1405E
462.663	1.617	498359	WORD	n/a	wordpools/wordpool_categorized_EN.txt	PIGEON	Birds	10	1	[0, 0, 0]	n/a	catFR1	0	R1405E
464.28	0.984	499979	WORD_OFF	n/a	n/a	PIGEON	Birds	10	1	[0, 0, 0]	n/a	catFR1	0	R1405E
465.264	1.6	500959	WORD	n/a	wordpools/wordpool_categorized_EN.txt	BOAT	Vehicles	11	1	[0, 0, 0]	n/a	catFR1	0	R1405E
466.864	0.983	502555	WORD_OFF	n/a	n/a	BOAT	Vehicles	11	1	[0, 0, 0]	n/a	catFR1	0	R1405E
467.847	1.617	503547	WORD	n/a	wordpools/wordpool_categorized_EN.txt	BUS	Vehicles	12	1	[0, 0, 0]	n/a	catFR1	0	R1405E
469.464	0.003	505160	PROB	4.333	n/a	n/a	n/a	-999	1	[2, 8, 5]	15.0	catFR1	0	R1405E
469.467	0.0	505163	START	n/a	n/a	n/a	n/a	-999	1	[-999, -999, -999]	n/a	catFR1	0	R1405E
469.466	0.001	505167	WORD_OFF	n/a	n/a	BUS	Vehicles	12	1	[0, 0, 0]	n/a	catFR1	0	R1405E
469.467	0.0	505167	ENCODING_END	n/a	n/a	n/a	n/a	-999	1	[0, 0, 0]	n/a	catFR1	0	R1405E
469.467	4.347	505167	DISTRACT_START	n/a	n/a	n/a	n/a	-999	1	[0, 0, 0]	n/a	catFR1	0	R1405E
473.814	3.167	509510	PROB	3.149	n/a	n/a	n/a	-999	1	[6, 1, 1]	8.0	catFR1	0	R1405E
476.981	3.066	512677	PROB	3.049	n/a	n/a	n/a	-999	1	[1, 1, 3]	5.0	catFR1	0	R1405E
480.047	3.55	515743	PROB	3.533	n/a	n/a	n/a	-999	1	[4, 2, 4]	10.0	catFR1	0	R1405E
483.597	4.299	519293	PROB	4.282	n/a	n/a	n/a	-999	1	[1, 8, 8]	17.0	catFR1	0	R1405E
487.896	10.917	523592	PROB	10.9	n/a	n/a	n/a	-999	1	[8, 1, 6]	15.0	catFR1	0	R1405E
498.813	0.0	534505	DISTRACT_END	n/a	n/a	n/a	n/a	-999	1	[0, 0, 0]	n/a	catFR1	0	R1405E
498.813	2.166	534509	STOP	n/a	n/a	n/a	n/a	-999	1	[-999, -999, -999]	n/a	catFR1	0	R1405E
500.979	1.805	536679	REC_START	n/a	n/a	n/a	n/a	-999	1	[0, 0, 0]	n/a	catFR1	0	R1405E
502.784	1.614	538480	REC_WORD	1.805	n/a	BUS	Vehicles	12	1	[0, 0, 0]	n/a	catFR1	0	R1405E
504.398	12.968	540094	REC_WORD	3.419	n/a	OYSTER	OceanAnimals	2	1	[0, 0, 0]	n/a	catFR1	0	R1405E
517.366	13.856	553062	REC_WORD	16.387	n/a	BLUEBIRD	Birds	5	1	[0, 0, 0]	n/a	catFR1	0	R1405E
531.222	7.606	566921	REC_END	n/a	n/a	n/a	n/a	-999	1	[0, 0, 0]	n/a	catFR1	0	R1405E
538.828	10.349	574527	COUNTDOWN_START	n/a	n/a	n/a	n/a	-999	2	[0, 0, 0]	n/a	catFR1	0	R1405E
549.177	0.001	584869	COUNTDOWN_END	n/a	n/a	n/a	n/a	-999	2	[0, 0, 0]	n/a	catFR1	0	R1405E
549.178	2.182	584880	ENCODING_START	n/a	n/a	n/a	n/a	-999	2	[0, 0, 0]	n/a	catFR1	0	R1405E
551.36	1.617	587058	WORD	n/a	wordpools/wordpool_categorized_EN.txt	FOUNDATION	Building	1	2	[0, 0, 0]	n/a	catFR1	0	R1405E
552.977	0.8	588677	WORD_OFF	n/a	n/a	FOUNDATION	Building	1	2	[0, 0, 0]	n/a	catFR1	0	R1405E
553.777	1.616	589475	WORD	n/a	wordpools/wordpool_categorized_EN.txt	STAIRS	Building	2	2	[0, 0, 0]	n/a	catFR1	0	R1405E
555.393	0.784	591094	WORD_OFF	n/a	n/a	STAIRS	Building	2	2	[0, 0, 0]	n/a	catFR1	0	R1405E
556.177	1.617	591870	WORD	n/a	wordpools/wordpool_categorized_EN.txt	BED	Furniture	3	2	[0, 0, 0]	n/a	catFR1	0	R1405E
557.794	0.933	593489	WORD_OFF	n/a	n/a	BED	Furniture	3	2	[0, 0, 0]	n/a	catFR1	0	R1405E
558.727	1.616	594424	WORD	n/a	wordpools/wordpool_categorized_EN.txt	CABINET	Furniture	4	2	[0, 0, 0]	n/a	catFR1	0	R1405E
560.343	1.001	596043	WORD_OFF	n/a	n/a	CABINET	Furniture	4	2	[0, 0, 0]	n/a	catFR1	0	R1405E
561.344	1.616	597046	WORD	n/a	wordpools/wordpool_categorized_EN.txt	HEADPHONES	Electronics	5	2	[0, 0, 0]	n/a	catFR1	0	R1405E
562.96	0.816	598654	WORD_OFF	n/a	n/a	HEADPHONES	Electronics	5	2	[0, 0, 0]	n/a	catFR1	0	R1405E
563.776	1.601	599475	WORD	n/a	wordpools/wordpool_categorized_EN.txt	CALCULATOR	Electronics	6	2	[0, 0, 0]	n/a	catFR1	0	R1405E
565.377	0.899	601071	WORD_OFF	n/a	n/a	CALCULATOR	Electronics	6	2	[0, 0, 0]	n/a	catFR1	0	R1405E
566.276	1.601	601972	WORD	n/a	wordpools/wordpool_categorized_EN.txt	TABLE	Furniture	7	2	[0, 0, 0]	n/a	catFR1	0	R1405E
567.877	0.899	603568	WORD_OFF	n/a	n/a	TABLE	Furniture	7	2	[0, 0, 0]	n/a	catFR1	0	R1405E
568.776	1.601	604469	WORD	n/a	wordpools/wordpool_categorized_EN.txt	NIGHTSTAND	Furniture	8	2	[0, 0, 0]	n/a	catFR1	0	R1405E
570.377	0.9	606077	WORD_OFF	n/a	n/a	NIGHTSTAND	Furniture	8	2	[0, 0, 0]	n/a	catFR1	0	R1405E
571.277	1.617	606978	WORD	n/a	wordpools/wordpool_categorized_EN.txt	DOOR	Building	9	2	[0, 0, 0]	n/a	catFR1	0	R1405E
572.894	0.799	608585	WORD_OFF	n/a	n/a	DOOR	Building	9	2	[0, 0, 0]	n/a	catFR1	0	R1405E
573.693	1.617	609395	WORD	n/a	wordpools/wordpool_categorized_EN.txt	ATTIC	Building	10	2	[0, 0, 0]	n/a	catFR1	0	R1405E
575.31	1.0	611003	WORD_OFF	n/a	n/a	ATTIC	Building	10	2	[0, 0, 0]	n/a	catFR1	0	R1405E
576.31	1.617	612006	WORD	n/a	wordpools/wordpool_categorized_EN.txt	TELEVISION	Electronics	11	2	[0, 0, 0]	n/a	catFR1	0	R1405E
577.927	0.799	613625	WORD_OFF	n/a	n/a	TELEVISION	Electronics	11	2	[0, 0, 0]	n/a	catFR1	0	R1405E
578.726	1.6	614423	WORD	n/a	wordpools/wordpool_categorized_EN.txt	STEREO	Electronics	12	2	[0, 0, 0]	n/a	catFR1	0	R1405E
580.326	0.002	616020	WORD_OFF	n/a	n/a	STEREO	Electronics	12	2	[0, 0, 0]	n/a	catFR1	0	R1405E
580.328	0.0	616020	ENCODING_END	n/a	n/a	n/a	n/a	-999	2	[0, 0, 0]	n/a	catFR1	0	R1405E
580.328	0.002	616024	START	n/a	n/a	n/a	n/a	-999	2	[-999, -999, -999]	n/a	catFR1	0	R1405E
580.33	0.0	616026	PROB	3.132	n/a	n/a	n/a	-999	2	[1, 7, 1]	9.0	catFR1	0	R1405E
580.328	3.148	616031	DISTRACT_START	n/a	n/a	n/a	n/a	-999	2	[0, 0, 0]	n/a	catFR1	0	R1405E
583.476	5.185	619172	PROB	5.166	n/a	n/a	n/a	-999	2	[1, 4, 5]	10.0	catFR1	0	R1405E
588.661	4.682	624357	PROB	4.665	n/a	n/a	n/a	-999	2	[2, 7, 2]	11.0	catFR1	0	R1405E
593.343	5.5	629039	PROB	5.483	n/a	n/a	n/a	-999	2	[7, 4, 8]	19.0	catFR1	0	R1405E
598.843	5.115	634539	PROB	5.099	n/a	n/a	n/a	-999	2	[3, 6, 7]	16.0	catFR1	0	R1405E
603.958	0.0	639654	STOP	n/a	n/a	n/a	n/a	-999	2	[-999, -999, -999]	n/a	catFR1	0	R1405E
603.958	2.301	639657	DISTRACT_END	n/a	n/a	n/a	n/a	-999	2	[0, 0, 0]	n/a	catFR1	0	R1405E
606.259	2.01	641956	REC_START	n/a	n/a	n/a	n/a	-999	2	[0, 0, 0]	n/a	catFR1	0	R1405E
608.269	3.535	643965	REC_WORD	2.01	n/a	TABLE	Furniture	7	2	[0, 0, 0]	n/a	catFR1	0	R1405E
611.804	11.905	647500	REC_WORD	5.545	n/a	NIGHTSTAND	Furniture	8	2	[0, 0, 0]	n/a	catFR1	0	R1405E
623.709	12.798	659405	REC_WORD	17.45	n/a	DOLPHIN	OceanAnimals	-999	2	[0, 0, 0]	n/a	catFR1	0	R1405E
636.507	4.65	672199	REC_END	n/a	n/a	n/a	n/a	-999	2	[0, 0, 0]	n/a	catFR1	0	R1405E
641.157	10.35	676851	COUNTDOWN_START	n/a	n/a	n/a	n/a	-999	3	[0, 0, 0]	n/a	catFR1	0	R1405E
651.507	0.0	687204	COUNTDOWN_END	n/a	n/a	n/a	n/a	-999	3	[0, 0, 0]	n/a	catFR1	0	R1405E
651.507	2.149	687204	ENCODING_START	n/a	n/a	n/a	n/a	-999	3	[0, 0, 0]	n/a	catFR1	0	R1405E
653.656	1.617	689348	WORD	n/a	wordpools/wordpool_categorized_EN.txt	BEAR	Zoo	1	3	[0, 0, 0]	n/a	catFR1	0	R1405E
655.273	0.95	690967	WORD_OFF	n/a	n/a	BEAR	Zoo	1	3	[0, 0, 0]	n/a	catFR1	0	R1405E
656.223	1.601	691925	WORD	n/a	wordpools/wordpool_categorized_EN.txt	MONKEY	Zoo	2	3	[0, 0, 0]	n/a	catFR1	0	R1405E
657.824	1.0	693521	WORD_OFF	n/a	n/a	MONKEY	Zoo	2	3	[0, 0, 0]	n/a	catFR1	0	R1405E
658.824	1.616	694524	WORD	n/a	wordpools/wordpool_categorized_EN.txt	COLANDER	KitchenTools	3	3	[0, 0, 0]	n/a	catFR1	0	R1405E
660.44	0.767	696132	WORD_OFF	n/a	n/a	COLANDER	KitchenTools	3	3	[0, 0, 0]	n/a	catFR1	0	R1405E
661.207	1.6	696908	WORD	n/a	wordpools/wordpool_categorized_EN.txt	WHISK	KitchenTools	4	3	[0, 0, 0]	n/a	catFR1	0	R1405E
662.807	0.833	698504	WORD_OFF	n/a	n/a	WHISK	KitchenTools	4	3	[0, 0, 0]	n/a	catFR1	0	R1405E
663.64	1.6	699336	WORD	n/a	wordpools/wordpool_categorized_EN.txt	SPRUCE	Trees	5	3	[0, 0, 0]	n/a	catFR1	0	R1405E
665.24	0.95	700933	WORD_OFF	n/a	n/a	SPRUCE	Trees	5	3	[0, 0, 0]	n/a	catFR1	0	R1405E
666.19	1.619	701890	WORD	n/a	wordpools/wordpool_categorized_EN.txt	HICKORY	Trees	6	3	[0, 0, 0]	n/a	catFR1	0	R1405E
667.809	0.997	703509	WORD_OFF	n/a	n/a	HICKORY	Trees	6	3	[0, 0, 0]	n/a	catFR1	0	R1405E
668.806	1.6	704501	WORD	n/a	wordpools/wordpool_categorized_EN.txt	PEELER	KitchenTools	7	3	[0, 0, 0]	n/a	catFR1	0	R1405E
670.406	0.901	706098	WORD_OFF	n/a	n/a	PEELER	KitchenTools	7	3	[0, 0, 0]	n/a	catFR1	0	R1405E
671.307	1.616	706999	WORD	n/a	wordpools/wordpool_categorized_EN.txt	STRAINER	KitchenTools	8	3	[0, 0, 0]	n/a	catFR1	0	R1405E
672.923	0.85	708618	WORD_OFF	n/a	n/a	STRAINER	KitchenTools	8	3	[0, 0, 0]	n/a	catFR1	0	R1405E
673.773	1.6	709473	WORD	n/a	wordpools/wordpool_categorized_EN.txt	CYPRESS	Trees	9	3	[0, 0, 0]	n/a	catFR1	0	R1405E
675.373	0.933	711069	WORD_OFF	n/a	n/a	CYPRESS	Trees	9	3	[0, 0, 0]	n/a	catFR1	0	R1405E
676.306	1.6	712004	WORD	n/a	wordpools/wordpool_categorized_EN.txt	EVERGREEN	Trees	10	3	[0, 0, 0]	n/a	catFR1	0	R1405E
677.906	0.85	713600	WORD_OFF	n/a	n/a	EVERGREEN	Trees	10	3	[0, 0, 0]	n/a	catFR1	0	R1405E
678.756	1.617	714456	WORD	n/a	wordpools/wordpool_categorized_EN.txt	ELEPHANT	Zoo	11	3	[0, 0, 0]	n/a	catFR1	0	R1405E
680.373	0.967	716075	WORD_OFF	n/a	n/a	ELEPHANT	Zoo	11	3	[0, 0, 0]	n/a	catFR1	0	R1405E
681.34	1.601	717033	WORD	n/a	wordpools/wordpool_categorized_EN.txt	GIRAFFE	Zoo	12	3	[0, 0, 0]	n/a	catFR1	0	R1405E
682.941	0.001	718637	START	n/a	n/a	n/a	n/a	-999	3	[-999, -999, -999]	n/a	catFR1	0	R1405E
682.942	0.0	718638	PROB	5.915	n/a	n/a	n/a	-999	3	[3, 7, 5]	18.0	catFR1	0	R1405E
682.94	0.001	718640	WORD_OFF	n/a	n/a	GIRAFFE	Zoo	12	3	[0, 0, 0]	n/a	catFR1	0	R1405E
682.941	0.0	718640	ENCODING_END	n/a	n/a	n/a	n/a	-999	3	[0, 0, 0]	n/a	catFR1	0	R1405E
682.941	5.932	718640	DISTRACT_START	n/a	n/a	n/a	n/a	-999	3	[0, 0, 0]	n/a	catFR1	0	R1405E
688.873	10.566	724569	PROB	10.549	n/a	n/a	n/a	-999	3	[7, 5, 1]	14.0	catFR1	0	R1405E
699.439	4.782	735135	PROB	4.766	n/a	n/a	n/a	-999	3	[2, 8, 3]	13.0	catFR1	0	R1405E
704.221	0.0	739917	DISTRACT_END	n/a	n/a	n/a	n/a	-999	3	[0, 0, 0]	n/a	catFR1	0	R1405E
704.221	2.384	739917	STOP	n/a	n/a	n/a	n/a	-999	3	[-999, -999, -999]	n/a	catFR1	0	R1405E
706.605	20.936	742297	REC_START	n/a	n/a	n/a	n/a	-999	3	[0, 0, 0]	n/a	catFR1	0	R1405E
727.541	9.31	763237	REC_WORD	20.936	n/a	CYPRESS	Trees	9	3	[0, 0, 0]	n/a	catFR1	0	R1405E
736.851	4.72	772550	REC_END	n/a	n/a	n/a	n/a	-999	3	[0, 0, 0]	n/a	catFR1	0	R1405E
741.571	10.35	777271	COUNTDOWN_START	n/a	n/a	n/a	n/a	-999	4	[0, 0, 0]	n/a	catFR1	0	R1405E
751.921	0.0	787613	COUNTDOWN_END	n/a	n/a	n/a	n/a	-999	4	[0, 0, 0]	n/a	catFR1	0	R1405E
751.921	2.082	787624	ENCODING_START	n/a	n/a	n/a	n/a	-999	4	[0, 0, 0]	n/a	catFR1	0	R1405E
754.003	1.6	789699	WORD	n/a	wordpools/wordpool_categorized_EN.txt	PEN	OfficeSupplies	1	4	[0, 0, 0]	n/a	catFR1	0	R1405E
755.603	0.95	791296	WORD_OFF	n/a	n/a	PEN	OfficeSupplies	1	4	[0, 0, 0]	n/a	catFR1	0	R1405E
756.553	1.601	792253	WORD	n/a	wordpools/wordpool_categorized_EN.txt	PENCIL	OfficeSupplies	2	4	[0, 0, 0]	n/a	catFR1	0	R1405E
758.154	0.766	793850	WORD_OFF	n/a	n/a	PENCIL	OfficeSupplies	2	4	[0, 0, 0]	n/a	catFR1	0	R1405E
758.92	1.617	794614	WORD	n/a	wordpools/wordpool_categorized_EN.txt	CHICKEN	FarmAnimals	3	4	[0, 0, 0]	n/a	catFR1	0	R1405E
760.537	0.883	796233	WORD_OFF	n/a	n/a	CHICKEN	FarmAnimals	3	4	[0, 0, 0]	n/a	catFR1	0	R1405E
761.42	1.617	797122	WORD	n/a	wordpools/wordpool_categorized_EN.txt	CALF	FarmAnimals	4	4	[0, 0, 0]	n/a	catFR1	0	R1405E
763.037	0.9	798730	WORD_OFF	n/a	n/a	CALF	FarmAnimals	4	4	[0, 0, 0]	n/a	catFR1	0	R1405E
763.937	1.616	799631	WORD	n/a	wordpools/wordpool_categorized_EN.txt	TABLET	Electronics	5	4	[0, 0, 0]	n/a	catFR1	0	R1405E
765.553	0.949	801250	WORD_OFF	n/a	n/a	TABLET	Electronics	5	4	[0, 0, 0]	n/a	catFR1	0	R1405E
766.502	1.601	802196	WORD	n/a	wordpools/wordpool_categorized_EN.txt	SPEAKER	Electronics	6	4	[0, 0, 0]	n/a	catFR1	0	R1405E
768.103	0.916	803804	WORD_OFF	n/a	n/a	SPEAKER	Electronics	6	4	[0, 0, 0]	n/a	catFR1	0	R1405E
769.019	1.617	804716	WORD	n/a	wordpools/wordpool_categorized_EN.txt	BINDER	OfficeSupplies	7	4	[0, 0, 0]	n/a	catFR1	0	R1405E
770.636	0.917	806335	WORD_OFF	n/a	n/a	BINDER	OfficeSupplies	7	4	[0, 0, 0]	n/a	catFR1	0	R1405E
771.553	1.616	807247	WORD	n/a	wordpools/wordpool_categorized_EN.txt	NOTEBOOK	OfficeSupplies	8	4	[0, 0, 0]	n/a	catFR1	0	R1405E
773.169	0.883	808867	WORD_OFF	n/a	n/a	NOTEBOOK	OfficeSupplies	8	4	[0, 0, 0]	n/a	catFR1	0	R1405E
774.052	1.601	809745	WORD	n/a	wordpools/wordpool_categorized_EN.txt	ROOSTER	FarmAnimals	9	4	[0, 0, 0]	n/a	catFR1	0	R1405E
775.653	0.916	811352	WORD_OFF	n/a	n/a	ROOSTER	FarmAnimals	9	4	[0, 0, 0]	n/a	catFR1	0	R1405E
776.569	1.6	812264	WORD	n/a	wordpools/wordpool_categorized_EN.txt	HEN	FarmAnimals	10	4	[0, 0, 0]	n/a	catFR1	0	R1405E
778.169	0.984	813872	WORD_OFF	n/a	n/a	HEN	FarmAnimals	10	4	[0, 0, 0]	n/a	catFR1	0	R1405E
779.153	1.616	814853	WORD	n/a	wordpools/wordpool_categorized_EN.txt	RADIO	Electronics	11	4	[0, 0, 0]	n/a	catFR1	0	R1405E
780.769	0.95	816461	WORD_OFF	n/a	n/a	RADIO	Electronics	11	4	[0, 0, 0]	n/a	catFR1	0	R1405E
781.719	1.6	817418	WORD	n/a	wordpools/wordpool_categorized_EN.txt	COMPUTER	Electronics	12	4	[0, 0, 0]	n/a	catFR1	0	R1405E
783.319	0.002	819015	WORD_OFF	n/a	n/a	COMPUTER	Electronics	12	4	[0, 0, 0]	n/a	catFR1	0	R1405E
783.321	0.0	819015	ENCODING_END	n/a	n/a	n/a	n/a	-999	4	[0, 0, 0]	n/a	catFR1	0	R1405E
783.321	0.0	819015	DISTRACT_START	n/a	n/a	n/a	n/a	-999	4	[0, 0, 0]	n/a	catFR1	0	R1405E
783.32	0.001	819016	PROB	4.449	n/a	n/a	n/a	-999	4	[4, 3, 3]	10.0	catFR1	0	R1405E
783.321	4.465	819017	START	n/a	n/a	n/a	n/a	-999	4	[-999, -999, -999]	n/a	catFR1	0	R1405E
787.786	3.717	823482	PROB	3.698	n/a	n/a	n/a	-999	4	[4, 1, 2]	7.0	catFR1	0	R1405E
791.503	9.083	827199	PROB	9.066	n/a	n/a	n/a	-999	4	[6, 3, 3]	12.0	catFR1	0	R1405E
800.586	4.732	836282	PROB	4.715	n/a	n/a	n/a	-999	4	[2, 7, 8]	17.0	catFR1	0	R1405E
805.318	0.0	841010	DISTRACT_END	n/a	n/a	n/a	n/a	-999	4	[0, 0, 0]	n/a	catFR1	0	R1405E
805.318	2.283	841014	STOP	n/a	n/a	n/a	n/a	-999	4	[-999, -999, -999]	n/a	catFR1	0	R1405E
807.601	1.491	843298	REC_START	n/a	n/a	n/a	n/a	-999	4	[0, 0, 0]	n/a	catFR1	0	R1405E
809.092	0.74	844788	REC_WORD	1.491	n/a	PEN	OfficeSupplies	1	4	[0, 0, 0]	n/a	catFR1	0	R1405E
809.832	2.567	845528	REC_WORD	2.231	n/a	PENCIL	OfficeSupplies	2	4	[0, 0, 0]	n/a	catFR1	0	R1405E
812.399	2.083	848095	REC_WORD	4.798	n/a	NOTEBOOK	OfficeSupplies	8	4	[0, 0, 0]	n/a	catFR1	0	R1405E
814.482	16.603	850178	REC_WORD	6.881	n/a	COMPUTER	Electronics	12	4	[0, 0, 0]	n/a	catFR1	0	R1405E
831.085	6.761	866781	REC_WORD	23.484	n/a	TABLET	Electronics	5	4	[0, 0, 0]	n/a	catFR1	0	R1405E
837.846	3.47	873540	REC_END	n/a	n/a	n/a	n/a	-999	4	[0, 0, 0]	n/a	catFR1	0	R1405E
841.316	10.352	877018	COUNTDOWN_START	n/a	n/a	n/a	n/a	-999	5	[0, 0, 0]	n/a	catFR1	0	R1405E
851.668	0.0	887360	COUNTDOWN_END	n/a	n/a	n/a	n/a	-999	5	[0, 0, 0]	n/a	catFR1	0	R1405E
851.668	2.165	887371	ENCODING_START	n/a	n/a	n/a	n/a	-999	5	[0, 0, 0]	n/a	catFR1	0	R1405E
853.833	1.616	889526	WORD	n/a	wordpools/wordpool_categorized_EN.txt	TOE	BodyParts	1	5	[0, 0, 0]	n/a	catFR1	0	R1405E
855.449	0.834	891146	WORD_OFF	n/a	n/a	TOE	BodyParts	1	5	[0, 0, 0]	n/a	catFR1	0	R1405E
856.283	1.616	891978	WORD	n/a	wordpools/wordpool_categorized_EN.txt	KNEE	BodyParts	2	5	[0, 0, 0]	n/a	catFR1	0	R1405E
857.899	0.834	893597	WORD_OFF	n/a	n/a	KNEE	BodyParts	2	5	[0, 0, 0]	n/a	catFR1	0	R1405E
858.733	1.6	894429	WORD	n/a	wordpools/wordpool_categorized_EN.txt	TURKEY	FarmAnimals	3	5	[0, 0, 0]	n/a	catFR1	0	R1405E
860.333	0.767	896026	WORD_OFF	n/a	n/a	TURKEY	FarmAnimals	3	5	[0, 0, 0]	n/a	catFR1	0	R1405E
861.1	1.616	896801	WORD	n/a	wordpools/wordpool_categorized_EN.txt	COW	FarmAnimals	4	5	[0, 0, 0]	n/a	catFR1	0	R1405E
862.716	0.933	898409	WORD_OFF	n/a	n/a	COW	FarmAnimals	4	5	[0, 0, 0]	n/a	catFR1	0	R1405E
863.649	1.616	899344	WORD	n/a	wordpools/wordpool_categorized_EN.txt	TRUMPET	Instruments	5	5	[0, 0, 0]	n/a	catFR1	0	R1405E
865.265	0.834	900963	WORD_OFF	n/a	n/a	TRUMPET	Instruments	5	5	[0, 0, 0]	n/a	catFR1	0	R1405E
866.099	1.601	901795	WORD	n/a	wordpools/wordpool_categorized_EN.txt	FLUTE	Instruments	6	5	[0, 0, 0]	n/a	catFR1	0	R1405E
867.7	0.916	903392	WORD_OFF	n/a	n/a	FLUTE	Instruments	6	5	[0, 0, 0]	n/a	catFR1	0	R1405E
868.616	1.617	904315	WORD	n/a	wordpools/wordpool_categorized_EN.txt	FOOT	BodyParts	7	5	[0, 0, 0]	n/a	catFR1	0	R1405E
870.233	0.966	905934	WORD_OFF	n/a	n/a	FOOT	BodyParts	7	5	[0, 0, 0]	n/a	catFR1	0	R1405E
871.199	1.617	906892	WORD	n/a	wordpools/wordpool_categorized_EN.txt	LEG	BodyParts	8	5	[0, 0, 0]	n/a	catFR1	0	R1405E
872.816	0.9	908511	WORD_OFF	n/a	n/a	LEG	BodyParts	8	5	[0, 0, 0]	n/a	catFR1	0	R1405E
873.716	1.617	909412	WORD	n/a	wordpools/wordpool_categorized_EN.txt	ORGAN	Instruments	9	5	[0, 0, 0]	n/a	catFR1	0	R1405E
875.333	0.782	911031	WORD_OFF	n/a	n/a	ORGAN	Instruments	9	5	[0, 0, 0]	n/a	catFR1	0	R1405E
876.115	1.601	911807	WORD	n/a	wordpools/wordpool_categorized_EN.txt	BASS	Instruments	10	5	[0, 0, 0]	n/a	catFR1	0	R1405E
877.716	1.0	913414	WORD_OFF	n/a	n/a	BASS	Instruments	10	5	[0, 0, 0]	n/a	catFR1	0	R1405E
878.716	1.617	914418	WORD	n/a	wordpools/wordpool_categorized_EN.txt	PIG	FarmAnimals	11	5	[0, 0, 0]	n/a	catFR1	0	R1405E
880.333	0.899	916025	WORD_OFF	n/a	n/a	PIG	FarmAnimals	11	5	[0, 0, 0]	n/a	catFR1	0	R1405E
881.232	1.616	916926	WORD	n/a	wordpools/wordpool_categorized_EN.txt	BULL	FarmAnimals	12	5	[0, 0, 0]	n/a	catFR1	0	R1405E
882.848	0.0	918544	PROB	9.467	n/a	n/a	n/a	-999	5	[6, 5, 6]	18.0	catFR1	0	R1405E
882.848	0.001	918545	WORD_OFF	n/a	n/a	BULL	FarmAnimals	12	5	[0, 0, 0]	n/a	catFR1	0	R1405E
882.849	0.0	918545	ENCODING_END	n/a	n/a	n/a	n/a	-999	5	[0, 0, 0]	n/a	catFR1	0	R1405E
882.849	0.0	918545	DISTRACT_START	n/a	n/a	n/a	n/a	-999	5	[0, 0, 0]	n/a	catFR1	0	R1405E
882.849	9.484	918545	START	n/a	n/a	n/a	n/a	-999	5	[-999, -999, -999]	n/a	catFR1	0	R1405E
892.333	4.116	928029	PROB	4.099	n/a	n/a	n/a	-999	5	[5, 3, 1]	9.0	catFR1	0	R1405E
896.449	4.033	932145	PROB	4.015	n/a	n/a	n/a	-999	5	[2, 8, 3]	13.0	catFR1	0	R1405E
900.482	3.933	936178	PROB	3.916	n/a	n/a	n/a	-999	5	[2, 4, 8]	14.0	catFR1	0	R1405E
904.415	0.0	940107	DISTRACT_END	n/a	n/a	n/a	n/a	-999	5	[0, 0, 0]	n/a	catFR1	0	R1405E
904.415	2.05	940111	STOP	n/a	n/a	n/a	n/a	-999	5	[-999, -999, -999]	n/a	catFR1	0	R1405E
906.465	2.479	942167	REC_START	n/a	n/a	n/a	n/a	-999	5	[0, 0, 0]	n/a	catFR1	0	R1405E
908.944	1.635	944640	REC_WORD	2.479	n/a	TOE	BodyParts	1	5	[0, 0, 0]	n/a	catFR1	0	R1405E
910.579	1.806	946275	REC_WORD	4.114	n/a	KNEE	BodyParts	2	5	[0, 0, 0]	n/a	catFR1	0	R1405E
912.385	2.054	948081	REC_WORD	5.92	n/a	LEG	BodyParts	8	5	[0, 0, 0]	n/a	catFR1	0	R1405E
914.439	1.323	950135	REC_WORD	7.974	n/a	TURKEY	FarmAnimals	3	5	[0, 0, 0]	n/a	catFR1	0	R1405E
915.762	1.495	951458	REC_WORD	9.297	n/a	COW	FarmAnimals	4	5	[0, 0, 0]	n/a	catFR1	0	R1405E
917.257	1.44	952953	REC_WORD	10.792	n/a	PIG	FarmAnimals	11	5	[0, 0, 0]	n/a	catFR1	0	R1405E
918.697	1.122	954393	REC_WORD	12.232	n/a	FLUTE	Instruments	6	5	[0, 0, 0]	n/a	catFR1	0	R1405E
919.819	16.898	955515	REC_WORD	13.354	n/a	ORGAN	Instruments	9	5	[0, 0, 0]	n/a	catFR1	0	R1405E
936.717	7.713	972410	REC_END	n/a	n/a	n/a	n/a	-999	5	[0, 0, 0]	n/a	catFR1	0	R1405E
944.43	10.35	980129	COUNTDOWN_START	n/a	n/a	n/a	n/a	-999	6	[0, 0, 0]	n/a	catFR1	0	R1405E
954.78	0.001	990482	COUNTDOWN_END	n/a	n/a	n/a	n/a	-999	6	[0, 0, 0]	n/a	catFR1	0	R1405E
954.781	2.132	990482	ENCODING_START	n/a	n/a	n/a	n/a	-999	6	[0, 0, 0]	n/a	catFR1	0	R1405E
956.913	1.617	992614	WORD	n/a	wordpools/wordpool_categorized_EN.txt	CIDER	Beverages	1	6	[0, 0, 0]	n/a	catFR1	0	R1405E
958.53	0.816	994222	WORD_OFF	n/a	n/a	CIDER	Beverages	1	6	[0, 0, 0]	n/a	catFR1	0	R1405E
959.346	1.616	995043	WORD	n/a	wordpools/wordpool_categorized_EN.txt	BEER	Beverages	2	6	[0, 0, 0]	n/a	catFR1	0	R1405E
960.962	0.784	996662	WORD_OFF	n/a	n/a	BEER	Beverages	2	6	[0, 0, 0]	n/a	catFR1	0	R1405E
961.746	1.617	997449	WORD	n/a	wordpools/wordpool_categorized_EN.txt	EAR	BodyParts	3	6	[0, 0, 0]	n/a	catFR1	0	R1405E
963.363	0.9	999057	WORD_OFF	n/a	n/a	EAR	BodyParts	3	6	[0, 0, 0]	n/a	catFR1	0	R1405E
964.263	1.6	999958	WORD	n/a	wordpools/wordpool_categorized_EN.txt	FINGERS	BodyParts	4	6	[0, 0, 0]	n/a	catFR1	0	R1405E
965.863	0.766	1001565	WORD_OFF	n/a	n/a	FINGERS	BodyParts	4	6	[0, 0, 0]	n/a	catFR1	0	R1405E
966.629	1.617	1002329	WORD	n/a	wordpools/wordpool_categorized_EN.txt	DAFFODIL	Flowers	5	6	[0, 0, 0]	n/a	catFR1	0	R1405E
968.246	0.866	1003948	WORD_OFF	n/a	n/a	DAFFODIL	Flowers	5	6	[0, 0, 0]	n/a	catFR1	0	R1405E
969.112	1.601	1004804	WORD	n/a	wordpools/wordpool_categorized_EN.txt	TULIP	Flowers	6	6	[0, 0, 0]	n/a	catFR1	0	R1405E
970.713	0.999	1006411	WORD_OFF	n/a	n/a	TULIP	Flowers	6	6	[0, 0, 0]	n/a	catFR1	0	R1405E
971.712	1.6	1007403	WORD	n/a	wordpools/wordpool_categorized_EN.txt	ELBOW	BodyParts	7	6	[0, 0, 0]	n/a	catFR1	0	R1405E
973.312	0.884	1009011	WORD_OFF	n/a	n/a	ELBOW	BodyParts	7	6	[0, 0, 0]	n/a	catFR1	0	R1405E
974.196	1.615	1009889	WORD	n/a	wordpools/wordpool_categorized_EN.txt	HEAD	BodyParts	8	6	[0, 0, 0]	n/a	catFR1	0	R1405E
975.811	0.951	1011508	WORD_OFF	n/a	n/a	HEAD	BodyParts	8	6	[0, 0, 0]	n/a	catFR1	0	R1405E
976.762	1.6	1012454	WORD	n/a	wordpools/wordpool_categorized_EN.txt	CARNATION	Flowers	9	6	[0, 0, 0]	n/a	catFR1	0	R1405E
978.362	0.8	1014062	WORD_OFF	n/a	n/a	CARNATION	Flowers	9	6	[0, 0, 0]	n/a	catFR1	0	R1405E
979.162	1.617	1014860	WORD	n/a	wordpools/wordpool_categorized_EN.txt	PETUNIA	Flowers	10	6	[0, 0, 0]	n/a	catFR1	0	R1405E
980.779	0.9	1016480	WORD_OFF	n/a	n/a	PETUNIA	Flowers	10	6	[0, 0, 0]	n/a	catFR1	0	R1405E
981.679	1.616	1017380	WORD	n/a	wordpools/wordpool_categorized_EN.txt	WATER	Beverages	11	6	[0, 0, 0]	n/a	catFR1	0	R1405E
983.295	0.984	1018988	WORD_OFF	n/a	n/a	WATER	Beverages	11	6	[0, 0, 0]	n/a	catFR1	0	R1405E
984.279	1.6	1019980	WORD	n/a	wordpools/wordpool_categorized_EN.txt	SODA	Beverages	12	6	[0, 0, 0]	n/a	catFR1	0	R1405E
985.879	0.0	1021575	PROB	7.916	n/a	n/a	n/a	-999	6	[6, 2, 7]	14.0	catFR1	0	R1405E
985.879	0.001	1021576	WORD_OFF	n/a	n/a	SODA	Beverages	12	6	[0, 0, 0]	n/a	catFR1	0	R1405E
985.88	0.0	1021576	ENCODING_END	n/a	n/a	n/a	n/a	-999	6	[0, 0, 0]	n/a	catFR1	0	R1405E
985.88	0.0	1021576	DISTRACT_START	n/a	n/a	n/a	n/a	-999	6	[0, 0, 0]	n/a	catFR1	0	R1405E
985.88	7.933	1021576	START	n/a	n/a	n/a	n/a	-999	6	[-999, -999, -999]	n/a	catFR1	0	R1405E
993.813	5.299	1029509	PROB	5.282	n/a	n/a	n/a	-999	6	[7, 8, 3]	18.0	catFR1	0	R1405E
999.112	3.283	1034808	PROB	3.266	n/a	n/a	n/a	-999	6	[7, 8, 2]	17.0	catFR1	0	R1405E
1002.395	4.166	1038091	PROB	4.149	n/a	n/a	n/a	-999	6	[7, 5, 3]	15.0	catFR1	0	R1405E
1006.561	0.0	1042257	STOP	n/a	n/a	n/a	n/a	-999	6	[-999, -999, -999]	n/a	catFR1	0	R1405E
1006.561	2.266	1042260	DISTRACT_END	n/a	n/a	n/a	n/a	-999	6	[0, 0, 0]	n/a	catFR1	0	R1405E
1008.827	1.89	1044526	REC_START	n/a	n/a	n/a	n/a	-999	6	[0, 0, 0]	n/a	catFR1	0	R1405E
1010.717	3.791	1046413	REC_WORD	1.89	n/a	EAR	BodyParts	3	6	[0, 0, 0]	n/a	catFR1	0	R1405E
1014.508	1.534	1050204	REC_WORD	5.681	n/a	TULIP	Flowers	6	6	[0, 0, 0]	n/a	catFR1	0	R1405E
1016.042	23.032	1051738	REC_WORD	7.215	n/a	PETUNIA	Flowers	10	6	[0, 0, 0]	n/a	catFR1	0	R1405E
1039.074	3.769	1074768	REC_END	n/a	n/a	n/a	n/a	-999	6	[0, 0, 0]	n/a	catFR1	0	R1405E
1042.843	10.35	1078542	COUNTDOWN_START	n/a	n/a	n/a	n/a	-999	7	[0, 0, 0]	n/a	catFR1	0	R1405E
1053.193	0.0	1088895	COUNTDOWN_END	n/a	n/a	n/a	n/a	-999	7	[0, 0, 0]	n/a	catFR1	0	R1405E
1053.193	2.316	1088895	ENCODING_START	n/a	n/a	n/a	n/a	-999	7	[0, 0, 0]	n/a	catFR1	0	R1405E
1055.509	1.6	1091210	WORD	n/a	wordpools/wordpool_categorized_EN.txt	ORCHID	Flowers	1	7	[0, 0, 0]	n/a	catFR1	0	R1405E
1057.109	0.9	1092806	WORD_OFF	n/a	n/a	ORCHID	Flowers	1	7	[0, 0, 0]	n/a	catFR1	0	R1405E
1058.009	1.6	1093707	WORD	n/a	wordpools/wordpool_categorized_EN.txt	MARIGOLD	Flowers	2	7	[0, 0, 0]	n/a	catFR1	0	R1405E
1059.609	0.984	1095304	WORD_OFF	n/a	n/a	MARIGOLD	Flowers	2	7	[0, 0, 0]	n/a	catFR1	0	R1405E
1060.593	1.6	1096296	WORD	n/a	wordpools/wordpool_categorized_EN.txt	LADLE	KitchenTools	3	7	[0, 0, 0]	n/a	catFR1	0	R1405E
1062.193	0.899	1097892	WORD_OFF	n/a	n/a	LADLE	KitchenTools	3	7	[0, 0, 0]	n/a	catFR1	0	R1405E
1063.092	1.6	1098793	WORD	n/a	wordpools/wordpool_categorized_EN.txt	CORKSCREW	KitchenTools	4	7	[0, 0, 0]	n/a	catFR1	0	R1405E
1064.692	0.966	1100389	WORD_OFF	n/a	n/a	CORKSCREW	KitchenTools	4	7	[0, 0, 0]	n/a	catFR1	0	R1405E
1065.658	1.6	1101358	WORD	n/a	wordpools/wordpool_categorized_EN.txt	THUNDERSTORM	Weather	5	7	[0, 0, 0]	n/a	catFR1	0	R1405E
1067.258	0.85	1102954	WORD_OFF	n/a	n/a	THUNDERSTORM	Weather	5	7	[0, 0, 0]	n/a	catFR1	0	R1405E
1068.108	1.601	1103810	WORD	n/a	wordpools/wordpool_categorized_EN.txt	CLOUD	Weather	6	7	[0, 0, 0]	n/a	catFR1	0	R1405E
1069.709	0.816	1105406	WORD_OFF	n/a	n/a	CLOUD	Weather	6	7	[0, 0, 0]	n/a	catFR1	0	R1405E
1070.525	1.601	1106227	WORD	n/a	wordpools/wordpool_categorized_EN.txt	DAISY	Flowers	7	7	[0, 0, 0]	n/a	catFR1	0	R1405E
1072.126	0.983	1107823	WORD_OFF	n/a	n/a	DAISY	Flowers	7	7	[0, 0, 0]	n/a	catFR1	0	R1405E
1073.109	1.617	1108804	WORD	n/a	wordpools/wordpool_categorized_EN.txt	LILAC	Flowers	8	7	[0, 0, 0]	n/a	catFR1	0	R1405E
1074.726	0.933	1110423	WORD_OFF	n/a	n/a	LILAC	Flowers	8	7	[0, 0, 0]	n/a	catFR1	0	R1405E
1075.659	1.6	1111358	WORD	n/a	wordpools/wordpool_categorized_EN.txt	FORK	KitchenTools	9	7	[0, 0, 0]	n/a	catFR1	0	R1405E
1077.259	0.916	1112954	WORD_OFF	n/a	n/a	FORK	KitchenTools	9	7	[0, 0, 0]	n/a	catFR1	0	R1405E
1078.175	1.617	1113878	WORD	n/a	wordpools/wordpool_categorized_EN.txt	SPATULA	KitchenTools	10	7	[0, 0, 0]	n/a	catFR1	0	R1405E
1079.792	0.8	1115486	WORD_OFF	n/a	n/a	SPATULA	KitchenTools	10	7	[0, 0, 0]	n/a	catFR1	0	R1405E
1080.592	1.617	1116295	WORD	n/a	wordpools/wordpool_categorized_EN.txt	THUNDER	Weather	11	7	[0, 0, 0]	n/a	catFR1	0	R1405E
1082.209	0.883	1117903	WORD_OFF	n/a	n/a	THUNDER	Weather	11	7	[0, 0, 0]	n/a	catFR1	0	R1405E
1083.092	1.616	1118792	WORD	n/a	wordpools/wordpool_categorized_EN.txt	HURRICANE	Weather	12	7	[0, 0, 0]	n/a	catFR1	0	R1405E
1084.708	0.0	1120400	WORD_OFF	n/a	n/a	HURRICANE	Weather	12	7	[0, 0, 0]	n/a	catFR1	0	R1405E
1084.708	0.002	1120404	PROB	3.983	n/a	n/a	n/a	-999	7	[8, 2, 5]	15.0	catFR1	0	R1405E
1084.71	0.0	1120406	START	n/a	n/a	n/a	n/a	-999	7	[-999, -999, -999]	n/a	catFR1	0	R1405E
1084.71	0.0	1120411	ENCODING_END	n/a	n/a	n/a	n/a	-999	7	[0, 0, 0]	n/a	catFR1	0	R1405E
1084.71	3.998	1120411	DISTRACT_START	n/a	n/a	n/a	n/a	-999	7	[0, 0, 0]	n/a	catFR1	0	R1405E
1088.708	4.8	1124404	PROB	4.783	n/a	n/a	n/a	-999	7	[2, 7, 5]	15.0	catFR1	0	R1405E
1093.508	4.833	1129204	PROB	4.816	n/a	n/a	n/a	-999	7	[6, 5, 3]	14.0	catFR1	0	R1405E
1098.341	6.549	1134037	PROB	6.533	n/a	n/a	n/a	-999	7	[7, 4, 6]	17.0	catFR1	0	R1405E
1104.89	0.0	1140586	STOP	n/a	n/a	n/a	n/a	-999	7	[-999, -999, -999]	n/a	catFR1	0	R1405E
1104.89	2.317	1140593	DISTRACT_END	n/a	n/a	n/a	n/a	-999	7	[0, 0, 0]	n/a	catFR1	0	R1405E
1107.207	1.545	1142905	REC_START	n/a	n/a	n/a	n/a	-999	7	[0, 0, 0]	n/a	catFR1	0	R1405E
1108.752	2.805	1144448	REC_WORD	1.545	n/a	STORM	n/a	-999	7	[0, 0, 0]	n/a	catFR1	0	R1405E
1111.557	1.375	1147253	REC_WORD	4.35	n/a	HURRICANE	Weather	12	7	[0, 0, 0]	n/a	catFR1	0	R1405E
1112.932	1.969	1148628	REC_WORD	5.725	n/a	THUNDERSTORM	Weather	5	7	[0, 0, 0]	n/a	catFR1	0	R1405E
1114.901	22.554	1150597	REC_WORD	7.694	n/a	CLOUD	Weather	6	7	[0, 0, 0]	n/a	catFR1	0	R1405E
1137.455	5.601	1173158	REC_END	n/a	n/a	n/a	n/a	-999	7	[0, 0, 0]	n/a	catFR1	0	R1405E
1143.056	10.351	1178757	COUNTDOWN_START	n/a	n/a	n/a	n/a	-999	8	[0, 0, 0]	n/a	catFR1	0	R1405E
1153.407	0.0	1189099	COUNTDOWN_END	n/a	n/a	n/a	n/a	-999	8	[0, 0, 0]	n/a	catFR1	0	R1405E
1153.407	2.032	1189110	ENCODING_START	n/a	n/a	n/a	n/a	-999	8	[0, 0, 0]	n/a	catFR1	0	R1405E
1155.439	1.617	1191140	WORD	n/a	wordpools/wordpool_categorized_EN.txt	WRENCH	Tools	1	8	[0, 0, 0]	n/a	catFR1	0	R1405E
1157.056	0.767	1192759	WORD_OFF	n/a	n/a	WRENCH	Tools	1	8	[0, 0, 0]	n/a	catFR1	0	R1405E
1157.823	1.6	1193523	WORD	n/a	wordpools/wordpool_categorized_EN.txt	RATCHET	Tools	2	8	[0, 0, 0]	n/a	catFR1	0	R1405E
1159.423	0.799	1195119	WORD_OFF	n/a	n/a	RATCHET	Tools	2	8	[0, 0, 0]	n/a	catFR1	0	R1405E
1160.222	1.6	1195917	WORD	n/a	wordpools/wordpool_categorized_EN.txt	POTATO	Vegetables	3	8	[0, 0, 0]	n/a	catFR1	0	R1405E
1161.822	0.8	1197525	WORD_OFF	n/a	n/a	POTATO	Vegetables	3	8	[0, 0, 0]	n/a	catFR1	0	R1405E
1162.622	1.616	1198323	WORD	n/a	wordpools/wordpool_categorized_EN.txt	ONION	Vegetables	4	8	[0, 0, 0]	n/a	catFR1	0	R1405E
1164.238	0.867	1199931	WORD_OFF	n/a	n/a	ONION	Vegetables	4	8	[0, 0, 0]	n/a	catFR1	0	R1405E
1165.105	1.601	1200798	WORD	n/a	wordpools/wordpool_categorized_EN.txt	MARKER	OfficeSupplies	5	8	[0, 0, 0]	n/a	catFR1	0	R1405E
1166.706	0.799	1202405	WORD_OFF	n/a	n/a	MARKER	OfficeSupplies	5	8	[0, 0, 0]	n/a	catFR1	0	R1405E
1167.505	1.617	1203203	WORD	n/a	wordpools/wordpool_categorized_EN.txt	FOLDER	OfficeSupplies	6	8	[0, 0, 0]	n/a	catFR1	0	R1405E
1169.122	0.833	1204822	WORD_OFF	n/a	n/a	FOLDER	OfficeSupplies	6	8	[0, 0, 0]	n/a	catFR1	0	R1405E
1169.955	1.6	1205655	WORD	n/a	wordpools/wordpool_categorized_EN.txt	SANDER	Tools	7	8	[0, 0, 0]	n/a	catFR1	0	R1405E
1171.555	0.784	1207251	WORD_OFF	n/a	n/a	SANDER	Tools	7	8	[0, 0, 0]	n/a	catFR1	0	R1405E
1172.339	1.6	1208038	WORD	n/a	wordpools/wordpool_categorized_EN.txt	DRILL	Tools	8	8	[0, 0, 0]	n/a	catFR1	0	R1405E
1173.939	0.949	1209634	WORD_OFF	n/a	n/a	DRILL	Tools	8	8	[0, 0, 0]	n/a	catFR1	0	R1405E
1174.888	1.616	1210581	WORD	n/a	wordpools/wordpool_categorized_EN.txt	BROCCOLI	Vegetables	9	8	[0, 0, 0]	n/a	catFR1	0	R1405E
1176.504	0.768	1212200	WORD_OFF	n/a	n/a	BROCCOLI	Vegetables	9	8	[0, 0, 0]	n/a	catFR1	0	R1405E
1177.272	1.616	1212964	WORD	n/a	wordpools/wordpool_categorized_EN.txt	CAULIFLOWER	Vegetables	10	8	[0, 0, 0]	n/a	catFR1	0	R1405E
1178.888	0.786	1214583	WORD_OFF	n/a	n/a	CAULIFLOWER	Vegetables	10	8	[0, 0, 0]	n/a	catFR1	0	R1405E
1179.674	1.598	1215370	WORD	n/a	wordpools/wordpool_categorized_EN.txt	RULER	OfficeSupplies	11	8	[0, 0, 0]	n/a	catFR1	0	R1405E
1181.272	0.766	1216966	WORD_OFF	n/a	n/a	RULER	OfficeSupplies	11	8	[0, 0, 0]	n/a	catFR1	0	R1405E
1182.038	1.6	1217730	WORD	n/a	wordpools/wordpool_categorized_EN.txt	GLUE	OfficeSupplies	12	8	[0, 0, 0]	n/a	catFR1	0	R1405E
1183.638	0.0	1219335	PROB	6.432	n/a	n/a	n/a	-999	8	[7, 4, 5]	16.0	catFR1	0	R1405E
1183.638	0.009	1219338	WORD_OFF	n/a	n/a	GLUE	OfficeSupplies	12	8	[0, 0, 0]	n/a	catFR1	0	R1405E
1183.647	0.0	1219344	START	n/a	n/a	n/a	n/a	-999	8	[-999, -999, -999]	n/a	catFR1	0	R1405E
1183.647	0.0	1219349	ENCODING_END	n/a	n/a	n/a	n/a	-999	8	[0, 0, 0]	n/a	catFR1	0	R1405E
1183.647	6.441	1219349	DISTRACT_START	n/a	n/a	n/a	n/a	-999	8	[0, 0, 0]	n/a	catFR1	0	R1405E
1190.088	3.283	1225785	PROB	3.266	n/a	n/a	n/a	-999	8	[4, 1, 2]	7.0	catFR1	0	R1405E
1193.371	3.65	1229068	PROB	3.633	n/a	n/a	n/a	-999	8	[2, 4, 8]	14.0	catFR1	0	R1405E
1197.021	3.5	1232718	PROB	3.483	n/a	n/a	n/a	-999	8	[6, 8, 2]	16.0	catFR1	0	R1405E
1200.521	9.169	1236218	PROB	9.15	n/a	n/a	n/a	-999	8	[7, 5, 1]	13.0	catFR1	0	R1405E
1209.69	0.0	1245387	STOP	n/a	n/a	n/a	n/a	-999	8	[-999, -999, -999]	n/a	catFR1	0	R1405E
1209.69	2.047	1245392	DISTRACT_END	n/a	n/a	n/a	n/a	-999	8	[0, 0, 0]	n/a	catFR1	0	R1405E
1211.737	1.444	1247429	REC_START	n/a	n/a	n/a	n/a	-999	8	[0, 0, 0]	n/a	catFR1	0	R1405E
1213.181	1.696	1248878	REC_WORD	1.444	n/a	WRENCH	Tools	1	8	[0, 0, 0]	n/a	catFR1	0	R1405E
1214.877	6.081	1250574	REC_WORD	3.14	n/a	RATCHET	Tools	2	8	[0, 0, 0]	n/a	catFR1	0	R1405E
1220.958	21.039	1256655	REC_WORD	9.221	n/a	GLUE	OfficeSupplies	12	8	[0, 0, 0]	n/a	catFR1	0	R1405E
1241.997	5.806	1277695	REC_END	n/a	n/a	n/a	n/a	-999	8	[0, 0, 0]	n/a	catFR1	0	R1405E
1247.803	10.35	1283498	COUNTDOWN_START	n/a	n/a	n/a	n/a	-999	9	[0, 0, 0]	n/a	catFR1	0	R1405E
1258.153	0.0	1293852	COUNTDOWN_END	n/a	n/a	n/a	n/a	-999	9	[0, 0, 0]	n/a	catFR1	0	R1405E
1258.153	1.983	1293852	ENCODING_START	n/a	n/a	n/a	n/a	-999	9	[0, 0, 0]	n/a	catFR1	0	R1405E
1260.136	1.616	1295836	WORD	n/a	wordpools/wordpool_categorized_EN.txt	HALLWAY	Building	1	9	[0, 0, 0]	n/a	catFR1	0	R1405E
1261.752	0.867	1297455	WORD_OFF	n/a	n/a	HALLWAY	Building	1	9	[0, 0, 0]	n/a	catFR1	0	R1405E
1262.619	1.6	1298321	WORD	n/a	wordpools/wordpool_categorized_EN.txt	FLOOR	Building	2	9	[0, 0, 0]	n/a	catFR1	0	R1405E
1264.219	0.782	1299918	WORD_OFF	n/a	n/a	FLOOR	Building	2	9	[0, 0, 0]	n/a	catFR1	0	R1405E
1265.001	1.601	1300704	WORD	n/a	wordpools/wordpool_categorized_EN.txt	COTTON	Fabric	3	9	[0, 0, 0]	n/a	catFR1	0	R1405E
1266.602	0.899	1302301	WORD_OFF	n/a	n/a	COTTON	Fabric	3	9	[0, 0, 0]	n/a	catFR1	0	R1405E
1267.501	1.601	1303201	WORD	n/a	wordpools/wordpool_categorized_EN.txt	LEATHER	Fabric	4	9	[0, 0, 0]	n/a	catFR1	0	R1405E
1269.102	0.967	1304798	WORD_OFF	n/a	n/a	LEATHER	Fabric	4	9	[0, 0, 0]	n/a	catFR1	0	R1405E
1270.069	1.616	1305767	WORD	n/a	wordpools/wordpool_categorized_EN.txt	TEA	Beverages	5	9	[0, 0, 0]	n/a	catFR1	0	R1405E
1271.685	0.867	1307386	WORD_OFF	n/a	n/a	TEA	Beverages	5	9	[0, 0, 0]	n/a	catFR1	0	R1405E
1272.552	1.616	1308253	WORD	n/a	wordpools/wordpool_categorized_EN.txt	JUICE	Beverages	6	9	[0, 0, 0]	n/a	catFR1	0	R1405E
1274.168	0.85	1309860	WORD_OFF	n/a	n/a	JUICE	Beverages	6	9	[0, 0, 0]	n/a	catFR1	0	R1405E
1275.018	1.617	1310716	WORD	n/a	wordpools/wordpool_categorized_EN.txt	SILK	Fabric	7	9	[0, 0, 0]	n/a	catFR1	0	R1405E
1276.635	0.916	1312335	WORD_OFF	n/a	n/a	SILK	Fabric	7	9	[0, 0, 0]	n/a	catFR1	0	R1405E
1277.551	1.617	1313247	WORD	n/a	wordpools/wordpool_categorized_EN.txt	WOOL	Fabric	8	9	[0, 0, 0]	n/a	catFR1	0	R1405E
1279.168	0.816	1314866	WORD_OFF	n/a	n/a	WOOL	Fabric	8	9	[0, 0, 0]	n/a	catFR1	0	R1405E
1279.984	1.6	1315687	WORD	n/a	wordpools/wordpool_categorized_EN.txt	WINE	Beverages	9	9	[0, 0, 0]	n/a	catFR1	0	R1405E
1281.584	0.952	1317283	WORD_OFF	n/a	n/a	WINE	Beverages	9	9	[0, 0, 0]	n/a	catFR1	0	R1405E
1282.536	1.598	1318230	WORD	n/a	wordpools/wordpool_categorized_EN.txt	LEMONADE	Beverages	10	9	[0, 0, 0]	n/a	catFR1	0	R1405E
1284.134	0.767	1319826	WORD_OFF	n/a	n/a	LEMONADE	Beverages	10	9	[0, 0, 0]	n/a	catFR1	0	R1405E
1284.901	1.6	1320601	WORD	n/a	wordpools/wordpool_categorized_EN.txt	CEILING	Building	11	9	[0, 0, 0]	n/a	catFR1	0	R1405E
1286.501	0.85	1322198	WORD_OFF	n/a	n/a	CEILING	Building	11	9	[0, 0, 0]	n/a	catFR1	0	R1405E
1287.351	1.6	1323053	WORD	n/a	wordpools/wordpool_categorized_EN.txt	ROOM	Building	12	9	[0, 0, 0]	n/a	catFR1	0	R1405E
1288.951	0.0	1324648	PROB	9.183	n/a	n/a	n/a	-999	9	[5, 3, 4]	12.0	catFR1	0	R1405E
1288.951	0.001	1324649	WORD_OFF	n/a	n/a	ROOM	Building	12	9	[0, 0, 0]	n/a	catFR1	0	R1405E
1288.952	0.0	1324649	ENCODING_END	n/a	n/a	n/a	n/a	-999	9	[0, 0, 0]	n/a	catFR1	0	R1405E
1288.952	0.0	1324649	DISTRACT_START	n/a	n/a	n/a	n/a	-999	9	[0, 0, 0]	n/a	catFR1	0	R1405E
1288.952	9.199	1324649	START	n/a	n/a	n/a	n/a	-999	9	[-999, -999, -999]	n/a	catFR1	0	R1405E
1298.151	3.466	1333848	PROB	3.449	n/a	n/a	n/a	-999	9	[4, 5, 6]	15.0	catFR1	0	R1405E
1301.617	4.633	1337314	PROB	4.617	n/a	n/a	n/a	-999	9	[3, 5, 6]	14.0	catFR1	0	R1405E
1306.25	4.667	1341947	PROB	4.649	n/a	n/a	n/a	-999	9	[3, 2, 6]	11.0	catFR1	0	R1405E
1310.917	0.0	1346610	DISTRACT_END	n/a	n/a	n/a	n/a	-999	9	[0, 0, 0]	n/a	catFR1	0	R1405E
1310.917	2.183	1346614	STOP	n/a	n/a	n/a	n/a	-999	9	[-999, -999, -999]	n/a	catFR1	0	R1405E
1313.1	1.086	1348796	REC_START	n/a	n/a	n/a	n/a	-999	9	[0, 0, 0]	n/a	catFR1	0	R1405E
1314.186	0.993	1349883	REC_WORD	1.086	n/a	HALLWAY	Building	1	9	[0, 0, 0]	n/a	catFR1	0	R1405E
1315.179	1.835	1350876	REC_WORD	2.079	n/a	COTTON	Fabric	3	9	[0, 0, 0]	n/a	catFR1	0	R1405E
1317.014	2.611	1352711	REC_WORD	3.914	n/a	DOOR	Building	-999	9	[0, 0, 0]	n/a	catFR1	0	R1405E
1319.625	23.726	1355322	REC_WORD	6.525	n/a	ROOM	Building	12	9	[0, 0, 0]	n/a	catFR1	0	R1405E
1343.351	5.748	1379050	REC_END	n/a	n/a	n/a	n/a	-999	9	[0, 0, 0]	n/a	catFR1	0	R1405E
1349.099	10.349	1384796	COUNTDOWN_START	n/a	n/a	n/a	n/a	-999	10	[0, 0, 0]	n/a	catFR1	0	R1405E
1359.448	0.0	1395150	COUNTDOWN_END	n/a	n/a	n/a	n/a	-999	10	[0, 0, 0]	n/a	catFR1	0	R1405E
1359.448	2.084	1395150	ENCODING_START	n/a	n/a	n/a	n/a	-999	10	[0, 0, 0]	n/a	catFR1	0	R1405E
1361.532	1.6	1397225	WORD	n/a	wordpools/wordpool_categorized_EN.txt	HAMMER	Tools	1	10	[0, 0, 0]	n/a	catFR1	0	R1405E
1363.132	0.783	1398832	WORD_OFF	n/a	n/a	HAMMER	Tools	1	10	[0, 0, 0]	n/a	catFR1	0	R1405E
1363.915	1.6	1399608	WORD	n/a	wordpools/wordpool_categorized_EN.txt	SAW	Tools	2	10	[0, 0, 0]	n/a	catFR1	0	R1405E
1365.515	0.917	1401216	WORD_OFF	n/a	n/a	SAW	Tools	2	10	[0, 0, 0]	n/a	catFR1	0	R1405E
1366.432	1.616	1402128	WORD	n/a	wordpools/wordpool_categorized_EN.txt	SPOON	KitchenTools	3	10	[0, 0, 0]	n/a	catFR1	0	R1405E
1368.048	0.966	1403747	WORD_OFF	n/a	n/a	SPOON	KitchenTools	3	10	[0, 0, 0]	n/a	catFR1	0	R1405E
1369.014	1.6	1404716	WORD	n/a	wordpools/wordpool_categorized_EN.txt	GRATER	KitchenTools	4	10	[0, 0, 0]	n/a	catFR1	0	R1405E
1370.614	0.767	1406312	WORD_OFF	n/a	n/a	GRATER	KitchenTools	4	10	[0, 0, 0]	n/a	catFR1	0	R1405E
1371.381	1.6	1407076	WORD	n/a	wordpools/wordpool_categorized_EN.txt	GOAT	FarmAnimals	5	10	[0, 0, 0]	n/a	catFR1	0	R1405E
1372.981	0.766	1408684	WORD_OFF	n/a	n/a	GOAT	FarmAnimals	5	10	[0, 0, 0]	n/a	catFR1	0	R1405E
1373.747	1.601	1409448	WORD	n/a	wordpools/wordpool_categorized_EN.txt	SHEEP	FarmAnimals	6	10	[0, 0, 0]	n/a	catFR1	0	R1405E
1375.348	0.949	1411044	WORD_OFF	n/a	n/a	SHEEP	FarmAnimals	6	10	[0, 0, 0]	n/a	catFR1	0	R1405E
1376.297	1.617	1411991	WORD	n/a	wordpools/wordpool_categorized_EN.txt	KNIFE	KitchenTools	7	10	[0, 0, 0]	n/a	catFR1	0	R1405E
1377.914	1.0	1413610	WORD_OFF	n/a	n/a	KNIFE	KitchenTools	7	10	[0, 0, 0]	n/a	catFR1	0	R1405E
1378.914	1.617	1414613	WORD	n/a	wordpools/wordpool_categorized_EN.txt	TONGS	KitchenTools	8	10	[0, 0, 0]	n/a	catFR1	0	R1405E
1380.531	0.766	1416232	WORD_OFF	n/a	n/a	TONGS	KitchenTools	8	10	[0, 0, 0]	n/a	catFR1	0	R1405E
1381.297	1.602	1416996	WORD	n/a	wordpools/wordpool_categorized_EN.txt	CROWBAR	Tools	9	10	[0, 0, 0]	n/a	catFR1	0	R1405E
1382.899	0.999	1418593	WORD_OFF	n/a	n/a	CROWBAR	Tools	9	10	[0, 0, 0]	n/a	catFR1	0	R1405E
1383.898	1.616	1419596	WORD	n/a	wordpools/wordpool_categorized_EN.txt	PLIERS	Tools	10	10	[0, 0, 0]	n/a	catFR1	0	R1405E
1385.514	0.833	1421215	WORD_OFF	n/a	n/a	PLIERS	Tools	10	10	[0, 0, 0]	n/a	catFR1	0	R1405E
1386.347	1.6	1422048	WORD	n/a	wordpools/wordpool_categorized_EN.txt	LAMB	FarmAnimals	11	10	[0, 0, 0]	n/a	catFR1	0	R1405E
1387.947	0.833	1423644	WORD_OFF	n/a	n/a	LAMB	FarmAnimals	11	10	[0, 0, 0]	n/a	catFR1	0	R1405E
1388.78	1.6	1424476	WORD	n/a	wordpools/wordpool_categorized_EN.txt	HORSE	FarmAnimals	12	10	[0, 0, 0]	n/a	catFR1	0	R1405E
1390.38	0.001	1426073	WORD_OFF	n/a	n/a	HORSE	FarmAnimals	12	10	[0, 0, 0]	n/a	catFR1	0	R1405E
1390.381	0.001	1426078	PROB	8.699	n/a	n/a	n/a	-999	10	[8, 3, 8]	19.0	catFR1	0	R1405E
1390.382	0.0	1426079	START	n/a	n/a	n/a	n/a	-999	10	[-999, -999, -999]	n/a	catFR1	0	R1405E
1390.382	0.0	1426084	ENCODING_END	n/a	n/a	n/a	n/a	-999	10	[0, 0, 0]	n/a	catFR1	0	R1405E
1390.382	8.715	1426084	DISTRACT_START	n/a	n/a	n/a	n/a	-999	10	[0, 0, 0]	n/a	catFR1	0	R1405E
1399.097	3.033	1434794	PROB	3.016	n/a	n/a	n/a	-999	10	[8, 1, 2]	11.0	catFR1	0	R1405E
1402.13	4.885	1437827	PROB	4.866	n/a	n/a	n/a	-999	10	[1, 7, 4]	12.0	catFR1	0	R1405E
1407.015	4.765	1442712	PROB	4.748	n/a	n/a	n/a	-999	10	[6, 7, 5]	18.0	catFR1	0	R1405E
1411.78	0.0	1447475	DISTRACT_END	n/a	n/a	n/a	n/a	-999	10	[0, 0, 0]	n/a	catFR1	0	R1405E
1411.78	2.033	1447477	STOP	n/a	n/a	n/a	n/a	-999	10	[-999, -999, -999]	n/a	catFR1	0	R1405E
1413.813	1.787	1449512	REC_START	n/a	n/a	n/a	n/a	-999	10	[0, 0, 0]	n/a	catFR1	0	R1405E
1415.6	28.458	1451297	REC_WORD	1.787	n/a	HAMMER	Tools	1	10	[0, 0, 0]	n/a	catFR1	0	R1405E
1444.058	5.288	1479755	REC_END	n/a	n/a	n/a	n/a	-999	10	[0, 0, 0]	n/a	catFR1	0	R1405E
1449.346	10.349	1485045	COUNTDOWN_START	n/a	n/a	n/a	n/a	-999	11	[0, 0, 0]	n/a	catFR1	0	R1405E
1459.695	0.001	1495398	COUNTDOWN_END	n/a	n/a	n/a	n/a	-999	11	[0, 0, 0]	n/a	catFR1	0	R1405E
1459.696	2.049	1495398	ENCODING_START	n/a	n/a	n/a	n/a	-999	11	[0, 0, 0]	n/a	catFR1	0	R1405E
1461.745	1.6	1497440	WORD	n/a	wordpools/wordpool_categorized_EN.txt	CUCUMBER	Vegetables	1	11	[0, 0, 0]	n/a	catFR1	0	R1405E
1463.345	0.883	1499047	WORD_OFF	n/a	n/a	CUCUMBER	Vegetables	1	11	[0, 0, 0]	n/a	catFR1	0	R1405E
1464.228	1.6	1499925	WORD	n/a	wordpools/wordpool_categorized_EN.txt	CELERY	Vegetables	2	11	[0, 0, 0]	n/a	catFR1	0	R1405E
1465.828	0.766	1501521	WORD_OFF	n/a	n/a	CELERY	Vegetables	2	11	[0, 0, 0]	n/a	catFR1	0	R1405E
1466.594	1.617	1502297	WORD	n/a	wordpools/wordpool_categorized_EN.txt	TIGER	Zoo	3	11	[0, 0, 0]	n/a	catFR1	0	R1405E
1468.211	0.883	1503905	WORD_OFF	n/a	n/a	TIGER	Zoo	3	11	[0, 0, 0]	n/a	catFR1	0	R1405E
1469.094	1.617	1504794	WORD	n/a	wordpools/wordpool_categorized_EN.txt	PANDA	Zoo	4	11	[0, 0, 0]	n/a	catFR1	0	R1405E
1470.711	0.966	1506413	WORD_OFF	n/a	n/a	PANDA	Zoo	4	11	[0, 0, 0]	n/a	catFR1	0	R1405E
1471.677	1.617	1507371	WORD	n/a	wordpools/wordpool_categorized_EN.txt	SNOW	Weather	5	11	[0, 0, 0]	n/a	catFR1	0	R1405E
1473.294	0.817	1508990	WORD_OFF	n/a	n/a	SNOW	Weather	5	11	[0, 0, 0]	n/a	catFR1	0	R1405E
1474.111	1.6	1509811	WORD	n/a	wordpools/wordpool_categorized_EN.txt	DRIZZLE	Weather	6	11	[0, 0, 0]	n/a	catFR1	0	R1405E
1475.711	0.8	1511407	WORD_OFF	n/a	n/a	DRIZZLE	Weather	6	11	[0, 0, 0]	n/a	catFR1	0	R1405E
1476.511	1.616	1512205	WORD	n/a	wordpools/wordpool_categorized_EN.txt	CHIMPANZEE	Zoo	7	11	[0, 0, 0]	n/a	catFR1	0	R1405E
1478.127	0.95	1513825	WORD_OFF	n/a	n/a	CHIMPANZEE	Zoo	7	11	[0, 0, 0]	n/a	catFR1	0	R1405E
1479.077	1.6	1514771	WORD	n/a	wordpools/wordpool_categorized_EN.txt	CHEETAH	Zoo	8	11	[0, 0, 0]	n/a	catFR1	0	R1405E
1480.677	0.917	1516379	WORD_OFF	n/a	n/a	CHEETAH	Zoo	8	11	[0, 0, 0]	n/a	catFR1	0	R1405E
1481.594	1.6	1517291	WORD	n/a	wordpools/wordpool_categorized_EN.txt	LETTUCE	Vegetables	9	11	[0, 0, 0]	n/a	catFR1	0	R1405E
1483.194	0.8	1518887	WORD_OFF	n/a	n/a	LETTUCE	Vegetables	9	11	[0, 0, 0]	n/a	catFR1	0	R1405E
1483.994	1.6	1519697	WORD	n/a	wordpools/wordpool_categorized_EN.txt	CABBAGE	Vegetables	10	11	[0, 0, 0]	n/a	catFR1	0	R1405E
1485.594	0.983	1521293	WORD_OFF	n/a	n/a	CABBAGE	Vegetables	10	11	[0, 0, 0]	n/a	catFR1	0	R1405E
1486.577	1.6	1522274	WORD	n/a	wordpools/wordpool_categorized_EN.txt	LIGHTNING	Weather	11	11	[0, 0, 0]	n/a	catFR1	0	R1405E
1488.177	1.0	1523874	WORD_OFF	n/a	n/a	LIGHTNING	Weather	11	11	[0, 0, 0]	n/a	catFR1	0	R1405E
1489.177	1.6	1524873	WORD	n/a	wordpools/wordpool_categorized_EN.txt	TORNADO	Weather	12	11	[0, 0, 0]	n/a	catFR1	0	R1405E
1490.777	0.001	1526470	WORD_OFF	n/a	n/a	TORNADO	Weather	12	11	[0, 0, 0]	n/a	catFR1	0	R1405E
1490.778	0.001	1526475	PROB	3.432	n/a	n/a	n/a	-999	11	[4, 4, 2]	10.0	catFR1	0	R1405E
1490.779	0.0	1526476	START	n/a	n/a	n/a	n/a	-999	11	[-999, -999, -999]	n/a	catFR1	0	R1405E
1490.779	0.0	1526481	ENCODING_END	n/a	n/a	n/a	n/a	-999	11	[0, 0, 0]	n/a	catFR1	0	R1405E
1490.779	3.448	1526481	DISTRACT_START	n/a	n/a	n/a	n/a	-999	11	[0, 0, 0]	n/a	catFR1	0	R1405E
1494.227	3.851	1529924	PROB	3.833	n/a	n/a	n/a	-999	11	[4, 8, 4]	16.0	catFR1	0	R1405E
1498.078	2.682	1533775	PROB	2.666	n/a	n/a	n/a	-999	11	[7, 7, 7]	21.0	catFR1	0	R1405E
1500.76	3.767	1536457	PROB	3.75	n/a	n/a	n/a	-999	11	[3, 3, 4]	10.0	catFR1	0	R1405E
1504.527	14.382	1540224	PROB	14.366	n/a	n/a	n/a	-999	11	[1, 5, 7]	8.0	catFR1	0	R1405E
1518.909	0.0	1554606	STOP	n/a	n/a	n/a	n/a	-999	11	[-999, -999, -999]	n/a	catFR1	0	R1405E
1518.909	2.317	1554611	DISTRACT_END	n/a	n/a	n/a	n/a	-999	11	[0, 0, 0]	n/a	catFR1	0	R1405E
1521.226	1.872	1556922	REC_START	n/a	n/a	n/a	n/a	-999	11	[0, 0, 0]	n/a	catFR1	0	R1405E
1523.098	1.287	1558795	REC_WORD	1.872	n/a	CHIMPANZEE	Zoo	7	11	[0, 0, 0]	n/a	catFR1	0	R1405E
1524.385	1.184	1560082	REC_WORD	3.159	n/a	TIGER	Zoo	3	11	[0, 0, 0]	n/a	catFR1	0	R1405E
1525.569	9.002	1561266	REC_WORD	4.343	n/a	LETTUCE	Vegetables	9	11	[0, 0, 0]	n/a	catFR1	0	R1405E
1534.571	6.096	1570268	REC_WORD	13.345	n/a	ZEBRA	n/a	-999	11	[0, 0, 0]	n/a	catFR1	0	R1405E
1540.667	4.527	1576364	REC_WORD	19.441	n/a	CELERY	Vegetables	2	11	[0, 0, 0]	n/a	catFR1	0	R1405E
1545.194	5.709	1580891	REC_WORD	23.968	n/a	TORNADO	Weather	12	11	[0, 0, 0]	n/a	catFR1	0	R1405E
1550.903	0.596	1586600	REC_WORD	29.677	n/a	HURRICANE	Weather	-999	11	[0, 0, 0]	n/a	catFR1	0	R1405E
1551.499	7.176	1587198	REC_END	n/a	n/a	n/a	n/a	-999	11	[0, 0, 0]	n/a	catFR1	0	R1405E
1558.675	10.349	1594370	COUNTDOWN_START	n/a	n/a	n/a	n/a	-999	12	[0, 0, 0]	n/a	catFR1	0	R1405E
1569.024	0.0	1604724	COUNTDOWN_END	n/a	n/a	n/a	n/a	-999	12	[0, 0, 0]	n/a	catFR1	0	R1405E
1569.024	2.017	1604724	ENCODING_START	n/a	n/a	n/a	n/a	-999	12	[0, 0, 0]	n/a	catFR1	0	R1405E
1571.041	1.6	1606742	WORD	n/a	wordpools/wordpool_categorized_EN.txt	CARROT	Vegetables	1	12	[0, 0, 0]	n/a	catFR1	0	R1405E
1572.641	0.9	1608338	WORD_OFF	n/a	n/a	CARROT	Vegetables	1	12	[0, 0, 0]	n/a	catFR1	0	R1405E
1573.541	1.6	1609239	WORD	n/a	wordpools/wordpool_categorized_EN.txt	SPINACH	Vegetables	2	12	[0, 0, 0]	n/a	catFR1	0	R1405E
1575.141	0.849	1610835	WORD_OFF	n/a	n/a	SPINACH	Vegetables	2	12	[0, 0, 0]	n/a	catFR1	0	R1405E
1575.99	1.601	1611690	WORD	n/a	wordpools/wordpool_categorized_EN.txt	WIND	Weather	3	12	[0, 0, 0]	n/a	catFR1	0	R1405E
1577.591	0.8	1613287	WORD_OFF	n/a	n/a	WIND	Weather	3	12	[0, 0, 0]	n/a	catFR1	0	R1405E
1578.391	1.6	1614085	WORD	n/a	wordpools/wordpool_categorized_EN.txt	RAIN	Weather	4	12	[0, 0, 0]	n/a	catFR1	0	R1405E
1579.991	0.949	1615693	WORD_OFF	n/a	n/a	RAIN	Weather	4	12	[0, 0, 0]	n/a	catFR1	0	R1405E
1580.94	1.6	1616639	WORD	n/a	wordpools/wordpool_categorized_EN.txt	ROOF	Building	5	12	[0, 0, 0]	n/a	catFR1	0	R1405E
1582.54	0.767	1618235	WORD_OFF	n/a	n/a	ROOF	Building	5	12	[0, 0, 0]	n/a	catFR1	0	R1405E
1583.307	1.616	1618999	WORD	n/a	wordpools/wordpool_categorized_EN.txt	BATHROOM	Building	6	12	[0, 0, 0]	n/a	catFR1	0	R1405E
1584.923	0.933	1620618	WORD_OFF	n/a	n/a	BATHROOM	Building	6	12	[0, 0, 0]	n/a	catFR1	0	R1405E
1585.856	1.601	1621553	WORD	n/a	wordpools/wordpool_categorized_EN.txt	FOG	Weather	7	12	[0, 0, 0]	n/a	catFR1	0	R1405E
1587.457	0.95	1623150	WORD_OFF	n/a	n/a	FOG	Weather	7	12	[0, 0, 0]	n/a	catFR1	0	R1405E
1588.407	1.6	1624108	WORD	n/a	wordpools/wordpool_categorized_EN.txt	HUMIDITY	Weather	8	12	[0, 0, 0]	n/a	catFR1	0	R1405E
1590.007	0.933	1625704	WORD_OFF	n/a	n/a	HUMIDITY	Weather	8	12	[0, 0, 0]	n/a	catFR1	0	R1405E
1590.94	1.617	1626639	WORD	n/a	wordpools/wordpool_categorized_EN.txt	WALL	Building	9	12	[0, 0, 0]	n/a	catFR1	0	R1405E
1592.557	0.85	1628258	WORD_OFF	n/a	n/a	WALL	Building	9	12	[0, 0, 0]	n/a	catFR1	0	R1405E
1593.407	1.616	1629102	WORD	n/a	wordpools/wordpool_categorized_EN.txt	WINDOW	Building	10	12	[0, 0, 0]	n/a	catFR1	0	R1405E
1595.023	0.9	1630721	WORD_OFF	n/a	n/a	WINDOW	Building	10	12	[0, 0, 0]	n/a	catFR1	0	R1405E
1595.923	1.6	1631622	WORD	n/a	wordpools/wordpool_categorized_EN.txt	CORN	Vegetables	11	12	[0, 0, 0]	n/a	catFR1	0	R1405E
1597.523	0.767	1633218	WORD_OFF	n/a	n/a	CORN	Vegetables	11	12	[0, 0, 0]	n/a	catFR1	0	R1405E
1598.29	1.616	1633993	WORD	n/a	wordpools/wordpool_categorized_EN.txt	PEAS	Vegetables	12	12	[0, 0, 0]	n/a	catFR1	0	R1405E
1599.906	0.001	1635601	WORD_OFF	n/a	n/a	PEAS	Vegetables	12	12	[0, 0, 0]	n/a	catFR1	0	R1405E
1599.907	0.0	1635601	ENCODING_END	n/a	n/a	n/a	n/a	-999	12	[0, 0, 0]	n/a	catFR1	0	R1405E
1599.907	0.0	1635604	START	n/a	n/a	n/a	n/a	-999	12	[-999, -999, -999]	n/a	catFR1	0	R1405E
1599.907	0.0	1635604	PROB	9.483	n/a	n/a	n/a	-999	12	[7, 8, 1]	16.0	catFR1	0	R1405E
1599.907	9.499	1635612	DISTRACT_START	n/a	n/a	n/a	n/a	-999	12	[0, 0, 0]	n/a	catFR1	0	R1405E
1609.406	4.25	1645103	PROB	4.232	n/a	n/a	n/a	-999	12	[2, 1, 7]	10.0	catFR1	0	R1405E
1613.656	4.85	1649353	PROB	4.832	n/a	n/a	n/a	-999	12	[7, 2, 3]	12.0	catFR1	0	R1405E
1618.506	3.15	1654203	PROB	3.133	n/a	n/a	n/a	-999	12	[2, 3, 3]	8.0	catFR1	0	R1405E
1621.656	0.0	1657353	STOP	n/a	n/a	n/a	n/a	-999	12	[-999, -999, -999]	n/a	catFR1	0	R1405E
1621.656	2.05	1657357	DISTRACT_END	n/a	n/a	n/a	n/a	-999	12	[0, 0, 0]	n/a	catFR1	0	R1405E
1623.706	2.091	1659406	REC_START	n/a	n/a	n/a	n/a	-999	12	[0, 0, 0]	n/a	catFR1	0	R1405E
1625.797	2.001	1661494	REC_WORD	2.091	n/a	ROOM	Building	-999	12	[0, 0, 0]	n/a	catFR1	0	R1405E
1627.798	4.34	1663495	REC_WORD	4.092	n/a	WIND	Weather	3	12	[0, 0, 0]	n/a	catFR1	0	R1405E
1632.138	9.695	1667835	REC_WORD	8.432	n/a	WALL	Building	9	12	[0, 0, 0]	n/a	catFR1	0	R1405E
1641.833	2.982	1677530	REC_WORD	18.127	n/a	CARROT	Vegetables	1	12	[0, 0, 0]	n/a	catFR1	0	R1405E
1644.815	9.153	1680512	REC_WORD	21.109	n/a	CELERY	Vegetables	-999	12	[0, 0, 0]	n/a	catFR1	0	R1405E
1653.968	0.0	1689659	REC_END	n/a	n/a	n/a	n/a	-999	12	[0, 0, 0]	n/a	catFR1	0	R1405E
