onset	duration	sample	trial_type	response_time	stim_file	item_name	category	serialpos	list	test	answer	experiment	session	subject
0.0	1.43	48747	INSTRUCT_START	n/a	n/a	n/a	n/a	-999	-999	[0, 0, 0]	n/a	catFR1	10	R1495J
1.43	26.885	50172	INSTRUCT_END	n/a	n/a	n/a	n/a	-999	-999	[0, 0, 0]	n/a	catFR1	10	R1495J
28.315	10.0	77070	COUNTDOWN_START	n/a	n/a	n/a	n/a	-999	-999	[0, 0, 0]	n/a	catFR1	10	R1495J
38.662	0.0	87410	COUNTDOWN_END	n/a	n/a	n/a	n/a	-999	-999	[0, 0, 0]	n/a	catFR1	10	R1495J
38.662	1.934	87410	ENCODING_START	n/a	n/a	n/a	n/a	-999	-1	[0, 0, 0]	n/a	catFR1	10	R1495J
40.596	1.6	89343	WORD	n/a	n/a	CAKE	Desserts	1	-1	[0, 0, 0]	n/a	catFR1	10	R1495J
42.214	0.999	90958	WORD_OFF	n/a	n/a	CAKE	Desserts	1	-1	[0, 0, 0]	n/a	catFR1	10	R1495J
43.213	1.6	91963	WORD	n/a	n/a	JELLO	Desserts	2	-1	[0, 0, 0]	n/a	catFR1	10	R1495J
44.829	0.999	93578	WORD_OFF	n/a	n/a	JELLO	Desserts	2	-1	[0, 0, 0]	n/a	catFR1	10	R1495J
45.828	1.6	94570	WORD	n/a	n/a	DRUM	Instruments	3	-1	[0, 0, 0]	n/a	catFR1	10	R1495J
47.428	1.0	96173	WORD_OFF	n/a	n/a	DRUM	Instruments	3	-1	[0, 0, 0]	n/a	catFR1	10	R1495J
48.428	1.6	97177	WORD	n/a	n/a	TROMBONE	Instruments	4	-1	[0, 0, 0]	n/a	catFR1	10	R1495J
50.03	0.832	98780	WORD_OFF	n/a	n/a	TROMBONE	Instruments	4	-1	[0, 0, 0]	n/a	catFR1	10	R1495J
50.862	1.6	99606	WORD	n/a	n/a	CYPRESS	Trees	5	-1	[0, 0, 0]	n/a	catFR1	10	R1495J
52.462	0.867	101209	WORD_OFF	n/a	n/a	CYPRESS	Trees	5	-1	[0, 0, 0]	n/a	catFR1	10	R1495J
53.329	1.6	102074	WORD	n/a	n/a	SPRUCE	Trees	6	-1	[0, 0, 0]	n/a	catFR1	10	R1495J
54.946	0.867	103689	WORD_OFF	n/a	n/a	SPRUCE	Trees	6	-1	[0, 0, 0]	n/a	catFR1	10	R1495J
55.813	1.6	104554	WORD	n/a	n/a	PASTRY	Desserts	7	-1	[0, 0, 0]	n/a	catFR1	10	R1495J
57.429	0.949	106169	WORD_OFF	n/a	n/a	PASTRY	Desserts	7	-1	[0, 0, 0]	n/a	catFR1	10	R1495J
58.378	1.6	107123	WORD	n/a	n/a	PIE	Desserts	8	-1	[0, 0, 0]	n/a	catFR1	10	R1495J
59.978	0.985	108725	WORD_OFF	n/a	n/a	PIE	Desserts	8	-1	[0, 0, 0]	n/a	catFR1	10	R1495J
60.963	1.6	109704	WORD	n/a	n/a	OAK	Trees	9	-1	[0, 0, 0]	n/a	catFR1	10	R1495J
62.58	0.782	111320	WORD_OFF	n/a	n/a	OAK	Trees	9	-1	[0, 0, 0]	n/a	catFR1	10	R1495J
63.362	1.6	112108	WORD	n/a	n/a	EVERGREEN	Trees	10	-1	[0, 0, 0]	n/a	catFR1	10	R1495J
64.963	0.95	113711	WORD_OFF	n/a	n/a	EVERGREEN	Trees	10	-1	[0, 0, 0]	n/a	catFR1	10	R1495J
65.913	1.6	114652	WORD	n/a	n/a	GUITAR	Instruments	11	-1	[0, 0, 0]	n/a	catFR1	10	R1495J
67.514	0.966	116254	WORD_OFF	n/a	n/a	GUITAR	Instruments	11	-1	[0, 0, 0]	n/a	catFR1	10	R1495J
68.48	1.6	117221	WORD	n/a	n/a	TRUMPET	Instruments	12	-1	[0, 0, 0]	n/a	catFR1	10	R1495J
70.082	0.001	118823	WORD_OFF	n/a	n/a	TRUMPET	Instruments	12	-1	[0, 0, 0]	n/a	catFR1	10	R1495J
70.083	0.0	118823	ENCODING_END	n/a	n/a	n/a	n/a	-999	-1	[0, 0, 0]	n/a	catFR1	10	R1495J
70.083	0.0	118823	DISTRACT_START	n/a	n/a	n/a	n/a	-999	-1	[0, 0, 0]	n/a	catFR1	10	R1495J
70.083	0.0	118828	START	n/a	n/a	n/a	n/a	-999	-1	[-999, -999, -999]	n/a	catFR1	10	R1495J
70.083	3.416	118828	PROB	3.399	n/a	n/a	n/a	-999	-1	[8, 3, 1]	12.0	catFR1	10	R1495J
73.499	2.682	122244	PROB	2.666	n/a	n/a	n/a	-999	-1	[4, 2, 1]	7.0	catFR1	10	R1495J
76.181	3.417	124926	PROB	3.399	n/a	n/a	n/a	-999	-1	[5, 7, 6]	18.0	catFR1	10	R1495J
79.598	1.866	128343	PROB	1.85	n/a	n/a	n/a	-999	-1	[2, 3, 7]	12.0	catFR1	10	R1495J
81.464	2.384	130209	PROB	2.367	n/a	n/a	n/a	-999	-1	[4, 3, 4]	11.0	catFR1	10	R1495J
83.848	3.217	132592	PROB	3.199	n/a	n/a	n/a	-999	-1	[8, 7, 7]	22.0	catFR1	10	R1495J
87.065	3.199	135809	PROB	3.182	n/a	n/a	n/a	-999	-1	[3, 5, 7]	15.0	catFR1	10	R1495J
90.264	0.0	139007	DISTRACT_END	n/a	n/a	n/a	n/a	-999	-1	[0, 0, 0]	n/a	catFR1	10	R1495J
90.264	2.165	139008	STOP	n/a	n/a	n/a	n/a	-999	-1	[-999, -999, -999]	n/a	catFR1	10	R1495J
92.429	0.0	141173	REC_WORD	0.0	n/a	DRUM	Instruments	3	-1	[0, 0, 0]	n/a	catFR1	10	R1495J
92.429	0.26	141177	REC_START	n/a	n/a	n/a	n/a	-999	-1	[0, 0, 0]	n/a	catFR1	10	R1495J
92.689	1.029	141433	REC_WORD	0.26	n/a	GUITAR	Instruments	11	-1	[0, 0, 0]	n/a	catFR1	10	R1495J
93.718	1.163	142462	REC_WORD	1.289	n/a	TROMBONE	Instruments	4	-1	[0, 0, 0]	n/a	catFR1	10	R1495J
94.881	7.581	143625	REC_WORD	2.452	n/a	TRUMPET	Instruments	12	-1	[0, 0, 0]	n/a	catFR1	10	R1495J
102.462	20.165	151206	REC_WORD	10.033	n/a	COMPASS	n/a	-999	-1	[0, 0, 0]	n/a	catFR1	10	R1495J
122.627	18.321	171374	REC_END	n/a	n/a	n/a	n/a	-999	-1	[0, 0, 0]	n/a	catFR1	10	R1495J
140.948	10.0	189688	COUNTDOWN_START	n/a	n/a	n/a	n/a	-999	1	[0, 0, 0]	n/a	catFR1	10	R1495J
151.298	0.0	200040	COUNTDOWN_END	n/a	n/a	n/a	n/a	-999	1	[0, 0, 0]	n/a	catFR1	10	R1495J
151.298	2.133	200040	ENCODING_START	n/a	n/a	n/a	n/a	-999	1	[0, 0, 0]	n/a	catFR1	10	R1495J
153.431	1.6	202177	WORD	n/a	wordpools/wordpool_categorized_EN.txt	PLANKTON	OceanAnimals	1	1	[0, 0, 0]	n/a	catFR1	10	R1495J
155.046	0.785	203792	WORD_OFF	n/a	n/a	PLANKTON	OceanAnimals	1	1	[0, 0, 0]	n/a	catFR1	10	R1495J
155.831	1.6	204568	WORD	n/a	wordpools/wordpool_categorized_EN.txt	JELLYFISH	OceanAnimals	2	1	[0, 0, 0]	n/a	catFR1	10	R1495J
157.447	1.001	206195	WORD_OFF	n/a	n/a	JELLYFISH	OceanAnimals	2	1	[0, 0, 0]	n/a	catFR1	10	R1495J
158.448	1.6	207187	WORD	n/a	wordpools/wordpool_categorized_EN.txt	DRILL	Tools	3	1	[0, 0, 0]	n/a	catFR1	10	R1495J
160.064	0.849	208803	WORD_OFF	n/a	n/a	DRILL	Tools	3	1	[0, 0, 0]	n/a	catFR1	10	R1495J
160.913	1.6	209655	WORD	n/a	wordpools/wordpool_categorized_EN.txt	SHOVEL	Tools	4	1	[0, 0, 0]	n/a	catFR1	10	R1495J
162.514	0.967	211257	WORD_OFF	n/a	n/a	SHOVEL	Tools	4	1	[0, 0, 0]	n/a	catFR1	10	R1495J
163.481	1.6	212224	WORD	n/a	wordpools/wordpool_categorized_EN.txt	LION	Zoo	5	1	[0, 0, 0]	n/a	catFR1	10	R1495J
165.097	0.867	213839	WORD_OFF	n/a	n/a	LION	Zoo	5	1	[0, 0, 0]	n/a	catFR1	10	R1495J
165.964	1.6	214704	WORD	n/a	wordpools/wordpool_categorized_EN.txt	GORILLA	Zoo	6	1	[0, 0, 0]	n/a	catFR1	10	R1495J
167.581	0.95	216319	WORD_OFF	n/a	n/a	GORILLA	Zoo	6	1	[0, 0, 0]	n/a	catFR1	10	R1495J
168.531	1.6	217273	WORD	n/a	wordpools/wordpool_categorized_EN.txt	LOBSTER	OceanAnimals	7	1	[0, 0, 0]	n/a	catFR1	10	R1495J
170.146	1.001	218888	WORD_OFF	n/a	n/a	LOBSTER	OceanAnimals	7	1	[0, 0, 0]	n/a	catFR1	10	R1495J
171.147	1.6	219893	WORD	n/a	wordpools/wordpool_categorized_EN.txt	SQUID	OceanAnimals	8	1	[0, 0, 0]	n/a	catFR1	10	R1495J
172.747	0.85	221482	WORD_OFF	n/a	n/a	SQUID	OceanAnimals	8	1	[0, 0, 0]	n/a	catFR1	10	R1495J
173.597	1.6	222335	WORD	n/a	wordpools/wordpool_categorized_EN.txt	RATCHET	Tools	9	1	[0, 0, 0]	n/a	catFR1	10	R1495J
175.197	0.767	223937	WORD_OFF	n/a	n/a	RATCHET	Tools	9	1	[0, 0, 0]	n/a	catFR1	10	R1495J
175.964	1.6	224700	WORD	n/a	wordpools/wordpool_categorized_EN.txt	SCREWDRIVER	Tools	10	1	[0, 0, 0]	n/a	catFR1	10	R1495J
177.564	0.933	226303	WORD_OFF	n/a	n/a	SCREWDRIVER	Tools	10	1	[0, 0, 0]	n/a	catFR1	10	R1495J
178.497	1.6	227244	WORD	n/a	wordpools/wordpool_categorized_EN.txt	MONKEY	Zoo	11	1	[0, 0, 0]	n/a	catFR1	10	R1495J
180.114	0.866	228859	WORD_OFF	n/a	n/a	MONKEY	Zoo	11	1	[0, 0, 0]	n/a	catFR1	10	R1495J
180.98	1.6	229724	WORD	n/a	wordpools/wordpool_categorized_EN.txt	CHIMPANZEE	Zoo	12	1	[0, 0, 0]	n/a	catFR1	10	R1495J
182.597	0.0	231337	START	n/a	n/a	n/a	n/a	-999	1	[-999, -999, -999]	n/a	catFR1	10	R1495J
182.597	0.0	231337	PROB	2.3	n/a	n/a	n/a	-999	1	[2, 2, 7]	11.0	catFR1	10	R1495J
182.596	0.001	231339	WORD_OFF	n/a	n/a	CHIMPANZEE	Zoo	12	1	[0, 0, 0]	n/a	catFR1	10	R1495J
182.597	0.0	231339	ENCODING_END	n/a	n/a	n/a	n/a	-999	1	[0, 0, 0]	n/a	catFR1	10	R1495J
182.597	2.318	231339	DISTRACT_START	n/a	n/a	n/a	n/a	-999	1	[0, 0, 0]	n/a	catFR1	10	R1495J
184.915	1.733	233655	PROB	1.716	n/a	n/a	n/a	-999	1	[1, 6, 2]	9.0	catFR1	10	R1495J
186.648	2.601	235388	PROB	2.583	n/a	n/a	n/a	-999	1	[3, 8, 4]	15.0	catFR1	10	R1495J
189.249	2.815	237989	PROB	2.8	n/a	n/a	n/a	-999	1	[4, 6, 7]	17.0	catFR1	10	R1495J
192.064	4.533	240804	PROB	4.517	n/a	n/a	n/a	-999	1	[4, 7, 6]	17.0	catFR1	10	R1495J
196.597	1.753	245337	PROB	1.733	n/a	n/a	n/a	-999	1	[1, 5, 3]	9.0	catFR1	10	R1495J
198.35	1.716	247090	PROB	1.699	n/a	n/a	n/a	-999	1	[2, 2, 4]	8.0	catFR1	10	R1495J
200.066	5.997	248806	PROB	5.983	n/a	n/a	n/a	-999	1	[3, 5, 6]	14.0	catFR1	10	R1495J
206.063	0.0	254802	STOP	n/a	n/a	n/a	n/a	-999	1	[-999, -999, -999]	n/a	catFR1	10	R1495J
206.063	2.399	254803	DISTRACT_END	n/a	n/a	n/a	n/a	-999	1	[0, 0, 0]	n/a	catFR1	10	R1495J
208.462	0.0	257201	REC_WORD	0.0	n/a	GORILLA	Zoo	6	1	[0, 0, 0]	n/a	catFR1	10	R1495J
208.462	0.554	257202	REC_START	n/a	n/a	n/a	n/a	-999	1	[0, 0, 0]	n/a	catFR1	10	R1495J
209.016	0.893	257755	REC_WORD	0.554	n/a	CHIMPANZEE	Zoo	12	1	[0, 0, 0]	n/a	catFR1	10	R1495J
209.909	1.505	258648	REC_WORD	1.447	n/a	RATCHET	Tools	9	1	[0, 0, 0]	n/a	catFR1	10	R1495J
211.414	3.432	260153	REC_WORD	2.952	n/a	SCREWDRIVER	Tools	10	1	[0, 0, 0]	n/a	catFR1	10	R1495J
214.846	23.798	263585	REC_WORD	6.384	n/a	DRILL	Tools	3	1	[0, 0, 0]	n/a	catFR1	10	R1495J
238.644	1.186	287387	REC_END	n/a	n/a	n/a	n/a	-999	1	[0, 0, 0]	n/a	catFR1	10	R1495J
239.83	10.0	288570	COUNTDOWN_START	n/a	n/a	n/a	n/a	-999	2	[0, 0, 0]	n/a	catFR1	10	R1495J
250.181	0.0	298922	COUNTDOWN_END	n/a	n/a	n/a	n/a	-999	2	[0, 0, 0]	n/a	catFR1	10	R1495J
250.181	2.25	298922	ENCODING_START	n/a	n/a	n/a	n/a	-999	2	[0, 0, 0]	n/a	catFR1	10	R1495J
252.431	1.6	301173	WORD	n/a	wordpools/wordpool_categorized_EN.txt	CHERRY	Fruit	1	2	[0, 0, 0]	n/a	catFR1	10	R1495J
254.048	0.816	302788	WORD_OFF	n/a	n/a	CHERRY	Fruit	1	2	[0, 0, 0]	n/a	catFR1	10	R1495J
254.864	1.6	303602	WORD	n/a	wordpools/wordpool_categorized_EN.txt	APPLE	Fruit	2	2	[0, 0, 0]	n/a	catFR1	10	R1495J
256.481	0.764	305217	WORD_OFF	n/a	n/a	APPLE	Fruit	2	2	[0, 0, 0]	n/a	catFR1	10	R1495J
257.245	1.6	305980	WORD	n/a	wordpools/wordpool_categorized_EN.txt	BEETLE	Insects	3	2	[0, 0, 0]	n/a	catFR1	10	R1495J
258.847	0.984	307583	WORD_OFF	n/a	n/a	BEETLE	Insects	3	2	[0, 0, 0]	n/a	catFR1	10	R1495J
259.831	1.6	308562	WORD	n/a	wordpools/wordpool_categorized_EN.txt	ANT	Insects	4	2	[0, 0, 0]	n/a	catFR1	10	R1495J
261.448	0.899	310190	WORD_OFF	n/a	n/a	ANT	Insects	4	2	[0, 0, 0]	n/a	catFR1	10	R1495J
262.347	1.6	311080	WORD	n/a	wordpools/wordpool_categorized_EN.txt	CIDER	Beverages	5	2	[0, 0, 0]	n/a	catFR1	10	R1495J
263.962	0.785	312695	WORD_OFF	n/a	n/a	CIDER	Beverages	5	2	[0, 0, 0]	n/a	catFR1	10	R1495J
264.747	1.6	313484	WORD	n/a	wordpools/wordpool_categorized_EN.txt	WINE	Beverages	6	2	[0, 0, 0]	n/a	catFR1	10	R1495J
266.348	0.816	315086	WORD_OFF	n/a	n/a	WINE	Beverages	6	2	[0, 0, 0]	n/a	catFR1	10	R1495J
267.164	1.6	315900	WORD	n/a	wordpools/wordpool_categorized_EN.txt	ROACH	Insects	7	2	[0, 0, 0]	n/a	catFR1	10	R1495J
268.781	0.866	317516	WORD_OFF	n/a	n/a	ROACH	Insects	7	2	[0, 0, 0]	n/a	catFR1	10	R1495J
269.647	1.6	318380	WORD	n/a	wordpools/wordpool_categorized_EN.txt	FLY	Insects	8	2	[0, 0, 0]	n/a	catFR1	10	R1495J
271.248	0.816	319983	WORD_OFF	n/a	n/a	FLY	Insects	8	2	[0, 0, 0]	n/a	catFR1	10	R1495J
272.064	1.6	320797	WORD	n/a	wordpools/wordpool_categorized_EN.txt	MILK	Beverages	9	2	[0, 0, 0]	n/a	catFR1	10	R1495J
273.664	0.8	322399	WORD_OFF	n/a	n/a	MILK	Beverages	9	2	[0, 0, 0]	n/a	catFR1	10	R1495J
274.464	1.6	323200	WORD	n/a	wordpools/wordpool_categorized_EN.txt	WATER	Beverages	10	2	[0, 0, 0]	n/a	catFR1	10	R1495J
276.064	0.967	324803	WORD_OFF	n/a	n/a	WATER	Beverages	10	2	[0, 0, 0]	n/a	catFR1	10	R1495J
277.031	1.6	325770	WORD	n/a	wordpools/wordpool_categorized_EN.txt	BANANA	Fruit	11	2	[0, 0, 0]	n/a	catFR1	10	R1495J
278.631	0.932	327372	WORD_OFF	n/a	n/a	BANANA	Fruit	11	2	[0, 0, 0]	n/a	catFR1	10	R1495J
279.563	1.6	328300	WORD	n/a	wordpools/wordpool_categorized_EN.txt	PLUM	Fruit	12	2	[0, 0, 0]	n/a	catFR1	10	R1495J
281.165	0.001	329901	PROB	2.715	n/a	n/a	n/a	-999	2	[5, 1, 3]	9.0	catFR1	10	R1495J
281.166	0.0	329902	START	n/a	n/a	n/a	n/a	-999	2	[-999, -999, -999]	n/a	catFR1	10	R1495J
281.164	0.002	329903	WORD_OFF	n/a	n/a	PLUM	Fruit	12	2	[0, 0, 0]	n/a	catFR1	10	R1495J
281.166	0.0	329903	ENCODING_END	n/a	n/a	n/a	n/a	-999	2	[0, 0, 0]	n/a	catFR1	10	R1495J
281.166	2.732	329903	DISTRACT_START	n/a	n/a	n/a	n/a	-999	2	[0, 0, 0]	n/a	catFR1	10	R1495J
283.898	3.049	332634	PROB	3.033	n/a	n/a	n/a	-999	2	[4, 4, 5]	13.0	catFR1	10	R1495J
286.947	3.534	335683	PROB	3.517	n/a	n/a	n/a	-999	2	[8, 8, 8]	24.0	catFR1	10	R1495J
290.481	4.917	339217	PROB	4.899	n/a	n/a	n/a	-999	2	[8, 7, 8]	23.0	catFR1	10	R1495J
295.398	3.632	344134	PROB	3.616	n/a	n/a	n/a	-999	2	[7, 6, 5]	18.0	catFR1	10	R1495J
299.03	2.433	347765	PROB	2.416	n/a	n/a	n/a	-999	2	[7, 6, 4]	17.0	catFR1	10	R1495J
301.463	0.0	350198	STOP	n/a	n/a	n/a	n/a	-999	2	[-999, -999, -999]	n/a	catFR1	10	R1495J
301.463	2.118	350201	DISTRACT_END	n/a	n/a	n/a	n/a	-999	2	[0, 0, 0]	n/a	catFR1	10	R1495J
303.581	0.36	352320	REC_START	n/a	n/a	n/a	n/a	-999	2	[0, 0, 0]	n/a	catFR1	10	R1495J
303.941	3.105	352676	REC_WORD	0.36	n/a	PLUM	Fruit	12	2	[0, 0, 0]	n/a	catFR1	10	R1495J
307.046	2.26	355781	REC_WORD	3.465	n/a	APPLE	Fruit	2	2	[0, 0, 0]	n/a	catFR1	10	R1495J
309.306	12.872	358041	REC_WORD	5.725	n/a	CHERRY	Fruit	1	2	[0, 0, 0]	n/a	catFR1	10	R1495J
322.178	11.605	370912	REC_WORD	18.597	n/a	ANT	Insects	4	2	[0, 0, 0]	n/a	catFR1	10	R1495J
333.783	1.995	382517	REC_END	n/a	n/a	n/a	n/a	-999	2	[0, 0, 0]	n/a	catFR1	10	R1495J
335.778	10.0	384514	COUNTDOWN_START	n/a	n/a	n/a	n/a	-999	3	[0, 0, 0]	n/a	catFR1	10	R1495J
346.13	0.0	394866	COUNTDOWN_END	n/a	n/a	n/a	n/a	-999	3	[0, 0, 0]	n/a	catFR1	10	R1495J
346.13	1.984	394866	ENCODING_START	n/a	n/a	n/a	n/a	-999	3	[0, 0, 0]	n/a	catFR1	10	R1495J
348.114	1.6	396850	WORD	n/a	wordpools/wordpool_categorized_EN.txt	TABLE	Furniture	1	3	[0, 0, 0]	n/a	catFR1	10	R1495J
349.731	0.933	398465	WORD_OFF	n/a	n/a	TABLE	Furniture	1	3	[0, 0, 0]	n/a	catFR1	10	R1495J
350.664	1.6	399394	WORD	n/a	wordpools/wordpool_categorized_EN.txt	SOFA	Furniture	2	3	[0, 0, 0]	n/a	catFR1	10	R1495J
352.281	0.767	401009	WORD_OFF	n/a	n/a	SOFA	Furniture	2	3	[0, 0, 0]	n/a	catFR1	10	R1495J
353.048	1.6	401785	WORD	n/a	wordpools/wordpool_categorized_EN.txt	BIKE	Vehicles	3	3	[0, 0, 0]	n/a	catFR1	10	R1495J
354.647	0.884	403374	WORD_OFF	n/a	n/a	BIKE	Vehicles	3	3	[0, 0, 0]	n/a	catFR1	10	R1495J
355.531	1.6	404265	WORD	n/a	wordpools/wordpool_categorized_EN.txt	VAN	Vehicles	4	3	[0, 0, 0]	n/a	catFR1	10	R1495J
357.131	0.916	405867	WORD_OFF	n/a	n/a	VAN	Vehicles	4	3	[0, 0, 0]	n/a	catFR1	10	R1495J
358.047	1.6	406783	WORD	n/a	wordpools/wordpool_categorized_EN.txt	TEA	Beverages	5	3	[0, 0, 0]	n/a	catFR1	10	R1495J
359.664	1.0	408398	WORD_OFF	n/a	n/a	TEA	Beverages	5	3	[0, 0, 0]	n/a	catFR1	10	R1495J
360.664	1.6	409403	WORD	n/a	wordpools/wordpool_categorized_EN.txt	BEER	Beverages	6	3	[0, 0, 0]	n/a	catFR1	10	R1495J
362.264	0.783	410992	WORD_OFF	n/a	n/a	BEER	Beverages	6	3	[0, 0, 0]	n/a	catFR1	10	R1495J
363.047	1.6	411781	WORD	n/a	wordpools/wordpool_categorized_EN.txt	JEEP	Vehicles	7	3	[0, 0, 0]	n/a	catFR1	10	R1495J
364.648	0.832	413383	WORD_OFF	n/a	n/a	JEEP	Vehicles	7	3	[0, 0, 0]	n/a	catFR1	10	R1495J
365.48	1.6	414210	WORD	n/a	wordpools/wordpool_categorized_EN.txt	CAR	Vehicles	8	3	[0, 0, 0]	n/a	catFR1	10	R1495J
367.081	1.0	415813	WORD_OFF	n/a	n/a	CAR	Vehicles	8	3	[0, 0, 0]	n/a	catFR1	10	R1495J
368.081	1.6	416817	WORD	n/a	wordpools/wordpool_categorized_EN.txt	SHELF	Furniture	9	3	[0, 0, 0]	n/a	catFR1	10	R1495J
369.681	0.899	418407	WORD_OFF	n/a	n/a	SHELF	Furniture	9	3	[0, 0, 0]	n/a	catFR1	10	R1495J
370.58	1.6	419310	WORD	n/a	wordpools/wordpool_categorized_EN.txt	CABINET	Furniture	10	3	[0, 0, 0]	n/a	catFR1	10	R1495J
372.197	0.917	420925	WORD_OFF	n/a	n/a	CABINET	Furniture	10	3	[0, 0, 0]	n/a	catFR1	10	R1495J
373.114	1.6	421854	WORD	n/a	wordpools/wordpool_categorized_EN.txt	JUICE	Beverages	11	3	[0, 0, 0]	n/a	catFR1	10	R1495J
374.731	0.833	423469	WORD_OFF	n/a	n/a	JUICE	Beverages	11	3	[0, 0, 0]	n/a	catFR1	10	R1495J
375.564	1.6	424295	WORD	n/a	wordpools/wordpool_categorized_EN.txt	LEMONADE	Beverages	12	3	[0, 0, 0]	n/a	catFR1	10	R1495J
377.165	0.0	425897	PROB	1.799	n/a	n/a	n/a	-999	3	[1, 1, 1]	3.0	catFR1	10	R1495J
377.164	0.002	425898	WORD_OFF	n/a	n/a	LEMONADE	Beverages	12	3	[0, 0, 0]	n/a	catFR1	10	R1495J
377.166	0.0	425898	ENCODING_END	n/a	n/a	n/a	n/a	-999	3	[0, 0, 0]	n/a	catFR1	10	R1495J
377.166	0.0	425898	DISTRACT_START	n/a	n/a	n/a	n/a	-999	3	[0, 0, 0]	n/a	catFR1	10	R1495J
377.166	1.814	425898	START	n/a	n/a	n/a	n/a	-999	3	[-999, -999, -999]	n/a	catFR1	10	R1495J
378.98	2.468	427712	PROB	2.449	n/a	n/a	n/a	-999	3	[5, 8, 7]	20.0	catFR1	10	R1495J
381.448	2.116	430180	PROB	2.1	n/a	n/a	n/a	-999	3	[3, 1, 7]	11.0	catFR1	10	R1495J
383.564	3.567	432296	PROB	3.55	n/a	n/a	n/a	-999	3	[7, 2, 5]	14.0	catFR1	10	R1495J
387.131	4.267	435863	PROB	4.249	n/a	n/a	n/a	-999	3	[4, 3, 3]	10.0	catFR1	10	R1495J
391.398	2.183	440130	PROB	2.166	n/a	n/a	n/a	-999	3	[2, 4, 1]	7.0	catFR1	10	R1495J
393.581	2.583	442312	PROB	2.566	n/a	n/a	n/a	-999	3	[5, 7, 5]	17.0	catFR1	10	R1495J
396.164	1.999	444895	PROB	1.983	n/a	n/a	n/a	-999	3	[3, 4, 6]	13.0	catFR1	10	R1495J
398.163	0.0	446894	STOP	n/a	n/a	n/a	n/a	-999	3	[-999, -999, -999]	n/a	catFR1	10	R1495J
398.163	2.05	446895	DISTRACT_END	n/a	n/a	n/a	n/a	-999	3	[0, 0, 0]	n/a	catFR1	10	R1495J
400.213	3.151	448938	REC_START	n/a	n/a	n/a	n/a	-999	3	[0, 0, 0]	n/a	catFR1	10	R1495J
403.364	1.365	452095	REC_WORD	3.151	n/a	JUICE	Beverages	11	3	[0, 0, 0]	n/a	catFR1	10	R1495J
404.729	3.559	453460	REC_WORD	4.516	n/a	APPLE	Fruit	-999	3	[0, 0, 0]	n/a	catFR1	10	R1495J
408.288	1.002	457019	REC_WORD	8.075	n/a	CABINET	Furniture	10	3	[0, 0, 0]	n/a	catFR1	10	R1495J
409.29	1.687	458021	REC_WORD	9.077	n/a	CHAIR	n/a	-999	3	[0, 0, 0]	n/a	catFR1	10	R1495J
410.977	11.416	459708	REC_WORD	10.764	n/a	TABLE	Furniture	1	3	[0, 0, 0]	n/a	catFR1	10	R1495J
422.393	0.587	471123	REC_WORD	22.18	n/a	VAN	Vehicles	4	3	[0, 0, 0]	n/a	catFR1	10	R1495J
422.98	7.431	471710	REC_WORD	22.767	n/a	JEEP	Vehicles	7	3	[0, 0, 0]	n/a	catFR1	10	R1495J
430.411	1.27	479135	REC_END	n/a	n/a	n/a	n/a	-999	3	[0, 0, 0]	n/a	catFR1	10	R1495J
431.681	10.0	480407	COUNTDOWN_START	n/a	n/a	n/a	n/a	-999	4	[0, 0, 0]	n/a	catFR1	10	R1495J
442.031	0.0	490759	COUNTDOWN_END	n/a	n/a	n/a	n/a	-999	4	[0, 0, 0]	n/a	catFR1	10	R1495J
442.031	2.15	490759	ENCODING_START	n/a	n/a	n/a	n/a	-999	4	[0, 0, 0]	n/a	catFR1	10	R1495J
444.181	1.6	492909	WORD	n/a	wordpools/wordpool_categorized_EN.txt	STOVE	Appliances	1	4	[0, 0, 0]	n/a	catFR1	10	R1495J
445.798	0.916	494524	WORD_OFF	n/a	n/a	STOVE	Appliances	1	4	[0, 0, 0]	n/a	catFR1	10	R1495J
446.714	1.6	495440	WORD	n/a	wordpools/wordpool_categorized_EN.txt	REFRIGERATOR	Appliances	2	4	[0, 0, 0]	n/a	catFR1	10	R1495J
448.314	1.0	497042	WORD_OFF	n/a	n/a	REFRIGERATOR	Appliances	2	4	[0, 0, 0]	n/a	catFR1	10	R1495J
449.314	1.6	498047	WORD	n/a	wordpools/wordpool_categorized_EN.txt	RUM	Beverages	3	4	[0, 0, 0]	n/a	catFR1	10	R1495J
450.914	0.917	499649	WORD_OFF	n/a	n/a	RUM	Beverages	3	4	[0, 0, 0]	n/a	catFR1	10	R1495J
451.831	1.6	500565	WORD	n/a	wordpools/wordpool_categorized_EN.txt	COFFEE	Beverages	4	4	[0, 0, 0]	n/a	catFR1	10	R1495J
453.431	0.9	502155	WORD_OFF	n/a	n/a	COFFEE	Beverages	4	4	[0, 0, 0]	n/a	catFR1	10	R1495J
454.331	1.6	503058	WORD	n/a	wordpools/wordpool_categorized_EN.txt	VIOLIN	Instruments	5	4	[0, 0, 0]	n/a	catFR1	10	R1495J
455.948	0.916	504673	WORD_OFF	n/a	n/a	VIOLIN	Instruments	5	4	[0, 0, 0]	n/a	catFR1	10	R1495J
456.864	1.6	505588	WORD	n/a	wordpools/wordpool_categorized_EN.txt	ORGAN	Instruments	6	4	[0, 0, 0]	n/a	catFR1	10	R1495J
458.481	0.866	507211	WORD_OFF	n/a	n/a	ORGAN	Instruments	6	4	[0, 0, 0]	n/a	catFR1	10	R1495J
459.347	1.6	508081	WORD	n/a	wordpools/wordpool_categorized_EN.txt	FREEZER	Appliances	7	4	[0, 0, 0]	n/a	catFR1	10	R1495J
460.964	0.967	509696	WORD_OFF	n/a	n/a	FREEZER	Appliances	7	4	[0, 0, 0]	n/a	catFR1	10	R1495J
461.931	1.6	510663	WORD	n/a	wordpools/wordpool_categorized_EN.txt	MIXER	Appliances	8	4	[0, 0, 0]	n/a	catFR1	10	R1495J
463.531	0.9	512265	WORD_OFF	n/a	n/a	MIXER	Appliances	8	4	[0, 0, 0]	n/a	catFR1	10	R1495J
464.431	1.6	513156	WORD	n/a	wordpools/wordpool_categorized_EN.txt	PIANO	Instruments	9	4	[0, 0, 0]	n/a	catFR1	10	R1495J
466.047	0.884	514771	WORD_OFF	n/a	n/a	PIANO	Instruments	9	4	[0, 0, 0]	n/a	catFR1	10	R1495J
466.931	1.6	515661	WORD	n/a	wordpools/wordpool_categorized_EN.txt	BASS	Instruments	10	4	[0, 0, 0]	n/a	catFR1	10	R1495J
468.548	0.949	517276	WORD_OFF	n/a	n/a	BASS	Instruments	10	4	[0, 0, 0]	n/a	catFR1	10	R1495J
469.497	1.6	518230	WORD	n/a	wordpools/wordpool_categorized_EN.txt	SODA	Beverages	11	4	[0, 0, 0]	n/a	catFR1	10	R1495J
471.097	0.817	519820	WORD_OFF	n/a	n/a	SODA	Beverages	11	4	[0, 0, 0]	n/a	catFR1	10	R1495J
471.914	1.6	520646	WORD	n/a	wordpools/wordpool_categorized_EN.txt	COLA	Beverages	12	4	[0, 0, 0]	n/a	catFR1	10	R1495J
473.531	0.0	522259	PROB	4.415	n/a	n/a	n/a	-999	4	[6, 6, 4]	16.0	catFR1	10	R1495J
473.531	0.003	522262	WORD_OFF	n/a	n/a	COLA	Beverages	12	4	[0, 0, 0]	n/a	catFR1	10	R1495J
473.534	0.0	522262	ENCODING_END	n/a	n/a	n/a	n/a	-999	4	[0, 0, 0]	n/a	catFR1	10	R1495J
473.534	0.0	522262	DISTRACT_START	n/a	n/a	n/a	n/a	-999	4	[0, 0, 0]	n/a	catFR1	10	R1495J
473.534	4.429	522262	START	n/a	n/a	n/a	n/a	-999	4	[-999, -999, -999]	n/a	catFR1	10	R1495J
477.963	2.818	526691	PROB	2.801	n/a	n/a	n/a	-999	4	[8, 6, 1]	15.0	catFR1	10	R1495J
480.781	2.449	529509	PROB	2.433	n/a	n/a	n/a	-999	4	[1, 2, 8]	11.0	catFR1	10	R1495J
483.23	1.817	531958	PROB	1.799	n/a	n/a	n/a	-999	4	[1, 3, 3]	7.0	catFR1	10	R1495J
485.047	2.284	533775	PROB	2.266	n/a	n/a	n/a	-999	4	[2, 5, 4]	11.0	catFR1	10	R1495J
487.331	1.699	536058	PROB	1.683	n/a	n/a	n/a	-999	4	[7, 1, 1]	9.0	catFR1	10	R1495J
489.03	2.2	537757	PROB	2.184	n/a	n/a	n/a	-999	4	[2, 4, 3]	9.0	catFR1	10	R1495J
491.23	3.166	539957	PROB	3.148	n/a	n/a	n/a	-999	4	[3, 1, 8]	12.0	catFR1	10	R1495J
494.396	0.0	543119	DISTRACT_END	n/a	n/a	n/a	n/a	-999	4	[0, 0, 0]	n/a	catFR1	10	R1495J
494.396	2.233	543123	STOP	n/a	n/a	n/a	n/a	-999	4	[-999, -999, -999]	n/a	catFR1	10	R1495J
496.629	6.22	545353	REC_START	n/a	n/a	n/a	n/a	-999	4	[0, 0, 0]	n/a	catFR1	10	R1495J
502.849	2.078	551576	REC_WORD	6.22	n/a	PIANO	Instruments	9	4	[0, 0, 0]	n/a	catFR1	10	R1495J
504.927	0.696	553654	REC_WORD	8.298	n/a	MIXER	Appliances	8	4	[0, 0, 0]	n/a	catFR1	10	R1495J
505.623	21.209	554350	REC_WORD	8.994	n/a	REFRIGERATOR	Appliances	2	4	[0, 0, 0]	n/a	catFR1	10	R1495J
526.832	1.582	575563	REC_END	n/a	n/a	n/a	n/a	-999	4	[0, 0, 0]	n/a	catFR1	10	R1495J
528.414	10.0	577140	COUNTDOWN_START	n/a	n/a	n/a	n/a	-999	5	[0, 0, 0]	n/a	catFR1	10	R1495J
538.764	0.0	587492	COUNTDOWN_END	n/a	n/a	n/a	n/a	-999	5	[0, 0, 0]	n/a	catFR1	10	R1495J
538.764	2.367	587492	ENCODING_START	n/a	n/a	n/a	n/a	-999	5	[0, 0, 0]	n/a	catFR1	10	R1495J
541.131	1.6	589858	WORD	n/a	wordpools/wordpool_categorized_EN.txt	BANJO	Instruments	1	5	[0, 0, 0]	n/a	catFR1	10	R1495J
542.731	0.899	591460	WORD_OFF	n/a	n/a	BANJO	Instruments	1	5	[0, 0, 0]	n/a	catFR1	10	R1495J
543.63	1.6	592350	WORD	n/a	wordpools/wordpool_categorized_EN.txt	CELLO	Instruments	2	5	[0, 0, 0]	n/a	catFR1	10	R1495J
545.231	0.783	593953	WORD_OFF	n/a	n/a	CELLO	Instruments	2	5	[0, 0, 0]	n/a	catFR1	10	R1495J
546.014	1.6	594741	WORD	n/a	wordpools/wordpool_categorized_EN.txt	CARNATION	Flowers	3	5	[0, 0, 0]	n/a	catFR1	10	R1495J
547.614	0.984	596344	WORD_OFF	n/a	n/a	CARNATION	Flowers	3	5	[0, 0, 0]	n/a	catFR1	10	R1495J
548.598	1.6	597323	WORD	n/a	wordpools/wordpool_categorized_EN.txt	DAISY	Flowers	4	5	[0, 0, 0]	n/a	catFR1	10	R1495J
550.214	0.834	598938	WORD_OFF	n/a	n/a	DAISY	Flowers	4	5	[0, 0, 0]	n/a	catFR1	10	R1495J
551.048	1.6	599778	WORD	n/a	wordpools/wordpool_categorized_EN.txt	FISH	OceanAnimals	5	5	[0, 0, 0]	n/a	catFR1	10	R1495J
552.648	0.799	601367	WORD_OFF	n/a	n/a	FISH	OceanAnimals	5	5	[0, 0, 0]	n/a	catFR1	10	R1495J
553.447	1.6	602168	WORD	n/a	wordpools/wordpool_categorized_EN.txt	CRAB	OceanAnimals	6	5	[0, 0, 0]	n/a	catFR1	10	R1495J
555.047	0.95	603771	WORD_OFF	n/a	n/a	CRAB	OceanAnimals	6	5	[0, 0, 0]	n/a	catFR1	10	R1495J
555.997	1.6	604725	WORD	n/a	wordpools/wordpool_categorized_EN.txt	FLUTE	Instruments	7	5	[0, 0, 0]	n/a	catFR1	10	R1495J
557.597	0.767	606327	WORD_OFF	n/a	n/a	FLUTE	Instruments	7	5	[0, 0, 0]	n/a	catFR1	10	R1495J
558.364	1.6	607090	WORD	n/a	wordpools/wordpool_categorized_EN.txt	TUBA	Instruments	8	5	[0, 0, 0]	n/a	catFR1	10	R1495J
559.964	0.767	608693	WORD_OFF	n/a	n/a	TUBA	Instruments	8	5	[0, 0, 0]	n/a	catFR1	10	R1495J
560.731	1.6	609456	WORD	n/a	wordpools/wordpool_categorized_EN.txt	LILY	Flowers	9	5	[0, 0, 0]	n/a	catFR1	10	R1495J
562.331	1.0	611058	WORD_OFF	n/a	n/a	LILY	Flowers	9	5	[0, 0, 0]	n/a	catFR1	10	R1495J
563.331	1.6	612050	WORD	n/a	wordpools/wordpool_categorized_EN.txt	LILAC	Flowers	10	5	[0, 0, 0]	n/a	catFR1	10	R1495J
564.931	0.766	613653	WORD_OFF	n/a	n/a	LILAC	Flowers	10	5	[0, 0, 0]	n/a	catFR1	10	R1495J
565.697	1.6	614416	WORD	n/a	wordpools/wordpool_categorized_EN.txt	OYSTER	OceanAnimals	11	5	[0, 0, 0]	n/a	catFR1	10	R1495J
567.297	0.817	616018	WORD_OFF	n/a	n/a	OYSTER	OceanAnimals	11	5	[0, 0, 0]	n/a	catFR1	10	R1495J
568.114	1.6	616832	WORD	n/a	wordpools/wordpool_categorized_EN.txt	OCTOPUS	OceanAnimals	12	5	[0, 0, 0]	n/a	catFR1	10	R1495J
569.714	0.001	618435	WORD_OFF	n/a	n/a	OCTOPUS	OceanAnimals	12	5	[0, 0, 0]	n/a	catFR1	10	R1495J
569.715	0.0	618435	ENCODING_END	n/a	n/a	n/a	n/a	-999	5	[0, 0, 0]	n/a	catFR1	10	R1495J
569.715	0.001	618439	PROB	2.333	n/a	n/a	n/a	-999	5	[4, 6, 3]	13.0	catFR1	10	R1495J
569.716	0.0	618440	START	n/a	n/a	n/a	n/a	-999	5	[-999, -999, -999]	n/a	catFR1	10	R1495J
569.716	2.349	618447	DISTRACT_START	n/a	n/a	n/a	n/a	-999	5	[0, 0, 0]	n/a	catFR1	10	R1495J
572.065	2.483	620789	PROB	2.466	n/a	n/a	n/a	-999	5	[3, 2, 7]	12.0	catFR1	10	R1495J
574.548	2.083	623272	PROB	2.066	n/a	n/a	n/a	-999	5	[7, 7, 7]	21.0	catFR1	10	R1495J
576.631	2.083	625355	PROB	2.066	n/a	n/a	n/a	-999	5	[2, 8, 1]	11.0	catFR1	10	R1495J
578.714	2.817	627438	PROB	2.8	n/a	n/a	n/a	-999	5	[6, 3, 2]	11.0	catFR1	10	R1495J
581.531	2.517	630255	PROB	2.5	n/a	n/a	n/a	-999	5	[3, 6, 5]	14.0	catFR1	10	R1495J
584.048	1.783	632771	PROB	1.766	n/a	n/a	n/a	-999	5	[4, 4, 4]	12.0	catFR1	10	R1495J
585.831	2.183	634554	PROB	2.166	n/a	n/a	n/a	-999	5	[2, 1, 4]	7.0	catFR1	10	R1495J
588.014	2.266	636737	PROB	2.249	n/a	n/a	n/a	-999	5	[6, 1, 3]	10.0	catFR1	10	R1495J
590.28	0.0	639000	DISTRACT_END	n/a	n/a	n/a	n/a	-999	5	[0, 0, 0]	n/a	catFR1	10	R1495J
590.28	2.2	639003	STOP	n/a	n/a	n/a	n/a	-999	5	[-999, -999, -999]	n/a	catFR1	10	R1495J
592.48	0.415	641208	REC_START	n/a	n/a	n/a	n/a	-999	5	[0, 0, 0]	n/a	catFR1	10	R1495J
592.895	0.505	641618	REC_WORD	0.415	n/a	LILY	Flowers	9	5	[0, 0, 0]	n/a	catFR1	10	R1495J
593.4	4.511	642123	REC_WORD	0.92	n/a	LILAC	Flowers	10	5	[0, 0, 0]	n/a	catFR1	10	R1495J
597.911	0.598	646634	REC_WORD	5.431	n/a	OYSTER	OceanAnimals	11	5	[0, 0, 0]	n/a	catFR1	10	R1495J
598.509	8.614	647232	REC_WORD	6.029	n/a	FISH	OceanAnimals	5	5	[0, 0, 0]	n/a	catFR1	10	R1495J
607.123	8.252	655845	REC_WORD	14.643	n/a	CRAB	OceanAnimals	6	5	[0, 0, 0]	n/a	catFR1	10	R1495J
615.375	4.874	664097	REC_WORD	22.895	n/a	TUBA	Instruments	8	5	[0, 0, 0]	n/a	catFR1	10	R1495J
620.249	2.45	668971	REC_WORD	27.769	n/a	GUITAR	Instruments	-999	5	[0, 0, 0]	n/a	catFR1	10	R1495J
622.699	1.615	671418	REC_END	n/a	n/a	n/a	n/a	-999	5	[0, 0, 0]	n/a	catFR1	10	R1495J
624.314	10.0	673033	COUNTDOWN_START	n/a	n/a	n/a	n/a	-999	6	[0, 0, 0]	n/a	catFR1	10	R1495J
634.664	0.0	683385	COUNTDOWN_END	n/a	n/a	n/a	n/a	-999	6	[0, 0, 0]	n/a	catFR1	10	R1495J
634.664	2.032	683385	ENCODING_START	n/a	n/a	n/a	n/a	-999	6	[0, 0, 0]	n/a	catFR1	10	R1495J
636.696	1.6	685420	WORD	n/a	wordpools/wordpool_categorized_EN.txt	SPANDEX	Fabric	1	6	[0, 0, 0]	n/a	catFR1	10	R1495J
638.297	0.851	687023	WORD_OFF	n/a	n/a	SPANDEX	Fabric	1	6	[0, 0, 0]	n/a	catFR1	10	R1495J
639.148	1.6	687875	WORD	n/a	wordpools/wordpool_categorized_EN.txt	NYLON	Fabric	2	6	[0, 0, 0]	n/a	catFR1	10	R1495J
640.747	0.967	689464	WORD_OFF	n/a	n/a	NYLON	Fabric	2	6	[0, 0, 0]	n/a	catFR1	10	R1495J
641.714	1.6	690431	WORD	n/a	wordpools/wordpool_categorized_EN.txt	BOOKCASE	Furniture	3	6	[0, 0, 0]	n/a	catFR1	10	R1495J
643.314	0.767	692033	WORD_OFF	n/a	n/a	BOOKCASE	Furniture	3	6	[0, 0, 0]	n/a	catFR1	10	R1495J
644.081	1.6	692796	WORD	n/a	wordpools/wordpool_categorized_EN.txt	DRESSER	Furniture	4	6	[0, 0, 0]	n/a	catFR1	10	R1495J
645.697	0.999	694424	WORD_OFF	n/a	n/a	DRESSER	Furniture	4	6	[0, 0, 0]	n/a	catFR1	10	R1495J
646.696	1.6	695416	WORD	n/a	wordpools/wordpool_categorized_EN.txt	PEAS	Vegetables	5	6	[0, 0, 0]	n/a	catFR1	10	R1495J
648.297	1.001	697019	WORD_OFF	n/a	n/a	PEAS	Vegetables	5	6	[0, 0, 0]	n/a	catFR1	10	R1495J
649.298	1.6	698024	WORD	n/a	wordpools/wordpool_categorized_EN.txt	CUCUMBER	Vegetables	6	6	[0, 0, 0]	n/a	catFR1	10	R1495J
650.897	1.001	699613	WORD_OFF	n/a	n/a	CUCUMBER	Vegetables	6	6	[0, 0, 0]	n/a	catFR1	10	R1495J
651.898	1.6	700618	WORD	n/a	wordpools/wordpool_categorized_EN.txt	SILK	Fabric	7	6	[0, 0, 0]	n/a	catFR1	10	R1495J
653.514	0.9	702233	WORD_OFF	n/a	n/a	SILK	Fabric	7	6	[0, 0, 0]	n/a	catFR1	10	R1495J
654.414	1.6	703136	WORD	n/a	wordpools/wordpool_categorized_EN.txt	VELVET	Fabric	8	6	[0, 0, 0]	n/a	catFR1	10	R1495J
656.015	0.916	704739	WORD_OFF	n/a	n/a	VELVET	Fabric	8	6	[0, 0, 0]	n/a	catFR1	10	R1495J
656.931	1.6	705654	WORD	n/a	wordpools/wordpool_categorized_EN.txt	COUCH	Furniture	9	6	[0, 0, 0]	n/a	catFR1	10	R1495J
658.531	0.783	707257	WORD_OFF	n/a	n/a	COUCH	Furniture	9	6	[0, 0, 0]	n/a	catFR1	10	R1495J
659.314	1.6	708033	WORD	n/a	wordpools/wordpool_categorized_EN.txt	CHAIR	Furniture	10	6	[0, 0, 0]	n/a	catFR1	10	R1495J
660.929	0.802	709648	WORD_OFF	n/a	n/a	CHAIR	Furniture	10	6	[0, 0, 0]	n/a	catFR1	10	R1495J
661.731	1.6	710449	WORD	n/a	wordpools/wordpool_categorized_EN.txt	SPINACH	Vegetables	11	6	[0, 0, 0]	n/a	catFR1	10	R1495J
663.347	0.951	712064	WORD_OFF	n/a	n/a	SPINACH	Vegetables	11	6	[0, 0, 0]	n/a	catFR1	10	R1495J
664.298	1.6	713018	WORD	n/a	wordpools/wordpool_categorized_EN.txt	CAULIFLOWER	Vegetables	12	6	[0, 0, 0]	n/a	catFR1	10	R1495J
665.914	0.002	714633	WORD_OFF	n/a	n/a	CAULIFLOWER	Vegetables	12	6	[0, 0, 0]	n/a	catFR1	10	R1495J
665.916	0.0	714633	ENCODING_END	n/a	n/a	n/a	n/a	-999	6	[0, 0, 0]	n/a	catFR1	10	R1495J
665.916	0.0	714633	DISTRACT_START	n/a	n/a	n/a	n/a	-999	6	[0, 0, 0]	n/a	catFR1	10	R1495J
665.914	0.002	714634	PROB	2.465	n/a	n/a	n/a	-999	6	[3, 6, 3]	12.0	catFR1	10	R1495J
665.916	2.481	714636	START	n/a	n/a	n/a	n/a	-999	6	[-999, -999, -999]	n/a	catFR1	10	R1495J
668.397	2.551	717117	PROB	2.533	n/a	n/a	n/a	-999	6	[8, 4, 3]	15.0	catFR1	10	R1495J
670.948	3.35	719668	PROB	3.333	n/a	n/a	n/a	-999	6	[1, 6, 7]	14.0	catFR1	10	R1495J
674.298	2.316	723018	PROB	2.299	n/a	n/a	n/a	-999	6	[2, 3, 4]	9.0	catFR1	10	R1495J
676.614	1.899	725334	PROB	1.882	n/a	n/a	n/a	-999	6	[5, 1, 5]	11.0	catFR1	10	R1495J
678.513	3.268	727232	PROB	3.25	n/a	n/a	n/a	-999	6	[3, 4, 4]	10.0	catFR1	10	R1495J
681.781	2.05	730500	PROB	2.033	n/a	n/a	n/a	-999	6	[7, 7, 7]	21.0	catFR1	10	R1495J
683.831	3.699	732550	PROB	3.683	n/a	n/a	n/a	-999	6	[7, 8, 1]	16.0	catFR1	10	R1495J
687.53	0.0	736249	STOP	n/a	n/a	n/a	n/a	-999	6	[-999, -999, -999]	n/a	catFR1	10	R1495J
687.53	2.167	736254	DISTRACT_END	n/a	n/a	n/a	n/a	-999	6	[0, 0, 0]	n/a	catFR1	10	R1495J
689.697	2.346	738411	REC_START	n/a	n/a	n/a	n/a	-999	6	[0, 0, 0]	n/a	catFR1	10	R1495J
692.043	2.23	740762	REC_WORD	2.346	n/a	CHAIR	Furniture	10	6	[0, 0, 0]	n/a	catFR1	10	R1495J
694.273	2.376	742992	REC_WORD	4.576	n/a	TUBA	Instruments	-999	6	[0, 0, 0]	n/a	catFR1	10	R1495J
696.649	8.097	745368	REC_WORD	6.952	n/a	DAISY	Flowers	-999	6	[0, 0, 0]	n/a	catFR1	10	R1495J
704.746	3.719	753464	REC_WORD	15.049	n/a	LILAC	Flowers	-999	6	[0, 0, 0]	n/a	catFR1	10	R1495J
708.465	3.376	757183	REC_WORD	18.768	n/a	VIOLET	n/a	-999	6	[0, 0, 0]	n/a	catFR1	10	R1495J
711.841	3.805	760559	REC_WORD	22.144	n/a	DRESSER	Furniture	4	6	[0, 0, 0]	n/a	catFR1	10	R1495J
715.646	4.272	764364	REC_WORD	25.949	n/a	CARNATION	Flowers	-999	6	[0, 0, 0]	n/a	catFR1	10	R1495J
719.918	1.929	768634	REC_END	n/a	n/a	n/a	n/a	-999	6	[0, 0, 0]	n/a	catFR1	10	R1495J
721.847	10.0	770567	COUNTDOWN_START	n/a	n/a	n/a	n/a	-999	7	[0, 0, 0]	n/a	catFR1	10	R1495J
732.197	0.0	780919	COUNTDOWN_END	n/a	n/a	n/a	n/a	-999	7	[0, 0, 0]	n/a	catFR1	10	R1495J
732.197	2.067	780919	ENCODING_START	n/a	n/a	n/a	n/a	-999	7	[0, 0, 0]	n/a	catFR1	10	R1495J
734.264	1.6	782979	WORD	n/a	wordpools/wordpool_categorized_EN.txt	MAPLE	Trees	1	7	[0, 0, 0]	n/a	catFR1	10	R1495J
735.881	0.883	784595	WORD_OFF	n/a	n/a	MAPLE	Trees	1	7	[0, 0, 0]	n/a	catFR1	10	R1495J
736.764	1.6	785485	WORD	n/a	wordpools/wordpool_categorized_EN.txt	ELM	Trees	2	7	[0, 0, 0]	n/a	catFR1	10	R1495J
738.364	0.9	787087	WORD_OFF	n/a	n/a	ELM	Trees	2	7	[0, 0, 0]	n/a	catFR1	10	R1495J
739.264	1.6	787978	WORD	n/a	wordpools/wordpool_categorized_EN.txt	ROSE	Flowers	3	7	[0, 0, 0]	n/a	catFR1	10	R1495J
740.881	0.8	789593	WORD_OFF	n/a	n/a	ROSE	Flowers	3	7	[0, 0, 0]	n/a	catFR1	10	R1495J
741.681	1.6	790394	WORD	n/a	wordpools/wordpool_categorized_EN.txt	DAFFODIL	Flowers	4	7	[0, 0, 0]	n/a	catFR1	10	R1495J
743.281	0.899	791996	WORD_OFF	n/a	n/a	DAFFODIL	Flowers	4	7	[0, 0, 0]	n/a	catFR1	10	R1495J
744.18	1.6	792899	WORD	n/a	wordpools/wordpool_categorized_EN.txt	SOCKS	Clothing	5	7	[0, 0, 0]	n/a	catFR1	10	R1495J
745.781	0.833	794502	WORD_OFF	n/a	n/a	SOCKS	Clothing	5	7	[0, 0, 0]	n/a	catFR1	10	R1495J
746.614	1.6	795328	WORD	n/a	wordpools/wordpool_categorized_EN.txt	SKIRT	Clothing	6	7	[0, 0, 0]	n/a	catFR1	10	R1495J
748.214	0.85	796931	WORD_OFF	n/a	n/a	SKIRT	Clothing	6	7	[0, 0, 0]	n/a	catFR1	10	R1495J
749.064	1.6	797783	WORD	n/a	wordpools/wordpool_categorized_EN.txt	CEDAR	Trees	7	7	[0, 0, 0]	n/a	catFR1	10	R1495J
750.681	0.982	799398	WORD_OFF	n/a	n/a	CEDAR	Trees	7	7	[0, 0, 0]	n/a	catFR1	10	R1495J
751.663	1.6	800378	WORD	n/a	wordpools/wordpool_categorized_EN.txt	BIRCH	Trees	8	7	[0, 0, 0]	n/a	catFR1	10	R1495J
753.264	0.833	801980	WORD_OFF	n/a	n/a	BIRCH	Trees	8	7	[0, 0, 0]	n/a	catFR1	10	R1495J
754.097	1.6	802819	WORD	n/a	wordpools/wordpool_categorized_EN.txt	BLOUSE	Clothing	9	7	[0, 0, 0]	n/a	catFR1	10	R1495J
755.714	0.783	804435	WORD_OFF	n/a	n/a	BLOUSE	Clothing	9	7	[0, 0, 0]	n/a	catFR1	10	R1495J
756.497	1.6	805210	WORD	n/a	wordpools/wordpool_categorized_EN.txt	JEANS	Clothing	10	7	[0, 0, 0]	n/a	catFR1	10	R1495J
758.097	0.8	806813	WORD_OFF	n/a	n/a	JEANS	Clothing	10	7	[0, 0, 0]	n/a	catFR1	10	R1495J
758.897	1.6	807614	WORD	n/a	wordpools/wordpool_categorized_EN.txt	PETUNIA	Flowers	11	7	[0, 0, 0]	n/a	catFR1	10	R1495J
760.497	0.951	809216	WORD_OFF	n/a	n/a	PETUNIA	Flowers	11	7	[0, 0, 0]	n/a	catFR1	10	R1495J
761.448	1.6	810160	WORD	n/a	wordpools/wordpool_categorized_EN.txt	ORCHID	Flowers	12	7	[0, 0, 0]	n/a	catFR1	10	R1495J
763.048	0.001	811760	WORD_OFF	n/a	n/a	ORCHID	Flowers	12	7	[0, 0, 0]	n/a	catFR1	10	R1495J
763.049	0.0	811760	ENCODING_END	n/a	n/a	n/a	n/a	-999	7	[0, 0, 0]	n/a	catFR1	10	R1495J
763.048	0.001	811764	PROB	2.85	n/a	n/a	n/a	-999	7	[2, 2, 3]	7.0	catFR1	10	R1495J
763.049	0.0	811765	START	n/a	n/a	n/a	n/a	-999	7	[-999, -999, -999]	n/a	catFR1	10	R1495J
763.049	2.865	811773	DISTRACT_START	n/a	n/a	n/a	n/a	-999	7	[0, 0, 0]	n/a	catFR1	10	R1495J
765.914	3.901	814630	PROB	3.883	n/a	n/a	n/a	-999	7	[1, 5, 7]	13.0	catFR1	10	R1495J
769.815	3.115	818531	PROB	3.099	n/a	n/a	n/a	-999	7	[4, 8, 3]	15.0	catFR1	10	R1495J
772.93	2.201	821645	PROB	2.183	n/a	n/a	n/a	-999	7	[7, 1, 7]	15.0	catFR1	10	R1495J
775.131	2.766	823846	PROB	2.749	n/a	n/a	n/a	-999	7	[8, 8, 3]	19.0	catFR1	10	R1495J
777.897	3.167	826612	PROB	3.15	n/a	n/a	n/a	-999	7	[8, 8, 3]	19.0	catFR1	10	R1495J
781.064	5.849	829779	PROB	5.833	n/a	n/a	n/a	-999	7	[6, 7, 8]	21.0	catFR1	10	R1495J
786.913	0.0	835628	STOP	n/a	n/a	n/a	n/a	-999	7	[-999, -999, -999]	n/a	catFR1	10	R1495J
786.913	2.4	835632	DISTRACT_END	n/a	n/a	n/a	n/a	-999	7	[0, 0, 0]	n/a	catFR1	10	R1495J
789.313	1.206	838031	REC_START	n/a	n/a	n/a	n/a	-999	7	[0, 0, 0]	n/a	catFR1	10	R1495J
790.519	2.545	839234	REC_WORD	1.206	n/a	ORCHID	Flowers	12	7	[0, 0, 0]	n/a	catFR1	10	R1495J
793.064	0.757	841779	REC_WORD	3.751	n/a	SOCKS	Clothing	5	7	[0, 0, 0]	n/a	catFR1	10	R1495J
793.821	0.475	842536	REC_WORD	4.508	n/a	JEANS	Clothing	10	7	[0, 0, 0]	n/a	catFR1	10	R1495J
794.296	0.775	843011	REC_WORD	4.983	n/a	SKIRT	Clothing	6	7	[0, 0, 0]	n/a	catFR1	10	R1495J
795.071	2.569	843786	REC_WORD	5.758	n/a	BLOUSE	Clothing	9	7	[0, 0, 0]	n/a	catFR1	10	R1495J
797.64	21.892	846354	REC_WORD	8.327	n/a	SHORTS	n/a	-999	7	[0, 0, 0]	n/a	catFR1	10	R1495J
819.532	1.282	868240	REC_END	n/a	n/a	n/a	n/a	-999	7	[0, 0, 0]	n/a	catFR1	10	R1495J
820.814	10.0	869525	COUNTDOWN_START	n/a	n/a	n/a	n/a	-999	8	[0, 0, 0]	n/a	catFR1	10	R1495J
831.164	0.001	879877	COUNTDOWN_END	n/a	n/a	n/a	n/a	-999	8	[0, 0, 0]	n/a	catFR1	10	R1495J
831.165	2.083	879877	ENCODING_START	n/a	n/a	n/a	n/a	-999	8	[0, 0, 0]	n/a	catFR1	10	R1495J
833.248	1.6	881963	WORD	n/a	wordpools/wordpool_categorized_EN.txt	FOLDER	OfficeSupplies	1	8	[0, 0, 0]	n/a	catFR1	10	R1495J
834.847	0.817	883566	WORD_OFF	n/a	n/a	FOLDER	OfficeSupplies	1	8	[0, 0, 0]	n/a	catFR1	10	R1495J
835.664	1.6	884380	WORD	n/a	wordpools/wordpool_categorized_EN.txt	NOTEBOOK	OfficeSupplies	2	8	[0, 0, 0]	n/a	catFR1	10	R1495J
837.264	0.85	885982	WORD_OFF	n/a	n/a	NOTEBOOK	OfficeSupplies	2	8	[0, 0, 0]	n/a	catFR1	10	R1495J
838.114	1.6	886821	WORD	n/a	wordpools/wordpool_categorized_EN.txt	DUCK	Birds	3	8	[0, 0, 0]	n/a	catFR1	10	R1495J
839.73	0.967	888449	WORD_OFF	n/a	n/a	DUCK	Birds	3	8	[0, 0, 0]	n/a	catFR1	10	R1495J
840.697	1.6	889403	WORD	n/a	wordpools/wordpool_categorized_EN.txt	HAWK	Birds	4	8	[0, 0, 0]	n/a	catFR1	10	R1495J
842.297	0.967	891006	WORD_OFF	n/a	n/a	HAWK	Birds	4	8	[0, 0, 0]	n/a	catFR1	10	R1495J
843.264	1.6	891972	WORD	n/a	wordpools/wordpool_categorized_EN.txt	WOODS	Landscapes	5	8	[0, 0, 0]	n/a	catFR1	10	R1495J
844.864	0.8	893575	WORD_OFF	n/a	n/a	WOODS	Landscapes	5	8	[0, 0, 0]	n/a	catFR1	10	R1495J
845.664	1.6	894376	WORD	n/a	wordpools/wordpool_categorized_EN.txt	OCEAN	Landscapes	6	8	[0, 0, 0]	n/a	catFR1	10	R1495J
847.264	0.833	895978	WORD_OFF	n/a	n/a	OCEAN	Landscapes	6	8	[0, 0, 0]	n/a	catFR1	10	R1495J
848.097	1.6	896805	WORD	n/a	wordpools/wordpool_categorized_EN.txt	ERASER	OfficeSupplies	7	8	[0, 0, 0]	n/a	catFR1	10	R1495J
849.697	0.867	898407	WORD_OFF	n/a	n/a	ERASER	OfficeSupplies	7	8	[0, 0, 0]	n/a	catFR1	10	R1495J
850.564	1.6	899272	WORD	n/a	wordpools/wordpool_categorized_EN.txt	PEN	OfficeSupplies	8	8	[0, 0, 0]	n/a	catFR1	10	R1495J
852.164	0.95	900875	WORD_OFF	n/a	n/a	PEN	OfficeSupplies	8	8	[0, 0, 0]	n/a	catFR1	10	R1495J
853.114	1.6	901828	WORD	n/a	wordpools/wordpool_categorized_EN.txt	CREEK	Landscapes	9	8	[0, 0, 0]	n/a	catFR1	10	R1495J
854.73	0.784	903444	WORD_OFF	n/a	n/a	CREEK	Landscapes	9	8	[0, 0, 0]	n/a	catFR1	10	R1495J
855.514	1.6	904232	WORD	n/a	wordpools/wordpool_categorized_EN.txt	FOREST	Landscapes	10	8	[0, 0, 0]	n/a	catFR1	10	R1495J
857.131	0.983	905847	WORD_OFF	n/a	n/a	FOREST	Landscapes	10	8	[0, 0, 0]	n/a	catFR1	10	R1495J
858.114	1.6	906827	WORD	n/a	wordpools/wordpool_categorized_EN.txt	PIGEON	Birds	11	8	[0, 0, 0]	n/a	catFR1	10	R1495J
859.731	0.915	908442	WORD_OFF	n/a	n/a	PIGEON	Birds	11	8	[0, 0, 0]	n/a	catFR1	10	R1495J
860.646	1.6	909358	WORD	n/a	wordpools/wordpool_categorized_EN.txt	ROBIN	Birds	12	8	[0, 0, 0]	n/a	catFR1	10	R1495J
862.247	0.002	910960	WORD_OFF	n/a	n/a	ROBIN	Birds	12	8	[0, 0, 0]	n/a	catFR1	10	R1495J
862.249	0.0	910960	ENCODING_END	n/a	n/a	n/a	n/a	-999	8	[0, 0, 0]	n/a	catFR1	10	R1495J
862.249	0.0	910960	DISTRACT_START	n/a	n/a	n/a	n/a	-999	8	[0, 0, 0]	n/a	catFR1	10	R1495J
862.248	0.001	910960	PROB	4.615	n/a	n/a	n/a	-999	8	[8, 5, 6]	19.0	catFR1	10	R1495J
862.249	4.633	910961	START	n/a	n/a	n/a	n/a	-999	8	[-999, -999, -999]	n/a	catFR1	10	R1495J
866.882	2.965	915594	PROB	2.948	n/a	n/a	n/a	-999	8	[3, 4, 3]	10.0	catFR1	10	R1495J
869.847	3.118	918558	PROB	3.1	n/a	n/a	n/a	-999	8	[7, 7, 8]	22.0	catFR1	10	R1495J
872.965	3.183	921676	PROB	3.166	n/a	n/a	n/a	-999	8	[7, 6, 2]	15.0	catFR1	10	R1495J
876.148	2.568	924859	PROB	2.549	n/a	n/a	n/a	-999	8	[1, 7, 5]	13.0	catFR1	10	R1495J
878.716	3.647	927427	PROB	3.632	n/a	n/a	n/a	-999	8	[3, 8, 1]	12.0	catFR1	10	R1495J
882.363	0.0	931074	STOP	n/a	n/a	n/a	n/a	-999	8	[-999, -999, -999]	n/a	catFR1	10	R1495J
882.363	2.033	931080	DISTRACT_END	n/a	n/a	n/a	n/a	-999	8	[0, 0, 0]	n/a	catFR1	10	R1495J
884.396	0.736	933110	REC_START	n/a	n/a	n/a	n/a	-999	8	[0, 0, 0]	n/a	catFR1	10	R1495J
885.132	0.842	933843	REC_WORD	0.736	n/a	CREEK	Landscapes	9	8	[0, 0, 0]	n/a	catFR1	10	R1495J
885.974	1.783	934685	REC_WORD	1.578	n/a	FOREST	Landscapes	10	8	[0, 0, 0]	n/a	catFR1	10	R1495J
887.757	2.412	936468	REC_WORD	3.361	n/a	OCEAN	Landscapes	6	8	[0, 0, 0]	n/a	catFR1	10	R1495J
890.169	24.449	938880	REC_WORD	5.773	n/a	PIGEON	Birds	11	8	[0, 0, 0]	n/a	catFR1	10	R1495J
914.618	1.496	963332	REC_END	n/a	n/a	n/a	n/a	-999	8	[0, 0, 0]	n/a	catFR1	10	R1495J
916.114	10.0	964820	COUNTDOWN_START	n/a	n/a	n/a	n/a	-999	9	[0, 0, 0]	n/a	catFR1	10	R1495J
926.463	0.0	975173	COUNTDOWN_END	n/a	n/a	n/a	n/a	-999	9	[0, 0, 0]	n/a	catFR1	10	R1495J
926.463	2.051	975173	ENCODING_START	n/a	n/a	n/a	n/a	-999	9	[0, 0, 0]	n/a	catFR1	10	R1495J
928.514	1.6	977220	WORD	n/a	wordpools/wordpool_categorized_EN.txt	LADLE	KitchenTools	1	9	[0, 0, 0]	n/a	catFR1	10	R1495J
930.114	0.85	978823	WORD_OFF	n/a	n/a	LADLE	KitchenTools	1	9	[0, 0, 0]	n/a	catFR1	10	R1495J
930.964	1.6	979675	WORD	n/a	wordpools/wordpool_categorized_EN.txt	SPOON	KitchenTools	2	9	[0, 0, 0]	n/a	catFR1	10	R1495J
932.581	0.883	981290	WORD_OFF	n/a	n/a	SPOON	KitchenTools	2	9	[0, 0, 0]	n/a	catFR1	10	R1495J
933.464	1.6	982168	WORD	n/a	wordpools/wordpool_categorized_EN.txt	VIOLET	Flowers	3	9	[0, 0, 0]	n/a	catFR1	10	R1495J
935.08	0.884	983783	WORD_OFF	n/a	n/a	VIOLET	Flowers	3	9	[0, 0, 0]	n/a	catFR1	10	R1495J
935.964	1.6	984673	WORD	n/a	wordpools/wordpool_categorized_EN.txt	TULIP	Flowers	4	9	[0, 0, 0]	n/a	catFR1	10	R1495J
937.581	0.883	986288	WORD_OFF	n/a	n/a	TULIP	Flowers	4	9	[0, 0, 0]	n/a	catFR1	10	R1495J
938.464	1.6	987179	WORD	n/a	wordpools/wordpool_categorized_EN.txt	TOE	BodyParts	5	9	[0, 0, 0]	n/a	catFR1	10	R1495J
940.081	0.95	988794	WORD_OFF	n/a	n/a	TOE	BodyParts	5	9	[0, 0, 0]	n/a	catFR1	10	R1495J
941.031	1.6	989735	WORD	n/a	wordpools/wordpool_categorized_EN.txt	ELBOW	BodyParts	6	9	[0, 0, 0]	n/a	catFR1	10	R1495J
942.646	0.935	991350	WORD_OFF	n/a	n/a	ELBOW	BodyParts	6	9	[0, 0, 0]	n/a	catFR1	10	R1495J
943.581	1.6	992291	WORD	n/a	wordpools/wordpool_categorized_EN.txt	SPATULA	KitchenTools	7	9	[0, 0, 0]	n/a	catFR1	10	R1495J
945.181	0.816	993894	WORD_OFF	n/a	n/a	SPATULA	KitchenTools	7	9	[0, 0, 0]	n/a	catFR1	10	R1495J
945.997	1.6	994708	WORD	n/a	wordpools/wordpool_categorized_EN.txt	GRATER	KitchenTools	8	9	[0, 0, 0]	n/a	catFR1	10	R1495J
947.598	0.8	996310	WORD_OFF	n/a	n/a	GRATER	KitchenTools	8	9	[0, 0, 0]	n/a	catFR1	10	R1495J
948.398	1.6	997111	WORD	n/a	wordpools/wordpool_categorized_EN.txt	LEG	BodyParts	9	9	[0, 0, 0]	n/a	catFR1	10	R1495J
950.013	0.784	998726	WORD_OFF	n/a	n/a	LEG	BodyParts	9	9	[0, 0, 0]	n/a	catFR1	10	R1495J
950.797	1.6	999502	WORD	n/a	wordpools/wordpool_categorized_EN.txt	NOSE	BodyParts	10	9	[0, 0, 0]	n/a	catFR1	10	R1495J
952.397	0.934	1001105	WORD_OFF	n/a	n/a	NOSE	BodyParts	10	9	[0, 0, 0]	n/a	catFR1	10	R1495J
953.331	1.6	1002033	WORD	n/a	wordpools/wordpool_categorized_EN.txt	MARIGOLD	Flowers	11	9	[0, 0, 0]	n/a	catFR1	10	R1495J
954.931	0.998	1003636	WORD_OFF	n/a	n/a	MARIGOLD	Flowers	11	9	[0, 0, 0]	n/a	catFR1	10	R1495J
955.929	1.6	1004640	WORD	n/a	wordpools/wordpool_categorized_EN.txt	SUNFLOWER	Flowers	12	9	[0, 0, 0]	n/a	catFR1	10	R1495J
957.531	0.001	1006239	PROB	12.016	n/a	n/a	n/a	-999	9	[8, 6, 7]	21.0	catFR1	10	R1495J
957.532	0.0	1006240	START	n/a	n/a	n/a	n/a	-999	9	[-999, -999, -999]	n/a	catFR1	10	R1495J
957.531	0.001	1006243	WORD_OFF	n/a	n/a	SUNFLOWER	Flowers	12	9	[0, 0, 0]	n/a	catFR1	10	R1495J
957.532	0.0	1006243	ENCODING_END	n/a	n/a	n/a	n/a	-999	9	[0, 0, 0]	n/a	catFR1	10	R1495J
957.532	12.032	1006243	DISTRACT_START	n/a	n/a	n/a	n/a	-999	9	[0, 0, 0]	n/a	catFR1	10	R1495J
969.564	2.266	1018271	PROB	2.25	n/a	n/a	n/a	-999	9	[8, 2, 1]	11.0	catFR1	10	R1495J
971.83	2.367	1020537	PROB	2.35	n/a	n/a	n/a	-999	9	[6, 6, 3]	15.0	catFR1	10	R1495J
974.197	4.234	1022904	PROB	4.217	n/a	n/a	n/a	-999	9	[3, 4, 5]	12.0	catFR1	10	R1495J
978.431	0.0	1027138	DISTRACT_END	n/a	n/a	n/a	n/a	-999	9	[0, 0, 0]	n/a	catFR1	10	R1495J
978.431	2.399	1027138	STOP	n/a	n/a	n/a	n/a	-999	9	[-999, -999, -999]	n/a	catFR1	10	R1495J
980.83	0.499	1029537	REC_START	n/a	n/a	n/a	n/a	-999	9	[0, 0, 0]	n/a	catFR1	10	R1495J
981.329	21.019	1030036	REC_WORD	0.499	n/a	MARIGOLD	Flowers	11	9	[0, 0, 0]	n/a	catFR1	10	R1495J
1002.348	8.717	1051054	REC_WORD	21.518	n/a	COMPASS	n/a	-999	9	[0, 0, 0]	n/a	catFR1	10	R1495J
1011.065	1.316	1059773	REC_END	n/a	n/a	n/a	n/a	-999	9	[0, 0, 0]	n/a	catFR1	10	R1495J
1012.381	10.0	1061083	COUNTDOWN_START	n/a	n/a	n/a	n/a	-999	10	[0, 0, 0]	n/a	catFR1	10	R1495J
1022.73	0.0	1071435	COUNTDOWN_END	n/a	n/a	n/a	n/a	-999	10	[0, 0, 0]	n/a	catFR1	10	R1495J
1022.73	1.9	1071435	ENCODING_START	n/a	n/a	n/a	n/a	-999	10	[0, 0, 0]	n/a	catFR1	10	R1495J
1024.63	1.6	1073330	WORD	n/a	wordpools/wordpool_categorized_EN.txt	CARDINAL	Birds	1	10	[0, 0, 0]	n/a	catFR1	10	R1495J
1026.231	0.967	1074932	WORD_OFF	n/a	n/a	CARDINAL	Birds	1	10	[0, 0, 0]	n/a	catFR1	10	R1495J
1027.198	1.6	1075899	WORD	n/a	wordpools/wordpool_categorized_EN.txt	SPARROW	Birds	2	10	[0, 0, 0]	n/a	catFR1	10	R1495J
1028.797	0.95	1077501	WORD_OFF	n/a	n/a	SPARROW	Birds	2	10	[0, 0, 0]	n/a	catFR1	10	R1495J
1029.747	1.6	1078455	WORD	n/a	wordpools/wordpool_categorized_EN.txt	UNDERWEAR	Clothing	3	10	[0, 0, 0]	n/a	catFR1	10	R1495J
1031.348	0.783	1080058	WORD_OFF	n/a	n/a	UNDERWEAR	Clothing	3	10	[0, 0, 0]	n/a	catFR1	10	R1495J
1032.131	1.6	1080834	WORD	n/a	wordpools/wordpool_categorized_EN.txt	SHOES	Clothing	4	10	[0, 0, 0]	n/a	catFR1	10	R1495J
1033.746	0.901	1082449	WORD_OFF	n/a	n/a	SHOES	Clothing	4	10	[0, 0, 0]	n/a	catFR1	10	R1495J
1034.647	1.6	1083352	WORD	n/a	wordpools/wordpool_categorized_EN.txt	RADIO	Electronics	5	10	[0, 0, 0]	n/a	catFR1	10	R1495J
1036.264	0.933	1084967	WORD_OFF	n/a	n/a	RADIO	Electronics	5	10	[0, 0, 0]	n/a	catFR1	10	R1495J
1037.197	1.6	1085895	WORD	n/a	wordpools/wordpool_categorized_EN.txt	PHONE	Electronics	6	10	[0, 0, 0]	n/a	catFR1	10	R1495J
1038.797	0.766	1087498	WORD_OFF	n/a	n/a	PHONE	Electronics	6	10	[0, 0, 0]	n/a	catFR1	10	R1495J
1039.563	1.6	1088273	WORD	n/a	wordpools/wordpool_categorized_EN.txt	GOOSE	Birds	7	10	[0, 0, 0]	n/a	catFR1	10	R1495J
1041.164	0.867	1089863	WORD_OFF	n/a	n/a	GOOSE	Birds	7	10	[0, 0, 0]	n/a	catFR1	10	R1495J
1042.031	1.6	1090741	WORD	n/a	wordpools/wordpool_categorized_EN.txt	SEAGULL	Birds	8	10	[0, 0, 0]	n/a	catFR1	10	R1495J
1043.631	0.833	1092330	WORD_OFF	n/a	n/a	SEAGULL	Birds	8	10	[0, 0, 0]	n/a	catFR1	10	R1495J
1044.464	1.6	1093170	WORD	n/a	wordpools/wordpool_categorized_EN.txt	DRESS	Clothing	9	10	[0, 0, 0]	n/a	catFR1	10	R1495J
1046.081	0.767	1094785	WORD_OFF	n/a	n/a	DRESS	Clothing	9	10	[0, 0, 0]	n/a	catFR1	10	R1495J
1046.848	1.6	1095548	WORD	n/a	wordpools/wordpool_categorized_EN.txt	JACKET	Clothing	10	10	[0, 0, 0]	n/a	catFR1	10	R1495J
1048.447	0.867	1097151	WORD_OFF	n/a	n/a	JACKET	Clothing	10	10	[0, 0, 0]	n/a	catFR1	10	R1495J
1049.314	1.6	1098015	WORD	n/a	wordpools/wordpool_categorized_EN.txt	CALCULATOR	Electronics	11	10	[0, 0, 0]	n/a	catFR1	10	R1495J
1050.914	0.834	1099618	WORD_OFF	n/a	n/a	CALCULATOR	Electronics	11	10	[0, 0, 0]	n/a	catFR1	10	R1495J
1051.748	1.6	1100457	WORD	n/a	wordpools/wordpool_categorized_EN.txt	TELEVISION	Electronics	12	10	[0, 0, 0]	n/a	catFR1	10	R1495J
1053.348	0.0	1102047	WORD_OFF	n/a	n/a	TELEVISION	Electronics	12	10	[0, 0, 0]	n/a	catFR1	10	R1495J
1053.348	0.001	1102052	PROB	3.099	n/a	n/a	n/a	-999	10	[6, 2, 5]	13.0	catFR1	10	R1495J
1053.349	0.0	1102053	START	n/a	n/a	n/a	n/a	-999	10	[-999, -999, -999]	n/a	catFR1	10	R1495J
1053.349	0.0	1102060	ENCODING_END	n/a	n/a	n/a	n/a	-999	10	[0, 0, 0]	n/a	catFR1	10	R1495J
1053.349	3.116	1102060	DISTRACT_START	n/a	n/a	n/a	n/a	-999	10	[0, 0, 0]	n/a	catFR1	10	R1495J
1056.465	3.301	1105169	PROB	3.281	n/a	n/a	n/a	-999	10	[1, 7, 6]	14.0	catFR1	10	R1495J
1059.766	2.014	1108469	PROB	2.0	n/a	n/a	n/a	-999	10	[4, 2, 1]	7.0	catFR1	10	R1495J
1061.78	1.684	1110483	PROB	1.666	n/a	n/a	n/a	-999	10	[1, 3, 3]	7.0	catFR1	10	R1495J
1063.464	3.05	1112167	PROB	3.032	n/a	n/a	n/a	-999	10	[4, 7, 7]	18.0	catFR1	10	R1495J
1066.514	2.482	1115217	PROB	2.466	n/a	n/a	n/a	-999	10	[1, 4, 5]	10.0	catFR1	10	R1495J
1068.996	2.219	1117699	PROB	2.2	n/a	n/a	n/a	-999	10	[2, 3, 5]	10.0	catFR1	10	R1495J
1071.215	1.799	1119918	PROB	1.782	n/a	n/a	n/a	-999	10	[6, 4, 1]	11.0	catFR1	10	R1495J
1073.014	1.866	1121717	PROB	1.85	n/a	n/a	n/a	-999	10	[1, 3, 7]	11.0	catFR1	10	R1495J
1074.88	0.0	1123578	DISTRACT_END	n/a	n/a	n/a	n/a	-999	10	[0, 0, 0]	n/a	catFR1	10	R1495J
1074.88	2.083	1123583	STOP	n/a	n/a	n/a	n/a	-999	10	[-999, -999, -999]	n/a	catFR1	10	R1495J
1076.963	1.54	1125672	REC_START	n/a	n/a	n/a	n/a	-999	10	[0, 0, 0]	n/a	catFR1	10	R1495J
1078.503	8.937	1127206	REC_WORD	1.54	n/a	COMPASS	n/a	-999	10	[0, 0, 0]	n/a	catFR1	10	R1495J
1087.44	3.803	1136142	REC_WORD	10.477	n/a	SUNFLOWER	Flowers	-999	10	[0, 0, 0]	n/a	catFR1	10	R1495J
1091.243	15.951	1139945	REC_WORD	14.28	n/a	MARIGOLD	Flowers	-999	10	[0, 0, 0]	n/a	catFR1	10	R1495J
1107.194	1.454	1155895	REC_END	n/a	n/a	n/a	n/a	-999	10	[0, 0, 0]	n/a	catFR1	10	R1495J
1108.648	10.0	1157357	COUNTDOWN_START	n/a	n/a	n/a	n/a	-999	11	[0, 0, 0]	n/a	catFR1	10	R1495J
1118.997	0.0	1167697	COUNTDOWN_END	n/a	n/a	n/a	n/a	-999	11	[0, 0, 0]	n/a	catFR1	10	R1495J
1118.997	1.984	1167697	ENCODING_START	n/a	n/a	n/a	n/a	-999	11	[0, 0, 0]	n/a	catFR1	10	R1495J
1120.981	1.6	1169681	WORD	n/a	wordpools/wordpool_categorized_EN.txt	FINCH	Birds	1	11	[0, 0, 0]	n/a	catFR1	10	R1495J
1122.581	0.999	1171283	WORD_OFF	n/a	n/a	FINCH	Birds	1	11	[0, 0, 0]	n/a	catFR1	10	R1495J
1123.58	1.6	1172275	WORD	n/a	wordpools/wordpool_categorized_EN.txt	DOVE	Birds	2	11	[0, 0, 0]	n/a	catFR1	10	R1495J
1125.18	0.867	1173878	WORD_OFF	n/a	n/a	DOVE	Birds	2	11	[0, 0, 0]	n/a	catFR1	10	R1495J
1126.047	1.6	1174743	WORD	n/a	wordpools/wordpool_categorized_EN.txt	WHISK	KitchenTools	3	11	[0, 0, 0]	n/a	catFR1	10	R1495J
1127.647	0.834	1176345	WORD_OFF	n/a	n/a	WHISK	KitchenTools	3	11	[0, 0, 0]	n/a	catFR1	10	R1495J
1128.481	1.6	1177185	WORD	n/a	wordpools/wordpool_categorized_EN.txt	COLANDER	KitchenTools	4	11	[0, 0, 0]	n/a	catFR1	10	R1495J
1130.081	0.849	1178787	WORD_OFF	n/a	n/a	COLANDER	KitchenTools	4	11	[0, 0, 0]	n/a	catFR1	10	R1495J
1130.93	1.6	1179626	WORD	n/a	wordpools/wordpool_categorized_EN.txt	GLUE	OfficeSupplies	5	11	[0, 0, 0]	n/a	catFR1	10	R1495J
1132.531	1.0	1181229	WORD_OFF	n/a	n/a	GLUE	OfficeSupplies	5	11	[0, 0, 0]	n/a	catFR1	10	R1495J
1133.531	1.6	1182234	WORD	n/a	wordpools/wordpool_categorized_EN.txt	PAPER	OfficeSupplies	6	11	[0, 0, 0]	n/a	catFR1	10	R1495J
1135.147	0.916	1183849	WORD_OFF	n/a	n/a	PAPER	OfficeSupplies	6	11	[0, 0, 0]	n/a	catFR1	10	R1495J
1136.063	1.6	1184764	WORD	n/a	wordpools/wordpool_categorized_EN.txt	CROW	Birds	7	11	[0, 0, 0]	n/a	catFR1	10	R1495J
1137.664	0.8	1186367	WORD_OFF	n/a	n/a	CROW	Birds	7	11	[0, 0, 0]	n/a	catFR1	10	R1495J
1138.464	1.6	1187168	WORD	n/a	wordpools/wordpool_categorized_EN.txt	BLUEBIRD	Birds	8	11	[0, 0, 0]	n/a	catFR1	10	R1495J
1140.064	0.8	1188761	WORD_OFF	n/a	n/a	BLUEBIRD	Birds	8	11	[0, 0, 0]	n/a	catFR1	10	R1495J
1140.864	1.6	1189559	WORD	n/a	wordpools/wordpool_categorized_EN.txt	STRAINER	KitchenTools	9	11	[0, 0, 0]	n/a	catFR1	10	R1495J
1142.464	0.85	1191162	WORD_OFF	n/a	n/a	STRAINER	KitchenTools	9	11	[0, 0, 0]	n/a	catFR1	10	R1495J
1143.314	1.6	1192014	WORD	n/a	wordpools/wordpool_categorized_EN.txt	PEELER	KitchenTools	10	11	[0, 0, 0]	n/a	catFR1	10	R1495J
1144.914	0.8	1193616	WORD_OFF	n/a	n/a	PEELER	KitchenTools	10	11	[0, 0, 0]	n/a	catFR1	10	R1495J
1145.714	1.6	1194417	WORD	n/a	wordpools/wordpool_categorized_EN.txt	MARKER	OfficeSupplies	11	11	[0, 0, 0]	n/a	catFR1	10	R1495J
1147.331	0.965	1196033	WORD_OFF	n/a	n/a	MARKER	OfficeSupplies	11	11	[0, 0, 0]	n/a	catFR1	10	R1495J
1148.296	1.6	1196999	WORD	n/a	wordpools/wordpool_categorized_EN.txt	TAPE	OfficeSupplies	12	11	[0, 0, 0]	n/a	catFR1	10	R1495J
1149.898	0.003	1198598	PROB	3.783	n/a	n/a	n/a	-999	11	[5, 8, 7]	20.0	catFR1	10	R1495J
1149.901	0.0	1198601	START	n/a	n/a	n/a	n/a	-999	11	[-999, -999, -999]	n/a	catFR1	10	R1495J
1149.897	0.004	1198602	WORD_OFF	n/a	n/a	TAPE	OfficeSupplies	12	11	[0, 0, 0]	n/a	catFR1	10	R1495J
1149.901	0.0	1198602	ENCODING_END	n/a	n/a	n/a	n/a	-999	11	[0, 0, 0]	n/a	catFR1	10	R1495J
1149.901	3.797	1198602	DISTRACT_START	n/a	n/a	n/a	n/a	-999	11	[0, 0, 0]	n/a	catFR1	10	R1495J
1153.698	1.817	1202397	PROB	1.8	n/a	n/a	n/a	-999	11	[1, 1, 7]	9.0	catFR1	10	R1495J
1155.515	4.1	1204214	PROB	4.083	n/a	n/a	n/a	-999	11	[6, 6, 7]	19.0	catFR1	10	R1495J
1159.615	2.365	1208314	PROB	2.349	n/a	n/a	n/a	-999	11	[7, 8, 2]	17.0	catFR1	10	R1495J
1161.98	2.568	1210679	PROB	2.55	n/a	n/a	n/a	-999	11	[4, 7, 3]	14.0	catFR1	10	R1495J
1164.548	3.916	1213247	PROB	3.899	n/a	n/a	n/a	-999	11	[6, 2, 7]	15.0	catFR1	10	R1495J
1168.464	2.35	1217163	PROB	2.333	n/a	n/a	n/a	-999	11	[5, 2, 8]	15.0	catFR1	10	R1495J
1170.814	0.0	1219510	DISTRACT_END	n/a	n/a	n/a	n/a	-999	11	[0, 0, 0]	n/a	catFR1	10	R1495J
1170.814	2.05	1219513	STOP	n/a	n/a	n/a	n/a	-999	11	[-999, -999, -999]	n/a	catFR1	10	R1495J
1172.864	2.938	1221565	REC_START	n/a	n/a	n/a	n/a	-999	11	[0, 0, 0]	n/a	catFR1	10	R1495J
1175.802	7.537	1224501	REC_WORD	2.938	n/a	COMPASS	n/a	-999	11	[0, 0, 0]	n/a	catFR1	10	R1495J
1183.339	2.287	1232037	REC_WORD	10.475	n/a	MIXER	Appliances	-999	11	[0, 0, 0]	n/a	catFR1	10	R1495J
1185.626	13.817	1234324	REC_WORD	12.762	n/a	PEELER	KitchenTools	10	11	[0, 0, 0]	n/a	catFR1	10	R1495J
1199.443	3.645	1248141	REC_WORD	26.579	n/a	STRAINER	KitchenTools	9	11	[0, 0, 0]	n/a	catFR1	10	R1495J
1203.088	1.658	1251788	REC_END	n/a	n/a	n/a	n/a	-999	11	[0, 0, 0]	n/a	catFR1	10	R1495J
1204.746	10.0	1253441	COUNTDOWN_START	n/a	n/a	n/a	n/a	-999	12	[0, 0, 0]	n/a	catFR1	10	R1495J
1215.097	0.0	1263794	COUNTDOWN_END	n/a	n/a	n/a	n/a	-999	12	[0, 0, 0]	n/a	catFR1	10	R1495J
1215.097	2.249	1263794	ENCODING_START	n/a	n/a	n/a	n/a	-999	12	[0, 0, 0]	n/a	catFR1	10	R1495J
1217.346	1.6	1266045	WORD	n/a	wordpools/wordpool_categorized_EN.txt	RULER	OfficeSupplies	1	12	[0, 0, 0]	n/a	catFR1	10	R1495J
1218.964	0.815	1267660	WORD_OFF	n/a	n/a	RULER	OfficeSupplies	1	12	[0, 0, 0]	n/a	catFR1	10	R1495J
1219.779	1.6	1268474	WORD	n/a	wordpools/wordpool_categorized_EN.txt	PENCIL	OfficeSupplies	2	12	[0, 0, 0]	n/a	catFR1	10	R1495J
1221.395	0.768	1270089	WORD_OFF	n/a	n/a	PENCIL	OfficeSupplies	2	12	[0, 0, 0]	n/a	catFR1	10	R1495J
1222.163	1.6	1270865	WORD	n/a	wordpools/wordpool_categorized_EN.txt	SHIRT	Clothing	3	12	[0, 0, 0]	n/a	catFR1	10	R1495J
1223.78	0.866	1272480	WORD_OFF	n/a	n/a	SHIRT	Clothing	3	12	[0, 0, 0]	n/a	catFR1	10	R1495J
1224.646	1.6	1273345	WORD	n/a	wordpools/wordpool_categorized_EN.txt	COAT	Clothing	4	12	[0, 0, 0]	n/a	catFR1	10	R1495J
1226.262	0.767	1274960	WORD_OFF	n/a	n/a	COAT	Clothing	4	12	[0, 0, 0]	n/a	catFR1	10	R1495J
1227.029	1.6	1275723	WORD	n/a	wordpools/wordpool_categorized_EN.txt	COMPUTER	Electronics	5	12	[0, 0, 0]	n/a	catFR1	10	R1495J
1228.629	0.984	1277326	WORD_OFF	n/a	n/a	COMPUTER	Electronics	5	12	[0, 0, 0]	n/a	catFR1	10	R1495J
1229.613	1.6	1278305	WORD	n/a	wordpools/wordpool_categorized_EN.txt	MICROWAVE	Electronics	6	12	[0, 0, 0]	n/a	catFR1	10	R1495J
1231.229	0.868	1279920	WORD_OFF	n/a	n/a	MICROWAVE	Electronics	6	12	[0, 0, 0]	n/a	catFR1	10	R1495J
1232.097	1.6	1280798	WORD	n/a	wordpools/wordpool_categorized_EN.txt	PANTS	Clothing	7	12	[0, 0, 0]	n/a	catFR1	10	R1495J
1233.713	0.849	1282413	WORD_OFF	n/a	n/a	PANTS	Clothing	7	12	[0, 0, 0]	n/a	catFR1	10	R1495J
1234.562	1.6	1283265	WORD	n/a	wordpools/wordpool_categorized_EN.txt	SHORTS	Clothing	8	12	[0, 0, 0]	n/a	catFR1	10	R1495J
1236.179	1.001	1284880	WORD_OFF	n/a	n/a	SHORTS	Clothing	8	12	[0, 0, 0]	n/a	catFR1	10	R1495J
1237.18	1.6	1285872	WORD	n/a	wordpools/wordpool_categorized_EN.txt	SPEAKER	Electronics	9	12	[0, 0, 0]	n/a	catFR1	10	R1495J
1238.796	0.933	1287487	WORD_OFF	n/a	n/a	SPEAKER	Electronics	9	12	[0, 0, 0]	n/a	catFR1	10	R1495J
1239.729	1.6	1288428	WORD	n/a	wordpools/wordpool_categorized_EN.txt	STEREO	Electronics	10	12	[0, 0, 0]	n/a	catFR1	10	R1495J
1241.329	0.784	1290031	WORD_OFF	n/a	n/a	STEREO	Electronics	10	12	[0, 0, 0]	n/a	catFR1	10	R1495J
1242.113	1.6	1290807	WORD	n/a	wordpools/wordpool_categorized_EN.txt	BINDER	OfficeSupplies	11	12	[0, 0, 0]	n/a	catFR1	10	R1495J
1243.729	0.917	1292422	WORD_OFF	n/a	n/a	BINDER	OfficeSupplies	11	12	[0, 0, 0]	n/a	catFR1	10	R1495J
1244.646	1.6	1293338	WORD	n/a	wordpools/wordpool_categorized_EN.txt	STAPLER	OfficeSupplies	12	12	[0, 0, 0]	n/a	catFR1	10	R1495J
1246.246	0.002	1294940	WORD_OFF	n/a	n/a	STAPLER	OfficeSupplies	12	12	[0, 0, 0]	n/a	catFR1	10	R1495J
1246.248	0.0	1294940	ENCODING_END	n/a	n/a	n/a	n/a	-999	12	[0, 0, 0]	n/a	catFR1	10	R1495J
1246.248	0.0	1294940	DISTRACT_START	n/a	n/a	n/a	n/a	-999	12	[0, 0, 0]	n/a	catFR1	10	R1495J
1246.247	0.001	1294943	PROB	4.165	n/a	n/a	n/a	-999	12	[8, 7, 7]	22.0	catFR1	10	R1495J
1246.248	4.181	1294944	START	n/a	n/a	n/a	n/a	-999	12	[-999, -999, -999]	n/a	catFR1	10	R1495J
1250.429	1.851	1299124	PROB	1.833	n/a	n/a	n/a	-999	12	[3, 7, 2]	12.0	catFR1	10	R1495J
1252.28	2.049	1300975	PROB	2.032	n/a	n/a	n/a	-999	12	[6, 1, 4]	11.0	catFR1	10	R1495J
1254.329	2.417	1303024	PROB	2.399	n/a	n/a	n/a	-999	12	[8, 1, 3]	12.0	catFR1	10	R1495J
1256.746	4.533	1305441	PROB	4.516	n/a	n/a	n/a	-999	12	[7, 6, 2]	15.0	catFR1	10	R1495J
1261.279	7.333	1309974	PROB	7.316	n/a	n/a	n/a	-999	12	[6, 6, 7]	19.0	catFR1	10	R1495J
1268.612	0.0	1317307	STOP	n/a	n/a	n/a	n/a	-999	12	[-999, -999, -999]	n/a	catFR1	10	R1495J
1268.612	2.2	1317311	DISTRACT_END	n/a	n/a	n/a	n/a	-999	12	[0, 0, 0]	n/a	catFR1	10	R1495J
1270.812	1.214	1319506	REC_START	n/a	n/a	n/a	n/a	-999	12	[0, 0, 0]	n/a	catFR1	10	R1495J
1272.026	0.629	1320721	REC_WORD	1.214	n/a	FOLDER	OfficeSupplies	-999	12	[0, 0, 0]	n/a	catFR1	10	R1495J
1272.655	11.517	1321350	REC_WORD	1.843	n/a	STAPLER	OfficeSupplies	12	12	[0, 0, 0]	n/a	catFR1	10	R1495J
1284.172	1.884	1332866	REC_WORD	13.36	n/a	PEN	OfficeSupplies	-999	12	[0, 0, 0]	n/a	catFR1	10	R1495J
1286.056	14.964	1334750	REC_WORD	15.244	n/a	PENCIL	OfficeSupplies	2	12	[0, 0, 0]	n/a	catFR1	10	R1495J
1301.02	0.0	1349716	REC_END	n/a	n/a	n/a	n/a	-999	12	[0, 0, 0]	n/a	catFR1	10	R1495J
