onset	duration	sample	trial_type	response_time	stim_file	item_name	category	serialpos	list	test	answer	experiment	session	subject
0.0	0.0	984604	INSTRUCT_START	n/a	n/a	n/a	n/a	-999	-999	[0, 0, 0]	n/a	catFR1	0	R1277J
0.0	11.012	984604	INSTRUCT_END	n/a	n/a	n/a	n/a	-999	-999	[0, 0, 0]	n/a	catFR1	0	R1277J
11.012	0.0	995616	SESS_START	n/a	n/a	n/a	n/a	-999	-999	[0, 0, 0]	n/a	catFR1	0	R1277J
11.012	217.204	995616	MIC_TEST	n/a	n/a	n/a	n/a	-999	-999	[0, 0, 0]	n/a	catFR1	0	R1277J
228.216	3.166	1212819	PRACTICE_TRIAL	n/a	n/a	n/a	n/a	-999	-1	[0, 0, 0]	n/a	catFR1	0	R1277J
231.382	10.0	1215985	COUNTDOWN_START	n/a	n/a	n/a	n/a	-999	-1	[0, 0, 0]	n/a	catFR1	0	R1277J
241.81	0.007	1226413	COUNTDOWN_END	n/a	n/a	n/a	n/a	-999	-1	[0, 0, 0]	n/a	catFR1	0	R1277J
241.817	1.6	1226420	PRACTICE_ORIENT	n/a	n/a	n/a	n/a	-999	-1	[0, 0, 0]	n/a	catFR1	0	R1277J
243.434	2.034	1228037	PRACTICE_ORIENT_OFF	n/a	n/a	n/a	n/a	-999	-1	[0, 0, 0]	n/a	catFR1	0	R1277J
245.468	1.6	1230071	PRACTICE_WORD	n/a	n/a	TONGUE	n/a	-1	-1	[0, 0, 0]	n/a	catFR1	0	R1277J
247.084	0.884	1231687	PRACTICE_WORD_OFF	n/a	n/a	TONGUE	n/a	-999	-1	[0, 0, 0]	n/a	catFR1	0	R1277J
247.968	1.6	1232571	PRACTICE_WORD	n/a	n/a	ATTIC	n/a	-1	-1	[0, 0, 0]	n/a	catFR1	0	R1277J
249.584	0.852	1234187	PRACTICE_WORD_OFF	n/a	n/a	ATTIC	n/a	-999	-1	[0, 0, 0]	n/a	catFR1	0	R1277J
250.436	1.6	1235039	PRACTICE_WORD	n/a	n/a	BEAM	n/a	-1	-1	[0, 0, 0]	n/a	catFR1	0	R1277J
252.052	0.983	1236655	PRACTICE_WORD_OFF	n/a	n/a	BEAM	n/a	-999	-1	[0, 0, 0]	n/a	catFR1	0	R1277J
253.035	1.6	1237638	PRACTICE_WORD	n/a	n/a	RHINO	n/a	-1	-1	[0, 0, 0]	n/a	catFR1	0	R1277J
254.652	0.801	1239255	PRACTICE_WORD_OFF	n/a	n/a	RHINO	n/a	-999	-1	[0, 0, 0]	n/a	catFR1	0	R1277J
255.453	1.6	1240056	PRACTICE_WORD	n/a	n/a	WATCH	n/a	-1	-1	[0, 0, 0]	n/a	catFR1	0	R1277J
257.069	0.866	1241672	PRACTICE_WORD_OFF	n/a	n/a	WATCH	n/a	-999	-1	[0, 0, 0]	n/a	catFR1	0	R1277J
257.935	1.6	1242538	PRACTICE_WORD	n/a	n/a	RING	n/a	-1	-1	[0, 0, 0]	n/a	catFR1	0	R1277J
259.536	0.784	1244139	PRACTICE_WORD_OFF	n/a	n/a	RING	n/a	-999	-1	[0, 0, 0]	n/a	catFR1	0	R1277J
260.32	1.6	1244923	PRACTICE_WORD	n/a	n/a	WAGON	n/a	-1	-1	[0, 0, 0]	n/a	catFR1	0	R1277J
261.936	0.883	1246539	PRACTICE_WORD_OFF	n/a	n/a	WAGON	n/a	-999	-1	[0, 0, 0]	n/a	catFR1	0	R1277J
262.819	1.6	1247422	PRACTICE_WORD	n/a	n/a	CHEST	n/a	-1	-1	[0, 0, 0]	n/a	catFR1	0	R1277J
264.437	0.967	1249040	PRACTICE_WORD_OFF	n/a	n/a	CHEST	n/a	-999	-1	[0, 0, 0]	n/a	catFR1	0	R1277J
265.404	1.6	1250007	PRACTICE_WORD	n/a	n/a	IRON	n/a	-1	-1	[0, 0, 0]	n/a	catFR1	0	R1277J
267.02	1.0	1251623	PRACTICE_WORD_OFF	n/a	n/a	IRON	n/a	-999	-1	[0, 0, 0]	n/a	catFR1	0	R1277J
268.02	1.6	1252623	PRACTICE_WORD	n/a	n/a	FLOOD	n/a	-1	-1	[0, 0, 0]	n/a	catFR1	0	R1277J
269.637	0.884	1254240	PRACTICE_WORD_OFF	n/a	n/a	FLOOD	n/a	-999	-1	[0, 0, 0]	n/a	catFR1	0	R1277J
270.521	1.6	1255124	PRACTICE_WORD	n/a	n/a	COTTON	n/a	-1	-1	[0, 0, 0]	n/a	catFR1	0	R1277J
272.137	0.783	1256740	PRACTICE_WORD_OFF	n/a	n/a	COTTON	n/a	-999	-1	[0, 0, 0]	n/a	catFR1	0	R1277J
272.92	1.6	1257523	PRACTICE_WORD	n/a	n/a	CAMEL	n/a	-1	-1	[0, 0, 0]	n/a	catFR1	0	R1277J
274.522	0.0	1259125	DISTRACT_START	n/a	n/a	n/a	n/a	-999	-1	[0, 0, 0]	n/a	catFR1	0	R1277J
274.522	0.0	1259125	PRACTICE_WORD_OFF	n/a	n/a	CAMEL	n/a	-999	-1	[0, 0, 0]	n/a	catFR1	0	R1277J
274.522	0.001	1259125	ENCODING_END	n/a	n/a	n/a	n/a	-999	-1	[0, 0, 0]	n/a	catFR1	0	R1277J
274.523	0.015	1259126	START	n/a	n/a	n/a	n/a	-999	-1	[-999, -999, -999]	n/a	catFR1	0	R1277J
274.538	4.583	1259141	PROB	4.548	n/a	n/a	n/a	-999	-1	[7, 4, 5]	16.0	catFR1	0	R1277J
279.121	4.834	1263724	PROB	4.797	n/a	n/a	n/a	-999	-1	[6, 4, 7]	17.0	catFR1	0	R1277J
283.955	4.617	1268558	PROB	4.596	n/a	n/a	n/a	-999	-1	[7, 1, 5]	13.0	catFR1	0	R1277J
288.572	3.685	1273175	PROB	3.651	n/a	n/a	n/a	-999	-1	[7, 4, 6]	17.0	catFR1	0	R1277J
292.257	3.126	1276860	PROB	3.126	n/a	n/a	n/a	-999	-1	[5, 1, 4]	9.0	catFR1	0	R1277J
295.383	0.008	1279986	STOP	n/a	n/a	n/a	n/a	-999	-1	[-999, -999, -999]	n/a	catFR1	0	R1277J
295.391	0.633	1279994	DISTRACT_END	n/a	n/a	n/a	n/a	-999	-1	[0, 0, 0]	n/a	catFR1	0	R1277J
296.024	0.518	1280627	RETRIEVAL_ORIENT	n/a	n/a	n/a	n/a	-999	-1	[0, 0, 0]	n/a	catFR1	0	R1277J
296.542	30.015	1281145	PRACTICE_REC_START	n/a	n/a	n/a	n/a	-999	-1	[0, 0, 0]	n/a	catFR1	0	R1277J
326.557	11.005	1311160	PRACTICE_REC_END	n/a	n/a	n/a	n/a	-999	-1	[0, 0, 0]	n/a	catFR1	0	R1277J
337.562	0.5	1322165	TRIAL	n/a	n/a	n/a	n/a	-999	1	[0, 0, 0]	n/a	catFR1	0	R1277J
338.062	10.0	1322665	COUNTDOWN_START	n/a	n/a	n/a	n/a	-999	1	[0, 0, 0]	n/a	catFR1	0	R1277J
348.49	0.008	1333093	COUNTDOWN_END	n/a	n/a	n/a	n/a	-999	1	[0, 0, 0]	n/a	catFR1	0	R1277J
348.498	1.6	1333101	ORIENT	n/a	n/a	n/a	n/a	-999	1	[0, 0, 0]	n/a	catFR1	0	R1277J
350.114	2.285	1334717	ORIENT_OFF	n/a	n/a	n/a	n/a	-999	1	[0, 0, 0]	n/a	catFR1	0	R1277J
352.399	1.6	1337002	WORD	n/a	wordpools/wordpool_categorized_EN.txt	PUZZLE	Toys	1	1	[0, 0, 0]	n/a	catFR1	0	R1277J
354.015	0.816	1338618	WORD_OFF	n/a	n/a	PUZZLE	n/a	1	1	[0, 0, 0]	n/a	catFR1	0	R1277J
354.831	1.6	1339434	WORD	n/a	wordpools/wordpool_categorized_EN.txt	BALL	Toys	2	1	[0, 0, 0]	n/a	catFR1	0	R1277J
356.449	0.9	1341052	WORD_OFF	n/a	n/a	BALL	n/a	2	1	[0, 0, 0]	n/a	catFR1	0	R1277J
357.349	1.6	1341952	WORD	n/a	wordpools/wordpool_categorized_EN.txt	TABLET	Electronics	3	1	[0, 0, 0]	n/a	catFR1	0	R1277J
358.966	0.95	1343569	WORD_OFF	n/a	n/a	TABLET	n/a	3	1	[0, 0, 0]	n/a	catFR1	0	R1277J
359.916	1.6	1344519	WORD	n/a	wordpools/wordpool_categorized_EN.txt	PHONE	Electronics	4	1	[0, 0, 0]	n/a	catFR1	0	R1277J
361.534	0.966	1346136	WORD_OFF	n/a	n/a	PHONE	n/a	4	1	[0, 0, 0]	n/a	catFR1	0	R1277J
362.5	1.6	1347102	WORD	n/a	wordpools/wordpool_categorized_EN.txt	ROACH	Insects	5	1	[0, 0, 0]	n/a	catFR1	0	R1277J
364.116	0.983	1348718	WORD_OFF	n/a	n/a	ROACH	n/a	5	1	[0, 0, 0]	n/a	catFR1	0	R1277J
365.099	1.6	1349701	WORD	n/a	wordpools/wordpool_categorized_EN.txt	CRICKET	Insects	6	1	[0, 0, 0]	n/a	catFR1	0	R1277J
366.716	0.917	1351318	WORD_OFF	n/a	n/a	CRICKET	n/a	6	1	[0, 0, 0]	n/a	catFR1	0	R1277J
367.633	1.6	1352235	WORD	n/a	wordpools/wordpool_categorized_EN.txt	TELEVISION	Electronics	7	1	[0, 0, 0]	n/a	catFR1	0	R1277J
369.251	0.783	1353853	WORD_OFF	n/a	n/a	TELEVISION	n/a	7	1	[0, 0, 0]	n/a	catFR1	0	R1277J
370.034	1.6	1354636	WORD	n/a	wordpools/wordpool_categorized_EN.txt	PRINTER	Electronics	8	1	[0, 0, 0]	n/a	catFR1	0	R1277J
371.651	0.85	1356253	WORD_OFF	n/a	n/a	PRINTER	n/a	8	1	[0, 0, 0]	n/a	catFR1	0	R1277J
372.501	1.6	1357103	WORD	n/a	wordpools/wordpool_categorized_EN.txt	FRISBEE	Toys	9	1	[0, 0, 0]	n/a	catFR1	0	R1277J
374.117	0.95	1358719	WORD_OFF	n/a	n/a	FRISBEE	n/a	9	1	[0, 0, 0]	n/a	catFR1	0	R1277J
375.067	1.6	1359669	WORD	n/a	wordpools/wordpool_categorized_EN.txt	SLINKY	Toys	10	1	[0, 0, 0]	n/a	catFR1	0	R1277J
376.684	1.001	1361286	WORD_OFF	n/a	n/a	SLINKY	n/a	10	1	[0, 0, 0]	n/a	catFR1	0	R1277J
377.685	1.6	1362287	WORD	n/a	wordpools/wordpool_categorized_EN.txt	FLY	Insects	11	1	[0, 0, 0]	n/a	catFR1	0	R1277J
379.302	0.901	1363904	WORD_OFF	n/a	n/a	FLY	n/a	11	1	[0, 0, 0]	n/a	catFR1	0	R1277J
380.203	1.6	1364805	WORD	n/a	wordpools/wordpool_categorized_EN.txt	LADYBUG	Insects	12	1	[0, 0, 0]	n/a	catFR1	0	R1277J
381.819	0.0	1366421	WORD_OFF	n/a	n/a	LADYBUG	n/a	12	1	[0, 0, 0]	n/a	catFR1	0	R1277J
381.819	0.13	1366421	ENCODING_END	n/a	n/a	n/a	n/a	-999	1	[0, 0, 0]	n/a	catFR1	0	R1277J
381.949	0.0	1366551	DISTRACT_START	n/a	n/a	n/a	n/a	-999	1	[0, 0, 0]	n/a	catFR1	0	R1277J
381.949	0.02	1366551	START	n/a	n/a	n/a	n/a	-999	1	[-999, -999, -999]	n/a	catFR1	0	R1277J
381.969	3.301	1366571	PROB	3.266	n/a	n/a	n/a	-999	1	[4, 5, 1]	10.0	catFR1	0	R1277J
385.27	5.251	1369872	PROB	5.213	n/a	n/a	n/a	-999	1	[7, 5, 7]	19.0	catFR1	0	R1277J
390.521	2.315	1375123	PROB	2.281	n/a	n/a	n/a	-999	1	[5, 6, 5]	16.0	catFR1	0	R1277J
392.836	5.652	1377438	PROB	5.615	n/a	n/a	n/a	-999	1	[7, 7, 8]	20.0	catFR1	0	R1277J
398.488	3.183	1383090	PROB	3.154	n/a	n/a	n/a	-999	1	[4, 6, 1]	11.0	catFR1	0	R1277J
401.671	3.89	1386273	PROB	3.89	n/a	n/a	n/a	-999	1	[5, 3, 8]	16.0	catFR1	0	R1277J
405.561	0.011	1390163	STOP	n/a	n/a	n/a	n/a	-999	1	[-999, -999, -999]	n/a	catFR1	0	R1277J
405.572	0.634	1390174	DISTRACT_END	n/a	n/a	n/a	n/a	-999	1	[0, 0, 0]	n/a	catFR1	0	R1277J
406.206	0.516	1390808	RETRIEVAL_ORIENT	n/a	n/a	n/a	n/a	-999	1	[0, 0, 0]	n/a	catFR1	0	R1277J
406.722	1.245	1391324	REC_START	n/a	n/a	n/a	n/a	-999	1	[0, 0, 0]	n/a	catFR1	0	R1277J
407.967	1.065	1392569	REC_WORD	1.245	n/a	PUZZLE	Toys	1	1	[0, 0, 0]	n/a	catFR1	0	R1277J
409.032	2.335	1393634	REC_WORD	2.31	n/a	BALL	Toys	2	1	[0, 0, 0]	n/a	catFR1	0	R1277J
411.367	0.785	1395969	REC_WORD	4.645	n/a	TABLET	Electronics	3	1	[0, 0, 0]	n/a	catFR1	0	R1277J
412.152	2.6	1396754	REC_WORD_VV	5.43	n/a	<>	n/a	-999	1	[0, 0, 0]	n/a	catFR1	0	R1277J
414.752	21.984	1399354	REC_WORD	8.03	n/a	FLY	Insects	11	1	[0, 0, 0]	n/a	catFR1	0	R1277J
436.736	4.957	1421338	REC_END	n/a	n/a	n/a	n/a	-999	1	[0, 0, 0]	n/a	catFR1	0	R1277J
441.693	0.5	1426295	TRIAL	n/a	n/a	n/a	n/a	-999	2	[0, 0, 0]	n/a	catFR1	0	R1277J
442.193	10.0	1426795	COUNTDOWN_START	n/a	n/a	n/a	n/a	-999	2	[0, 0, 0]	n/a	catFR1	0	R1277J
452.621	0.007	1437223	COUNTDOWN_END	n/a	n/a	n/a	n/a	-999	2	[0, 0, 0]	n/a	catFR1	0	R1277J
452.628	1.6	1437230	ORIENT	n/a	n/a	n/a	n/a	-999	2	[0, 0, 0]	n/a	catFR1	0	R1277J
454.246	2.017	1438848	ORIENT_OFF	n/a	n/a	n/a	n/a	-999	2	[0, 0, 0]	n/a	catFR1	0	R1277J
456.263	1.6	1440865	WORD	n/a	wordpools/wordpool_categorized_EN.txt	BEER	Beverages	1	2	[0, 0, 0]	n/a	catFR1	0	R1277J
457.879	0.866	1442481	WORD_OFF	n/a	n/a	BEER	n/a	1	2	[0, 0, 0]	n/a	catFR1	0	R1277J
458.745	1.6	1443347	WORD	n/a	wordpools/wordpool_categorized_EN.txt	COLA	Beverages	2	2	[0, 0, 0]	n/a	catFR1	0	R1277J
460.363	0.967	1444965	WORD_OFF	n/a	n/a	COLA	n/a	2	2	[0, 0, 0]	n/a	catFR1	0	R1277J
461.33	1.6	1445932	WORD	n/a	wordpools/wordpool_categorized_EN.txt	PASTRY	Desserts	3	2	[0, 0, 0]	n/a	catFR1	0	R1277J
462.946	0.817	1447548	WORD_OFF	n/a	n/a	PASTRY	n/a	3	2	[0, 0, 0]	n/a	catFR1	0	R1277J
463.763	1.6	1448365	WORD	n/a	wordpools/wordpool_categorized_EN.txt	MOUSSE	Desserts	4	2	[0, 0, 0]	n/a	catFR1	0	R1277J
465.38	0.801	1449982	WORD_OFF	n/a	n/a	MOUSSE	n/a	4	2	[0, 0, 0]	n/a	catFR1	0	R1277J
466.181	1.6	1450783	WORD	n/a	wordpools/wordpool_categorized_EN.txt	DAISY	Flowers	5	2	[0, 0, 0]	n/a	catFR1	0	R1277J
467.797	1.0	1452399	WORD_OFF	n/a	n/a	DAISY	n/a	5	2	[0, 0, 0]	n/a	catFR1	0	R1277J
468.797	1.6	1453399	WORD	n/a	wordpools/wordpool_categorized_EN.txt	SUNFLOWER	Flowers	6	2	[0, 0, 0]	n/a	catFR1	0	R1277J
470.415	0.916	1455017	WORD_OFF	n/a	n/a	SUNFLOWER	n/a	6	2	[0, 0, 0]	n/a	catFR1	0	R1277J
471.331	1.6	1455933	WORD	n/a	wordpools/wordpool_categorized_EN.txt	SODA	Beverages	7	2	[0, 0, 0]	n/a	catFR1	0	R1277J
472.947	0.984	1457549	WORD_OFF	n/a	n/a	SODA	n/a	7	2	[0, 0, 0]	n/a	catFR1	0	R1277J
473.931	1.6	1458533	WORD	n/a	wordpools/wordpool_categorized_EN.txt	TEA	Beverages	8	2	[0, 0, 0]	n/a	catFR1	0	R1277J
475.549	0.95	1460151	WORD_OFF	n/a	n/a	TEA	n/a	8	2	[0, 0, 0]	n/a	catFR1	0	R1277J
476.499	1.6	1461101	WORD	n/a	wordpools/wordpool_categorized_EN.txt	PIE	Desserts	9	2	[0, 0, 0]	n/a	catFR1	0	R1277J
478.115	0.85	1462717	WORD_OFF	n/a	n/a	PIE	n/a	9	2	[0, 0, 0]	n/a	catFR1	0	R1277J
478.965	1.6	1463567	WORD	n/a	wordpools/wordpool_categorized_EN.txt	COBBLER	Desserts	10	2	[0, 0, 0]	n/a	catFR1	0	R1277J
480.582	0.785	1465184	WORD_OFF	n/a	n/a	COBBLER	n/a	10	2	[0, 0, 0]	n/a	catFR1	0	R1277J
481.367	1.6	1465969	WORD	n/a	wordpools/wordpool_categorized_EN.txt	MARIGOLD	Flowers	11	2	[0, 0, 0]	n/a	catFR1	0	R1277J
482.982	0.933	1467584	WORD_OFF	n/a	n/a	MARIGOLD	n/a	11	2	[0, 0, 0]	n/a	catFR1	0	R1277J
483.915	1.6	1468517	WORD	n/a	wordpools/wordpool_categorized_EN.txt	LILY	Flowers	12	2	[0, 0, 0]	n/a	catFR1	0	R1277J
485.534	0.0	1470136	ENCODING_END	n/a	n/a	n/a	n/a	-999	2	[0, 0, 0]	n/a	catFR1	0	R1277J
485.534	0.101	1470136	WORD_OFF	n/a	n/a	LILY	n/a	12	2	[0, 0, 0]	n/a	catFR1	0	R1277J
485.635	0.0	1470237	DISTRACT_START	n/a	n/a	n/a	n/a	-999	2	[0, 0, 0]	n/a	catFR1	0	R1277J
485.635	0.014	1470237	START	n/a	n/a	n/a	n/a	-999	2	[-999, -999, -999]	n/a	catFR1	0	R1277J
485.649	3.401	1470251	PROB	3.374	n/a	n/a	n/a	-999	2	[1, 3, 3]	7.0	catFR1	0	R1277J
489.05	3.084	1473652	PROB	3.061	n/a	n/a	n/a	-999	2	[5, 3, 4]	12.0	catFR1	0	R1277J
492.134	3.317	1476736	PROB	3.289	n/a	n/a	n/a	-999	2	[3, 1, 3]	7.0	catFR1	0	R1277J
495.451	3.183	1480053	PROB	3.156	n/a	n/a	n/a	-999	2	[3, 5, 2]	10.0	catFR1	0	R1277J
498.634	4.267	1483236	PROB	4.236	n/a	n/a	n/a	-999	2	[1, 5, 2]	8.0	catFR1	0	R1277J
502.901	2.938	1487503	PROB	2.938	n/a	n/a	n/a	-999	2	[5, 4, 5]	14.0	catFR1	0	R1277J
505.839	0.013	1490441	STOP	n/a	n/a	n/a	n/a	-999	2	[-999, -999, -999]	n/a	catFR1	0	R1277J
505.852	0.651	1490454	DISTRACT_END	n/a	n/a	n/a	n/a	-999	2	[0, 0, 0]	n/a	catFR1	0	R1277J
506.503	0.516	1491105	RETRIEVAL_ORIENT	n/a	n/a	n/a	n/a	-999	2	[0, 0, 0]	n/a	catFR1	0	R1277J
507.019	1.944	1491621	REC_START	n/a	n/a	n/a	n/a	-999	2	[0, 0, 0]	n/a	catFR1	0	R1277J
508.963	1.835	1493565	REC_WORD	1.944	n/a	BEER	Beverages	1	2	[0, 0, 0]	n/a	catFR1	0	R1277J
510.798	5.376	1495400	REC_WORD	3.779	n/a	SODA	Beverages	7	2	[0, 0, 0]	n/a	catFR1	0	R1277J
516.174	1.025	1500776	REC_WORD	9.155	n/a	LILY	Flowers	12	2	[0, 0, 0]	n/a	catFR1	0	R1277J
517.199	1.23	1501801	REC_WORD_VV	10.18	n/a	<>	n/a	-999	2	[0, 0, 0]	n/a	catFR1	0	R1277J
518.429	3.4	1503031	REC_WORD	11.41	n/a	FLOWER	n/a	-999	2	[0, 0, 0]	n/a	catFR1	0	R1277J
521.829	4.535	1506431	REC_WORD	14.81	n/a	MARIGOLD	Flowers	11	2	[0, 0, 0]	n/a	catFR1	0	R1277J
526.364	10.668	1510966	REC_WORD	19.345	n/a	SODA	Beverages	7	2	[0, 0, 0]	n/a	catFR1	0	R1277J
537.032	4.725	1521634	REC_END	n/a	n/a	n/a	n/a	-999	2	[0, 0, 0]	n/a	catFR1	0	R1277J
541.757	0.5	1526359	TRIAL	n/a	n/a	n/a	n/a	-999	3	[0, 0, 0]	n/a	catFR1	0	R1277J
542.257	10.0	1526859	COUNTDOWN_START	n/a	n/a	n/a	n/a	-999	3	[0, 0, 0]	n/a	catFR1	0	R1277J
552.685	0.006	1537287	COUNTDOWN_END	n/a	n/a	n/a	n/a	-999	3	[0, 0, 0]	n/a	catFR1	0	R1277J
552.691	1.6	1537293	ORIENT	n/a	n/a	n/a	n/a	-999	3	[0, 0, 0]	n/a	catFR1	0	R1277J
554.292	2.251	1538894	ORIENT_OFF	n/a	n/a	n/a	n/a	-999	3	[0, 0, 0]	n/a	catFR1	0	R1277J
556.543	1.6	1541145	WORD	n/a	wordpools/wordpool_categorized_EN.txt	MILK	Beverages	1	3	[0, 0, 0]	n/a	catFR1	0	R1277J
558.16	0.799	1542762	WORD_OFF	n/a	n/a	MILK	n/a	1	3	[0, 0, 0]	n/a	catFR1	0	R1277J
558.959	1.6	1543561	WORD	n/a	wordpools/wordpool_categorized_EN.txt	JUICE	Beverages	2	3	[0, 0, 0]	n/a	catFR1	0	R1277J
560.576	0.885	1545178	WORD_OFF	n/a	n/a	JUICE	n/a	2	3	[0, 0, 0]	n/a	catFR1	0	R1277J
561.461	1.6	1546063	WORD	n/a	wordpools/wordpool_categorized_EN.txt	CROW	Birds	3	3	[0, 0, 0]	n/a	catFR1	0	R1277J
563.076	0.933	1547678	WORD_OFF	n/a	n/a	CROW	n/a	3	3	[0, 0, 0]	n/a	catFR1	0	R1277J
564.009	1.6	1548611	WORD	n/a	wordpools/wordpool_categorized_EN.txt	FINCH	Birds	4	3	[0, 0, 0]	n/a	catFR1	0	R1277J
565.626	0.868	1550228	WORD_OFF	n/a	n/a	FINCH	n/a	4	3	[0, 0, 0]	n/a	catFR1	0	R1277J
566.494	1.6	1551096	WORD	n/a	wordpools/wordpool_categorized_EN.txt	THUNDERSTORM	Weather	5	3	[0, 0, 0]	n/a	catFR1	0	R1277J
568.11	0.9	1552712	WORD_OFF	n/a	n/a	THUNDERSTORM	n/a	5	3	[0, 0, 0]	n/a	catFR1	0	R1277J
569.01	1.6	1553612	WORD	n/a	wordpools/wordpool_categorized_EN.txt	THUNDER	Weather	6	3	[0, 0, 0]	n/a	catFR1	0	R1277J
570.627	0.885	1555229	WORD_OFF	n/a	n/a	THUNDER	n/a	6	3	[0, 0, 0]	n/a	catFR1	0	R1277J
571.512	1.6	1556114	WORD	n/a	wordpools/wordpool_categorized_EN.txt	WATER	Beverages	7	3	[0, 0, 0]	n/a	catFR1	0	R1277J
573.127	0.834	1557728	WORD_OFF	n/a	n/a	WATER	n/a	7	3	[0, 0, 0]	n/a	catFR1	0	R1277J
573.961	1.6	1558562	WORD	n/a	wordpools/wordpool_categorized_EN.txt	RUM	Beverages	8	3	[0, 0, 0]	n/a	catFR1	0	R1277J
575.578	0.884	1560179	WORD_OFF	n/a	n/a	RUM	n/a	8	3	[0, 0, 0]	n/a	catFR1	0	R1277J
576.462	1.6	1561063	WORD	n/a	wordpools/wordpool_categorized_EN.txt	PIGEON	Birds	9	3	[0, 0, 0]	n/a	catFR1	0	R1277J
578.078	0.984	1562679	WORD_OFF	n/a	n/a	PIGEON	n/a	9	3	[0, 0, 0]	n/a	catFR1	0	R1277J
579.062	1.6	1563663	WORD	n/a	wordpools/wordpool_categorized_EN.txt	DOVE	Birds	10	3	[0, 0, 0]	n/a	catFR1	0	R1277J
580.679	0.851	1565280	WORD_OFF	n/a	n/a	DOVE	n/a	10	3	[0, 0, 0]	n/a	catFR1	0	R1277J
581.53	1.6	1566131	WORD	n/a	wordpools/wordpool_categorized_EN.txt	FOG	Weather	11	3	[0, 0, 0]	n/a	catFR1	0	R1277J
583.145	0.8	1567746	WORD_OFF	n/a	n/a	FOG	n/a	11	3	[0, 0, 0]	n/a	catFR1	0	R1277J
583.945	1.6	1568546	WORD	n/a	wordpools/wordpool_categorized_EN.txt	SNOW	Weather	12	3	[0, 0, 0]	n/a	catFR1	0	R1277J
585.562	0.001	1570163	WORD_OFF	n/a	n/a	SNOW	n/a	12	3	[0, 0, 0]	n/a	catFR1	0	R1277J
585.563	0.13	1570164	ENCODING_END	n/a	n/a	n/a	n/a	-999	3	[0, 0, 0]	n/a	catFR1	0	R1277J
585.693	0.0	1570294	DISTRACT_START	n/a	n/a	n/a	n/a	-999	3	[0, 0, 0]	n/a	catFR1	0	R1277J
585.693	0.019	1570294	START	n/a	n/a	n/a	n/a	-999	3	[-999, -999, -999]	n/a	catFR1	0	R1277J
585.712	5.268	1570313	PROB	5.235	n/a	n/a	n/a	-999	3	[1, 5, 1]	7.0	catFR1	0	R1277J
590.98	3.917	1575581	PROB	3.887	n/a	n/a	n/a	-999	3	[7, 9, 4]	20.0	catFR1	0	R1277J
594.897	4.469	1579498	PROB	4.435	n/a	n/a	n/a	-999	3	[7, 9, 2]	18.0	catFR1	0	R1277J
599.366	2.316	1583967	PROB	2.277	n/a	n/a	n/a	-999	3	[5, 5, 8]	18.0	catFR1	0	R1277J
601.682	2.567	1586283	PROB	2.537	n/a	n/a	n/a	-999	3	[2, 3, 7]	12.0	catFR1	0	R1277J
604.249	5.219	1588850	PROB	5.219	n/a	n/a	n/a	-999	3	[6, 8, 9]	23.0	catFR1	0	R1277J
609.468	0.016	1594069	STOP	n/a	n/a	n/a	n/a	-999	3	[-999, -999, -999]	n/a	catFR1	0	R1277J
609.484	0.532	1594085	DISTRACT_END	n/a	n/a	n/a	n/a	-999	3	[0, 0, 0]	n/a	catFR1	0	R1277J
610.016	0.502	1594617	RETRIEVAL_ORIENT	n/a	n/a	n/a	n/a	-999	3	[0, 0, 0]	n/a	catFR1	0	R1277J
610.518	1.714	1595119	REC_START	n/a	n/a	n/a	n/a	-999	3	[0, 0, 0]	n/a	catFR1	0	R1277J
612.232	1.95	1596833	REC_WORD	1.714	n/a	THUNDER	Weather	6	3	[0, 0, 0]	n/a	catFR1	0	R1277J
614.182	7.336	1598783	REC_WORD	3.664	n/a	THUNDERSTORM	Weather	5	3	[0, 0, 0]	n/a	catFR1	0	R1277J
621.518	2.74	1606119	REC_WORD_VV	11.0	n/a	<>	n/a	-999	3	[0, 0, 0]	n/a	catFR1	0	R1277J
624.258	1.755	1608859	REC_WORD	13.74	n/a	MILK	Beverages	1	3	[0, 0, 0]	n/a	catFR1	0	R1277J
626.013	14.04	1610614	REC_WORD	15.495	n/a	JUICE	Beverages	2	3	[0, 0, 0]	n/a	catFR1	0	R1277J
640.053	0.477	1624654	REC_WORD	29.535	n/a	CELERY	n/a	-999	3	[0, 0, 0]	n/a	catFR1	0	R1277J
640.53	4.708	1625131	REC_END	n/a	n/a	n/a	n/a	-999	3	[0, 0, 0]	n/a	catFR1	0	R1277J
645.238	0.5	1629839	TRIAL	n/a	n/a	n/a	n/a	-999	4	[0, 0, 0]	n/a	catFR1	0	R1277J
645.738	10.0	1630339	COUNTDOWN_START	n/a	n/a	n/a	n/a	-999	4	[0, 0, 0]	n/a	catFR1	0	R1277J
656.166	0.007	1640767	COUNTDOWN_END	n/a	n/a	n/a	n/a	-999	4	[0, 0, 0]	n/a	catFR1	0	R1277J
656.173	1.6	1640774	ORIENT	n/a	n/a	n/a	n/a	-999	4	[0, 0, 0]	n/a	catFR1	0	R1277J
657.789	1.951	1642390	ORIENT_OFF	n/a	n/a	n/a	n/a	-999	4	[0, 0, 0]	n/a	catFR1	0	R1277J
659.74	1.6	1644341	WORD	n/a	wordpools/wordpool_categorized_EN.txt	FOREST	Landscapes	1	4	[0, 0, 0]	n/a	catFR1	0	R1277J
661.357	0.934	1645958	WORD_OFF	n/a	n/a	FOREST	n/a	1	4	[0, 0, 0]	n/a	catFR1	0	R1277J
662.291	1.6	1646892	WORD	n/a	wordpools/wordpool_categorized_EN.txt	CREEK	Landscapes	2	4	[0, 0, 0]	n/a	catFR1	0	R1277J
663.906	0.851	1648507	WORD_OFF	n/a	n/a	CREEK	n/a	2	4	[0, 0, 0]	n/a	catFR1	0	R1277J
664.757	1.6	1649358	WORD	n/a	wordpools/wordpool_categorized_EN.txt	PUDDING	Desserts	3	4	[0, 0, 0]	n/a	catFR1	0	R1277J
666.375	0.85	1650976	WORD_OFF	n/a	n/a	PUDDING	n/a	3	4	[0, 0, 0]	n/a	catFR1	0	R1277J
667.225	1.6	1651826	WORD	n/a	wordpools/wordpool_categorized_EN.txt	FUDGE	Desserts	4	4	[0, 0, 0]	n/a	catFR1	0	R1277J
668.841	1.016	1653442	WORD_OFF	n/a	n/a	FUDGE	n/a	4	4	[0, 0, 0]	n/a	catFR1	0	R1277J
669.857	1.6	1654458	WORD	n/a	wordpools/wordpool_categorized_EN.txt	TROMBONE	Instruments	5	4	[0, 0, 0]	n/a	catFR1	0	R1277J
671.459	0.983	1656060	WORD_OFF	n/a	n/a	TROMBONE	n/a	5	4	[0, 0, 0]	n/a	catFR1	0	R1277J
672.442	1.6	1657043	WORD	n/a	wordpools/wordpool_categorized_EN.txt	CELLO	Instruments	6	4	[0, 0, 0]	n/a	catFR1	0	R1277J
674.058	0.767	1658659	WORD_OFF	n/a	n/a	CELLO	n/a	6	4	[0, 0, 0]	n/a	catFR1	0	R1277J
674.825	1.6	1659426	WORD	n/a	wordpools/wordpool_categorized_EN.txt	CHEESECAKE	Desserts	7	4	[0, 0, 0]	n/a	catFR1	0	R1277J
676.442	0.834	1661043	WORD_OFF	n/a	n/a	CHEESECAKE	n/a	7	4	[0, 0, 0]	n/a	catFR1	0	R1277J
677.276	1.6	1661877	WORD	n/a	wordpools/wordpool_categorized_EN.txt	BROWNIES	Desserts	8	4	[0, 0, 0]	n/a	catFR1	0	R1277J
678.892	0.883	1663493	WORD_OFF	n/a	n/a	BROWNIES	n/a	8	4	[0, 0, 0]	n/a	catFR1	0	R1277J
679.775	1.6	1664376	WORD	n/a	wordpools/wordpool_categorized_EN.txt	BEACH	Landscapes	9	4	[0, 0, 0]	n/a	catFR1	0	R1277J
681.393	0.967	1665994	WORD_OFF	n/a	n/a	BEACH	n/a	9	4	[0, 0, 0]	n/a	catFR1	0	R1277J
682.36	1.6	1666961	WORD	n/a	wordpools/wordpool_categorized_EN.txt	RIVER	Landscapes	10	4	[0, 0, 0]	n/a	catFR1	0	R1277J
683.976	0.85	1668577	WORD_OFF	n/a	n/a	RIVER	n/a	10	4	[0, 0, 0]	n/a	catFR1	0	R1277J
684.826	1.6	1669427	WORD	n/a	wordpools/wordpool_categorized_EN.txt	PIANO	Instruments	11	4	[0, 0, 0]	n/a	catFR1	0	R1277J
686.444	1.0	1671045	WORD_OFF	n/a	n/a	PIANO	n/a	11	4	[0, 0, 0]	n/a	catFR1	0	R1277J
687.444	1.6	1672045	WORD	n/a	wordpools/wordpool_categorized_EN.txt	BASS	Instruments	12	4	[0, 0, 0]	n/a	catFR1	0	R1277J
689.06	0.0	1673661	ENCODING_END	n/a	n/a	n/a	n/a	-999	4	[0, 0, 0]	n/a	catFR1	0	R1277J
689.06	0.122	1673661	WORD_OFF	n/a	n/a	BASS	n/a	12	4	[0, 0, 0]	n/a	catFR1	0	R1277J
689.182	0.0	1673783	DISTRACT_START	n/a	n/a	n/a	n/a	-999	4	[0, 0, 0]	n/a	catFR1	0	R1277J
689.182	0.012	1673783	START	n/a	n/a	n/a	n/a	-999	4	[-999, -999, -999]	n/a	catFR1	0	R1277J
689.194	3.516	1673795	PROB	3.486	n/a	n/a	n/a	-999	4	[1, 1, 4]	6.0	catFR1	0	R1277J
692.71	3.401	1677311	PROB	3.362	n/a	n/a	n/a	-999	4	[9, 9, 8]	26.0	catFR1	0	R1277J
696.111	4.567	1680712	PROB	4.529	n/a	n/a	n/a	-999	4	[8, 9, 3]	20.0	catFR1	0	R1277J
700.678	8.586	1685279	PROB	8.586	n/a	n/a	n/a	-999	4	[8, 7, 9]	24.0	catFR1	0	R1277J
709.264	0.016	1693865	STOP	n/a	n/a	n/a	n/a	-999	4	[-999, -999, -999]	n/a	catFR1	0	R1277J
709.28	0.533	1693881	DISTRACT_END	n/a	n/a	n/a	n/a	-999	4	[0, 0, 0]	n/a	catFR1	0	R1277J
709.813	0.518	1694414	RETRIEVAL_ORIENT	n/a	n/a	n/a	n/a	-999	4	[0, 0, 0]	n/a	catFR1	0	R1277J
710.331	4.549	1694932	REC_START	n/a	n/a	n/a	n/a	-999	4	[0, 0, 0]	n/a	catFR1	0	R1277J
714.88	4.335	1699481	REC_WORD	4.549	n/a	FOREST	Landscapes	1	4	[0, 0, 0]	n/a	catFR1	0	R1277J
719.215	2.55	1703816	REC_WORD	8.884	n/a	CREEK	Landscapes	2	4	[0, 0, 0]	n/a	catFR1	0	R1277J
721.765	0.87	1706366	REC_WORD	11.434	n/a	CHEESECAKE	Desserts	7	4	[0, 0, 0]	n/a	catFR1	0	R1277J
722.635	1.64	1707236	REC_WORD_VV	12.304	n/a	<>	n/a	-999	4	[0, 0, 0]	n/a	catFR1	0	R1277J
724.275	0.776	1708876	REC_WORD	13.944	n/a	BROWNIES	Desserts	8	4	[0, 0, 0]	n/a	catFR1	0	R1277J
725.051	1.0	1709652	REC_WORD_VV	14.72	n/a	<>	n/a	-999	4	[0, 0, 0]	n/a	catFR1	0	R1277J
726.051	1.615	1710652	REC_WORD_VV	15.72	n/a	<>	n/a	-999	4	[0, 0, 0]	n/a	catFR1	0	R1277J
727.666	1.0	1712267	REC_WORD_VV	17.335	n/a	<>	n/a	-999	4	[0, 0, 0]	n/a	catFR1	0	R1277J
728.666	1.475	1713267	REC_WORD_VV	18.335	n/a	<>	n/a	-999	4	[0, 0, 0]	n/a	catFR1	0	R1277J
730.141	6.11	1714742	REC_WORD	19.81	n/a	CELLO	Instruments	6	4	[0, 0, 0]	n/a	catFR1	0	R1277J
736.251	1.095	1720852	REC_WORD_VV	25.92	n/a	<>	n/a	-999	4	[0, 0, 0]	n/a	catFR1	0	R1277J
737.346	2.997	1721947	REC_WORD	27.015	n/a	ELBOW	n/a	-999	4	[0, 0, 0]	n/a	catFR1	0	R1277J
740.343	7.758	1724944	REC_END	n/a	n/a	n/a	n/a	-999	4	[0, 0, 0]	n/a	catFR1	0	R1277J
748.101	0.5	1732702	TRIAL	n/a	n/a	n/a	n/a	-999	5	[0, 0, 0]	n/a	catFR1	0	R1277J
748.601	10.0	1733202	COUNTDOWN_START	n/a	n/a	n/a	n/a	-999	5	[0, 0, 0]	n/a	catFR1	0	R1277J
759.029	0.007	1743630	COUNTDOWN_END	n/a	n/a	n/a	n/a	-999	5	[0, 0, 0]	n/a	catFR1	0	R1277J
759.036	1.6	1743637	ORIENT	n/a	n/a	n/a	n/a	-999	5	[0, 0, 0]	n/a	catFR1	0	R1277J
760.653	2.133	1745254	ORIENT_OFF	n/a	n/a	n/a	n/a	-999	5	[0, 0, 0]	n/a	catFR1	0	R1277J
762.786	1.6	1747387	WORD	n/a	wordpools/wordpool_categorized_EN.txt	OYSTER	OceanAnimals	1	5	[0, 0, 0]	n/a	catFR1	0	R1277J
764.387	0.867	1748988	WORD_OFF	n/a	n/a	OYSTER	n/a	1	5	[0, 0, 0]	n/a	catFR1	0	R1277J
765.254	1.6	1749855	WORD	n/a	wordpools/wordpool_categorized_EN.txt	TURTLE	OceanAnimals	2	5	[0, 0, 0]	n/a	catFR1	0	R1277J
766.87	1.017	1751471	WORD_OFF	n/a	n/a	TURTLE	n/a	2	5	[0, 0, 0]	n/a	catFR1	0	R1277J
767.887	1.6	1752488	WORD	n/a	wordpools/wordpool_categorized_EN.txt	PLUM	Fruit	3	5	[0, 0, 0]	n/a	catFR1	0	R1277J
769.505	0.8	1754106	WORD_OFF	n/a	n/a	PLUM	n/a	3	5	[0, 0, 0]	n/a	catFR1	0	R1277J
770.305	1.6	1754906	WORD	n/a	wordpools/wordpool_categorized_EN.txt	PEACH	Fruit	4	5	[0, 0, 0]	n/a	catFR1	0	R1277J
771.921	0.933	1756522	WORD_OFF	n/a	n/a	PEACH	n/a	4	5	[0, 0, 0]	n/a	catFR1	0	R1277J
772.854	1.6	1757455	WORD	n/a	wordpools/wordpool_categorized_EN.txt	JELLO	Desserts	5	5	[0, 0, 0]	n/a	catFR1	0	R1277J
774.472	1.001	1759073	WORD_OFF	n/a	n/a	JELLO	n/a	5	5	[0, 0, 0]	n/a	catFR1	0	R1277J
775.473	1.6	1760074	WORD	n/a	wordpools/wordpool_categorized_EN.txt	CAKE	Desserts	6	5	[0, 0, 0]	n/a	catFR1	0	R1277J
777.089	0.766	1761690	WORD_OFF	n/a	n/a	CAKE	n/a	6	5	[0, 0, 0]	n/a	catFR1	0	R1277J
777.855	1.6	1762456	WORD	n/a	wordpools/wordpool_categorized_EN.txt	CRAB	OceanAnimals	7	5	[0, 0, 0]	n/a	catFR1	0	R1277J
779.473	0.95	1764074	WORD_OFF	n/a	n/a	CRAB	n/a	7	5	[0, 0, 0]	n/a	catFR1	0	R1277J
780.423	1.6	1765024	WORD	n/a	wordpools/wordpool_categorized_EN.txt	SHRIMP	OceanAnimals	8	5	[0, 0, 0]	n/a	catFR1	0	R1277J
782.039	0.783	1766640	WORD_OFF	n/a	n/a	SHRIMP	n/a	8	5	[0, 0, 0]	n/a	catFR1	0	R1277J
782.822	1.6	1767423	WORD	n/a	wordpools/wordpool_categorized_EN.txt	CHERRY	Fruit	9	5	[0, 0, 0]	n/a	catFR1	0	R1277J
784.44	0.9	1769040	WORD_OFF	n/a	n/a	CHERRY	n/a	9	5	[0, 0, 0]	n/a	catFR1	0	R1277J
785.34	1.6	1769940	WORD	n/a	wordpools/wordpool_categorized_EN.txt	BANANA	Fruit	10	5	[0, 0, 0]	n/a	catFR1	0	R1277J
786.956	0.834	1771556	WORD_OFF	n/a	n/a	BANANA	n/a	10	5	[0, 0, 0]	n/a	catFR1	0	R1277J
787.79	1.6	1772390	WORD	n/a	wordpools/wordpool_categorized_EN.txt	CUPCAKE	Desserts	11	5	[0, 0, 0]	n/a	catFR1	0	R1277J
789.408	0.917	1774008	WORD_OFF	n/a	n/a	CUPCAKE	n/a	11	5	[0, 0, 0]	n/a	catFR1	0	R1277J
790.325	1.6	1774925	WORD	n/a	wordpools/wordpool_categorized_EN.txt	COOKIE	Desserts	12	5	[0, 0, 0]	n/a	catFR1	0	R1277J
791.941	0.0	1776541	ENCODING_END	n/a	n/a	n/a	n/a	-999	5	[0, 0, 0]	n/a	catFR1	0	R1277J
791.941	0.095	1776541	WORD_OFF	n/a	n/a	COOKIE	n/a	12	5	[0, 0, 0]	n/a	catFR1	0	R1277J
792.036	0.0	1776636	DISTRACT_START	n/a	n/a	n/a	n/a	-999	5	[0, 0, 0]	n/a	catFR1	0	R1277J
792.036	0.021	1776636	START	n/a	n/a	n/a	n/a	-999	5	[-999, -999, -999]	n/a	catFR1	0	R1277J
792.057	3.617	1776657	PROB	3.579	n/a	n/a	n/a	-999	5	[6, 3, 3]	12.0	catFR1	0	R1277J
795.674	3.367	1780274	PROB	3.331	n/a	n/a	n/a	-999	5	[4, 2, 4]	10.0	catFR1	0	R1277J
799.041	2.951	1783641	PROB	2.924	n/a	n/a	n/a	-999	5	[8, 2, 8]	18.0	catFR1	0	R1277J
801.992	1.867	1786592	PROB	1.828	n/a	n/a	n/a	-999	5	[1, 6, 5]	12.0	catFR1	0	R1277J
803.859	3.25	1788459	PROB	3.216	n/a	n/a	n/a	-999	5	[5, 9, 2]	16.0	catFR1	0	R1277J
807.109	4.801	1791709	PROB	4.767	n/a	n/a	n/a	-999	5	[3, 8, 6]	17.0	catFR1	0	R1277J
811.91	2.91	1796510	PROB	2.91	n/a	n/a	n/a	-999	5	[1, 5, 2]	8.0	catFR1	0	R1277J
814.82	0.007	1799420	STOP	n/a	n/a	n/a	n/a	-999	5	[-999, -999, -999]	n/a	catFR1	0	R1277J
814.827	0.534	1799427	DISTRACT_END	n/a	n/a	n/a	n/a	-999	5	[0, 0, 0]	n/a	catFR1	0	R1277J
815.361	0.533	1799961	RETRIEVAL_ORIENT	n/a	n/a	n/a	n/a	-999	5	[0, 0, 0]	n/a	catFR1	0	R1277J
815.894	1.0	1800494	REC_START	n/a	n/a	n/a	n/a	-999	5	[0, 0, 0]	n/a	catFR1	0	R1277J
816.894	1.164	1801494	REC_WORD_VV	1.0	n/a	<>	n/a	-999	5	[0, 0, 0]	n/a	catFR1	0	R1277J
818.058	0.475	1802658	REC_WORD	2.164	n/a	PEAR	n/a	-999	5	[0, 0, 0]	n/a	catFR1	0	R1277J
818.533	4.96	1803133	REC_WORD	2.639	n/a	PLUM	Fruit	3	5	[0, 0, 0]	n/a	catFR1	0	R1277J
823.493	2.08	1808093	REC_WORD_VV	7.599	n/a	<>	n/a	-999	5	[0, 0, 0]	n/a	catFR1	0	R1277J
825.573	20.333	1810173	REC_WORD	9.679	n/a	BANANA	Fruit	10	5	[0, 0, 0]	n/a	catFR1	0	R1277J
845.906	4.892	1830506	REC_END	n/a	n/a	n/a	n/a	-999	5	[0, 0, 0]	n/a	catFR1	0	R1277J
850.798	0.5	1835398	TRIAL	n/a	n/a	n/a	n/a	-999	6	[0, 0, 0]	n/a	catFR1	0	R1277J
851.298	10.0	1835898	COUNTDOWN_START	n/a	n/a	n/a	n/a	-999	6	[0, 0, 0]	n/a	catFR1	0	R1277J
861.726	0.007	1846326	COUNTDOWN_END	n/a	n/a	n/a	n/a	-999	6	[0, 0, 0]	n/a	catFR1	0	R1277J
861.733	1.6	1846333	ORIENT	n/a	n/a	n/a	n/a	-999	6	[0, 0, 0]	n/a	catFR1	0	R1277J
863.351	1.933	1847951	ORIENT_OFF	n/a	n/a	n/a	n/a	-999	6	[0, 0, 0]	n/a	catFR1	0	R1277J
865.284	1.6	1849884	WORD	n/a	wordpools/wordpool_categorized_EN.txt	NIGHTSTAND	Furniture	1	6	[0, 0, 0]	n/a	catFR1	0	R1277J
866.9	0.834	1851500	WORD_OFF	n/a	n/a	NIGHTSTAND	n/a	1	6	[0, 0, 0]	n/a	catFR1	0	R1277J
867.734	1.6	1852334	WORD	n/a	wordpools/wordpool_categorized_EN.txt	CHAIR	Furniture	2	6	[0, 0, 0]	n/a	catFR1	0	R1277J
869.352	0.782	1853952	WORD_OFF	n/a	n/a	CHAIR	n/a	2	6	[0, 0, 0]	n/a	catFR1	0	R1277J
870.134	1.6	1854734	WORD	n/a	wordpools/wordpool_categorized_EN.txt	LEMON	Fruit	3	6	[0, 0, 0]	n/a	catFR1	0	R1277J
871.751	0.9	1856351	WORD_OFF	n/a	n/a	LEMON	n/a	3	6	[0, 0, 0]	n/a	catFR1	0	R1277J
872.651	1.6	1857251	WORD	n/a	wordpools/wordpool_categorized_EN.txt	BLUEBERRY	Fruit	4	6	[0, 0, 0]	n/a	catFR1	0	R1277J
874.269	0.866	1858869	WORD_OFF	n/a	n/a	BLUEBERRY	n/a	4	6	[0, 0, 0]	n/a	catFR1	0	R1277J
875.135	1.6	1859735	WORD	n/a	wordpools/wordpool_categorized_EN.txt	ORCHID	Flowers	5	6	[0, 0, 0]	n/a	catFR1	0	R1277J
876.752	0.866	1861352	WORD_OFF	n/a	n/a	ORCHID	n/a	5	6	[0, 0, 0]	n/a	catFR1	0	R1277J
877.618	1.6	1862218	WORD	n/a	wordpools/wordpool_categorized_EN.txt	ROSE	Flowers	6	6	[0, 0, 0]	n/a	catFR1	0	R1277J
879.236	0.783	1863836	WORD_OFF	n/a	n/a	ROSE	n/a	6	6	[0, 0, 0]	n/a	catFR1	0	R1277J
880.019	1.6	1864619	WORD	n/a	wordpools/wordpool_categorized_EN.txt	STRAWBERRY	Fruit	7	6	[0, 0, 0]	n/a	catFR1	0	R1277J
881.636	0.801	1866236	WORD_OFF	n/a	n/a	STRAWBERRY	n/a	7	6	[0, 0, 0]	n/a	catFR1	0	R1277J
882.437	1.6	1867037	WORD	n/a	wordpools/wordpool_categorized_EN.txt	GRAPE	Fruit	8	6	[0, 0, 0]	n/a	catFR1	0	R1277J
884.052	0.801	1868652	WORD_OFF	n/a	n/a	GRAPE	n/a	8	6	[0, 0, 0]	n/a	catFR1	0	R1277J
884.853	1.6	1869453	WORD	n/a	wordpools/wordpool_categorized_EN.txt	RECLINER	Furniture	9	6	[0, 0, 0]	n/a	catFR1	0	R1277J
886.471	0.766	1871071	WORD_OFF	n/a	n/a	RECLINER	n/a	9	6	[0, 0, 0]	n/a	catFR1	0	R1277J
887.237	1.6	1871837	WORD	n/a	wordpools/wordpool_categorized_EN.txt	COUCH	Furniture	10	6	[0, 0, 0]	n/a	catFR1	0	R1277J
888.853	1.001	1873453	WORD_OFF	n/a	n/a	COUCH	n/a	10	6	[0, 0, 0]	n/a	catFR1	0	R1277J
889.854	1.6	1874454	WORD	n/a	wordpools/wordpool_categorized_EN.txt	LILAC	Flowers	11	6	[0, 0, 0]	n/a	catFR1	0	R1277J
891.471	1.017	1876071	WORD_OFF	n/a	n/a	LILAC	n/a	11	6	[0, 0, 0]	n/a	catFR1	0	R1277J
892.488	1.6	1877088	WORD	n/a	wordpools/wordpool_categorized_EN.txt	PETUNIA	Flowers	12	6	[0, 0, 0]	n/a	catFR1	0	R1277J
894.104	0.0	1878704	ENCODING_END	n/a	n/a	n/a	n/a	-999	6	[0, 0, 0]	n/a	catFR1	0	R1277J
894.104	0.129	1878704	WORD_OFF	n/a	n/a	PETUNIA	n/a	12	6	[0, 0, 0]	n/a	catFR1	0	R1277J
894.233	0.0	1878833	DISTRACT_START	n/a	n/a	n/a	n/a	-999	6	[0, 0, 0]	n/a	catFR1	0	R1277J
894.233	0.022	1878833	START	n/a	n/a	n/a	n/a	-999	6	[-999, -999, -999]	n/a	catFR1	0	R1277J
894.255	2.067	1878855	PROB	2.042	n/a	n/a	n/a	-999	6	[6, 2, 4]	12.0	catFR1	0	R1277J
896.322	3.733	1880922	PROB	3.695	n/a	n/a	n/a	-999	6	[9, 9, 9]	27.0	catFR1	0	R1277J
900.055	2.6	1884655	PROB	2.562	n/a	n/a	n/a	-999	6	[1, 6, 3]	10.0	catFR1	0	R1277J
902.655	3.001	1887255	PROB	2.962	n/a	n/a	n/a	-999	6	[4, 5, 9]	14.0	catFR1	0	R1277J
905.656	4.384	1890256	PROB	4.353	n/a	n/a	n/a	-999	6	[8, 1, 5]	14.0	catFR1	0	R1277J
910.04	4.05	1894640	PROB	4.017	n/a	n/a	n/a	-999	6	[6, 7, 4]	17.0	catFR1	0	R1277J
914.09	3.167	1898690	PROB	3.167	n/a	n/a	n/a	-999	6	[3, 4, 7]	14.0	catFR1	0	R1277J
917.257	0.018	1901857	STOP	n/a	n/a	n/a	n/a	-999	6	[-999, -999, -999]	n/a	catFR1	0	R1277J
917.275	0.532	1901875	DISTRACT_END	n/a	n/a	n/a	n/a	-999	6	[0, 0, 0]	n/a	catFR1	0	R1277J
917.807	0.519	1902407	RETRIEVAL_ORIENT	n/a	n/a	n/a	n/a	-999	6	[0, 0, 0]	n/a	catFR1	0	R1277J
918.326	5.524	1902926	REC_START	n/a	n/a	n/a	n/a	-999	6	[0, 0, 0]	n/a	catFR1	0	R1277J
923.85	0.65	1908450	REC_WORD	5.524	n/a	COUCH	Furniture	10	6	[0, 0, 0]	n/a	catFR1	0	R1277J
924.5	2.095	1909100	REC_WORD	6.174	n/a	RECLINER	Furniture	9	6	[0, 0, 0]	n/a	catFR1	0	R1277J
926.595	0.705	1911195	REC_WORD_VV	8.269	n/a	<>	n/a	-999	6	[0, 0, 0]	n/a	catFR1	0	R1277J
927.3	3.025	1911900	REC_WORD	8.974	n/a	STRAWBERRY	Fruit	7	6	[0, 0, 0]	n/a	catFR1	0	R1277J
930.325	1.135	1914925	REC_WORD_VV	11.999	n/a	<>	n/a	-999	6	[0, 0, 0]	n/a	catFR1	0	R1277J
931.46	2.735	1916060	REC_WORD	13.134	n/a	CHERRY	n/a	-999	6	[0, 0, 0]	n/a	catFR1	0	R1277J
934.195	8.24	1918795	REC_WORD	15.869	n/a	LEMON	Fruit	3	6	[0, 0, 0]	n/a	catFR1	0	R1277J
942.435	5.902	1927035	REC_WORD	24.109	n/a	DESK	n/a	-999	6	[0, 0, 0]	n/a	catFR1	0	R1277J
948.337	5.575	1932937	REC_END	n/a	n/a	n/a	n/a	-999	6	[0, 0, 0]	n/a	catFR1	0	R1277J
953.912	0.5	1938512	TRIAL	n/a	n/a	n/a	n/a	-999	7	[0, 0, 0]	n/a	catFR1	0	R1277J
954.412	10.0	1939012	COUNTDOWN_START	n/a	n/a	n/a	n/a	-999	7	[0, 0, 0]	n/a	catFR1	0	R1277J
964.84	0.007	1949440	COUNTDOWN_END	n/a	n/a	n/a	n/a	-999	7	[0, 0, 0]	n/a	catFR1	0	R1277J
964.847	1.6	1949447	ORIENT	n/a	n/a	n/a	n/a	-999	7	[0, 0, 0]	n/a	catFR1	0	R1277J
966.465	2.183	1951065	ORIENT_OFF	n/a	n/a	n/a	n/a	-999	7	[0, 0, 0]	n/a	catFR1	0	R1277J
968.648	1.6	1953248	WORD	n/a	wordpools/wordpool_categorized_EN.txt	STREAM	Landscapes	1	7	[0, 0, 0]	n/a	catFR1	0	R1277J
970.266	0.882	1954866	WORD_OFF	n/a	n/a	STREAM	n/a	1	7	[0, 0, 0]	n/a	catFR1	0	R1277J
971.148	1.6	1955748	WORD	n/a	wordpools/wordpool_categorized_EN.txt	ISLAND	Landscapes	2	7	[0, 0, 0]	n/a	catFR1	0	R1277J
972.765	0.983	1957365	WORD_OFF	n/a	n/a	ISLAND	n/a	2	7	[0, 0, 0]	n/a	catFR1	0	R1277J
973.748	1.6	1958348	WORD	n/a	wordpools/wordpool_categorized_EN.txt	DAFFODIL	Flowers	3	7	[0, 0, 0]	n/a	catFR1	0	R1277J
975.366	0.9	1959966	WORD_OFF	n/a	n/a	DAFFODIL	n/a	3	7	[0, 0, 0]	n/a	catFR1	0	R1277J
976.266	1.6	1960866	WORD	n/a	wordpools/wordpool_categorized_EN.txt	VIOLET	Flowers	4	7	[0, 0, 0]	n/a	catFR1	0	R1277J
977.882	0.967	1962482	WORD_OFF	n/a	n/a	VIOLET	n/a	4	7	[0, 0, 0]	n/a	catFR1	0	R1277J
978.849	1.6	1963449	WORD	n/a	wordpools/wordpool_categorized_EN.txt	DOLPHIN	OceanAnimals	5	7	[0, 0, 0]	n/a	catFR1	0	R1277J
980.467	1.0	1965067	WORD_OFF	n/a	n/a	DOLPHIN	n/a	5	7	[0, 0, 0]	n/a	catFR1	0	R1277J
981.467	1.6	1966067	WORD	n/a	wordpools/wordpool_categorized_EN.txt	WHALE	OceanAnimals	6	7	[0, 0, 0]	n/a	catFR1	0	R1277J
983.083	0.9	1967683	WORD_OFF	n/a	n/a	WHALE	n/a	6	7	[0, 0, 0]	n/a	catFR1	0	R1277J
983.983	1.6	1968583	WORD	n/a	wordpools/wordpool_categorized_EN.txt	OCEAN	Landscapes	7	7	[0, 0, 0]	n/a	catFR1	0	R1277J
985.6	0.851	1970200	WORD_OFF	n/a	n/a	OCEAN	n/a	7	7	[0, 0, 0]	n/a	catFR1	0	R1277J
986.451	1.6	1971051	WORD	n/a	wordpools/wordpool_categorized_EN.txt	MOUNTAIN	Landscapes	8	7	[0, 0, 0]	n/a	catFR1	0	R1277J
988.067	0.867	1972667	WORD_OFF	n/a	n/a	MOUNTAIN	n/a	8	7	[0, 0, 0]	n/a	catFR1	0	R1277J
988.934	1.6	1973534	WORD	n/a	wordpools/wordpool_categorized_EN.txt	TULIP	Flowers	9	7	[0, 0, 0]	n/a	catFR1	0	R1277J
990.552	0.783	1975152	WORD_OFF	n/a	n/a	TULIP	n/a	9	7	[0, 0, 0]	n/a	catFR1	0	R1277J
991.335	1.6	1975935	WORD	n/a	wordpools/wordpool_categorized_EN.txt	CARNATION	Flowers	10	7	[0, 0, 0]	n/a	catFR1	0	R1277J
992.951	0.983	1977551	WORD_OFF	n/a	n/a	CARNATION	n/a	10	7	[0, 0, 0]	n/a	catFR1	0	R1277J
993.934	1.6	1978534	WORD	n/a	wordpools/wordpool_categorized_EN.txt	PLANKTON	OceanAnimals	11	7	[0, 0, 0]	n/a	catFR1	0	R1277J
995.552	0.767	1980152	WORD_OFF	n/a	n/a	PLANKTON	n/a	11	7	[0, 0, 0]	n/a	catFR1	0	R1277J
996.319	1.6	1980918	WORD	n/a	wordpools/wordpool_categorized_EN.txt	SQUID	OceanAnimals	12	7	[0, 0, 0]	n/a	catFR1	0	R1277J
997.935	0.0	1982534	WORD_OFF	n/a	n/a	SQUID	n/a	12	7	[0, 0, 0]	n/a	catFR1	0	R1277J
997.935	0.099	1982534	ENCODING_END	n/a	n/a	n/a	n/a	-999	7	[0, 0, 0]	n/a	catFR1	0	R1277J
998.034	0.0	1982633	DISTRACT_START	n/a	n/a	n/a	n/a	-999	7	[0, 0, 0]	n/a	catFR1	0	R1277J
998.034	0.017	1982633	START	n/a	n/a	n/a	n/a	-999	7	[-999, -999, -999]	n/a	catFR1	0	R1277J
998.051	2.634	1982650	PROB	2.609	n/a	n/a	n/a	-999	7	[2, 2, 5]	9.0	catFR1	0	R1277J
1000.685	3.217	1985284	PROB	3.192	n/a	n/a	n/a	-999	7	[1, 6, 3]	10.0	catFR1	0	R1277J
1003.902	4.184	1988501	PROB	4.159	n/a	n/a	n/a	-999	7	[4, 2, 5]	11.0	catFR1	0	R1277J
1008.086	5.452	1992685	PROB	5.424	n/a	n/a	n/a	-999	7	[8, 3, 5]	16.0	catFR1	0	R1277J
1013.538	5.86	1998137	PROB	5.86	n/a	n/a	n/a	-999	7	[8, 9, 9]	26.0	catFR1	0	R1277J
1019.398	0.008	2003997	STOP	n/a	n/a	n/a	n/a	-999	7	[-999, -999, -999]	n/a	catFR1	0	R1277J
1019.406	0.582	2004005	DISTRACT_END	n/a	n/a	n/a	n/a	-999	7	[0, 0, 0]	n/a	catFR1	0	R1277J
1019.988	0.502	2004587	RETRIEVAL_ORIENT	n/a	n/a	n/a	n/a	-999	7	[0, 0, 0]	n/a	catFR1	0	R1277J
1020.49	1.589	2005089	REC_START	n/a	n/a	n/a	n/a	-999	7	[0, 0, 0]	n/a	catFR1	0	R1277J
1022.079	0.77	2006678	REC_WORD	1.589	n/a	ISLAND	Landscapes	2	7	[0, 0, 0]	n/a	catFR1	0	R1277J
1022.849	1.51	2007448	REC_WORD_VV	2.359	n/a	<>	n/a	-999	7	[0, 0, 0]	n/a	catFR1	0	R1277J
1024.359	2.131	2008958	REC_WORD	3.869	n/a	SQUID	OceanAnimals	12	7	[0, 0, 0]	n/a	catFR1	0	R1277J
1026.49	2.93	2011089	REC_WORD	6.0	n/a	WHALE	OceanAnimals	6	7	[0, 0, 0]	n/a	catFR1	0	R1277J
1029.42	2.775	2014019	REC_WORD	8.93	n/a	DOLPHIN	OceanAnimals	5	7	[0, 0, 0]	n/a	catFR1	0	R1277J
1032.195	2.525	2016794	REC_WORD	11.705	n/a	LILAC	n/a	-999	7	[0, 0, 0]	n/a	catFR1	0	R1277J
1034.72	7.025	2019319	REC_WORD	14.23	n/a	TURTLE	n/a	-999	7	[0, 0, 0]	n/a	catFR1	0	R1277J
1041.745	8.756	2026344	REC_WORD	21.255	n/a	CARNATION	Flowers	10	7	[0, 0, 0]	n/a	catFR1	0	R1277J
1050.501	5.525	2035100	REC_END	n/a	n/a	n/a	n/a	-999	7	[0, 0, 0]	n/a	catFR1	0	R1277J
1056.026	0.5	2040625	TRIAL	n/a	n/a	n/a	n/a	-999	8	[0, 0, 0]	n/a	catFR1	0	R1277J
1056.526	10.0	2041125	COUNTDOWN_START	n/a	n/a	n/a	n/a	-999	8	[0, 0, 0]	n/a	catFR1	0	R1277J
1066.954	0.006	2051553	COUNTDOWN_END	n/a	n/a	n/a	n/a	-999	8	[0, 0, 0]	n/a	catFR1	0	R1277J
1066.96	1.6	2051559	ORIENT	n/a	n/a	n/a	n/a	-999	8	[0, 0, 0]	n/a	catFR1	0	R1277J
1068.577	1.968	2053176	ORIENT_OFF	n/a	n/a	n/a	n/a	-999	8	[0, 0, 0]	n/a	catFR1	0	R1277J
1070.545	1.6	2055144	WORD	n/a	wordpools/wordpool_categorized_EN.txt	WASHER	Appliances	1	8	[0, 0, 0]	n/a	catFR1	0	R1277J
1072.162	1.0	2056761	WORD_OFF	n/a	n/a	WASHER	n/a	1	8	[0, 0, 0]	n/a	catFR1	0	R1277J
1073.162	1.6	2057761	WORD	n/a	wordpools/wordpool_categorized_EN.txt	OVEN	Appliances	2	8	[0, 0, 0]	n/a	catFR1	0	R1277J
1074.779	0.849	2059378	WORD_OFF	n/a	n/a	OVEN	n/a	2	8	[0, 0, 0]	n/a	catFR1	0	R1277J
1075.628	1.6	2060227	WORD	n/a	wordpools/wordpool_categorized_EN.txt	BUS	Vehicles	3	8	[0, 0, 0]	n/a	catFR1	0	R1277J
1077.23	0.95	2061829	WORD_OFF	n/a	n/a	BUS	n/a	3	8	[0, 0, 0]	n/a	catFR1	0	R1277J
1078.18	1.6	2062779	WORD	n/a	wordpools/wordpool_categorized_EN.txt	JEEP	Vehicles	4	8	[0, 0, 0]	n/a	catFR1	0	R1277J
1079.796	0.984	2064395	WORD_OFF	n/a	n/a	JEEP	n/a	4	8	[0, 0, 0]	n/a	catFR1	0	R1277J
1080.78	1.6	2065379	WORD	n/a	wordpools/wordpool_categorized_EN.txt	SPARROW	Birds	5	8	[0, 0, 0]	n/a	catFR1	0	R1277J
1082.381	0.783	2066980	WORD_OFF	n/a	n/a	SPARROW	n/a	5	8	[0, 0, 0]	n/a	catFR1	0	R1277J
1083.164	1.6	2067763	WORD	n/a	wordpools/wordpool_categorized_EN.txt	GOOSE	Birds	6	8	[0, 0, 0]	n/a	catFR1	0	R1277J
1084.78	0.916	2069379	WORD_OFF	n/a	n/a	GOOSE	n/a	6	8	[0, 0, 0]	n/a	catFR1	0	R1277J
1085.696	1.6	2070295	WORD	n/a	wordpools/wordpool_categorized_EN.txt	DRYER	Appliances	7	8	[0, 0, 0]	n/a	catFR1	0	R1277J
1087.298	0.967	2071897	WORD_OFF	n/a	n/a	DRYER	n/a	7	8	[0, 0, 0]	n/a	catFR1	0	R1277J
1088.265	1.6	2072864	WORD	n/a	wordpools/wordpool_categorized_EN.txt	IRON	Appliances	8	8	[0, 0, 0]	n/a	catFR1	0	R1277J
1089.881	0.833	2074480	WORD_OFF	n/a	n/a	IRON	n/a	8	8	[0, 0, 0]	n/a	catFR1	0	R1277J
1090.714	1.6	2075313	WORD	n/a	wordpools/wordpool_categorized_EN.txt	BOAT	Vehicles	9	8	[0, 0, 0]	n/a	catFR1	0	R1277J
1092.332	0.95	2076931	WORD_OFF	n/a	n/a	BOAT	n/a	9	8	[0, 0, 0]	n/a	catFR1	0	R1277J
1093.282	1.6	2077881	WORD	n/a	wordpools/wordpool_categorized_EN.txt	PLANE	Vehicles	10	8	[0, 0, 0]	n/a	catFR1	0	R1277J
1094.898	0.983	2079497	WORD_OFF	n/a	n/a	PLANE	n/a	10	8	[0, 0, 0]	n/a	catFR1	0	R1277J
1095.881	1.6	2080480	WORD	n/a	wordpools/wordpool_categorized_EN.txt	ROBIN	Birds	11	8	[0, 0, 0]	n/a	catFR1	0	R1277J
1097.499	1.0	2082098	WORD_OFF	n/a	n/a	ROBIN	n/a	11	8	[0, 0, 0]	n/a	catFR1	0	R1277J
1098.499	1.6	2083098	WORD	n/a	wordpools/wordpool_categorized_EN.txt	SEAGULL	Birds	12	8	[0, 0, 0]	n/a	catFR1	0	R1277J
1100.115	0.001	2084714	WORD_OFF	n/a	n/a	SEAGULL	n/a	12	8	[0, 0, 0]	n/a	catFR1	0	R1277J
1100.116	0.098	2084715	ENCODING_END	n/a	n/a	n/a	n/a	-999	8	[0, 0, 0]	n/a	catFR1	0	R1277J
1100.214	0.001	2084813	DISTRACT_START	n/a	n/a	n/a	n/a	-999	8	[0, 0, 0]	n/a	catFR1	0	R1277J
1100.215	0.018	2084814	START	n/a	n/a	n/a	n/a	-999	8	[-999, -999, -999]	n/a	catFR1	0	R1277J
1100.233	4.616	2084832	PROB	4.585	n/a	n/a	n/a	-999	8	[4, 6, 2]	12.0	catFR1	0	R1277J
1104.849	2.668	2089448	PROB	2.642	n/a	n/a	n/a	-999	8	[7, 4, 4]	15.0	catFR1	0	R1277J
1107.517	3.133	2092116	PROB	3.109	n/a	n/a	n/a	-999	8	[2, 6, 2]	10.0	catFR1	0	R1277J
1110.65	3.284	2095249	PROB	3.247	n/a	n/a	n/a	-999	8	[4, 6, 7]	17.0	catFR1	0	R1277J
1113.934	4.585	2098533	PROB	4.557	n/a	n/a	n/a	-999	8	[5, 1, 4]	10.0	catFR1	0	R1277J
1118.519	4.226	2103118	PROB	4.226	n/a	n/a	n/a	-999	8	[6, 9, 5]	20.0	catFR1	0	R1277J
1122.745	0.006	2107344	STOP	n/a	n/a	n/a	n/a	-999	8	[-999, -999, -999]	n/a	catFR1	0	R1277J
1122.751	0.618	2107350	DISTRACT_END	n/a	n/a	n/a	n/a	-999	8	[0, 0, 0]	n/a	catFR1	0	R1277J
1123.369	0.517	2107968	RETRIEVAL_ORIENT	n/a	n/a	n/a	n/a	-999	8	[0, 0, 0]	n/a	catFR1	0	R1277J
1123.886	3.429	2108485	REC_START	n/a	n/a	n/a	n/a	-999	8	[0, 0, 0]	n/a	catFR1	0	R1277J
1127.315	0.69	2111914	REC_WORD	3.429	n/a	JEEP	Vehicles	4	8	[0, 0, 0]	n/a	catFR1	0	R1277J
1128.005	8.055	2112604	REC_WORD_VV	4.119	n/a	<>	n/a	-999	8	[0, 0, 0]	n/a	catFR1	0	R1277J
1136.06	1.85	2120659	REC_WORD	12.174	n/a	OVEN	Appliances	2	8	[0, 0, 0]	n/a	catFR1	0	R1277J
1137.91	0.81	2122509	REC_WORD	14.024	n/a	IRON	Appliances	8	8	[0, 0, 0]	n/a	catFR1	0	R1277J
1138.72	1.165	2123319	REC_WORD	14.834	n/a	WASHER	Appliances	1	8	[0, 0, 0]	n/a	catFR1	0	R1277J
1139.885	0.851	2124484	REC_WORD	15.999	n/a	DRYER	Appliances	7	8	[0, 0, 0]	n/a	catFR1	0	R1277J
1140.736	0.63	2125335	REC_WORD_VV	16.85	n/a	<>	n/a	-999	8	[0, 0, 0]	n/a	catFR1	0	R1277J
1141.366	12.532	2125965	REC_WORD_VV	17.48	n/a	<>	n/a	-999	8	[0, 0, 0]	n/a	catFR1	0	R1277J
1153.898	5.142	2138497	REC_END	n/a	n/a	n/a	n/a	-999	8	[0, 0, 0]	n/a	catFR1	0	R1277J
1159.04	0.5	2143639	TRIAL	n/a	n/a	n/a	n/a	-999	9	[0, 0, 0]	n/a	catFR1	0	R1277J
1159.54	10.0	2144139	COUNTDOWN_START	n/a	n/a	n/a	n/a	-999	9	[0, 0, 0]	n/a	catFR1	0	R1277J
1169.968	0.007	2154567	COUNTDOWN_END	n/a	n/a	n/a	n/a	-999	9	[0, 0, 0]	n/a	catFR1	0	R1277J
1169.975	1.6	2154574	ORIENT	n/a	n/a	n/a	n/a	-999	9	[0, 0, 0]	n/a	catFR1	0	R1277J
1171.592	2.016	2156191	ORIENT_OFF	n/a	n/a	n/a	n/a	-999	9	[0, 0, 0]	n/a	catFR1	0	R1277J
1173.608	1.6	2158207	WORD	n/a	wordpools/wordpool_categorized_EN.txt	BARBIE	Toys	1	9	[0, 0, 0]	n/a	catFR1	0	R1277J
1175.226	1.0	2159825	WORD_OFF	n/a	n/a	BARBIE	n/a	1	9	[0, 0, 0]	n/a	catFR1	0	R1277J
1176.226	1.6	2160825	WORD	n/a	wordpools/wordpool_categorized_EN.txt	BLOCKS	Toys	2	9	[0, 0, 0]	n/a	catFR1	0	R1277J
1177.842	0.8	2162441	WORD_OFF	n/a	n/a	BLOCKS	n/a	2	9	[0, 0, 0]	n/a	catFR1	0	R1277J
1178.642	1.6	2163241	WORD	n/a	wordpools/wordpool_categorized_EN.txt	HILLS	Landscapes	3	9	[0, 0, 0]	n/a	catFR1	0	R1277J
1180.243	0.8	2164842	WORD_OFF	n/a	n/a	HILLS	n/a	3	9	[0, 0, 0]	n/a	catFR1	0	R1277J
1181.043	1.6	2165642	WORD	n/a	wordpools/wordpool_categorized_EN.txt	VALLEY	Landscapes	4	9	[0, 0, 0]	n/a	catFR1	0	R1277J
1182.659	0.868	2167258	WORD_OFF	n/a	n/a	VALLEY	n/a	4	9	[0, 0, 0]	n/a	catFR1	0	R1277J
1183.527	1.6	2168126	WORD	n/a	wordpools/wordpool_categorized_EN.txt	DOOR	Building	5	9	[0, 0, 0]	n/a	catFR1	0	R1277J
1185.143	0.834	2169742	WORD_OFF	n/a	n/a	DOOR	n/a	5	9	[0, 0, 0]	n/a	catFR1	0	R1277J
1185.977	1.6	2170576	WORD	n/a	wordpools/wordpool_categorized_EN.txt	ROOF	Building	6	9	[0, 0, 0]	n/a	catFR1	0	R1277J
1187.594	0.983	2172193	WORD_OFF	n/a	n/a	ROOF	n/a	6	9	[0, 0, 0]	n/a	catFR1	0	R1277J
1188.577	1.6	2173176	WORD	n/a	wordpools/wordpool_categorized_EN.txt	DOLLHOUSE	Toys	7	9	[0, 0, 0]	n/a	catFR1	0	R1277J
1190.195	0.799	2174794	WORD_OFF	n/a	n/a	DOLLHOUSE	n/a	7	9	[0, 0, 0]	n/a	catFR1	0	R1277J
1190.994	1.6	2175593	WORD	n/a	wordpools/wordpool_categorized_EN.txt	MARBLES	Toys	8	9	[0, 0, 0]	n/a	catFR1	0	R1277J
1192.611	0.901	2177210	WORD_OFF	n/a	n/a	MARBLES	n/a	8	9	[0, 0, 0]	n/a	catFR1	0	R1277J
1193.512	1.6	2178111	WORD	n/a	wordpools/wordpool_categorized_EN.txt	WOODS	Landscapes	9	9	[0, 0, 0]	n/a	catFR1	0	R1277J
1195.128	0.85	2179727	WORD_OFF	n/a	n/a	WOODS	n/a	9	9	[0, 0, 0]	n/a	catFR1	0	R1277J
1195.978	1.6	2180577	WORD	n/a	wordpools/wordpool_categorized_EN.txt	LAKE	Landscapes	10	9	[0, 0, 0]	n/a	catFR1	0	R1277J
1197.595	0.851	2182194	WORD_OFF	n/a	n/a	LAKE	n/a	10	9	[0, 0, 0]	n/a	catFR1	0	R1277J
1198.446	1.6	2183045	WORD	n/a	wordpools/wordpool_categorized_EN.txt	CEILING	Building	11	9	[0, 0, 0]	n/a	catFR1	0	R1277J
1200.062	0.867	2184661	WORD_OFF	n/a	n/a	CEILING	n/a	11	9	[0, 0, 0]	n/a	catFR1	0	R1277J
1200.929	1.6	2185528	WORD	n/a	wordpools/wordpool_categorized_EN.txt	STAIRS	Building	12	9	[0, 0, 0]	n/a	catFR1	0	R1277J
1202.547	0.0	2187146	ENCODING_END	n/a	n/a	n/a	n/a	-999	9	[0, 0, 0]	n/a	catFR1	0	R1277J
1202.547	0.13	2187146	WORD_OFF	n/a	n/a	STAIRS	n/a	12	9	[0, 0, 0]	n/a	catFR1	0	R1277J
1202.677	0.0	2187276	DISTRACT_START	n/a	n/a	n/a	n/a	-999	9	[0, 0, 0]	n/a	catFR1	0	R1277J
1202.677	0.019	2187276	START	n/a	n/a	n/a	n/a	-999	9	[-999, -999, -999]	n/a	catFR1	0	R1277J
1202.696	2.967	2187295	PROB	2.934	n/a	n/a	n/a	-999	9	[9, 4, 1]	14.0	catFR1	0	R1277J
1205.663	3.768	2190262	PROB	3.735	n/a	n/a	n/a	-999	9	[2, 5, 1]	8.0	catFR1	0	R1277J
1209.431	2.05	2194029	PROB	2.024	n/a	n/a	n/a	-999	9	[9, 1, 6]	16.0	catFR1	0	R1277J
1211.481	4.516	2196079	PROB	4.485	n/a	n/a	n/a	-999	9	[8, 7, 4]	19.0	catFR1	0	R1277J
1215.997	2.452	2200595	PROB	2.418	n/a	n/a	n/a	-999	9	[5, 1, 4]	10.0	catFR1	0	R1277J
1218.449	2.884	2203047	PROB	2.845	n/a	n/a	n/a	-999	9	[7, 3, 6]	16.0	catFR1	0	R1277J
1221.333	3.376	2205931	PROB	3.376	n/a	n/a	n/a	-999	9	[7, 8, 4]	19.0	catFR1	0	R1277J
1224.709	0.023	2209307	STOP	n/a	n/a	n/a	n/a	-999	9	[-999, -999, -999]	n/a	catFR1	0	R1277J
1224.732	0.601	2209330	DISTRACT_END	n/a	n/a	n/a	n/a	-999	9	[0, 0, 0]	n/a	catFR1	0	R1277J
1225.333	0.516	2209931	RETRIEVAL_ORIENT	n/a	n/a	n/a	n/a	-999	9	[0, 0, 0]	n/a	catFR1	0	R1277J
1225.849	1.604	2210447	REC_START	n/a	n/a	n/a	n/a	-999	9	[0, 0, 0]	n/a	catFR1	0	R1277J
1227.453	1.15	2212051	REC_WORD	1.604	n/a	DOLLHOUSE	Toys	7	9	[0, 0, 0]	n/a	catFR1	0	R1277J
1228.603	0.836	2213201	REC_WORD_VV	2.754	n/a	<>	n/a	-999	9	[0, 0, 0]	n/a	catFR1	0	R1277J
1229.439	3.52	2214037	REC_WORD	3.59	n/a	HOUSE	n/a	-999	9	[0, 0, 0]	n/a	catFR1	0	R1277J
1232.959	1.485	2217557	REC_WORD	7.11	n/a	STAIRS	Building	12	9	[0, 0, 0]	n/a	catFR1	0	R1277J
1234.444	4.98	2219042	REC_WORD	8.595	n/a	ROOF	Building	6	9	[0, 0, 0]	n/a	catFR1	0	R1277J
1239.424	2.42	2224022	REC_WORD	13.575	n/a	HILLS	Landscapes	3	9	[0, 0, 0]	n/a	catFR1	0	R1277J
1241.844	2.07	2226442	REC_WORD	15.995	n/a	LAKE	Landscapes	10	9	[0, 0, 0]	n/a	catFR1	0	R1277J
1243.914	11.949	2228512	REC_WORD	18.065	n/a	MARBLES	Toys	8	9	[0, 0, 0]	n/a	catFR1	0	R1277J
1255.863	4.358	2240461	REC_END	n/a	n/a	n/a	n/a	-999	9	[0, 0, 0]	n/a	catFR1	0	R1277J
1260.221	0.5	2244819	TRIAL	n/a	n/a	n/a	n/a	-999	10	[0, 0, 0]	n/a	catFR1	0	R1277J
1260.721	10.0	2245319	COUNTDOWN_START	n/a	n/a	n/a	n/a	-999	10	[0, 0, 0]	n/a	catFR1	0	R1277J
1271.149	0.006	2255747	COUNTDOWN_END	n/a	n/a	n/a	n/a	-999	10	[0, 0, 0]	n/a	catFR1	0	R1277J
1271.155	1.6	2255753	ORIENT	n/a	n/a	n/a	n/a	-999	10	[0, 0, 0]	n/a	catFR1	0	R1277J
1272.772	1.983	2257370	ORIENT_OFF	n/a	n/a	n/a	n/a	-999	10	[0, 0, 0]	n/a	catFR1	0	R1277J
1274.755	1.6	2259353	WORD	n/a	wordpools/wordpool_categorized_EN.txt	ZEBRA	Zoo	1	10	[0, 0, 0]	n/a	catFR1	0	R1277J
1276.373	0.766	2260971	WORD_OFF	n/a	n/a	ZEBRA	n/a	1	10	[0, 0, 0]	n/a	catFR1	0	R1277J
1277.139	1.6	2261737	WORD	n/a	wordpools/wordpool_categorized_EN.txt	ELEPHANT	Zoo	2	10	[0, 0, 0]	n/a	catFR1	0	R1277J
1278.756	0.867	2263354	WORD_OFF	n/a	n/a	ELEPHANT	n/a	2	10	[0, 0, 0]	n/a	catFR1	0	R1277J
1279.623	1.6	2264221	WORD	n/a	wordpools/wordpool_categorized_EN.txt	PANTS	Clothing	3	10	[0, 0, 0]	n/a	catFR1	0	R1277J
1281.224	0.95	2265822	WORD_OFF	n/a	n/a	PANTS	n/a	3	10	[0, 0, 0]	n/a	catFR1	0	R1277J
1282.174	1.6	2266772	WORD	n/a	wordpools/wordpool_categorized_EN.txt	JEANS	Clothing	4	10	[0, 0, 0]	n/a	catFR1	0	R1277J
1283.79	1.017	2268388	WORD_OFF	n/a	n/a	JEANS	n/a	4	10	[0, 0, 0]	n/a	catFR1	0	R1277J
1284.807	1.6	2269405	WORD	n/a	wordpools/wordpool_categorized_EN.txt	CEDAR	Trees	5	10	[0, 0, 0]	n/a	catFR1	0	R1277J
1286.425	0.85	2271023	WORD_OFF	n/a	n/a	CEDAR	n/a	5	10	[0, 0, 0]	n/a	catFR1	0	R1277J
1287.275	1.6	2271873	WORD	n/a	wordpools/wordpool_categorized_EN.txt	EVERGREEN	Trees	6	10	[0, 0, 0]	n/a	catFR1	0	R1277J
1288.891	0.833	2273489	WORD_OFF	n/a	n/a	EVERGREEN	n/a	6	10	[0, 0, 0]	n/a	catFR1	0	R1277J
1289.724	1.6	2274322	WORD	n/a	wordpools/wordpool_categorized_EN.txt	SHIRT	Clothing	7	10	[0, 0, 0]	n/a	catFR1	0	R1277J
1291.325	0.934	2275923	WORD_OFF	n/a	n/a	SHIRT	n/a	7	10	[0, 0, 0]	n/a	catFR1	0	R1277J
1292.259	1.6	2276857	WORD	n/a	wordpools/wordpool_categorized_EN.txt	JACKET	Clothing	8	10	[0, 0, 0]	n/a	catFR1	0	R1277J
1293.874	0.851	2278472	WORD_OFF	n/a	n/a	JACKET	n/a	8	10	[0, 0, 0]	n/a	catFR1	0	R1277J
1294.725	1.6	2279323	WORD	n/a	wordpools/wordpool_categorized_EN.txt	GORILLA	Zoo	9	10	[0, 0, 0]	n/a	catFR1	0	R1277J
1296.342	0.783	2280940	WORD_OFF	n/a	n/a	GORILLA	n/a	9	10	[0, 0, 0]	n/a	catFR1	0	R1277J
1297.125	1.6	2281723	WORD	n/a	wordpools/wordpool_categorized_EN.txt	MONKEY	Zoo	10	10	[0, 0, 0]	n/a	catFR1	0	R1277J
1298.742	0.833	2283340	WORD_OFF	n/a	n/a	MONKEY	n/a	10	10	[0, 0, 0]	n/a	catFR1	0	R1277J
1299.575	1.6	2284173	WORD	n/a	wordpools/wordpool_categorized_EN.txt	CYPRESS	Trees	11	10	[0, 0, 0]	n/a	catFR1	0	R1277J
1301.193	0.984	2285791	WORD_OFF	n/a	n/a	CYPRESS	n/a	11	10	[0, 0, 0]	n/a	catFR1	0	R1277J
1302.177	1.6	2286775	WORD	n/a	wordpools/wordpool_categorized_EN.txt	SPRUCE	Trees	12	10	[0, 0, 0]	n/a	catFR1	0	R1277J
1303.792	0.001	2288390	WORD_OFF	n/a	n/a	SPRUCE	n/a	12	10	[0, 0, 0]	n/a	catFR1	0	R1277J
1303.793	0.099	2288391	ENCODING_END	n/a	n/a	n/a	n/a	-999	10	[0, 0, 0]	n/a	catFR1	0	R1277J
1303.892	0.0	2288490	DISTRACT_START	n/a	n/a	n/a	n/a	-999	10	[0, 0, 0]	n/a	catFR1	0	R1277J
1303.892	0.017	2288490	START	n/a	n/a	n/a	n/a	-999	10	[-999, -999, -999]	n/a	catFR1	0	R1277J
1303.909	4.751	2288507	PROB	4.717	n/a	n/a	n/a	-999	10	[8, 3, 4]	15.0	catFR1	0	R1277J
1308.66	4.084	2293258	PROB	4.054	n/a	n/a	n/a	-999	10	[5, 9, 2]	16.0	catFR1	0	R1277J
1312.744	4.167	2297342	PROB	4.131	n/a	n/a	n/a	-999	10	[9, 5, 4]	18.0	catFR1	0	R1277J
1316.911	4.168	2301509	PROB	4.14	n/a	n/a	n/a	-999	10	[9, 5, 3]	17.0	catFR1	0	R1277J
1321.079	2.033	2305677	PROB	2.003	n/a	n/a	n/a	-999	10	[7, 1, 3]	11.0	catFR1	0	R1277J
1323.112	4.586	2307710	PROB	4.586	n/a	n/a	n/a	-999	10	[2, 4, 7]	13.0	catFR1	0	R1277J
1327.698	0.015	2312296	STOP	n/a	n/a	n/a	n/a	-999	10	[-999, -999, -999]	n/a	catFR1	0	R1277J
1327.713	0.534	2312311	DISTRACT_END	n/a	n/a	n/a	n/a	-999	10	[0, 0, 0]	n/a	catFR1	0	R1277J
1328.247	0.517	2312845	RETRIEVAL_ORIENT	n/a	n/a	n/a	n/a	-999	10	[0, 0, 0]	n/a	catFR1	0	R1277J
1328.764	1.169	2313362	REC_START	n/a	n/a	n/a	n/a	-999	10	[0, 0, 0]	n/a	catFR1	0	R1277J
1329.933	1.27	2314531	REC_WORD_VV	1.169	n/a	<>	n/a	-999	10	[0, 0, 0]	n/a	catFR1	0	R1277J
1331.203	0.44	2315801	REC_WORD	2.439	n/a	PANTS	Clothing	3	10	[0, 0, 0]	n/a	catFR1	0	R1277J
1331.643	4.019	2316241	REC_WORD	2.879	n/a	SHIRT	Clothing	7	10	[0, 0, 0]	n/a	catFR1	0	R1277J
1335.662	1.55	2320260	REC_WORD	6.898	n/a	SPRUCE	Trees	12	10	[0, 0, 0]	n/a	catFR1	0	R1277J
1337.212	1.0	2321810	REC_WORD_VV	8.448	n/a	<>	n/a	-999	10	[0, 0, 0]	n/a	catFR1	0	R1277J
1338.212	0.385	2322810	REC_WORD_VV	9.448	n/a	<>	n/a	-999	10	[0, 0, 0]	n/a	catFR1	0	R1277J
1338.597	9.23	2323195	REC_WORD	9.833	n/a	EVERGREEN	Trees	6	10	[0, 0, 0]	n/a	catFR1	0	R1277J
1347.827	10.949	2332425	REC_WORD	19.063	n/a	BED	n/a	-999	10	[0, 0, 0]	n/a	catFR1	0	R1277J
1358.776	4.542	2343374	REC_END	n/a	n/a	n/a	n/a	-999	10	[0, 0, 0]	n/a	catFR1	0	R1277J
1363.318	0.5	2347916	TRIAL	n/a	n/a	n/a	n/a	-999	11	[0, 0, 0]	n/a	catFR1	0	R1277J
1363.818	10.0	2348416	COUNTDOWN_START	n/a	n/a	n/a	n/a	-999	11	[0, 0, 0]	n/a	catFR1	0	R1277J
1374.246	0.007	2358844	COUNTDOWN_END	n/a	n/a	n/a	n/a	-999	11	[0, 0, 0]	n/a	catFR1	0	R1277J
1374.253	1.6	2358851	ORIENT	n/a	n/a	n/a	n/a	-999	11	[0, 0, 0]	n/a	catFR1	0	R1277J
1375.869	2.001	2360467	ORIENT_OFF	n/a	n/a	n/a	n/a	-999	11	[0, 0, 0]	n/a	catFR1	0	R1277J
1377.87	1.6	2362468	WORD	n/a	wordpools/wordpool_categorized_EN.txt	SCREWDRIVER	Tools	1	11	[0, 0, 0]	n/a	catFR1	0	R1277J
1379.487	0.801	2364085	WORD_OFF	n/a	n/a	SCREWDRIVER	n/a	1	11	[0, 0, 0]	n/a	catFR1	0	R1277J
1380.288	1.6	2364886	WORD	n/a	wordpools/wordpool_categorized_EN.txt	PLIERS	Tools	2	11	[0, 0, 0]	n/a	catFR1	0	R1277J
1381.903	0.784	2366501	WORD_OFF	n/a	n/a	PLIERS	n/a	2	11	[0, 0, 0]	n/a	catFR1	0	R1277J
1382.687	1.6	2367285	WORD	n/a	wordpools/wordpool_categorized_EN.txt	WILLOW	Trees	3	11	[0, 0, 0]	n/a	catFR1	0	R1277J
1384.304	0.984	2368902	WORD_OFF	n/a	n/a	WILLOW	n/a	3	11	[0, 0, 0]	n/a	catFR1	0	R1277J
1385.288	1.6	2369886	WORD	n/a	wordpools/wordpool_categorized_EN.txt	OAK	Trees	4	11	[0, 0, 0]	n/a	catFR1	0	R1277J
1386.904	0.967	2371502	WORD_OFF	n/a	n/a	OAK	n/a	4	11	[0, 0, 0]	n/a	catFR1	0	R1277J
1387.871	1.6	2372469	WORD	n/a	wordpools/wordpool_categorized_EN.txt	MOTORCYCLE	Vehicles	5	11	[0, 0, 0]	n/a	catFR1	0	R1277J
1389.489	0.8	2374087	WORD_OFF	n/a	n/a	MOTORCYCLE	n/a	5	11	[0, 0, 0]	n/a	catFR1	0	R1277J
1390.289	1.6	2374887	WORD	n/a	wordpools/wordpool_categorized_EN.txt	TRUCK	Vehicles	6	11	[0, 0, 0]	n/a	catFR1	0	R1277J
1391.905	0.966	2376503	WORD_OFF	n/a	n/a	TRUCK	n/a	6	11	[0, 0, 0]	n/a	catFR1	0	R1277J
1392.871	1.6	2377469	WORD	n/a	wordpools/wordpool_categorized_EN.txt	ELM	Trees	7	11	[0, 0, 0]	n/a	catFR1	0	R1277J
1394.489	0.784	2379087	WORD_OFF	n/a	n/a	ELM	n/a	7	11	[0, 0, 0]	n/a	catFR1	0	R1277J
1395.273	1.6	2379871	WORD	n/a	wordpools/wordpool_categorized_EN.txt	BIRCH	Trees	8	11	[0, 0, 0]	n/a	catFR1	0	R1277J
1396.889	1.0	2381487	WORD_OFF	n/a	n/a	BIRCH	n/a	8	11	[0, 0, 0]	n/a	catFR1	0	R1277J
1397.889	1.6	2382487	WORD	n/a	wordpools/wordpool_categorized_EN.txt	SHOVEL	Tools	9	11	[0, 0, 0]	n/a	catFR1	0	R1277J
1399.507	0.9	2384105	WORD_OFF	n/a	n/a	SHOVEL	n/a	9	11	[0, 0, 0]	n/a	catFR1	0	R1277J
1400.407	1.6	2385005	WORD	n/a	wordpools/wordpool_categorized_EN.txt	DRILL	Tools	10	11	[0, 0, 0]	n/a	catFR1	0	R1277J
1402.023	0.966	2386621	WORD_OFF	n/a	n/a	DRILL	n/a	10	11	[0, 0, 0]	n/a	catFR1	0	R1277J
1402.989	1.6	2387587	WORD	n/a	wordpools/wordpool_categorized_EN.txt	TRAIN	Vehicles	11	11	[0, 0, 0]	n/a	catFR1	0	R1277J
1404.606	0.918	2389204	WORD_OFF	n/a	n/a	TRAIN	n/a	11	11	[0, 0, 0]	n/a	catFR1	0	R1277J
1405.524	1.6	2390122	WORD	n/a	wordpools/wordpool_categorized_EN.txt	CAR	Vehicles	12	11	[0, 0, 0]	n/a	catFR1	0	R1277J
1407.14	0.0	2391738	ENCODING_END	n/a	n/a	n/a	n/a	-999	11	[0, 0, 0]	n/a	catFR1	0	R1277J
1407.14	0.104	2391738	WORD_OFF	n/a	n/a	CAR	n/a	12	11	[0, 0, 0]	n/a	catFR1	0	R1277J
1407.244	0.0	2391842	DISTRACT_START	n/a	n/a	n/a	n/a	-999	11	[0, 0, 0]	n/a	catFR1	0	R1277J
1407.244	0.014	2391842	START	n/a	n/a	n/a	n/a	-999	11	[-999, -999, -999]	n/a	catFR1	0	R1277J
1407.258	6.084	2391856	PROB	6.047	n/a	n/a	n/a	-999	11	[5, 9, 2]	16.0	catFR1	0	R1277J
1413.342	1.9	2397940	PROB	1.873	n/a	n/a	n/a	-999	11	[1, 3, 4]	8.0	catFR1	0	R1277J
1415.242	4.9	2399840	PROB	4.869	n/a	n/a	n/a	-999	11	[6, 5, 6]	17.0	catFR1	0	R1277J
1420.142	4.401	2404739	PROB	4.369	n/a	n/a	n/a	-999	11	[6, 7, 9]	22.0	catFR1	0	R1277J
1424.543	2.65	2409140	PROB	2.624	n/a	n/a	n/a	-999	11	[6, 2, 3]	11.0	catFR1	0	R1277J
1427.193	3.374	2411790	PROB	3.374	n/a	n/a	n/a	-999	11	[1, 3, 8]	12.0	catFR1	0	R1277J
1430.567	0.01	2415164	STOP	n/a	n/a	n/a	n/a	-999	11	[-999, -999, -999]	n/a	catFR1	0	R1277J
1430.577	0.7	2415174	DISTRACT_END	n/a	n/a	n/a	n/a	-999	11	[0, 0, 0]	n/a	catFR1	0	R1277J
1431.277	0.517	2415874	RETRIEVAL_ORIENT	n/a	n/a	n/a	n/a	-999	11	[0, 0, 0]	n/a	catFR1	0	R1277J
1431.794	4.909	2416391	REC_START	n/a	n/a	n/a	n/a	-999	11	[0, 0, 0]	n/a	catFR1	0	R1277J
1436.703	1.315	2421300	REC_WORD	4.909	n/a	SCREWDRIVER	Tools	1	11	[0, 0, 0]	n/a	catFR1	0	R1277J
1438.018	2.185	2422615	REC_WORD	6.224	n/a	PLIERS	Tools	2	11	[0, 0, 0]	n/a	catFR1	0	R1277J
1440.203	3.23	2424800	REC_WORD	8.409	n/a	WRENCH	n/a	-999	11	[0, 0, 0]	n/a	catFR1	0	R1277J
1443.433	7.59	2428030	REC_WORD_VV	11.639	n/a	<>	n/a	-999	11	[0, 0, 0]	n/a	catFR1	0	R1277J
1451.023	10.78	2435620	REC_WORD	19.229	n/a	WILLOW	Trees	3	11	[0, 0, 0]	n/a	catFR1	0	R1277J
1461.803	5.463	2446400	REC_END	n/a	n/a	n/a	n/a	-999	11	[0, 0, 0]	n/a	catFR1	0	R1277J
1467.266	0.5	2451863	TRIAL	n/a	n/a	n/a	n/a	-999	12	[0, 0, 0]	n/a	catFR1	0	R1277J
1467.766	10.0	2452363	COUNTDOWN_START	n/a	n/a	n/a	n/a	-999	12	[0, 0, 0]	n/a	catFR1	0	R1277J
1478.194	0.006	2462791	COUNTDOWN_END	n/a	n/a	n/a	n/a	-999	12	[0, 0, 0]	n/a	catFR1	0	R1277J
1478.2	1.6	2462797	ORIENT	n/a	n/a	n/a	n/a	-999	12	[0, 0, 0]	n/a	catFR1	0	R1277J
1479.816	1.901	2464413	ORIENT_OFF	n/a	n/a	n/a	n/a	-999	12	[0, 0, 0]	n/a	catFR1	0	R1277J
1481.717	1.6	2466314	WORD	n/a	wordpools/wordpool_categorized_EN.txt	CIDER	Beverages	1	12	[0, 0, 0]	n/a	catFR1	0	R1277J
1483.334	0.967	2467931	WORD_OFF	n/a	n/a	CIDER	n/a	1	12	[0, 0, 0]	n/a	catFR1	0	R1277J
1484.301	1.6	2468898	WORD	n/a	wordpools/wordpool_categorized_EN.txt	COFFEE	Beverages	2	12	[0, 0, 0]	n/a	catFR1	0	R1277J
1485.917	0.917	2470514	WORD_OFF	n/a	n/a	COFFEE	n/a	2	12	[0, 0, 0]	n/a	catFR1	0	R1277J
1486.834	1.6	2471431	WORD	n/a	wordpools/wordpool_categorized_EN.txt	GUITAR	Instruments	3	12	[0, 0, 0]	n/a	catFR1	0	R1277J
1488.452	0.95	2473049	WORD_OFF	n/a	n/a	GUITAR	n/a	3	12	[0, 0, 0]	n/a	catFR1	0	R1277J
1489.402	1.6	2473999	WORD	n/a	wordpools/wordpool_categorized_EN.txt	FLUTE	Instruments	4	12	[0, 0, 0]	n/a	catFR1	0	R1277J
1491.018	0.983	2475615	WORD_OFF	n/a	n/a	FLUTE	n/a	4	12	[0, 0, 0]	n/a	catFR1	0	R1277J
1492.001	1.6	2476598	WORD	n/a	wordpools/wordpool_categorized_EN.txt	PEAR	Fruit	5	12	[0, 0, 0]	n/a	catFR1	0	R1277J
1493.618	0.918	2478215	WORD_OFF	n/a	n/a	PEAR	n/a	5	12	[0, 0, 0]	n/a	catFR1	0	R1277J
1494.536	1.6	2479133	WORD	n/a	wordpools/wordpool_categorized_EN.txt	LIME	Fruit	6	12	[0, 0, 0]	n/a	catFR1	0	R1277J
1496.152	0.983	2480749	WORD_OFF	n/a	n/a	LIME	n/a	6	12	[0, 0, 0]	n/a	catFR1	0	R1277J
1497.135	1.6	2481732	WORD	n/a	wordpools/wordpool_categorized_EN.txt	WINE	Beverages	7	12	[0, 0, 0]	n/a	catFR1	0	R1277J
1498.753	0.784	2483350	WORD_OFF	n/a	n/a	WINE	n/a	7	12	[0, 0, 0]	n/a	catFR1	0	R1277J
1499.537	1.6	2484134	WORD	n/a	wordpools/wordpool_categorized_EN.txt	LEMONADE	Beverages	8	12	[0, 0, 0]	n/a	catFR1	0	R1277J
1501.153	0.967	2485750	WORD_OFF	n/a	n/a	LEMONADE	n/a	8	12	[0, 0, 0]	n/a	catFR1	0	R1277J
1502.12	1.6	2486717	WORD	n/a	wordpools/wordpool_categorized_EN.txt	TUBA	Instruments	9	12	[0, 0, 0]	n/a	catFR1	0	R1277J
1503.736	0.9	2488333	WORD_OFF	n/a	n/a	TUBA	n/a	9	12	[0, 0, 0]	n/a	catFR1	0	R1277J
1504.636	1.6	2489233	WORD	n/a	wordpools/wordpool_categorized_EN.txt	TRUMPET	Instruments	10	12	[0, 0, 0]	n/a	catFR1	0	R1277J
1506.254	0.899	2490851	WORD_OFF	n/a	n/a	TRUMPET	n/a	10	12	[0, 0, 0]	n/a	catFR1	0	R1277J
1507.153	1.6	2491750	WORD	n/a	wordpools/wordpool_categorized_EN.txt	ORANGE	Fruit	11	12	[0, 0, 0]	n/a	catFR1	0	R1277J
1508.77	0.884	2493367	WORD_OFF	n/a	n/a	ORANGE	n/a	11	12	[0, 0, 0]	n/a	catFR1	0	R1277J
1509.654	1.6	2494251	WORD	n/a	wordpools/wordpool_categorized_EN.txt	APPLE	Fruit	12	12	[0, 0, 0]	n/a	catFR1	0	R1277J
1511.272	0.0	2495869	ENCODING_END	n/a	n/a	n/a	n/a	-999	12	[0, 0, 0]	n/a	catFR1	0	R1277J
1511.272	0.135	2495869	WORD_OFF	n/a	n/a	APPLE	n/a	12	12	[0, 0, 0]	n/a	catFR1	0	R1277J
1511.407	0.001	2496004	DISTRACT_START	n/a	n/a	n/a	n/a	-999	12	[0, 0, 0]	n/a	catFR1	0	R1277J
1511.408	0.014	2496005	START	n/a	n/a	n/a	n/a	-999	12	[-999, -999, -999]	n/a	catFR1	0	R1277J
1511.422	7.283	2496019	PROB	7.246	n/a	n/a	n/a	-999	12	[3, 6, 3]	12.0	catFR1	0	R1277J
1518.705	4.835	2503302	PROB	4.811	n/a	n/a	n/a	-999	12	[5, 2, 6]	13.0	catFR1	0	R1277J
1523.54	2.7	2508137	PROB	2.664	n/a	n/a	n/a	-999	12	[6, 3, 7]	1.0	catFR1	0	R1277J
1526.24	5.604	2510837	PROB	5.604	n/a	n/a	n/a	-999	12	[7, 5, 9]	21.0	catFR1	0	R1277J
1531.844	0.013	2516441	STOP	n/a	n/a	n/a	n/a	-999	12	[-999, -999, -999]	n/a	catFR1	0	R1277J
1531.857	0.551	2516454	DISTRACT_END	n/a	n/a	n/a	n/a	-999	12	[0, 0, 0]	n/a	catFR1	0	R1277J
1532.408	0.516	2517005	RETRIEVAL_ORIENT	n/a	n/a	n/a	n/a	-999	12	[0, 0, 0]	n/a	catFR1	0	R1277J
1532.924	3.83	2517521	REC_START	n/a	n/a	n/a	n/a	-999	12	[0, 0, 0]	n/a	catFR1	0	R1277J
1536.754	1.34	2521351	REC_WORD	3.83	n/a	CIDER	Beverages	1	12	[0, 0, 0]	n/a	catFR1	0	R1277J
1538.094	1.504	2522691	REC_WORD	5.17	n/a	COFFEE	Beverages	2	12	[0, 0, 0]	n/a	catFR1	0	R1277J
1539.598	2.911	2524195	REC_WORD	6.674	n/a	LEMONADE	Beverages	8	12	[0, 0, 0]	n/a	catFR1	0	R1277J
1542.509	5.769	2527106	REC_WORD	9.585	n/a	WINE	Beverages	7	12	[0, 0, 0]	n/a	catFR1	0	R1277J
1548.278	1.0	2532875	REC_WORD	15.354	n/a	PEAR	Fruit	5	12	[0, 0, 0]	n/a	catFR1	0	R1277J
1549.278	5.361	2533875	REC_WORD_VV	16.354	n/a	<>	n/a	-999	12	[0, 0, 0]	n/a	catFR1	0	R1277J
1554.639	8.297	2539236	REC_WORD	21.715	n/a	BANANA	n/a	-999	12	[0, 0, 0]	n/a	catFR1	0	R1277J
1562.936	4.209	2547533	REC_END	n/a	n/a	n/a	n/a	-999	12	[0, 0, 0]	n/a	catFR1	0	R1277J
1567.145	0.5	2551742	TRIAL	n/a	n/a	n/a	n/a	-999	13	[0, 0, 0]	n/a	catFR1	0	R1277J
1567.645	10.0	2552242	COUNTDOWN_START	n/a	n/a	n/a	n/a	-999	13	[0, 0, 0]	n/a	catFR1	0	R1277J
1578.073	0.007	2562670	COUNTDOWN_END	n/a	n/a	n/a	n/a	-999	13	[0, 0, 0]	n/a	catFR1	0	R1277J
1578.08	1.6	2562677	ORIENT	n/a	n/a	n/a	n/a	-999	13	[0, 0, 0]	n/a	catFR1	0	R1277J
1579.697	2.3	2564294	ORIENT_OFF	n/a	n/a	n/a	n/a	-999	13	[0, 0, 0]	n/a	catFR1	0	R1277J
1581.997	1.6	2566594	WORD	n/a	wordpools/wordpool_categorized_EN.txt	HEADPHONES	Electronics	1	13	[0, 0, 0]	n/a	catFR1	0	R1277J
1583.613	0.967	2568210	WORD_OFF	n/a	n/a	HEADPHONES	n/a	1	13	[0, 0, 0]	n/a	catFR1	0	R1277J
1584.58	1.6	2569177	WORD	n/a	wordpools/wordpool_categorized_EN.txt	MICROWAVE	Electronics	2	13	[0, 0, 0]	n/a	catFR1	0	R1277J
1586.198	0.899	2570795	WORD_OFF	n/a	n/a	MICROWAVE	n/a	2	13	[0, 0, 0]	n/a	catFR1	0	R1277J
1587.097	1.6	2571694	WORD	n/a	wordpools/wordpool_categorized_EN.txt	KNIFE	KitchenTools	3	13	[0, 0, 0]	n/a	catFR1	0	R1277J
1588.714	0.835	2573311	WORD_OFF	n/a	n/a	KNIFE	n/a	3	13	[0, 0, 0]	n/a	catFR1	0	R1277J
1589.549	1.6	2574146	WORD	n/a	wordpools/wordpool_categorized_EN.txt	SPATULA	KitchenTools	4	13	[0, 0, 0]	n/a	catFR1	0	R1277J
1591.166	1.0	2575763	WORD_OFF	n/a	n/a	SPATULA	n/a	4	13	[0, 0, 0]	n/a	catFR1	0	R1277J
1592.166	1.6	2576763	WORD	n/a	wordpools/wordpool_categorized_EN.txt	HALLWAY	Building	5	13	[0, 0, 0]	n/a	catFR1	0	R1277J
1593.781	0.834	2578378	WORD_OFF	n/a	n/a	HALLWAY	n/a	5	13	[0, 0, 0]	n/a	catFR1	0	R1277J
1594.615	1.6	2579212	WORD	n/a	wordpools/wordpool_categorized_EN.txt	WALL	Building	6	13	[0, 0, 0]	n/a	catFR1	0	R1277J
1596.233	0.799	2580830	WORD_OFF	n/a	n/a	WALL	n/a	6	13	[0, 0, 0]	n/a	catFR1	0	R1277J
1597.032	1.6	2581629	WORD	n/a	wordpools/wordpool_categorized_EN.txt	STEREO	Electronics	7	13	[0, 0, 0]	n/a	catFR1	0	R1277J
1598.649	1.017	2583246	WORD_OFF	n/a	n/a	STEREO	n/a	7	13	[0, 0, 0]	n/a	catFR1	0	R1277J
1599.666	1.6	2584263	WORD	n/a	wordpools/wordpool_categorized_EN.txt	CALCULATOR	Electronics	8	13	[0, 0, 0]	n/a	catFR1	0	R1277J
1601.283	0.967	2585880	WORD_OFF	n/a	n/a	CALCULATOR	n/a	8	13	[0, 0, 0]	n/a	catFR1	0	R1277J
1602.25	1.6	2586847	WORD	n/a	wordpools/wordpool_categorized_EN.txt	GRATER	KitchenTools	9	13	[0, 0, 0]	n/a	catFR1	0	R1277J
1603.866	0.767	2588463	WORD_OFF	n/a	n/a	GRATER	n/a	9	13	[0, 0, 0]	n/a	catFR1	0	R1277J
1604.633	1.6	2589230	WORD	n/a	wordpools/wordpool_categorized_EN.txt	COLANDER	KitchenTools	10	13	[0, 0, 0]	n/a	catFR1	0	R1277J
1606.251	0.849	2590848	WORD_OFF	n/a	n/a	COLANDER	n/a	10	13	[0, 0, 0]	n/a	catFR1	0	R1277J
1607.1	1.6	2591697	WORD	n/a	wordpools/wordpool_categorized_EN.txt	FOUNDATION	Building	11	13	[0, 0, 0]	n/a	catFR1	0	R1277J
1608.717	0.801	2593314	WORD_OFF	n/a	n/a	FOUNDATION	n/a	11	13	[0, 0, 0]	n/a	catFR1	0	R1277J
1609.518	1.6	2594115	WORD	n/a	wordpools/wordpool_categorized_EN.txt	ATTIC	Building	12	13	[0, 0, 0]	n/a	catFR1	0	R1277J
1611.134	0.0	2595731	WORD_OFF	n/a	n/a	ATTIC	n/a	12	13	[0, 0, 0]	n/a	catFR1	0	R1277J
1611.134	0.1	2595731	ENCODING_END	n/a	n/a	n/a	n/a	-999	13	[0, 0, 0]	n/a	catFR1	0	R1277J
1611.234	0.0	2595831	DISTRACT_START	n/a	n/a	n/a	n/a	-999	13	[0, 0, 0]	n/a	catFR1	0	R1277J
1611.234	0.018	2595831	START	n/a	n/a	n/a	n/a	-999	13	[-999, -999, -999]	n/a	catFR1	0	R1277J
1611.252	11.483	2595849	PROB	11.452	n/a	n/a	n/a	-999	13	[7, 7, 9]	25.0	catFR1	0	R1277J
1622.735	2.117	2607332	PROB	2.081	n/a	n/a	n/a	-999	13	[5, 5, 5]	15.0	catFR1	0	R1277J
1624.852	5.735	2609449	PROB	5.708	n/a	n/a	n/a	-999	13	[5, 7, 6]	18.0	catFR1	0	R1277J
1630.587	4.365	2615183	PROB	4.365	n/a	n/a	n/a	-999	13	[7, 3, 6]	16.0	catFR1	0	R1277J
1634.952	0.019	2619548	STOP	n/a	n/a	n/a	n/a	-999	13	[-999, -999, -999]	n/a	catFR1	0	R1277J
1634.971	0.517	2619567	DISTRACT_END	n/a	n/a	n/a	n/a	-999	13	[0, 0, 0]	n/a	catFR1	0	R1277J
1635.488	0.517	2620084	RETRIEVAL_ORIENT	n/a	n/a	n/a	n/a	-999	13	[0, 0, 0]	n/a	catFR1	0	R1277J
1636.005	0.945	2620601	REC_START	n/a	n/a	n/a	n/a	-999	13	[0, 0, 0]	n/a	catFR1	0	R1277J
1636.95	2.579	2621546	REC_WORD	0.945	n/a	COLANDER	KitchenTools	10	13	[0, 0, 0]	n/a	catFR1	0	R1277J
1639.529	5.886	2624125	REC_WORD	3.524	n/a	GRATER	KitchenTools	9	13	[0, 0, 0]	n/a	catFR1	0	R1277J
1645.415	8.999	2630011	REC_WORD	9.41	n/a	KNIFE	KitchenTools	3	13	[0, 0, 0]	n/a	catFR1	0	R1277J
1654.414	1.0	2639010	REC_WORD_VV	18.409	n/a	<>	n/a	-999	13	[0, 0, 0]	n/a	catFR1	0	R1277J
1655.414	1.05	2640010	REC_WORD_VV	19.409	n/a	<>	n/a	-999	13	[0, 0, 0]	n/a	catFR1	0	R1277J
1656.464	2.005	2641060	REC_WORD_VV	20.459	n/a	<>	n/a	-999	13	[0, 0, 0]	n/a	catFR1	0	R1277J
1658.469	0.894	2643065	REC_WORD	22.464	n/a	FOUNDATION	Building	11	13	[0, 0, 0]	n/a	catFR1	0	R1277J
1659.363	3.16	2643959	REC_WORD	23.358	n/a	ATTIC	Building	12	13	[0, 0, 0]	n/a	catFR1	0	R1277J
1662.523	3.493	2647119	REC_WORD	26.518	n/a	HOUSE	n/a	-999	13	[0, 0, 0]	n/a	catFR1	0	R1277J
1666.016	5.709	2650612	REC_END	n/a	n/a	n/a	n/a	-999	13	[0, 0, 0]	n/a	catFR1	0	R1277J
1671.725	0.5	2656321	TRIAL	n/a	n/a	n/a	n/a	-999	14	[0, 0, 0]	n/a	catFR1	0	R1277J
1672.225	10.0	2656821	COUNTDOWN_START	n/a	n/a	n/a	n/a	-999	14	[0, 0, 0]	n/a	catFR1	0	R1277J
1682.653	0.007	2667249	COUNTDOWN_END	n/a	n/a	n/a	n/a	-999	14	[0, 0, 0]	n/a	catFR1	0	R1277J
1682.66	1.6	2667256	ORIENT	n/a	n/a	n/a	n/a	-999	14	[0, 0, 0]	n/a	catFR1	0	R1277J
1684.261	2.001	2668857	ORIENT_OFF	n/a	n/a	n/a	n/a	-999	14	[0, 0, 0]	n/a	catFR1	0	R1277J
1686.262	1.6	2670858	WORD	n/a	wordpools/wordpool_categorized_EN.txt	RULER	OfficeSupplies	1	14	[0, 0, 0]	n/a	catFR1	0	R1277J
1687.878	0.767	2672474	WORD_OFF	n/a	n/a	RULER	n/a	1	14	[0, 0, 0]	n/a	catFR1	0	R1277J
1688.645	1.6	2673241	WORD	n/a	wordpools/wordpool_categorized_EN.txt	PEN	OfficeSupplies	2	14	[0, 0, 0]	n/a	catFR1	0	R1277J
1690.263	1.016	2674859	WORD_OFF	n/a	n/a	PEN	n/a	2	14	[0, 0, 0]	n/a	catFR1	0	R1277J
1691.279	1.6	2675875	WORD	n/a	wordpools/wordpool_categorized_EN.txt	DRESSER	Furniture	3	14	[0, 0, 0]	n/a	catFR1	0	R1277J
1692.895	0.95	2677491	WORD_OFF	n/a	n/a	DRESSER	n/a	3	14	[0, 0, 0]	n/a	catFR1	0	R1277J
1693.845	1.6	2678441	WORD	n/a	wordpools/wordpool_categorized_EN.txt	BOOKCASE	Furniture	4	14	[0, 0, 0]	n/a	catFR1	0	R1277J
1695.446	0.834	2680042	WORD_OFF	n/a	n/a	BOOKCASE	n/a	4	14	[0, 0, 0]	n/a	catFR1	0	R1277J
1696.28	1.6	2680876	WORD	n/a	wordpools/wordpool_categorized_EN.txt	WALNUT	Trees	5	14	[0, 0, 0]	n/a	catFR1	0	R1277J
1697.896	0.816	2682492	WORD_OFF	n/a	n/a	WALNUT	n/a	5	14	[0, 0, 0]	n/a	catFR1	0	R1277J
1698.712	1.6	2683308	WORD	n/a	wordpools/wordpool_categorized_EN.txt	HICKORY	Trees	6	14	[0, 0, 0]	n/a	catFR1	0	R1277J
1700.33	0.901	2684926	WORD_OFF	n/a	n/a	HICKORY	n/a	6	14	[0, 0, 0]	n/a	catFR1	0	R1277J
1701.231	1.6	2685827	WORD	n/a	wordpools/wordpool_categorized_EN.txt	BED	Furniture	7	14	[0, 0, 0]	n/a	catFR1	0	R1277J
1702.846	0.967	2687442	WORD_OFF	n/a	n/a	BED	n/a	7	14	[0, 0, 0]	n/a	catFR1	0	R1277J
1703.813	1.6	2688409	WORD	n/a	wordpools/wordpool_categorized_EN.txt	SOFA	Furniture	8	14	[0, 0, 0]	n/a	catFR1	0	R1277J
1705.414	0.85	2690010	WORD_OFF	n/a	n/a	SOFA	n/a	8	14	[0, 0, 0]	n/a	catFR1	0	R1277J
1706.264	1.6	2690860	WORD	n/a	wordpools/wordpool_categorized_EN.txt	STAPLER	OfficeSupplies	9	14	[0, 0, 0]	n/a	catFR1	0	R1277J
1707.88	0.817	2692476	WORD_OFF	n/a	n/a	STAPLER	n/a	9	14	[0, 0, 0]	n/a	catFR1	0	R1277J
1708.697	1.6	2693293	WORD	n/a	wordpools/wordpool_categorized_EN.txt	GLUE	OfficeSupplies	10	14	[0, 0, 0]	n/a	catFR1	0	R1277J
1710.299	0.883	2694895	WORD_OFF	n/a	n/a	GLUE	n/a	10	14	[0, 0, 0]	n/a	catFR1	0	R1277J
1711.182	1.6	2695778	WORD	n/a	wordpools/wordpool_categorized_EN.txt	PINE	Trees	11	14	[0, 0, 0]	n/a	catFR1	0	R1277J
1712.797	0.85	2697393	WORD_OFF	n/a	n/a	PINE	n/a	11	14	[0, 0, 0]	n/a	catFR1	0	R1277J
1713.647	1.6	2698243	WORD	n/a	wordpools/wordpool_categorized_EN.txt	MAPLE	Trees	12	14	[0, 0, 0]	n/a	catFR1	0	R1277J
1715.265	0.001	2699861	WORD_OFF	n/a	n/a	MAPLE	n/a	12	14	[0, 0, 0]	n/a	catFR1	0	R1277J
1715.266	0.098	2699862	ENCODING_END	n/a	n/a	n/a	n/a	-999	14	[0, 0, 0]	n/a	catFR1	0	R1277J
1715.364	0.0	2699960	DISTRACT_START	n/a	n/a	n/a	n/a	-999	14	[0, 0, 0]	n/a	catFR1	0	R1277J
1715.364	0.018	2699960	START	n/a	n/a	n/a	n/a	-999	14	[-999, -999, -999]	n/a	catFR1	0	R1277J
1715.382	4.918	2699978	PROB	4.887	n/a	n/a	n/a	-999	14	[8, 7, 1]	16.0	catFR1	0	R1277J
1720.3	4.05	2704896	PROB	4.026	n/a	n/a	n/a	-999	14	[8, 4, 7]	19.0	catFR1	0	R1277J
1724.35	2.483	2708946	PROB	2.446	n/a	n/a	n/a	-999	14	[6, 1, 5]	12.0	catFR1	0	R1277J
1726.833	3.468	2711429	PROB	3.436	n/a	n/a	n/a	-999	14	[7, 8, 2]	17.0	catFR1	0	R1277J
1730.301	8.937	2714897	PROB	8.937	n/a	n/a	n/a	-999	14	[6, 6, 6]	18.0	catFR1	0	R1277J
1739.238	0.015	2723834	STOP	n/a	n/a	n/a	n/a	-999	14	[-999, -999, -999]	n/a	catFR1	0	R1277J
1739.253	0.565	2723849	DISTRACT_END	n/a	n/a	n/a	n/a	-999	14	[0, 0, 0]	n/a	catFR1	0	R1277J
1739.818	0.519	2724414	RETRIEVAL_ORIENT	n/a	n/a	n/a	n/a	-999	14	[0, 0, 0]	n/a	catFR1	0	R1277J
1740.337	1.415	2724933	REC_START	n/a	n/a	n/a	n/a	-999	14	[0, 0, 0]	n/a	catFR1	0	R1277J
1741.752	0.435	2726348	REC_WORD	1.415	n/a	PEN	OfficeSupplies	2	14	[0, 0, 0]	n/a	catFR1	0	R1277J
1742.187	2.575	2726783	REC_WORD	1.85	n/a	RULER	OfficeSupplies	1	14	[0, 0, 0]	n/a	catFR1	0	R1277J
1744.762	5.74	2729358	REC_WORD	4.425	n/a	WALNUT	Trees	5	14	[0, 0, 0]	n/a	catFR1	0	R1277J
1750.502	0.935	2735098	REC_WORD_VV	10.165	n/a	<>	n/a	-999	14	[0, 0, 0]	n/a	catFR1	0	R1277J
1751.437	9.155	2736033	REC_WORD	11.1	n/a	DRESSER	Furniture	3	14	[0, 0, 0]	n/a	catFR1	0	R1277J
1760.592	9.758	2745188	REC_WORD_VV	20.255	n/a	<>	n/a	-999	14	[0, 0, 0]	n/a	catFR1	0	R1277J
1770.35	4.157	2754946	REC_END	n/a	n/a	n/a	n/a	-999	14	[0, 0, 0]	n/a	catFR1	0	R1277J
1774.507	0.5	2759103	TRIAL	n/a	n/a	n/a	n/a	-999	15	[0, 0, 0]	n/a	catFR1	0	R1277J
1775.007	10.0	2759603	COUNTDOWN_START	n/a	n/a	n/a	n/a	-999	15	[0, 0, 0]	n/a	catFR1	0	R1277J
1785.435	0.007	2770031	COUNTDOWN_END	n/a	n/a	n/a	n/a	-999	15	[0, 0, 0]	n/a	catFR1	0	R1277J
1785.442	1.6	2770038	ORIENT	n/a	n/a	n/a	n/a	-999	15	[0, 0, 0]	n/a	catFR1	0	R1277J
1787.057	2.102	2771653	ORIENT_OFF	n/a	n/a	n/a	n/a	-999	15	[0, 0, 0]	n/a	catFR1	0	R1277J
1789.159	1.6	2773755	WORD	n/a	wordpools/wordpool_categorized_EN.txt	CARDINAL	Birds	1	15	[0, 0, 0]	n/a	catFR1	0	R1277J
1790.775	1.0	2775371	WORD_OFF	n/a	n/a	CARDINAL	n/a	1	15	[0, 0, 0]	n/a	catFR1	0	R1277J
1791.775	1.6	2776371	WORD	n/a	wordpools/wordpool_categorized_EN.txt	DUCK	Birds	2	15	[0, 0, 0]	n/a	catFR1	0	R1277J
1793.393	0.9	2777989	WORD_OFF	n/a	n/a	DUCK	n/a	2	15	[0, 0, 0]	n/a	catFR1	0	R1277J
1794.293	1.6	2778889	WORD	n/a	wordpools/wordpool_categorized_EN.txt	FISH	OceanAnimals	3	15	[0, 0, 0]	n/a	catFR1	0	R1277J
1795.909	1.017	2780505	WORD_OFF	n/a	n/a	FISH	n/a	3	15	[0, 0, 0]	n/a	catFR1	0	R1277J
1796.926	1.6	2781522	WORD	n/a	wordpools/wordpool_categorized_EN.txt	OCTOPUS	OceanAnimals	4	15	[0, 0, 0]	n/a	catFR1	0	R1277J
1798.544	0.917	2783140	WORD_OFF	n/a	n/a	OCTOPUS	n/a	4	15	[0, 0, 0]	n/a	catFR1	0	R1277J
1799.461	1.6	2784057	WORD	n/a	wordpools/wordpool_categorized_EN.txt	FINGERS	BodyParts	5	15	[0, 0, 0]	n/a	catFR1	0	R1277J
1801.076	0.817	2785672	WORD_OFF	n/a	n/a	FINGERS	n/a	5	15	[0, 0, 0]	n/a	catFR1	0	R1277J
1801.893	1.6	2786489	WORD	n/a	wordpools/wordpool_categorized_EN.txt	ELBOW	BodyParts	6	15	[0, 0, 0]	n/a	catFR1	0	R1277J
1803.511	0.983	2788107	WORD_OFF	n/a	n/a	ELBOW	n/a	6	15	[0, 0, 0]	n/a	catFR1	0	R1277J
1804.494	1.6	2789090	WORD	n/a	wordpools/wordpool_categorized_EN.txt	JELLYFISH	OceanAnimals	7	15	[0, 0, 0]	n/a	catFR1	0	R1277J
1806.11	0.967	2790706	WORD_OFF	n/a	n/a	JELLYFISH	n/a	7	15	[0, 0, 0]	n/a	catFR1	0	R1277J
1807.077	1.6	2791673	WORD	n/a	wordpools/wordpool_categorized_EN.txt	LOBSTER	OceanAnimals	8	15	[0, 0, 0]	n/a	catFR1	0	R1277J
1808.694	0.768	2793290	WORD_OFF	n/a	n/a	LOBSTER	n/a	8	15	[0, 0, 0]	n/a	catFR1	0	R1277J
1809.462	1.6	2794058	WORD	n/a	wordpools/wordpool_categorized_EN.txt	HAWK	Birds	9	15	[0, 0, 0]	n/a	catFR1	0	R1277J
1811.078	0.8	2795674	WORD_OFF	n/a	n/a	HAWK	n/a	9	15	[0, 0, 0]	n/a	catFR1	0	R1277J
1811.878	1.6	2796474	WORD	n/a	wordpools/wordpool_categorized_EN.txt	BLUEBIRD	Birds	10	15	[0, 0, 0]	n/a	catFR1	0	R1277J
1813.495	1.001	2798091	WORD_OFF	n/a	n/a	BLUEBIRD	n/a	10	15	[0, 0, 0]	n/a	catFR1	0	R1277J
1814.496	1.6	2799092	WORD	n/a	wordpools/wordpool_categorized_EN.txt	EYE	BodyParts	11	15	[0, 0, 0]	n/a	catFR1	0	R1277J
1816.112	0.95	2800708	WORD_OFF	n/a	n/a	EYE	n/a	11	15	[0, 0, 0]	n/a	catFR1	0	R1277J
1817.062	1.6	2801658	WORD	n/a	wordpools/wordpool_categorized_EN.txt	HEAD	BodyParts	12	15	[0, 0, 0]	n/a	catFR1	0	R1277J
1818.679	0.0	2803275	WORD_OFF	n/a	n/a	HEAD	n/a	12	15	[0, 0, 0]	n/a	catFR1	0	R1277J
1818.679	0.128	2803275	ENCODING_END	n/a	n/a	n/a	n/a	-999	15	[0, 0, 0]	n/a	catFR1	0	R1277J
1818.807	0.0	2803403	DISTRACT_START	n/a	n/a	n/a	n/a	-999	15	[0, 0, 0]	n/a	catFR1	0	R1277J
1818.807	0.022	2803403	START	n/a	n/a	n/a	n/a	-999	15	[-999, -999, -999]	n/a	catFR1	0	R1277J
1818.829	6.8	2803425	PROB	6.763	n/a	n/a	n/a	-999	15	[8, 5, 1]	14.0	catFR1	0	R1277J
1825.629	4.852	2810225	PROB	4.814	n/a	n/a	n/a	-999	15	[9, 3, 8]	20.0	catFR1	0	R1277J
1830.481	3.299	2815077	PROB	3.271	n/a	n/a	n/a	-999	15	[5, 8, 5]	18.0	catFR1	0	R1277J
1833.78	2.284	2818376	PROB	2.253	n/a	n/a	n/a	-999	15	[2, 4, 6]	12.0	catFR1	0	R1277J
1836.064	10.072	2820660	PROB	10.072	n/a	n/a	n/a	-999	15	[2, 9, 5]	16.0	catFR1	0	R1277J
1846.136	0.013	2830731	STOP	n/a	n/a	n/a	n/a	-999	15	[-999, -999, -999]	n/a	catFR1	0	R1277J
1846.149	0.583	2830744	DISTRACT_END	n/a	n/a	n/a	n/a	-999	15	[0, 0, 0]	n/a	catFR1	0	R1277J
1846.732	0.518	2831327	RETRIEVAL_ORIENT	n/a	n/a	n/a	n/a	-999	15	[0, 0, 0]	n/a	catFR1	0	R1277J
1847.25	1.719	2831845	REC_START	n/a	n/a	n/a	n/a	-999	15	[0, 0, 0]	n/a	catFR1	0	R1277J
1848.969	1.035	2833564	REC_WORD	1.719	n/a	HEAD	BodyParts	12	15	[0, 0, 0]	n/a	catFR1	0	R1277J
1850.004	2.12	2834599	REC_WORD	2.754	n/a	EYE	BodyParts	11	15	[0, 0, 0]	n/a	catFR1	0	R1277J
1852.124	2.8	2836719	REC_WORD	4.874	n/a	DUCK	Birds	2	15	[0, 0, 0]	n/a	catFR1	0	R1277J
1854.924	2.57	2839519	REC_WORD_VV	7.674	n/a	<>	n/a	-999	15	[0, 0, 0]	n/a	catFR1	0	R1277J
1857.494	1.555	2842089	REC_WORD	10.244	n/a	OCTOPUS	OceanAnimals	4	15	[0, 0, 0]	n/a	catFR1	0	R1277J
1859.049	3.675	2843644	REC_WORD_VV	11.799	n/a	<>	n/a	-999	15	[0, 0, 0]	n/a	catFR1	0	R1277J
1862.724	14.539	2847319	REC_WORD	15.474	n/a	HAMMER	n/a	-999	15	[0, 0, 0]	n/a	catFR1	0	R1277J
1877.263	4.225	2861858	REC_END	n/a	n/a	n/a	n/a	-999	15	[0, 0, 0]	n/a	catFR1	0	R1277J
1881.488	0.5	2866083	TRIAL	n/a	n/a	n/a	n/a	-999	16	[0, 0, 0]	n/a	catFR1	0	R1277J
1881.988	10.0	2866583	COUNTDOWN_START	n/a	n/a	n/a	n/a	-999	16	[0, 0, 0]	n/a	catFR1	0	R1277J
1892.416	0.007	2877011	COUNTDOWN_END	n/a	n/a	n/a	n/a	-999	16	[0, 0, 0]	n/a	catFR1	0	R1277J
1892.423	1.6	2877018	ORIENT	n/a	n/a	n/a	n/a	-999	16	[0, 0, 0]	n/a	catFR1	0	R1277J
1894.038	1.901	2878633	ORIENT_OFF	n/a	n/a	n/a	n/a	-999	16	[0, 0, 0]	n/a	catFR1	0	R1277J
1895.939	1.6	2880534	WORD	n/a	wordpools/wordpool_categorized_EN.txt	SAW	Tools	1	16	[0, 0, 0]	n/a	catFR1	0	R1277J
1897.557	0.8	2882152	WORD_OFF	n/a	n/a	SAW	n/a	1	16	[0, 0, 0]	n/a	catFR1	0	R1277J
1898.357	1.6	2882952	WORD	n/a	wordpools/wordpool_categorized_EN.txt	WRENCH	Tools	2	16	[0, 0, 0]	n/a	catFR1	0	R1277J
1899.973	0.783	2884568	WORD_OFF	n/a	n/a	WRENCH	n/a	2	16	[0, 0, 0]	n/a	catFR1	0	R1277J
1900.756	1.6	2885351	WORD	n/a	wordpools/wordpool_categorized_EN.txt	BLOUSE	Clothing	3	16	[0, 0, 0]	n/a	catFR1	0	R1277J
1902.357	1.017	2886952	WORD_OFF	n/a	n/a	BLOUSE	n/a	3	16	[0, 0, 0]	n/a	catFR1	0	R1277J
1903.374	1.6	2887969	WORD	n/a	wordpools/wordpool_categorized_EN.txt	SHOES	Clothing	4	16	[0, 0, 0]	n/a	catFR1	0	R1277J
1904.99	0.983	2889585	WORD_OFF	n/a	n/a	SHOES	n/a	4	16	[0, 0, 0]	n/a	catFR1	0	R1277J
1905.973	1.6	2890568	WORD	n/a	wordpools/wordpool_categorized_EN.txt	HAND	BodyParts	5	16	[0, 0, 0]	n/a	catFR1	0	R1277J
1907.59	0.835	2892185	WORD_OFF	n/a	n/a	HAND	n/a	5	16	[0, 0, 0]	n/a	catFR1	0	R1277J
1908.425	1.6	2893020	WORD	n/a	wordpools/wordpool_categorized_EN.txt	FOOT	BodyParts	6	16	[0, 0, 0]	n/a	catFR1	0	R1277J
1910.041	0.95	2894636	WORD_OFF	n/a	n/a	FOOT	n/a	6	16	[0, 0, 0]	n/a	catFR1	0	R1277J
1910.991	1.6	2895586	WORD	n/a	wordpools/wordpool_categorized_EN.txt	DRESS	Clothing	7	16	[0, 0, 0]	n/a	catFR1	0	R1277J
1912.608	0.934	2897203	WORD_OFF	n/a	n/a	DRESS	n/a	7	16	[0, 0, 0]	n/a	catFR1	0	R1277J
1913.542	1.6	2898137	WORD	n/a	wordpools/wordpool_categorized_EN.txt	SOCKS	Clothing	8	16	[0, 0, 0]	n/a	catFR1	0	R1277J
1915.159	0.983	2899754	WORD_OFF	n/a	n/a	SOCKS	n/a	8	16	[0, 0, 0]	n/a	catFR1	0	R1277J
1916.142	1.6	2900737	WORD	n/a	wordpools/wordpool_categorized_EN.txt	HAMMER	Tools	9	16	[0, 0, 0]	n/a	catFR1	0	R1277J
1917.759	0.9	2902354	WORD_OFF	n/a	n/a	HAMMER	n/a	9	16	[0, 0, 0]	n/a	catFR1	0	R1277J
1918.659	1.6	2903254	WORD	n/a	wordpools/wordpool_categorized_EN.txt	CROWBAR	Tools	10	16	[0, 0, 0]	n/a	catFR1	0	R1277J
1920.277	0.849	2904872	WORD_OFF	n/a	n/a	CROWBAR	n/a	10	16	[0, 0, 0]	n/a	catFR1	0	R1277J
1921.126	1.6	2905721	WORD	n/a	wordpools/wordpool_categorized_EN.txt	KNEE	BodyParts	11	16	[0, 0, 0]	n/a	catFR1	0	R1277J
1922.742	1.001	2907337	WORD_OFF	n/a	n/a	KNEE	n/a	11	16	[0, 0, 0]	n/a	catFR1	0	R1277J
1923.743	1.6	2908338	WORD	n/a	wordpools/wordpool_categorized_EN.txt	ARM	BodyParts	12	16	[0, 0, 0]	n/a	catFR1	0	R1277J
1925.361	0.0	2909956	ENCODING_END	n/a	n/a	n/a	n/a	-999	16	[0, 0, 0]	n/a	catFR1	0	R1277J
1925.361	0.098	2909956	WORD_OFF	n/a	n/a	ARM	n/a	12	16	[0, 0, 0]	n/a	catFR1	0	R1277J
1925.459	0.0	2910054	DISTRACT_START	n/a	n/a	n/a	n/a	-999	16	[0, 0, 0]	n/a	catFR1	0	R1277J
1925.459	0.018	2910054	START	n/a	n/a	n/a	n/a	-999	16	[-999, -999, -999]	n/a	catFR1	0	R1277J
1925.477	4.884	2910072	PROB	4.849	n/a	n/a	n/a	-999	16	[5, 4, 3]	12.0	catFR1	0	R1277J
1930.361	3.466	2914956	PROB	3.436	n/a	n/a	n/a	-999	16	[9, 8, 6]	23.0	catFR1	0	R1277J
1933.827	2.951	2918422	PROB	2.922	n/a	n/a	n/a	-999	16	[4, 2, 1]	7.0	catFR1	0	R1277J
1936.778	3.084	2921373	PROB	3.051	n/a	n/a	n/a	-999	16	[2, 2, 4]	10.0	catFR1	0	R1277J
1939.862	4.717	2924457	PROB	4.695	n/a	n/a	n/a	-999	16	[1, 9, 7]	17.0	catFR1	0	R1277J
1944.579	5.321	2929174	PROB	5.321	n/a	n/a	n/a	-999	16	[8, 4, 5]	17.0	catFR1	0	R1277J
1949.9	0.013	2934495	STOP	n/a	n/a	n/a	n/a	-999	16	[-999, -999, -999]	n/a	catFR1	0	R1277J
1949.913	0.551	2934508	DISTRACT_END	n/a	n/a	n/a	n/a	-999	16	[0, 0, 0]	n/a	catFR1	0	R1277J
1950.464	0.517	2935059	RETRIEVAL_ORIENT	n/a	n/a	n/a	n/a	-999	16	[0, 0, 0]	n/a	catFR1	0	R1277J
1950.981	1.8	2935576	REC_START	n/a	n/a	n/a	n/a	-999	16	[0, 0, 0]	n/a	catFR1	0	R1277J
1952.781	2.9	2937376	REC_WORD	1.8	n/a	TEMPT	n/a	-999	16	[0, 0, 0]	n/a	catFR1	0	R1277J
1955.681	0.634	2940276	REC_WORD	4.7	n/a	ARM	BodyParts	12	16	[0, 0, 0]	n/a	catFR1	0	R1277J
1956.315	0.84	2940910	REC_WORD	5.334	n/a	ELBOW	n/a	-999	16	[0, 0, 0]	n/a	catFR1	0	R1277J
1957.155	1.22	2941750	REC_WORD_VV	6.174	n/a	<>	n/a	-999	16	[0, 0, 0]	n/a	catFR1	0	R1277J
1958.375	0.84	2942970	REC_WORD	7.394	n/a	BLOUSE	Clothing	3	16	[0, 0, 0]	n/a	catFR1	0	R1277J
1959.215	5.645	2943810	REC_WORD	8.234	n/a	DRESS	Clothing	7	16	[0, 0, 0]	n/a	catFR1	0	R1277J
1964.86	16.134	2949455	REC_WORD	13.879	n/a	SHOES	Clothing	4	16	[0, 0, 0]	n/a	catFR1	0	R1277J
1980.994	4.241	2965589	REC_END	n/a	n/a	n/a	n/a	-999	16	[0, 0, 0]	n/a	catFR1	0	R1277J
1985.235	0.5	2969830	TRIAL	n/a	n/a	n/a	n/a	-999	17	[0, 0, 0]	n/a	catFR1	0	R1277J
1985.735	10.0	2970330	COUNTDOWN_START	n/a	n/a	n/a	n/a	-999	17	[0, 0, 0]	n/a	catFR1	0	R1277J
1996.163	0.007	2980758	COUNTDOWN_END	n/a	n/a	n/a	n/a	-999	17	[0, 0, 0]	n/a	catFR1	0	R1277J
1996.17	1.6	2980765	ORIENT	n/a	n/a	n/a	n/a	-999	17	[0, 0, 0]	n/a	catFR1	0	R1277J
1997.786	2.217	2982381	ORIENT_OFF	n/a	n/a	n/a	n/a	-999	17	[0, 0, 0]	n/a	catFR1	0	R1277J
2000.003	1.6	2984598	WORD	n/a	wordpools/wordpool_categorized_EN.txt	PIG	FarmAnimals	1	17	[0, 0, 0]	n/a	catFR1	0	R1277J
2001.62	0.983	2986215	WORD_OFF	n/a	n/a	PIG	n/a	1	17	[0, 0, 0]	n/a	catFR1	0	R1277J
2002.603	1.6	2987198	WORD	n/a	wordpools/wordpool_categorized_EN.txt	LAMB	FarmAnimals	2	17	[0, 0, 0]	n/a	catFR1	0	R1277J
2004.221	0.866	2988816	WORD_OFF	n/a	n/a	LAMB	n/a	2	17	[0, 0, 0]	n/a	catFR1	0	R1277J
2005.087	1.6	2989682	WORD	n/a	wordpools/wordpool_categorized_EN.txt	FOOTBALL	Toys	3	17	[0, 0, 0]	n/a	catFR1	0	R1277J
2006.704	0.917	2991299	WORD_OFF	n/a	n/a	FOOTBALL	n/a	3	17	[0, 0, 0]	n/a	catFR1	0	R1277J
2007.621	1.6	2992216	WORD	n/a	wordpools/wordpool_categorized_EN.txt	BASEBALL	Toys	4	17	[0, 0, 0]	n/a	catFR1	0	R1277J
2009.239	0.983	2993834	WORD_OFF	n/a	n/a	BASEBALL	n/a	4	17	[0, 0, 0]	n/a	catFR1	0	R1277J
2010.222	1.6	2994817	WORD	n/a	wordpools/wordpool_categorized_EN.txt	ERASER	OfficeSupplies	5	17	[0, 0, 0]	n/a	catFR1	0	R1277J
2011.838	0.766	2996433	WORD_OFF	n/a	n/a	ERASER	n/a	5	17	[0, 0, 0]	n/a	catFR1	0	R1277J
2012.604	1.6	2997199	WORD	n/a	wordpools/wordpool_categorized_EN.txt	FOLDER	OfficeSupplies	6	17	[0, 0, 0]	n/a	catFR1	0	R1277J
2014.222	0.951	2998817	WORD_OFF	n/a	n/a	FOLDER	n/a	6	17	[0, 0, 0]	n/a	catFR1	0	R1277J
2015.173	1.6	2999768	WORD	n/a	wordpools/wordpool_categorized_EN.txt	BASKETBALL	Toys	7	17	[0, 0, 0]	n/a	catFR1	0	R1277J
2016.788	0.834	3001383	WORD_OFF	n/a	n/a	BASKETBALL	n/a	7	17	[0, 0, 0]	n/a	catFR1	0	R1277J
2017.622	1.6	3002217	WORD	n/a	wordpools/wordpool_categorized_EN.txt	DOLL	Toys	8	17	[0, 0, 0]	n/a	catFR1	0	R1277J
2019.24	0.917	3003835	WORD_OFF	n/a	n/a	DOLL	n/a	8	17	[0, 0, 0]	n/a	catFR1	0	R1277J
2020.157	1.6	3004752	WORD	n/a	wordpools/wordpool_categorized_EN.txt	CHICKEN	FarmAnimals	9	17	[0, 0, 0]	n/a	catFR1	0	R1277J
2021.773	0.849	3006368	WORD_OFF	n/a	n/a	CHICKEN	n/a	9	17	[0, 0, 0]	n/a	catFR1	0	R1277J
2022.622	1.6	3007217	WORD	n/a	wordpools/wordpool_categorized_EN.txt	BULL	FarmAnimals	10	17	[0, 0, 0]	n/a	catFR1	0	R1277J
2024.24	0.783	3008835	WORD_OFF	n/a	n/a	BULL	n/a	10	17	[0, 0, 0]	n/a	catFR1	0	R1277J
2025.023	1.6	3009618	WORD	n/a	wordpools/wordpool_categorized_EN.txt	BINDER	OfficeSupplies	11	17	[0, 0, 0]	n/a	catFR1	0	R1277J
2026.64	0.884	3011235	WORD_OFF	n/a	n/a	BINDER	n/a	11	17	[0, 0, 0]	n/a	catFR1	0	R1277J
2027.524	1.6	3012119	WORD	n/a	wordpools/wordpool_categorized_EN.txt	NOTEBOOK	OfficeSupplies	12	17	[0, 0, 0]	n/a	catFR1	0	R1277J
2029.14	0.0	3013735	WORD_OFF	n/a	n/a	NOTEBOOK	n/a	12	17	[0, 0, 0]	n/a	catFR1	0	R1277J
2029.14	0.098	3013735	ENCODING_END	n/a	n/a	n/a	n/a	-999	17	[0, 0, 0]	n/a	catFR1	0	R1277J
2029.238	0.0	3013833	DISTRACT_START	n/a	n/a	n/a	n/a	-999	17	[0, 0, 0]	n/a	catFR1	0	R1277J
2029.238	0.02	3013833	START	n/a	n/a	n/a	n/a	-999	17	[-999, -999, -999]	n/a	catFR1	0	R1277J
2029.258	4.466	3013853	PROB	4.432	n/a	n/a	n/a	-999	17	[6, 1, 6]	13.0	catFR1	0	R1277J
2033.724	4.418	3018319	PROB	4.39	n/a	n/a	n/a	-999	17	[9, 2, 7]	18.0	catFR1	0	R1277J
2038.142	2.55	3022737	PROB	2.515	n/a	n/a	n/a	-999	17	[1, 6, 9]	16.0	catFR1	0	R1277J
2040.692	2.117	3025287	PROB	2.086	n/a	n/a	n/a	-999	17	[6, 1, 4]	11.0	catFR1	0	R1277J
2042.809	2.834	3027404	PROB	2.809	n/a	n/a	n/a	-999	17	[3, 2, 6]	11.0	catFR1	0	R1277J
2045.643	4.15	3030238	PROB	4.15	n/a	n/a	n/a	-999	17	[7, 8, 9]	24.0	catFR1	0	R1277J
2049.793	0.017	3034388	STOP	n/a	n/a	n/a	n/a	-999	17	[-999, -999, -999]	n/a	catFR1	0	R1277J
2049.81	0.684	3034405	DISTRACT_END	n/a	n/a	n/a	n/a	-999	17	[0, 0, 0]	n/a	catFR1	0	R1277J
2050.494	0.517	3035089	RETRIEVAL_ORIENT	n/a	n/a	n/a	n/a	-999	17	[0, 0, 0]	n/a	catFR1	0	R1277J
2051.011	2.269	3035606	REC_START	n/a	n/a	n/a	n/a	-999	17	[0, 0, 0]	n/a	catFR1	0	R1277J
2053.28	1.326	3037875	REC_WORD	2.269	n/a	PIG	FarmAnimals	1	17	[0, 0, 0]	n/a	catFR1	0	R1277J
2054.606	1.78	3039200	REC_WORD	3.595	n/a	LAMB	FarmAnimals	2	17	[0, 0, 0]	n/a	catFR1	0	R1277J
2056.386	5.884	3040980	REC_WORD_VV	5.375	n/a	<>	n/a	-999	17	[0, 0, 0]	n/a	catFR1	0	R1277J
2062.27	1.0	3046864	REC_WORD_VV	11.259	n/a	<>	n/a	-999	17	[0, 0, 0]	n/a	catFR1	0	R1277J
2063.27	12.99	3047864	REC_WORD_VV	12.259	n/a	<>	n/a	-999	17	[0, 0, 0]	n/a	catFR1	0	R1277J
2076.26	1.65	3060854	REC_WORD	25.249	n/a	ERASER	OfficeSupplies	5	17	[0, 0, 0]	n/a	catFR1	0	R1277J
2077.91	3.115	3062504	REC_WORD_VV	26.899	n/a	<>	n/a	-999	17	[0, 0, 0]	n/a	catFR1	0	R1277J
2081.025	4.507	3065619	REC_END	n/a	n/a	n/a	n/a	-999	17	[0, 0, 0]	n/a	catFR1	0	R1277J
2085.532	0.5	3070126	TRIAL	n/a	n/a	n/a	n/a	-999	18	[0, 0, 0]	n/a	catFR1	0	R1277J
2086.032	10.0	3070626	COUNTDOWN_START	n/a	n/a	n/a	n/a	-999	18	[0, 0, 0]	n/a	catFR1	0	R1277J
2096.46	0.007	3081054	COUNTDOWN_END	n/a	n/a	n/a	n/a	-999	18	[0, 0, 0]	n/a	catFR1	0	R1277J
2096.467	1.6	3081061	ORIENT	n/a	n/a	n/a	n/a	-999	18	[0, 0, 0]	n/a	catFR1	0	R1277J
2098.083	2.017	3082677	ORIENT_OFF	n/a	n/a	n/a	n/a	-999	18	[0, 0, 0]	n/a	catFR1	0	R1277J
2100.1	1.6	3084694	WORD	n/a	wordpools/wordpool_categorized_EN.txt	MOTH	Insects	1	18	[0, 0, 0]	n/a	catFR1	0	R1277J
2101.717	0.817	3086311	WORD_OFF	n/a	n/a	MOTH	n/a	1	18	[0, 0, 0]	n/a	catFR1	0	R1277J
2102.534	1.6	3087128	WORD	n/a	wordpools/wordpool_categorized_EN.txt	BUTTERFLY	Insects	2	18	[0, 0, 0]	n/a	catFR1	0	R1277J
2104.15	0.867	3088744	WORD_OFF	n/a	n/a	BUTTERFLY	n/a	2	18	[0, 0, 0]	n/a	catFR1	0	R1277J
2105.017	1.6	3089611	WORD	n/a	wordpools/wordpool_categorized_EN.txt	SKIRT	Clothing	3	18	[0, 0, 0]	n/a	catFR1	0	R1277J
2106.634	0.967	3091228	WORD_OFF	n/a	n/a	SKIRT	n/a	3	18	[0, 0, 0]	n/a	catFR1	0	R1277J
2107.601	1.6	3092195	WORD	n/a	wordpools/wordpool_categorized_EN.txt	SHORTS	Clothing	4	18	[0, 0, 0]	n/a	catFR1	0	R1277J
2109.219	0.849	3093813	WORD_OFF	n/a	n/a	SHORTS	n/a	4	18	[0, 0, 0]	n/a	catFR1	0	R1277J
2110.068	1.6	3094662	WORD	n/a	wordpools/wordpool_categorized_EN.txt	SHELF	Furniture	5	18	[0, 0, 0]	n/a	catFR1	0	R1277J
2111.685	0.817	3096279	WORD_OFF	n/a	n/a	SHELF	n/a	5	18	[0, 0, 0]	n/a	catFR1	0	R1277J
2112.502	1.6	3097096	WORD	n/a	wordpools/wordpool_categorized_EN.txt	TABLE	Furniture	6	18	[0, 0, 0]	n/a	catFR1	0	R1277J
2114.118	0.9	3098712	WORD_OFF	n/a	n/a	TABLE	n/a	6	18	[0, 0, 0]	n/a	catFR1	0	R1277J
2115.018	1.6	3099612	WORD	n/a	wordpools/wordpool_categorized_EN.txt	UNDERWEAR	Clothing	7	18	[0, 0, 0]	n/a	catFR1	0	R1277J
2116.635	0.984	3101229	WORD_OFF	n/a	n/a	UNDERWEAR	n/a	7	18	[0, 0, 0]	n/a	catFR1	0	R1277J
2117.619	1.6	3102213	WORD	n/a	wordpools/wordpool_categorized_EN.txt	COAT	Clothing	8	18	[0, 0, 0]	n/a	catFR1	0	R1277J
2119.237	0.899	3103831	WORD_OFF	n/a	n/a	COAT	n/a	8	18	[0, 0, 0]	n/a	catFR1	0	R1277J
2120.136	1.6	3104730	WORD	n/a	wordpools/wordpool_categorized_EN.txt	SPIDER	Insects	9	18	[0, 0, 0]	n/a	catFR1	0	R1277J
2121.753	0.983	3106347	WORD_OFF	n/a	n/a	SPIDER	n/a	9	18	[0, 0, 0]	n/a	catFR1	0	R1277J
2122.736	1.6	3107330	WORD	n/a	wordpools/wordpool_categorized_EN.txt	BEETLE	Insects	10	18	[0, 0, 0]	n/a	catFR1	0	R1277J
2124.354	0.917	3108948	WORD_OFF	n/a	n/a	BEETLE	n/a	10	18	[0, 0, 0]	n/a	catFR1	0	R1277J
2125.271	1.6	3109865	WORD	n/a	wordpools/wordpool_categorized_EN.txt	CABINET	Furniture	11	18	[0, 0, 0]	n/a	catFR1	0	R1277J
2126.887	0.933	3111481	WORD_OFF	n/a	n/a	CABINET	n/a	11	18	[0, 0, 0]	n/a	catFR1	0	R1277J
2127.82	1.6	3112414	WORD	n/a	wordpools/wordpool_categorized_EN.txt	DESK	Furniture	12	18	[0, 0, 0]	n/a	catFR1	0	R1277J
2129.421	0.0	3114015	ENCODING_END	n/a	n/a	n/a	n/a	-999	18	[0, 0, 0]	n/a	catFR1	0	R1277J
2129.421	0.125	3114015	WORD_OFF	n/a	n/a	DESK	n/a	12	18	[0, 0, 0]	n/a	catFR1	0	R1277J
2129.546	0.0	3114140	DISTRACT_START	n/a	n/a	n/a	n/a	-999	18	[0, 0, 0]	n/a	catFR1	0	R1277J
2129.546	0.009	3114140	START	n/a	n/a	n/a	n/a	-999	18	[-999, -999, -999]	n/a	catFR1	0	R1277J
2129.555	5.533	3114149	PROB	5.508	n/a	n/a	n/a	-999	18	[9, 6, 4]	19.0	catFR1	0	R1277J
2135.088	3.251	3119682	PROB	3.215	n/a	n/a	n/a	-999	18	[7, 8, 1]	16.0	catFR1	0	R1277J
2138.339	1.984	3122933	PROB	1.948	n/a	n/a	n/a	-999	18	[4, 2, 5]	11.0	catFR1	0	R1277J
2140.323	1.716	3124917	PROB	1.683	n/a	n/a	n/a	-999	18	[2, 1, 1]	4.0	catFR1	0	R1277J
2142.039	5.201	3126633	PROB	5.168	n/a	n/a	n/a	-999	18	[8, 9, 6]	23.0	catFR1	0	R1277J
2147.24	3.549	3131834	PROB	3.549	n/a	n/a	n/a	-999	18	[3, 6, 3]	12.0	catFR1	0	R1277J
2150.789	0.018	3135383	STOP	n/a	n/a	n/a	n/a	-999	18	[-999, -999, -999]	n/a	catFR1	0	R1277J
2150.807	0.551	3135401	DISTRACT_END	n/a	n/a	n/a	n/a	-999	18	[0, 0, 0]	n/a	catFR1	0	R1277J
2151.358	0.516	3135952	RETRIEVAL_ORIENT	n/a	n/a	n/a	n/a	-999	18	[0, 0, 0]	n/a	catFR1	0	R1277J
2151.874	1.179	3136468	REC_START	n/a	n/a	n/a	n/a	-999	18	[0, 0, 0]	n/a	catFR1	0	R1277J
2153.053	0.725	3137647	REC_WORD	1.179	n/a	BUTTERFLY	Insects	2	18	[0, 0, 0]	n/a	catFR1	0	R1277J
2153.778	2.535	3138372	REC_WORD	1.904	n/a	MOTH	Insects	1	18	[0, 0, 0]	n/a	catFR1	0	R1277J
2156.313	2.63	3140907	REC_WORD	4.439	n/a	SHORTS	Clothing	4	18	[0, 0, 0]	n/a	catFR1	0	R1277J
2158.943	6.32	3143537	REC_WORD	7.069	n/a	SKIRT	Clothing	3	18	[0, 0, 0]	n/a	catFR1	0	R1277J
2165.263	16.624	3149857	REC_WORD_VV	13.389	n/a	<>	n/a	-999	18	[0, 0, 0]	n/a	catFR1	0	R1277J
2181.887	4.609	3166481	REC_END	n/a	n/a	n/a	n/a	-999	18	[0, 0, 0]	n/a	catFR1	0	R1277J
2186.496	0.5	3171090	TRIAL	n/a	n/a	n/a	n/a	-999	19	[0, 0, 0]	n/a	catFR1	0	R1277J
2186.996	10.0	3171590	COUNTDOWN_START	n/a	n/a	n/a	n/a	-999	19	[0, 0, 0]	n/a	catFR1	0	R1277J
2197.424	0.006	3182018	COUNTDOWN_END	n/a	n/a	n/a	n/a	-999	19	[0, 0, 0]	n/a	catFR1	0	R1277J
2197.43	1.6	3182024	ORIENT	n/a	n/a	n/a	n/a	-999	19	[0, 0, 0]	n/a	catFR1	0	R1277J
2199.046	1.834	3183640	ORIENT_OFF	n/a	n/a	n/a	n/a	-999	19	[0, 0, 0]	n/a	catFR1	0	R1277J
2200.88	1.6	3185474	WORD	n/a	wordpools/wordpool_categorized_EN.txt	ROOSTER	FarmAnimals	1	19	[0, 0, 0]	n/a	catFR1	0	R1277J
2202.498	0.816	3187092	WORD_OFF	n/a	n/a	ROOSTER	n/a	1	19	[0, 0, 0]	n/a	catFR1	0	R1277J
2203.314	1.6	3187908	WORD	n/a	wordpools/wordpool_categorized_EN.txt	HEN	FarmAnimals	2	19	[0, 0, 0]	n/a	catFR1	0	R1277J
2204.93	0.784	3189524	WORD_OFF	n/a	n/a	HEN	n/a	2	19	[0, 0, 0]	n/a	catFR1	0	R1277J
2205.714	1.6	3190308	WORD	n/a	wordpools/wordpool_categorized_EN.txt	BANJO	Instruments	3	19	[0, 0, 0]	n/a	catFR1	0	R1277J
2207.332	1.0	3191926	WORD_OFF	n/a	n/a	BANJO	n/a	3	19	[0, 0, 0]	n/a	catFR1	0	R1277J
2208.332	1.6	3192926	WORD	n/a	wordpools/wordpool_categorized_EN.txt	VIOLIN	Instruments	4	19	[0, 0, 0]	n/a	catFR1	0	R1277J
2209.948	0.933	3194542	WORD_OFF	n/a	n/a	VIOLIN	n/a	4	19	[0, 0, 0]	n/a	catFR1	0	R1277J
2210.881	1.6	3195475	WORD	n/a	wordpools/wordpool_categorized_EN.txt	AXE	Tools	5	19	[0, 0, 0]	n/a	catFR1	0	R1277J
2212.499	0.984	3197093	WORD_OFF	n/a	n/a	AXE	n/a	5	19	[0, 0, 0]	n/a	catFR1	0	R1277J
2213.483	1.6	3198077	WORD	n/a	wordpools/wordpool_categorized_EN.txt	RATCHET	Tools	6	19	[0, 0, 0]	n/a	catFR1	0	R1277J
2215.099	0.833	3199693	WORD_OFF	n/a	n/a	RATCHET	n/a	6	19	[0, 0, 0]	n/a	catFR1	0	R1277J
2215.932	1.6	3200526	WORD	n/a	wordpools/wordpool_categorized_EN.txt	DRUM	Instruments	7	19	[0, 0, 0]	n/a	catFR1	0	R1277J
2217.55	1.0	3202144	WORD_OFF	n/a	n/a	DRUM	n/a	7	19	[0, 0, 0]	n/a	catFR1	0	R1277J
2218.55	1.6	3203144	WORD	n/a	wordpools/wordpool_categorized_EN.txt	ORGAN	Instruments	8	19	[0, 0, 0]	n/a	catFR1	0	R1277J
2220.167	0.883	3204761	WORD_OFF	n/a	n/a	ORGAN	n/a	8	19	[0, 0, 0]	n/a	catFR1	0	R1277J
2221.05	1.6	3205644	WORD	n/a	wordpools/wordpool_categorized_EN.txt	GOAT	FarmAnimals	9	19	[0, 0, 0]	n/a	catFR1	0	R1277J
2222.666	0.885	3207260	WORD_OFF	n/a	n/a	GOAT	n/a	9	19	[0, 0, 0]	n/a	catFR1	0	R1277J
2223.551	1.6	3208145	WORD	n/a	wordpools/wordpool_categorized_EN.txt	TURKEY	FarmAnimals	10	19	[0, 0, 0]	n/a	catFR1	0	R1277J
2225.168	0.949	3209762	WORD_OFF	n/a	n/a	TURKEY	n/a	10	19	[0, 0, 0]	n/a	catFR1	0	R1277J
2226.117	1.6	3210711	WORD	n/a	wordpools/wordpool_categorized_EN.txt	SANDER	Tools	11	19	[0, 0, 0]	n/a	catFR1	0	R1277J
2227.734	0.818	3212328	WORD_OFF	n/a	n/a	SANDER	n/a	11	19	[0, 0, 0]	n/a	catFR1	0	R1277J
2228.552	1.6	3213146	WORD	n/a	wordpools/wordpool_categorized_EN.txt	LEVEL	Tools	12	19	[0, 0, 0]	n/a	catFR1	0	R1277J
2230.168	0.001	3214762	WORD_OFF	n/a	n/a	LEVEL	n/a	12	19	[0, 0, 0]	n/a	catFR1	0	R1277J
2230.169	0.095	3214763	ENCODING_END	n/a	n/a	n/a	n/a	-999	19	[0, 0, 0]	n/a	catFR1	0	R1277J
2230.264	0.0	3214858	DISTRACT_START	n/a	n/a	n/a	n/a	-999	19	[0, 0, 0]	n/a	catFR1	0	R1277J
2230.264	0.021	3214858	START	n/a	n/a	n/a	n/a	-999	19	[-999, -999, -999]	n/a	catFR1	0	R1277J
2230.285	2.967	3214879	PROB	2.944	n/a	n/a	n/a	-999	19	[1, 3, 1]	5.0	catFR1	0	R1277J
2233.252	2.399	3217846	PROB	2.375	n/a	n/a	n/a	-999	19	[9, 1, 6]	16.0	catFR1	0	R1277J
2235.651	3.735	3220245	PROB	3.698	n/a	n/a	n/a	-999	19	[6, 2, 5]	13.0	catFR1	0	R1277J
2239.386	1.934	3223980	PROB	1.898	n/a	n/a	n/a	-999	19	[1, 9, 3]	13.0	catFR1	0	R1277J
2241.32	5.449	3225914	PROB	5.426	n/a	n/a	n/a	-999	19	[7, 4, 4]	13.0	catFR1	0	R1277J
2246.769	3.334	3231363	PROB	3.306	n/a	n/a	n/a	-999	19	[1, 2, 5]	8.0	catFR1	0	R1277J
2250.103	4.947	3234697	PROB	4.947	n/a	n/a	n/a	-999	19	[4, 7, 8]	19.0	catFR1	0	R1277J
2255.05	0.021	3239644	STOP	n/a	n/a	n/a	n/a	-999	19	[-999, -999, -999]	n/a	catFR1	0	R1277J
2255.071	0.666	3239665	DISTRACT_END	n/a	n/a	n/a	n/a	-999	19	[0, 0, 0]	n/a	catFR1	0	R1277J
2255.737	0.519	3240331	RETRIEVAL_ORIENT	n/a	n/a	n/a	n/a	-999	19	[0, 0, 0]	n/a	catFR1	0	R1277J
2256.256	3.624	3240850	REC_START	n/a	n/a	n/a	n/a	-999	19	[0, 0, 0]	n/a	catFR1	0	R1277J
2259.88	4.755	3244474	REC_WORD	3.624	n/a	SANDER	Tools	11	19	[0, 0, 0]	n/a	catFR1	0	R1277J
2264.635	6.8	3249229	REC_WORD	8.379	n/a	VIOLIN	Instruments	4	19	[0, 0, 0]	n/a	catFR1	0	R1277J
2271.435	14.46	3256028	REC_WORD	15.179	n/a	GUITAR	n/a	-999	19	[0, 0, 0]	n/a	catFR1	0	R1277J
2285.895	0.372	3270488	REC_WORD_VV	29.639	n/a	<>	n/a	-999	19	[0, 0, 0]	n/a	catFR1	0	R1277J
2286.267	4.825	3270860	REC_END	n/a	n/a	n/a	n/a	-999	19	[0, 0, 0]	n/a	catFR1	0	R1277J
2291.092	0.5	3275685	TRIAL	n/a	n/a	n/a	n/a	-999	20	[0, 0, 0]	n/a	catFR1	0	R1277J
2291.592	10.0	3276185	COUNTDOWN_START	n/a	n/a	n/a	n/a	-999	20	[0, 0, 0]	n/a	catFR1	0	R1277J
2302.02	0.007	3286613	COUNTDOWN_END	n/a	n/a	n/a	n/a	-999	20	[0, 0, 0]	n/a	catFR1	0	R1277J
2302.027	1.6	3286620	ORIENT	n/a	n/a	n/a	n/a	-999	20	[0, 0, 0]	n/a	catFR1	0	R1277J
2303.644	2.117	3288237	ORIENT_OFF	n/a	n/a	n/a	n/a	-999	20	[0, 0, 0]	n/a	catFR1	0	R1277J
2305.761	1.6	3290354	WORD	n/a	wordpools/wordpool_categorized_EN.txt	MOSQUITO	Insects	1	20	[0, 0, 0]	n/a	catFR1	0	R1277J
2307.379	0.9	3291972	WORD_OFF	n/a	n/a	MOSQUITO	n/a	1	20	[0, 0, 0]	n/a	catFR1	0	R1277J
2308.279	1.6	3292872	WORD	n/a	wordpools/wordpool_categorized_EN.txt	GNAT	Insects	2	20	[0, 0, 0]	n/a	catFR1	0	R1277J
2309.895	1.0	3294488	WORD_OFF	n/a	n/a	GNAT	n/a	2	20	[0, 0, 0]	n/a	catFR1	0	R1277J
2310.895	1.6	3295488	WORD	n/a	wordpools/wordpool_categorized_EN.txt	PAPER	OfficeSupplies	3	20	[0, 0, 0]	n/a	catFR1	0	R1277J
2312.512	0.851	3297105	WORD_OFF	n/a	n/a	PAPER	n/a	3	20	[0, 0, 0]	n/a	catFR1	0	R1277J
2313.363	1.6	3297956	WORD	n/a	wordpools/wordpool_categorized_EN.txt	PENCIL	OfficeSupplies	4	20	[0, 0, 0]	n/a	catFR1	0	R1277J
2314.979	1.0	3299572	WORD_OFF	n/a	n/a	PENCIL	n/a	4	20	[0, 0, 0]	n/a	catFR1	0	R1277J
2315.979	1.6	3300572	WORD	n/a	wordpools/wordpool_categorized_EN.txt	BEAR	Zoo	5	20	[0, 0, 0]	n/a	catFR1	0	R1277J
2317.596	0.917	3302189	WORD_OFF	n/a	n/a	BEAR	n/a	5	20	[0, 0, 0]	n/a	catFR1	0	R1277J
2318.513	1.6	3303106	WORD	n/a	wordpools/wordpool_categorized_EN.txt	TIGER	Zoo	6	20	[0, 0, 0]	n/a	catFR1	0	R1277J
2320.129	0.834	3304722	WORD_OFF	n/a	n/a	TIGER	n/a	6	20	[0, 0, 0]	n/a	catFR1	0	R1277J
2320.963	1.6	3305556	WORD	n/a	wordpools/wordpool_categorized_EN.txt	ANT	Insects	7	20	[0, 0, 0]	n/a	catFR1	0	R1277J
2322.579	0.935	3307172	WORD_OFF	n/a	n/a	ANT	n/a	7	20	[0, 0, 0]	n/a	catFR1	0	R1277J
2323.514	1.6	3308107	WORD	n/a	wordpools/wordpool_categorized_EN.txt	BEE	Insects	8	20	[0, 0, 0]	n/a	catFR1	0	R1277J
2325.13	0.883	3309723	WORD_OFF	n/a	n/a	BEE	n/a	8	20	[0, 0, 0]	n/a	catFR1	0	R1277J
2326.013	1.6	3310606	WORD	n/a	wordpools/wordpool_categorized_EN.txt	MARKER	OfficeSupplies	9	20	[0, 0, 0]	n/a	catFR1	0	R1277J
2327.63	0.885	3312223	WORD_OFF	n/a	n/a	MARKER	n/a	9	20	[0, 0, 0]	n/a	catFR1	0	R1277J
2328.515	1.6	3313108	WORD	n/a	wordpools/wordpool_categorized_EN.txt	TAPE	OfficeSupplies	10	20	[0, 0, 0]	n/a	catFR1	0	R1277J
2330.131	0.833	3314724	WORD_OFF	n/a	n/a	TAPE	n/a	10	20	[0, 0, 0]	n/a	catFR1	0	R1277J
2330.964	1.6	3315557	WORD	n/a	wordpools/wordpool_categorized_EN.txt	CHIMPANZEE	Zoo	11	20	[0, 0, 0]	n/a	catFR1	0	R1277J
2332.581	0.918	3317174	WORD_OFF	n/a	n/a	CHIMPANZEE	n/a	11	20	[0, 0, 0]	n/a	catFR1	0	R1277J
2333.499	1.6	3318092	WORD	n/a	wordpools/wordpool_categorized_EN.txt	GIRAFFE	Zoo	12	20	[0, 0, 0]	n/a	catFR1	0	R1277J
2335.115	0.0	3319708	ENCODING_END	n/a	n/a	n/a	n/a	-999	20	[0, 0, 0]	n/a	catFR1	0	R1277J
2335.115	0.137	3319708	WORD_OFF	n/a	n/a	GIRAFFE	n/a	12	20	[0, 0, 0]	n/a	catFR1	0	R1277J
2335.252	0.0	3319845	DISTRACT_START	n/a	n/a	n/a	n/a	-999	20	[0, 0, 0]	n/a	catFR1	0	R1277J
2335.252	0.014	3319845	START	n/a	n/a	n/a	n/a	-999	20	[-999, -999, -999]	n/a	catFR1	0	R1277J
2335.266	5.8	3319859	PROB	5.773	n/a	n/a	n/a	-999	20	[9, 4, 1]	14.0	catFR1	0	R1277J
2341.066	2.917	3325659	PROB	2.878	n/a	n/a	n/a	-999	20	[2, 9, 4]	15.0	catFR1	0	R1277J
2343.983	2.418	3328576	PROB	2.393	n/a	n/a	n/a	-999	20	[5, 2, 2]	9.0	catFR1	0	R1277J
2346.401	2.05	3330994	PROB	2.016	n/a	n/a	n/a	-999	20	[3, 5, 5]	13.0	catFR1	0	R1277J
2348.451	1.616	3333044	PROB	1.579	n/a	n/a	n/a	-999	20	[5, 1, 1]	7.0	catFR1	0	R1277J
2350.067	2.95	3334660	PROB	2.916	n/a	n/a	n/a	-999	20	[9, 9, 1]	19.0	catFR1	0	R1277J
2353.017	6.175	3337610	PROB	6.175	n/a	n/a	n/a	-999	20	[4, 3, 5]	12.0	catFR1	0	R1277J
2359.192	0.011	3343785	STOP	n/a	n/a	n/a	n/a	-999	20	[-999, -999, -999]	n/a	catFR1	0	R1277J
2359.203	0.632	3343796	DISTRACT_END	n/a	n/a	n/a	n/a	-999	20	[0, 0, 0]	n/a	catFR1	0	R1277J
2359.835	0.502	3344428	RETRIEVAL_ORIENT	n/a	n/a	n/a	n/a	-999	20	[0, 0, 0]	n/a	catFR1	0	R1277J
2360.337	3.965	3344930	REC_START	n/a	n/a	n/a	n/a	-999	20	[0, 0, 0]	n/a	catFR1	0	R1277J
2364.302	8.975	3348895	REC_WORD	3.965	n/a	CHIMPANZEE	Zoo	11	20	[0, 0, 0]	n/a	catFR1	0	R1277J
2373.277	5.59	3357870	REC_WORD	12.94	n/a	GIRAFFE	Zoo	12	20	[0, 0, 0]	n/a	catFR1	0	R1277J
2378.867	1.325	3363460	REC_WORD	18.53	n/a	BEE	Insects	8	20	[0, 0, 0]	n/a	catFR1	0	R1277J
2380.192	10.157	3364785	REC_WORD	19.855	n/a	BEAR	Zoo	5	20	[0, 0, 0]	n/a	catFR1	0	R1277J
2390.349	6.008	3374942	REC_END	n/a	n/a	n/a	n/a	-999	20	[0, 0, 0]	n/a	catFR1	0	R1277J
2396.357	0.5	3380950	TRIAL	n/a	n/a	n/a	n/a	-999	21	[0, 0, 0]	n/a	catFR1	0	R1277J
2396.857	10.0	3381450	COUNTDOWN_START	n/a	n/a	n/a	n/a	-999	21	[0, 0, 0]	n/a	catFR1	0	R1277J
2407.285	0.007	3391878	COUNTDOWN_END	n/a	n/a	n/a	n/a	-999	21	[0, 0, 0]	n/a	catFR1	0	R1277J
2407.292	1.6	3391885	ORIENT	n/a	n/a	n/a	n/a	-999	21	[0, 0, 0]	n/a	catFR1	0	R1277J
2408.908	2.033	3393501	ORIENT_OFF	n/a	n/a	n/a	n/a	-999	21	[0, 0, 0]	n/a	catFR1	0	R1277J
2410.941	1.6	3395534	WORD	n/a	wordpools/wordpool_categorized_EN.txt	EAR	BodyParts	1	21	[0, 0, 0]	n/a	catFR1	0	R1277J
2412.559	0.817	3397152	WORD_OFF	n/a	n/a	EAR	n/a	1	21	[0, 0, 0]	n/a	catFR1	0	R1277J
2413.376	1.6	3397969	WORD	n/a	wordpools/wordpool_categorized_EN.txt	LEG	BodyParts	2	21	[0, 0, 0]	n/a	catFR1	0	R1277J
2414.992	0.766	3399585	WORD_OFF	n/a	n/a	LEG	n/a	2	21	[0, 0, 0]	n/a	catFR1	0	R1277J
2415.758	1.6	3400351	WORD	n/a	wordpools/wordpool_categorized_EN.txt	COMPUTER	Electronics	3	21	[0, 0, 0]	n/a	catFR1	0	R1277J
2417.376	0.884	3401969	WORD_OFF	n/a	n/a	COMPUTER	n/a	3	21	[0, 0, 0]	n/a	catFR1	0	R1277J
2418.26	1.6	3402853	WORD	n/a	wordpools/wordpool_categorized_EN.txt	RADIO	Electronics	4	21	[0, 0, 0]	n/a	catFR1	0	R1277J
2419.876	0.95	3404469	WORD_OFF	n/a	n/a	RADIO	n/a	4	21	[0, 0, 0]	n/a	catFR1	0	R1277J
2420.826	1.6	3405419	WORD	n/a	wordpools/wordpool_categorized_EN.txt	HORSE	FarmAnimals	5	21	[0, 0, 0]	n/a	catFR1	0	R1277J
2422.443	0.884	3407036	WORD_OFF	n/a	n/a	HORSE	n/a	5	21	[0, 0, 0]	n/a	catFR1	0	R1277J
2423.327	1.6	3407920	WORD	n/a	wordpools/wordpool_categorized_EN.txt	CALF	FarmAnimals	6	21	[0, 0, 0]	n/a	catFR1	0	R1277J
2424.943	0.9	3409536	WORD_OFF	n/a	n/a	CALF	n/a	6	21	[0, 0, 0]	n/a	catFR1	0	R1277J
2425.843	1.6	3410436	WORD	n/a	wordpools/wordpool_categorized_EN.txt	NOSE	BodyParts	7	21	[0, 0, 0]	n/a	catFR1	0	R1277J
2427.444	0.917	3412037	WORD_OFF	n/a	n/a	NOSE	n/a	7	21	[0, 0, 0]	n/a	catFR1	0	R1277J
2428.361	1.6	3412954	WORD	n/a	wordpools/wordpool_categorized_EN.txt	TOE	BodyParts	8	21	[0, 0, 0]	n/a	catFR1	0	R1277J
2429.977	1.0	3414570	WORD_OFF	n/a	n/a	TOE	n/a	8	21	[0, 0, 0]	n/a	catFR1	0	R1277J
2430.977	1.6	3415570	WORD	n/a	wordpools/wordpool_categorized_EN.txt	SPEAKER	Electronics	9	21	[0, 0, 0]	n/a	catFR1	0	R1277J
