onset	duration	sample	trial_type	response_time	stim_file	item_name	category	serialpos	list	test	answer	experiment	session	subject
0.0	7590.121	-1	INSTRUCT_START	n/a	n/a	n/a	n/a	-999	-999	[0, 0, 0]	n/a	catFR1	0	R1330D
7590.121	52732.102	-1	INSTRUCT_START	n/a	n/a	n/a	n/a	-999	-999	[0, 0, 0]	n/a	catFR1	0	R1330D
60322.223	493.825	-1	INSTRUCT_START	n/a	n/a	n/a	n/a	-999	-999	[0, 0, 0]	n/a	catFR1	0	R1330D
60816.048	68.672	1135	INSTRUCT_START	n/a	n/a	n/a	n/a	-999	-999	[0, 0, 0]	n/a	catFR1	0	R1330D
60884.72	5.318	69803	INSTRUCT_END	n/a	n/a	n/a	n/a	-999	-999	[0, 0, 0]	n/a	catFR1	0	R1330D
60890.038	8.989	75121	MIC TEST_START	n/a	n/a	n/a	n/a	-999	-999	[0, 0, 0]	n/a	catFR1	0	R1330D
60899.027	0.013	84109	MIC TEST_END	n/a	n/a	n/a	n/a	-999	-999	[0, 0, 0]	n/a	catFR1	0	R1330D
60899.04	0.0	84122	TRIAL_START	n/a	n/a	n/a	n/a	-999	-1	[0, 0, 0]	n/a	catFR1	0	R1330D
60899.04	0.0	84122	TRIAL	n/a	n/a	n/a	n/a	-999	-1	[0, 0, 0]	n/a	catFR1	0	R1330D
60899.04	149.96	84122	WAITING_START	n/a	n/a	n/a	n/a	-999	-1	[0, 0, 0]	n/a	catFR1	0	R1330D
61049.0	0.0	234074	WAITING_END	n/a	n/a	n/a	n/a	-999	-1	[0, 0, 0]	n/a	catFR1	0	R1330D
61049.0	10.43	234074	COUNTDOWN_START	n/a	n/a	n/a	n/a	-999	-1	[0, 0, 0]	n/a	catFR1	0	R1330D
61059.43	0.001	244503	COUNTDOWN_END	n/a	n/a	n/a	n/a	-999	-1	[0, 0, 0]	n/a	catFR1	0	R1330D
61059.431	1.205	244504	ORIENT_START	n/a	n/a	n/a	n/a	-999	-1	[0, 0, 0]	n/a	catFR1	0	R1330D
61060.636	0.001	245709	ORIENT_END	n/a	n/a	n/a	n/a	-999	-1	[0, 0, 0]	n/a	catFR1	0	R1330D
61060.637	1.103	245710	ENCODING_START	n/a	n/a	n/a	n/a	-999	-1	[0, 0, 0]	n/a	catFR1	0	R1330D
61061.74	1.629	246813	WORD	n/a	n/a	DENIM	n/a	1	-1	[0, 0, 0]	n/a	catFR1	0	R1330D
61063.369	1.011	248442	WORD_OFF	n/a	n/a	DENIM	n/a	1	-1	[0, 0, 0]	n/a	catFR1	0	R1330D
61064.38	1.623	249453	WORD	n/a	n/a	PLUMBER	n/a	2	-1	[0, 0, 0]	n/a	catFR1	0	R1330D
61066.003	1.099	251076	WORD_OFF	n/a	n/a	PLUMBER	n/a	2	-1	[0, 0, 0]	n/a	catFR1	0	R1330D
61067.102	1.635	252175	WORD	n/a	n/a	WOOL	n/a	3	-1	[0, 0, 0]	n/a	catFR1	0	R1330D
61068.737	1.037	253810	WORD_OFF	n/a	n/a	WOOL	n/a	3	-1	[0, 0, 0]	n/a	catFR1	0	R1330D
61069.774	1.63	254847	WORD	n/a	n/a	SECOND	n/a	4	-1	[0, 0, 0]	n/a	catFR1	0	R1330D
61071.404	0.77	256477	WORD_OFF	n/a	n/a	SECOND	n/a	4	-1	[0, 0, 0]	n/a	catFR1	0	R1330D
61072.174	1.63	257247	WORD	n/a	n/a	LEATHER	n/a	5	-1	[0, 0, 0]	n/a	catFR1	0	R1330D
61073.804	1.126	258876	WORD_OFF	n/a	n/a	LEATHER	n/a	5	-1	[0, 0, 0]	n/a	catFR1	0	R1330D
61074.93	1.626	260002	WORD	n/a	n/a	MINUTE	n/a	6	-1	[0, 0, 0]	n/a	catFR1	0	R1330D
61076.556	0.828	261628	WORD_OFF	n/a	n/a	MINUTE	n/a	6	-1	[0, 0, 0]	n/a	catFR1	0	R1330D
61077.384	1.638	262456	WORD	n/a	n/a	TEACHER	n/a	7	-1	[0, 0, 0]	n/a	catFR1	0	R1330D
61079.022	0.802	264094	WORD_OFF	n/a	n/a	TEACHER	n/a	7	-1	[0, 0, 0]	n/a	catFR1	0	R1330D
61079.824	1.632	264896	WORD	n/a	n/a	FIREMAN	n/a	8	-1	[0, 0, 0]	n/a	catFR1	0	R1330D
61081.456	0.938	266528	WORD_OFF	n/a	n/a	FIREMAN	n/a	8	-1	[0, 0, 0]	n/a	catFR1	0	R1330D
61082.394	1.629	267466	WORD	n/a	n/a	DAY	n/a	9	-1	[0, 0, 0]	n/a	catFR1	0	R1330D
61084.023	0.818	269095	WORD_OFF	n/a	n/a	DAY	n/a	9	-1	[0, 0, 0]	n/a	catFR1	0	R1330D
61084.841	1.632	269913	WORD	n/a	n/a	SILK	n/a	10	-1	[0, 0, 0]	n/a	catFR1	0	R1330D
61086.473	0.879	271545	WORD_OFF	n/a	n/a	SILK	n/a	10	-1	[0, 0, 0]	n/a	catFR1	0	R1330D
61087.352	1.622	272424	WORD	n/a	n/a	HOUR	n/a	11	-1	[0, 0, 0]	n/a	catFR1	0	R1330D
61088.974	1.008	274046	WORD_OFF	n/a	n/a	HOUR	n/a	11	-1	[0, 0, 0]	n/a	catFR1	0	R1330D
61089.982	1.626	275054	WORD	n/a	n/a	FARMER	n/a	12	-1	[0, 0, 0]	n/a	catFR1	0	R1330D
61091.608	0.001	276679	WORD_OFF	n/a	n/a	FARMER	n/a	12	-1	[0, 0, 0]	n/a	catFR1	0	R1330D
61091.609	0.0	276680	ENCODING_END	n/a	n/a	n/a	n/a	-999	-1	[0, 0, 0]	n/a	catFR1	0	R1330D
61091.609	0.0	276680	DISTRACT_START	n/a	n/a	n/a	n/a	-999	-1	[0, 0, 0]	n/a	catFR1	0	R1330D
61091.609	0.016	276680	START	n/a	n/a	n/a	n/a	-999	-1	[-999, -999, -999]	n/a	catFR1	0	R1330D
61091.625	13.418	276696	PROB	13.389	n/a	n/a	n/a	-999	-1	[3, 2, 7]	12.0	catFR1	0	R1330D
61105.043	8.267	290114	PROB	8.267	n/a	n/a	n/a	-999	-1	[6, 8, 5]	19.0	catFR1	0	R1330D
61113.31	0.018	298380	STOP	n/a	n/a	n/a	n/a	-999	-1	[-999, -999, -999]	n/a	catFR1	0	R1330D
61113.328	0.567	298398	DISTRACT_END	n/a	n/a	n/a	n/a	-999	-1	[0, 0, 0]	n/a	catFR1	0	R1330D
61113.895	1.55	298965	RETRIEVAL_ORIENT_START	n/a	n/a	n/a	n/a	-999	-1	[0, 0, 0]	n/a	catFR1	0	R1330D
61115.445	0.0	300515	RETRIEVAL_ORIENT_END	n/a	n/a	n/a	n/a	-999	-1	[0, 0, 0]	n/a	catFR1	0	R1330D
61115.445	0.0	300515	REC_START	n/a	n/a	n/a	n/a	-999	-1	[0, 0, 0]	n/a	catFR1	0	R1330D
61115.445	30.012	300515	REC_WORD_VV	0.0	n/a	<>	n/a	-999	-1	[0, 0, 0]	n/a	catFR1	0	R1330D
61145.457	0.0	330526	REC_END	n/a	n/a	n/a	n/a	-999	-1	[0, 0, 0]	n/a	catFR1	0	R1330D
61145.457	12.78	330526	PRACTICE_POST_INSTRUCT_START	n/a	n/a	n/a	n/a	-999	-1	[0, 0, 0]	n/a	catFR1	0	R1330D
61158.237	0.001	343305	PRACTICE_POST_INSTRUCT_END	n/a	n/a	n/a	n/a	-999	-1	[0, 0, 0]	n/a	catFR1	0	R1330D
61158.238	0.025	343306	TRIAL_END	n/a	n/a	n/a	n/a	-999	-1	[0, 0, 0]	n/a	catFR1	0	R1330D
61158.263	0.0	343331	WAITING_START	n/a	n/a	n/a	n/a	-999	1	[0, 0, 0]	n/a	catFR1	0	R1330D
61158.263	0.0	343331	TRIAL_START	n/a	n/a	n/a	n/a	-999	1	[0, 0, 0]	n/a	catFR1	0	R1330D
61158.263	3.657	343331	TRIAL	n/a	n/a	n/a	n/a	-999	1	[0, 0, 0]	n/a	catFR1	0	R1330D
61161.92	0.001	346988	WAITING_END	n/a	n/a	n/a	n/a	-999	1	[0, 0, 0]	n/a	catFR1	0	R1330D
61161.921	10.429	346989	COUNTDOWN_START	n/a	n/a	n/a	n/a	-999	1	[0, 0, 0]	n/a	catFR1	0	R1330D
61172.35	0.001	357417	COUNTDOWN_END	n/a	n/a	n/a	n/a	-999	1	[0, 0, 0]	n/a	catFR1	0	R1330D
61172.351	1.206	357418	ORIENT_START	n/a	n/a	n/a	n/a	-999	1	[0, 0, 0]	n/a	catFR1	0	R1330D
61173.557	0.0	358624	ORIENT_END	n/a	n/a	n/a	n/a	-999	1	[0, 0, 0]	n/a	catFR1	0	R1330D
61173.557	0.869	358624	ENCODING_START	n/a	n/a	n/a	n/a	-999	1	[0, 0, 0]	n/a	catFR1	0	R1330D
61174.426	1.63	359493	WORD	n/a	wordpools/wordpool_categorized_EN.txt	TEA	Beverages	1	1	[0, 0, 0]	n/a	catFR1	0	R1330D
61176.056	0.964	361123	WORD_OFF	n/a	n/a	TEA	Beverages	1	1	[0, 0, 0]	n/a	catFR1	0	R1330D
61177.02	1.621	362087	WORD	n/a	wordpools/wordpool_categorized_EN.txt	WINE	Beverages	2	1	[0, 0, 0]	n/a	catFR1	0	R1330D
61178.641	1.151	363708	WORD_OFF	n/a	n/a	WINE	Beverages	2	1	[0, 0, 0]	n/a	catFR1	0	R1330D
61179.792	1.632	364859	WORD	n/a	wordpools/wordpool_categorized_EN.txt	CARDINAL	Birds	3	1	[0, 0, 0]	n/a	catFR1	0	R1330D
61181.424	0.909	366491	WORD_OFF	n/a	n/a	CARDINAL	Birds	3	1	[0, 0, 0]	n/a	catFR1	0	R1330D
61182.333	1.625	367399	WORD	n/a	wordpools/wordpool_categorized_EN.txt	BLUEBIRD	Birds	4	1	[0, 0, 0]	n/a	catFR1	0	R1330D
61183.958	0.75	369024	WORD_OFF	n/a	n/a	BLUEBIRD	Birds	4	1	[0, 0, 0]	n/a	catFR1	0	R1330D
61184.708	1.633	369774	WORD	n/a	wordpools/wordpool_categorized_EN.txt	BEETLE	Insects	5	1	[0, 0, 0]	n/a	catFR1	0	R1330D
61186.341	0.956	371407	WORD_OFF	n/a	n/a	BEETLE	Insects	5	1	[0, 0, 0]	n/a	catFR1	0	R1330D
61187.297	1.628	372363	WORD	n/a	wordpools/wordpool_categorized_EN.txt	FLY	Insects	6	1	[0, 0, 0]	n/a	catFR1	0	R1330D
61188.925	0.867	373991	WORD_OFF	n/a	n/a	FLY	Insects	6	1	[0, 0, 0]	n/a	catFR1	0	R1330D
61189.792	1.634	374858	WORD	n/a	wordpools/wordpool_categorized_EN.txt	COFFEE	Beverages	7	1	[0, 0, 0]	n/a	catFR1	0	R1330D
61191.426	0.808	376492	WORD_OFF	n/a	n/a	COFFEE	Beverages	7	1	[0, 0, 0]	n/a	catFR1	0	R1330D
61192.234	1.625	377300	WORD	n/a	wordpools/wordpool_categorized_EN.txt	WATER	Beverages	8	1	[0, 0, 0]	n/a	catFR1	0	R1330D
61193.859	1.094	378925	WORD_OFF	n/a	n/a	WATER	Beverages	8	1	[0, 0, 0]	n/a	catFR1	0	R1330D
61194.953	1.608	380019	WORD	n/a	wordpools/wordpool_categorized_EN.txt	PIGEON	Birds	9	1	[0, 0, 0]	n/a	catFR1	0	R1330D
61196.561	0.984	381627	WORD_OFF	n/a	n/a	PIGEON	Birds	9	1	[0, 0, 0]	n/a	catFR1	0	R1330D
61197.545	1.632	382611	WORD	n/a	wordpools/wordpool_categorized_EN.txt	SPARROW	Birds	10	1	[0, 0, 0]	n/a	catFR1	0	R1330D
61199.177	1.087	384243	WORD_OFF	n/a	n/a	SPARROW	Birds	10	1	[0, 0, 0]	n/a	catFR1	0	R1330D
61200.264	1.63	385329	WORD	n/a	wordpools/wordpool_categorized_EN.txt	BUTTERFLY	Insects	11	1	[0, 0, 0]	n/a	catFR1	0	R1330D
61201.894	0.796	386959	WORD_OFF	n/a	n/a	BUTTERFLY	Insects	11	1	[0, 0, 0]	n/a	catFR1	0	R1330D
61202.69	1.621	387755	WORD	n/a	wordpools/wordpool_categorized_EN.txt	ANT	Insects	12	1	[0, 0, 0]	n/a	catFR1	0	R1330D
61204.311	0.001	389376	WORD_OFF	n/a	n/a	ANT	Insects	12	1	[0, 0, 0]	n/a	catFR1	0	R1330D
61204.312	0.0	389377	ENCODING_END	n/a	n/a	n/a	n/a	-999	1	[0, 0, 0]	n/a	catFR1	0	R1330D
61204.312	0.001	389377	DISTRACT_START	n/a	n/a	n/a	n/a	-999	1	[0, 0, 0]	n/a	catFR1	0	R1330D
61204.313	0.015	389378	START	n/a	n/a	n/a	n/a	-999	1	[-999, -999, -999]	n/a	catFR1	0	R1330D
61204.328	10.269	389393	PROB	10.234	n/a	n/a	n/a	-999	1	[7, 3, 1]	11.0	catFR1	0	R1330D
61214.597	5.75	399662	PROB	5.715	n/a	n/a	n/a	-999	1	[6, 2, 4]	12.0	catFR1	0	R1330D
61220.347	23.694	405411	PROB	23.694	n/a	n/a	n/a	-999	1	[8, 6, 6]	29.0	catFR1	0	R1330D
61244.041	0.011	429104	STOP	n/a	n/a	n/a	n/a	-999	1	[-999, -999, -999]	n/a	catFR1	0	R1330D
61244.052	0.519	429115	DISTRACT_END	n/a	n/a	n/a	n/a	-999	1	[0, 0, 0]	n/a	catFR1	0	R1330D
61244.571	1.615	429634	RETRIEVAL_ORIENT_START	n/a	n/a	n/a	n/a	-999	1	[0, 0, 0]	n/a	catFR1	0	R1330D
61246.186	0.0	431249	REC_START	n/a	n/a	n/a	n/a	-999	1	[0, 0, 0]	n/a	catFR1	0	R1330D
61246.186	5.8	431249	RETRIEVAL_ORIENT_END	n/a	n/a	n/a	n/a	-999	1	[0, 0, 0]	n/a	catFR1	0	R1330D
61251.986	1.0	437049	REC_WORD_VV	5.8	n/a	<>	n/a	-999	1	[0, 0, 0]	n/a	catFR1	0	R1330D
61252.986	1.0	438049	REC_WORD_VV	6.8	n/a	<>	n/a	-999	1	[0, 0, 0]	n/a	catFR1	0	R1330D
61253.986	0.651	439049	REC_WORD_VV	7.8	n/a	<>	n/a	-999	1	[0, 0, 0]	n/a	catFR1	0	R1330D
61254.637	1.629	439699	REC_WORD	8.451	n/a	BUTTERFLY	Insects	11	1	[0, 0, 0]	n/a	catFR1	0	R1330D
61256.266	1.415	441328	REC_WORD	10.08	n/a	SPARROW	Birds	10	1	[0, 0, 0]	n/a	catFR1	0	R1330D
61257.681	1.32	442743	REC_WORD	11.495	n/a	BEETLE	Insects	5	1	[0, 0, 0]	n/a	catFR1	0	R1330D
61259.001	1.756	444063	REC_WORD	12.815	n/a	ANT	Insects	12	1	[0, 0, 0]	n/a	catFR1	0	R1330D
61260.757	3.989	445819	REC_WORD	14.571	n/a	WINE	Beverages	2	1	[0, 0, 0]	n/a	catFR1	0	R1330D
61264.746	6.224	449808	REC_WORD	18.56	n/a	TEA	Beverages	1	1	[0, 0, 0]	n/a	catFR1	0	R1330D
61270.97	0.514	456032	REC_WORD_VV	24.784	n/a	<>	n/a	-999	1	[0, 0, 0]	n/a	catFR1	0	R1330D
61271.484	0.715	456546	REC_WORD	25.298	n/a	COFFEE	Beverages	7	1	[0, 0, 0]	n/a	catFR1	0	R1330D
61272.199	3.997	457260	REC_WORD_VV	26.013	n/a	<>	n/a	-999	1	[0, 0, 0]	n/a	catFR1	0	R1330D
61276.196	0.0	461257	TRIAL_END	n/a	n/a	n/a	n/a	-999	1	[0, 0, 0]	n/a	catFR1	0	R1330D
61276.196	0.024	461257	REC_END	n/a	n/a	n/a	n/a	-999	1	[0, 0, 0]	n/a	catFR1	0	R1330D
61276.22	0.001	461281	TRIAL_START	n/a	n/a	n/a	n/a	-999	2	[0, 0, 0]	n/a	catFR1	0	R1330D
61276.221	0.0	461282	TRIAL	n/a	n/a	n/a	n/a	-999	2	[0, 0, 0]	n/a	catFR1	0	R1330D
61276.221	4.754	461282	WAITING_START	n/a	n/a	n/a	n/a	-999	2	[0, 0, 0]	n/a	catFR1	0	R1330D
61280.975	0.001	466036	WAITING_END	n/a	n/a	n/a	n/a	-999	2	[0, 0, 0]	n/a	catFR1	0	R1330D
61280.976	10.428	466037	COUNTDOWN_START	n/a	n/a	n/a	n/a	-999	2	[0, 0, 0]	n/a	catFR1	0	R1330D
61291.404	0.001	476464	COUNTDOWN_END	n/a	n/a	n/a	n/a	-999	2	[0, 0, 0]	n/a	catFR1	0	R1330D
61291.405	1.173	476465	ORIENT_START	n/a	n/a	n/a	n/a	-999	2	[0, 0, 0]	n/a	catFR1	0	R1330D
61292.578	0.001	477638	ORIENT_END	n/a	n/a	n/a	n/a	-999	2	[0, 0, 0]	n/a	catFR1	0	R1330D
61292.579	0.797	477639	ENCODING_START	n/a	n/a	n/a	n/a	-999	2	[0, 0, 0]	n/a	catFR1	0	R1330D
61293.376	1.635	478436	WORD	n/a	wordpools/wordpool_categorized_EN.txt	EYE	BodyParts	1	2	[0, 0, 0]	n/a	catFR1	0	R1330D
61295.011	0.968	480071	WORD_OFF	n/a	n/a	EYE	BodyParts	1	2	[0, 0, 0]	n/a	catFR1	0	R1330D
61295.979	1.634	481039	WORD	n/a	wordpools/wordpool_categorized_EN.txt	NOSE	BodyParts	2	2	[0, 0, 0]	n/a	catFR1	0	R1330D
61297.613	0.815	482673	WORD_OFF	n/a	n/a	NOSE	BodyParts	2	2	[0, 0, 0]	n/a	catFR1	0	R1330D
61298.428	1.634	483488	WORD	n/a	wordpools/wordpool_categorized_EN.txt	HORSE	FarmAnimals	3	2	[0, 0, 0]	n/a	catFR1	0	R1330D
61300.062	0.903	485122	WORD_OFF	n/a	n/a	HORSE	FarmAnimals	3	2	[0, 0, 0]	n/a	catFR1	0	R1330D
61300.965	1.615	486025	WORD	n/a	wordpools/wordpool_categorized_EN.txt	GOAT	FarmAnimals	4	2	[0, 0, 0]	n/a	catFR1	0	R1330D
61302.58	1.02	487640	WORD_OFF	n/a	n/a	GOAT	FarmAnimals	4	2	[0, 0, 0]	n/a	catFR1	0	R1330D
61303.6	1.63	488660	WORD	n/a	wordpools/wordpool_categorized_EN.txt	BASEBALL	Toys	5	2	[0, 0, 0]	n/a	catFR1	0	R1330D
61305.23	1.08	490290	WORD_OFF	n/a	n/a	BASEBALL	Toys	5	2	[0, 0, 0]	n/a	catFR1	0	R1330D
61306.31	1.637	491370	WORD	n/a	wordpools/wordpool_categorized_EN.txt	BALL	Toys	6	2	[0, 0, 0]	n/a	catFR1	0	R1330D
61307.947	1.14	493007	WORD_OFF	n/a	n/a	BALL	Toys	6	2	[0, 0, 0]	n/a	catFR1	0	R1330D
61309.087	1.627	494146	WORD	n/a	wordpools/wordpool_categorized_EN.txt	ROOSTER	FarmAnimals	7	2	[0, 0, 0]	n/a	catFR1	0	R1330D
61310.714	0.769	495773	WORD_OFF	n/a	n/a	ROOSTER	FarmAnimals	7	2	[0, 0, 0]	n/a	catFR1	0	R1330D
61311.483	1.631	496542	WORD	n/a	wordpools/wordpool_categorized_EN.txt	PIG	FarmAnimals	8	2	[0, 0, 0]	n/a	catFR1	0	R1330D
61313.114	0.97	498173	WORD_OFF	n/a	n/a	PIG	FarmAnimals	8	2	[0, 0, 0]	n/a	catFR1	0	R1330D
61314.084	1.631	499143	WORD	n/a	wordpools/wordpool_categorized_EN.txt	MARBLES	Toys	9	2	[0, 0, 0]	n/a	catFR1	0	R1330D
61315.715	0.883	500774	WORD_OFF	n/a	n/a	MARBLES	Toys	9	2	[0, 0, 0]	n/a	catFR1	0	R1330D
61316.598	1.634	501657	WORD	n/a	wordpools/wordpool_categorized_EN.txt	BASKETBALL	Toys	10	2	[0, 0, 0]	n/a	catFR1	0	R1330D
61318.232	0.793	503291	WORD_OFF	n/a	n/a	BASKETBALL	Toys	10	2	[0, 0, 0]	n/a	catFR1	0	R1330D
61319.025	1.625	504084	WORD	n/a	wordpools/wordpool_categorized_EN.txt	TOE	BodyParts	11	2	[0, 0, 0]	n/a	catFR1	0	R1330D
61320.65	1.072	505709	WORD_OFF	n/a	n/a	TOE	BodyParts	11	2	[0, 0, 0]	n/a	catFR1	0	R1330D
61321.722	1.628	506781	WORD	n/a	wordpools/wordpool_categorized_EN.txt	EAR	BodyParts	12	2	[0, 0, 0]	n/a	catFR1	0	R1330D
61323.35	0.0	508409	WORD_OFF	n/a	n/a	EAR	BodyParts	12	2	[0, 0, 0]	n/a	catFR1	0	R1330D
61323.35	0.0	508409	ENCODING_END	n/a	n/a	n/a	n/a	-999	2	[0, 0, 0]	n/a	catFR1	0	R1330D
61323.35	0.0	508409	DISTRACT_START	n/a	n/a	n/a	n/a	-999	2	[0, 0, 0]	n/a	catFR1	0	R1330D
61323.35	0.016	508409	START	n/a	n/a	n/a	n/a	-999	2	[-999, -999, -999]	n/a	catFR1	0	R1330D
61323.366	11.27	508425	PROB	11.242	n/a	n/a	n/a	-999	2	[4, 8, 5]	17.0	catFR1	0	R1330D
61334.636	8.484	519694	PROB	8.447	n/a	n/a	n/a	-999	2	[4, 3, 5]	12.0	catFR1	0	R1330D
61343.12	25.223	528178	PROB	25.223	n/a	n/a	n/a	-999	2	[4, 3, 4]	11.0	catFR1	0	R1330D
61368.343	0.015	553399	STOP	n/a	n/a	n/a	n/a	-999	2	[-999, -999, -999]	n/a	catFR1	0	R1330D
61368.358	0.581	553414	DISTRACT_END	n/a	n/a	n/a	n/a	-999	2	[0, 0, 0]	n/a	catFR1	0	R1330D
61368.939	1.552	553995	RETRIEVAL_ORIENT_START	n/a	n/a	n/a	n/a	-999	2	[0, 0, 0]	n/a	catFR1	0	R1330D
61370.491	0.001	555547	RETRIEVAL_ORIENT_END	n/a	n/a	n/a	n/a	-999	2	[0, 0, 0]	n/a	catFR1	0	R1330D
61370.492	1.806	555548	REC_START	n/a	n/a	n/a	n/a	-999	2	[0, 0, 0]	n/a	catFR1	0	R1330D
61372.298	2.049	557354	REC_WORD_VV	1.806	n/a	<>	n/a	-999	2	[0, 0, 0]	n/a	catFR1	0	R1330D
61374.347	1.025	559403	REC_WORD_VV	3.855	n/a	<>	n/a	-999	2	[0, 0, 0]	n/a	catFR1	0	R1330D
61375.372	1.992	560428	REC_WORD	4.88	n/a	ROOSTER	FarmAnimals	7	2	[0, 0, 0]	n/a	catFR1	0	R1330D
61377.364	1.74	562420	REC_WORD	6.872	n/a	GOAT	FarmAnimals	4	2	[0, 0, 0]	n/a	catFR1	0	R1330D
61379.104	1.936	564160	REC_WORD	8.612	n/a	BALL	Toys	6	2	[0, 0, 0]	n/a	catFR1	0	R1330D
61381.04	8.385	566095	REC_WORD	10.548	n/a	BASKETBALL	Toys	10	2	[0, 0, 0]	n/a	catFR1	0	R1330D
61389.425	1.0	574480	REC_WORD_VV	18.933	n/a	<>	n/a	-999	2	[0, 0, 0]	n/a	catFR1	0	R1330D
61390.425	3.425	575480	REC_WORD_VV	19.933	n/a	<>	n/a	-999	2	[0, 0, 0]	n/a	catFR1	0	R1330D
61393.85	6.654	578905	REC_WORD	23.358	n/a	COW	n/a	-999	2	[0, 0, 0]	n/a	catFR1	0	R1330D
61400.504	0.0	585558	REC_END	n/a	n/a	n/a	n/a	-999	2	[0, 0, 0]	n/a	catFR1	0	R1330D
61400.504	0.021	585558	TRIAL_END	n/a	n/a	n/a	n/a	-999	2	[0, 0, 0]	n/a	catFR1	0	R1330D
61400.525	0.001	585579	TRIAL_START	n/a	n/a	n/a	n/a	-999	3	[0, 0, 0]	n/a	catFR1	0	R1330D
61400.526	0.0	585580	TRIAL	n/a	n/a	n/a	n/a	-999	3	[0, 0, 0]	n/a	catFR1	0	R1330D
61400.526	6.339	585580	WAITING_START	n/a	n/a	n/a	n/a	-999	3	[0, 0, 0]	n/a	catFR1	0	R1330D
61406.865	0.0	591919	WAITING_END	n/a	n/a	n/a	n/a	-999	3	[0, 0, 0]	n/a	catFR1	0	R1330D
61406.865	10.43	591919	COUNTDOWN_START	n/a	n/a	n/a	n/a	-999	3	[0, 0, 0]	n/a	catFR1	0	R1330D
61417.295	0.0	602348	COUNTDOWN_END	n/a	n/a	n/a	n/a	-999	3	[0, 0, 0]	n/a	catFR1	0	R1330D
61417.295	1.273	602348	ORIENT_START	n/a	n/a	n/a	n/a	-999	3	[0, 0, 0]	n/a	catFR1	0	R1330D
61418.568	0.0	603621	ORIENT_END	n/a	n/a	n/a	n/a	-999	3	[0, 0, 0]	n/a	catFR1	0	R1330D
61418.568	1.071	603621	ENCODING_START	n/a	n/a	n/a	n/a	-999	3	[0, 0, 0]	n/a	catFR1	0	R1330D
61419.639	1.629	604692	WORD	n/a	wordpools/wordpool_categorized_EN.txt	VACUUM	Appliances	1	3	[0, 0, 0]	n/a	catFR1	0	R1330D
61421.268	0.805	606321	WORD_OFF	n/a	n/a	VACUUM	Appliances	1	3	[0, 0, 0]	n/a	catFR1	0	R1330D
61422.073	1.612	607126	WORD	n/a	wordpools/wordpool_categorized_EN.txt	STOVE	Appliances	2	3	[0, 0, 0]	n/a	catFR1	0	R1330D
61423.685	0.908	608738	WORD_OFF	n/a	n/a	STOVE	Appliances	2	3	[0, 0, 0]	n/a	catFR1	0	R1330D
61424.593	1.625	609646	WORD	n/a	wordpools/wordpool_categorized_EN.txt	BEE	Insects	3	3	[0, 0, 0]	n/a	catFR1	0	R1330D
61426.218	1.119	611271	WORD_OFF	n/a	n/a	BEE	Insects	3	3	[0, 0, 0]	n/a	catFR1	0	R1330D
61427.337	1.632	612390	WORD	n/a	wordpools/wordpool_categorized_EN.txt	SPIDER	Insects	4	3	[0, 0, 0]	n/a	catFR1	0	R1330D
61428.969	0.883	614022	WORD_OFF	n/a	n/a	SPIDER	Insects	4	3	[0, 0, 0]	n/a	catFR1	0	R1330D
61429.852	1.634	614905	WORD	n/a	wordpools/wordpool_categorized_EN.txt	OCEAN	Landscapes	5	3	[0, 0, 0]	n/a	catFR1	0	R1330D
61431.486	0.957	616539	WORD_OFF	n/a	n/a	OCEAN	Landscapes	5	3	[0, 0, 0]	n/a	catFR1	0	R1330D
61432.443	1.627	617496	WORD	n/a	wordpools/wordpool_categorized_EN.txt	RIVER	Landscapes	6	3	[0, 0, 0]	n/a	catFR1	0	R1330D
61434.07	0.791	619123	WORD_OFF	n/a	n/a	RIVER	Landscapes	6	3	[0, 0, 0]	n/a	catFR1	0	R1330D
61434.861	1.626	619913	WORD	n/a	wordpools/wordpool_categorized_EN.txt	GNAT	Insects	7	3	[0, 0, 0]	n/a	catFR1	0	R1330D
61436.487	1.065	621539	WORD_OFF	n/a	n/a	GNAT	Insects	7	3	[0, 0, 0]	n/a	catFR1	0	R1330D
61437.552	1.635	622604	WORD	n/a	wordpools/wordpool_categorized_EN.txt	CRICKET	Insects	8	3	[0, 0, 0]	n/a	catFR1	0	R1330D
61439.187	0.888	624239	WORD_OFF	n/a	n/a	CRICKET	Insects	8	3	[0, 0, 0]	n/a	catFR1	0	R1330D
61440.075	1.629	625127	WORD	n/a	wordpools/wordpool_categorized_EN.txt	MOUNTAIN	Landscapes	9	3	[0, 0, 0]	n/a	catFR1	0	R1330D
61441.704	0.809	626756	WORD_OFF	n/a	n/a	MOUNTAIN	Landscapes	9	3	[0, 0, 0]	n/a	catFR1	0	R1330D
61442.513	1.625	627565	WORD	n/a	wordpools/wordpool_categorized_EN.txt	WOODS	Landscapes	10	3	[0, 0, 0]	n/a	catFR1	0	R1330D
61444.138	1.133	629190	WORD_OFF	n/a	n/a	WOODS	Landscapes	10	3	[0, 0, 0]	n/a	catFR1	0	R1330D
61445.271	1.634	630323	WORD	n/a	wordpools/wordpool_categorized_EN.txt	REFRIGERATOR	Appliances	11	3	[0, 0, 0]	n/a	catFR1	0	R1330D
61446.905	0.962	631957	WORD_OFF	n/a	n/a	REFRIGERATOR	Appliances	11	3	[0, 0, 0]	n/a	catFR1	0	R1330D
61447.867	1.622	632919	WORD	n/a	wordpools/wordpool_categorized_EN.txt	MIXER	Appliances	12	3	[0, 0, 0]	n/a	catFR1	0	R1330D
61449.489	0.0	634541	WORD_OFF	n/a	n/a	MIXER	Appliances	12	3	[0, 0, 0]	n/a	catFR1	0	R1330D
61449.489	0.001	634541	ENCODING_END	n/a	n/a	n/a	n/a	-999	3	[0, 0, 0]	n/a	catFR1	0	R1330D
61449.49	0.0	634542	DISTRACT_START	n/a	n/a	n/a	n/a	-999	3	[0, 0, 0]	n/a	catFR1	0	R1330D
61449.49	0.016	634542	START	n/a	n/a	n/a	n/a	-999	3	[-999, -999, -999]	n/a	catFR1	0	R1330D
61449.506	10.652	634558	PROB	10.629	n/a	n/a	n/a	-999	3	[7, 3, 4]	14.0	catFR1	0	R1330D
61460.158	10.366	645209	PROB	10.366	n/a	n/a	n/a	-999	3	[8, 4, 3]	15.0	catFR1	0	R1330D
61470.524	0.019	655575	STOP	n/a	n/a	n/a	n/a	-999	3	[-999, -999, -999]	n/a	catFR1	0	R1330D
61470.543	0.63	655594	DISTRACT_END	n/a	n/a	n/a	n/a	-999	3	[0, 0, 0]	n/a	catFR1	0	R1330D
61471.173	1.604	656223	RETRIEVAL_ORIENT_START	n/a	n/a	n/a	n/a	-999	3	[0, 0, 0]	n/a	catFR1	0	R1330D
61472.777	0.0	657827	RETRIEVAL_ORIENT_END	n/a	n/a	n/a	n/a	-999	3	[0, 0, 0]	n/a	catFR1	0	R1330D
61472.777	1.568	657827	REC_START	n/a	n/a	n/a	n/a	-999	3	[0, 0, 0]	n/a	catFR1	0	R1330D
61474.345	0.827	659395	REC_WORD	1.568	n/a	MOUNTAIN	Landscapes	9	3	[0, 0, 0]	n/a	catFR1	0	R1330D
61475.172	3.084	660222	REC_WORD	2.395	n/a	WOODS	Landscapes	10	3	[0, 0, 0]	n/a	catFR1	0	R1330D
61478.256	3.052	663306	REC_WORD_VV	5.479	n/a	<>	n/a	-999	3	[0, 0, 0]	n/a	catFR1	0	R1330D
61481.308	3.617	666358	REC_WORD	8.531	n/a	OCEAN	Landscapes	5	3	[0, 0, 0]	n/a	catFR1	0	R1330D
61484.925	1.0	669975	REC_WORD_VV	12.148	n/a	<>	n/a	-999	3	[0, 0, 0]	n/a	catFR1	0	R1330D
61485.925	1.51	670975	REC_WORD_VV	13.148	n/a	<>	n/a	-999	3	[0, 0, 0]	n/a	catFR1	0	R1330D
61487.435	2.386	672485	REC_WORD	14.658	n/a	GOAT	FarmAnimals	-999	3	[0, 0, 0]	n/a	catFR1	0	R1330D
61489.821	0.273	674870	REC_WORD_VV	17.044	n/a	<>	n/a	-999	3	[0, 0, 0]	n/a	catFR1	0	R1330D
61490.094	5.296	675143	REC_WORD	17.317	n/a	GOAT	FarmAnimals	-999	3	[0, 0, 0]	n/a	catFR1	0	R1330D
61495.39	6.705	680439	REC_WORD	22.613	n/a	SPIDER	Insects	4	3	[0, 0, 0]	n/a	catFR1	0	R1330D
61502.095	0.695	687144	REC_WORD_VV	29.318	n/a	<>	n/a	-999	3	[0, 0, 0]	n/a	catFR1	0	R1330D
61502.79	0.0	687839	REC_END	n/a	n/a	n/a	n/a	-999	3	[0, 0, 0]	n/a	catFR1	0	R1330D
61502.79	0.022	687839	TRIAL_END	n/a	n/a	n/a	n/a	-999	3	[0, 0, 0]	n/a	catFR1	0	R1330D
61502.812	0.0	687861	TRIAL	n/a	n/a	n/a	n/a	-999	4	[0, 0, 0]	n/a	catFR1	0	R1330D
61502.812	0.001	687861	TRIAL_START	n/a	n/a	n/a	n/a	-999	4	[0, 0, 0]	n/a	catFR1	0	R1330D
61502.813	3.937	687862	WAITING_START	n/a	n/a	n/a	n/a	-999	4	[0, 0, 0]	n/a	catFR1	0	R1330D
61506.75	0.0	691799	WAITING_END	n/a	n/a	n/a	n/a	-999	4	[0, 0, 0]	n/a	catFR1	0	R1330D
61506.75	10.429	691799	COUNTDOWN_START	n/a	n/a	n/a	n/a	-999	4	[0, 0, 0]	n/a	catFR1	0	R1330D
61517.179	0.0	702227	COUNTDOWN_END	n/a	n/a	n/a	n/a	-999	4	[0, 0, 0]	n/a	catFR1	0	R1330D
61517.179	1.039	702227	ORIENT_START	n/a	n/a	n/a	n/a	-999	4	[0, 0, 0]	n/a	catFR1	0	R1330D
61518.218	0.001	703266	ORIENT_END	n/a	n/a	n/a	n/a	-999	4	[0, 0, 0]	n/a	catFR1	0	R1330D
61518.219	1.111	703267	ENCODING_START	n/a	n/a	n/a	n/a	-999	4	[0, 0, 0]	n/a	catFR1	0	R1330D
61519.33	1.622	704378	WORD	n/a	wordpools/wordpool_categorized_EN.txt	HILLS	Landscapes	1	4	[0, 0, 0]	n/a	catFR1	0	R1330D
61520.952	0.795	706000	WORD_OFF	n/a	n/a	HILLS	Landscapes	1	4	[0, 0, 0]	n/a	catFR1	0	R1330D
61521.747	1.622	706795	WORD	n/a	wordpools/wordpool_categorized_EN.txt	LAKE	Landscapes	2	4	[0, 0, 0]	n/a	catFR1	0	R1330D
61523.369	0.833	708417	WORD_OFF	n/a	n/a	LAKE	Landscapes	2	4	[0, 0, 0]	n/a	catFR1	0	R1330D
61524.202	1.634	709250	WORD	n/a	wordpools/wordpool_categorized_EN.txt	PLANKTON	OceanAnimals	3	4	[0, 0, 0]	n/a	catFR1	0	R1330D
61525.836	0.935	710883	WORD_OFF	n/a	n/a	PLANKTON	OceanAnimals	3	4	[0, 0, 0]	n/a	catFR1	0	R1330D
61526.771	1.632	711818	WORD	n/a	wordpools/wordpool_categorized_EN.txt	LOBSTER	OceanAnimals	4	4	[0, 0, 0]	n/a	catFR1	0	R1330D
61528.403	1.083	713450	WORD_OFF	n/a	n/a	LOBSTER	OceanAnimals	4	4	[0, 0, 0]	n/a	catFR1	0	R1330D
61529.486	1.635	714533	WORD	n/a	wordpools/wordpool_categorized_EN.txt	FOOTBALL	Toys	5	4	[0, 0, 0]	n/a	catFR1	0	R1330D
61531.121	0.848	716168	WORD_OFF	n/a	n/a	FOOTBALL	Toys	5	4	[0, 0, 0]	n/a	catFR1	0	R1330D
61531.969	1.636	717016	WORD	n/a	wordpools/wordpool_categorized_EN.txt	SLINKY	Toys	6	4	[0, 0, 0]	n/a	catFR1	0	R1330D
61533.605	0.962	718652	WORD_OFF	n/a	n/a	SLINKY	Toys	6	4	[0, 0, 0]	n/a	catFR1	0	R1330D
61534.567	1.638	719614	WORD	n/a	wordpools/wordpool_categorized_EN.txt	OCTOPUS	OceanAnimals	7	4	[0, 0, 0]	n/a	catFR1	0	R1330D
61536.205	1.088	721252	WORD_OFF	n/a	n/a	OCTOPUS	OceanAnimals	7	4	[0, 0, 0]	n/a	catFR1	0	R1330D
61537.293	1.629	722340	WORD	n/a	wordpools/wordpool_categorized_EN.txt	DOLPHIN	OceanAnimals	8	4	[0, 0, 0]	n/a	catFR1	0	R1330D
61538.922	0.839	723969	WORD_OFF	n/a	n/a	DOLPHIN	OceanAnimals	8	4	[0, 0, 0]	n/a	catFR1	0	R1330D
61539.761	1.628	724808	WORD	n/a	wordpools/wordpool_categorized_EN.txt	VALLEY	Landscapes	9	4	[0, 0, 0]	n/a	catFR1	0	R1330D
61541.389	1.115	726436	WORD_OFF	n/a	n/a	VALLEY	Landscapes	9	4	[0, 0, 0]	n/a	catFR1	0	R1330D
61542.504	1.636	727551	WORD	n/a	wordpools/wordpool_categorized_EN.txt	BEACH	Landscapes	10	4	[0, 0, 0]	n/a	catFR1	0	R1330D
61544.14	1.012	729186	WORD_OFF	n/a	n/a	BEACH	Landscapes	10	4	[0, 0, 0]	n/a	catFR1	0	R1330D
61545.152	1.638	730198	WORD	n/a	wordpools/wordpool_categorized_EN.txt	DOLLHOUSE	Toys	11	4	[0, 0, 0]	n/a	catFR1	0	R1330D
61546.79	1.14	731836	WORD_OFF	n/a	n/a	DOLLHOUSE	Toys	11	4	[0, 0, 0]	n/a	catFR1	0	R1330D
61547.93	1.628	732976	WORD	n/a	wordpools/wordpool_categorized_EN.txt	DOLL	Toys	12	4	[0, 0, 0]	n/a	catFR1	0	R1330D
61549.558	0.001	734604	WORD_OFF	n/a	n/a	DOLL	Toys	12	4	[0, 0, 0]	n/a	catFR1	0	R1330D
61549.559	0.0	734605	ENCODING_END	n/a	n/a	n/a	n/a	-999	4	[0, 0, 0]	n/a	catFR1	0	R1330D
61549.559	0.0	734605	DISTRACT_START	n/a	n/a	n/a	n/a	-999	4	[0, 0, 0]	n/a	catFR1	0	R1330D
61549.559	0.016	734605	START	n/a	n/a	n/a	n/a	-999	4	[-999, -999, -999]	n/a	catFR1	0	R1330D
61549.575	11.884	734621	PROB	11.855	n/a	n/a	n/a	-999	4	[2, 9, 6]	17.0	catFR1	0	R1330D
61561.459	7.002	746504	PROB	6.976	n/a	n/a	n/a	-999	4	[2, 1, 5]	8.0	catFR1	0	R1330D
61568.461	16.8	753506	PROB	16.8	n/a	n/a	n/a	-999	4	[6, 5, 8]	19.0	catFR1	0	R1330D
61585.261	0.019	770305	STOP	n/a	n/a	n/a	n/a	-999	4	[-999, -999, -999]	n/a	catFR1	0	R1330D
61585.28	0.645	770324	DISTRACT_END	n/a	n/a	n/a	n/a	-999	4	[0, 0, 0]	n/a	catFR1	0	R1330D
61585.925	1.674	770969	RETRIEVAL_ORIENT_START	n/a	n/a	n/a	n/a	-999	4	[0, 0, 0]	n/a	catFR1	0	R1330D
61587.599	0.0	772643	RETRIEVAL_ORIENT_END	n/a	n/a	n/a	n/a	-999	4	[0, 0, 0]	n/a	catFR1	0	R1330D
61587.599	2.201	772643	REC_START	n/a	n/a	n/a	n/a	-999	4	[0, 0, 0]	n/a	catFR1	0	R1330D
61589.8	2.468	774844	REC_WORD	2.201	n/a	OCEAN	Landscapes	-999	4	[0, 0, 0]	n/a	catFR1	0	R1330D
61592.268	1.0	777312	REC_WORD_VV	4.669	n/a	<>	n/a	-999	4	[0, 0, 0]	n/a	catFR1	0	R1330D
61593.268	0.151	778312	REC_WORD_VV	5.669	n/a	<>	n/a	-999	4	[0, 0, 0]	n/a	catFR1	0	R1330D
61593.419	1.94	778463	REC_WORD	5.82	n/a	DOLPHIN	OceanAnimals	8	4	[0, 0, 0]	n/a	catFR1	0	R1330D
61595.359	0.699	780403	REC_WORD_VV	7.76	n/a	<>	n/a	-999	4	[0, 0, 0]	n/a	catFR1	0	R1330D
61596.058	1.578	781102	REC_WORD	8.459	n/a	PLANKTON	OceanAnimals	3	4	[0, 0, 0]	n/a	catFR1	0	R1330D
61597.636	0.24	782679	REC_WORD_VV	10.037	n/a	<>	n/a	-999	4	[0, 0, 0]	n/a	catFR1	0	R1330D
61597.876	0.344	782919	REC_WORD	10.277	n/a	DOLL	Toys	12	4	[0, 0, 0]	n/a	catFR1	0	R1330D
61598.22	0.21	783263	REC_WORD_VV	10.621	n/a	<>	n/a	-999	4	[0, 0, 0]	n/a	catFR1	0	R1330D
61598.43	2.918	783473	REC_WORD	10.831	n/a	DOLLHOUSE	Toys	11	4	[0, 0, 0]	n/a	catFR1	0	R1330D
61601.348	2.888	786391	REC_WORD_VV	13.749	n/a	<>	n/a	-999	4	[0, 0, 0]	n/a	catFR1	0	R1330D
61604.236	0.77	789279	REC_WORD	16.637	n/a	HILLS	Landscapes	1	4	[0, 0, 0]	n/a	catFR1	0	R1330D
61605.006	2.383	790049	REC_WORD_VV	17.407	n/a	<>	n/a	-999	4	[0, 0, 0]	n/a	catFR1	0	R1330D
61607.389	0.457	792432	REC_WORD	19.79	n/a	HILLS	Landscapes	1	4	[0, 0, 0]	n/a	catFR1	0	R1330D
61607.846	9.765	792889	REC_WORD_VV	20.247	n/a	<>	n/a	-999	4	[0, 0, 0]	n/a	catFR1	0	R1330D
61617.611	0.001	802653	REC_END	n/a	n/a	n/a	n/a	-999	4	[0, 0, 0]	n/a	catFR1	0	R1330D
61617.612	0.023	802654	TRIAL_END	n/a	n/a	n/a	n/a	-999	4	[0, 0, 0]	n/a	catFR1	0	R1330D
61617.635	0.0	802677	TRIAL_START	n/a	n/a	n/a	n/a	-999	5	[0, 0, 0]	n/a	catFR1	0	R1330D
61617.635	0.0	802677	TRIAL	n/a	n/a	n/a	n/a	-999	5	[0, 0, 0]	n/a	catFR1	0	R1330D
61617.635	3.102	802677	WAITING_START	n/a	n/a	n/a	n/a	-999	5	[0, 0, 0]	n/a	catFR1	0	R1330D
61620.737	0.0	805779	WAITING_END	n/a	n/a	n/a	n/a	-999	5	[0, 0, 0]	n/a	catFR1	0	R1330D
61620.737	10.43	805779	COUNTDOWN_START	n/a	n/a	n/a	n/a	-999	5	[0, 0, 0]	n/a	catFR1	0	R1330D
61631.167	0.001	816209	COUNTDOWN_END	n/a	n/a	n/a	n/a	-999	5	[0, 0, 0]	n/a	catFR1	0	R1330D
61631.168	1.154	816210	ORIENT_START	n/a	n/a	n/a	n/a	-999	5	[0, 0, 0]	n/a	catFR1	0	R1330D
61632.322	0.001	817364	ORIENT_END	n/a	n/a	n/a	n/a	-999	5	[0, 0, 0]	n/a	catFR1	0	R1330D
61632.323	0.899	817365	ENCODING_START	n/a	n/a	n/a	n/a	-999	5	[0, 0, 0]	n/a	catFR1	0	R1330D
61633.222	1.634	818264	WORD	n/a	wordpools/wordpool_categorized_EN.txt	CROW	Birds	1	5	[0, 0, 0]	n/a	catFR1	0	R1330D
61634.856	0.984	819897	WORD_OFF	n/a	n/a	CROW	Birds	1	5	[0, 0, 0]	n/a	catFR1	0	R1330D
61635.84	1.633	820881	WORD	n/a	wordpools/wordpool_categorized_EN.txt	HAWK	Birds	2	5	[0, 0, 0]	n/a	catFR1	0	R1330D
61637.473	0.96	822514	WORD_OFF	n/a	n/a	HAWK	Birds	2	5	[0, 0, 0]	n/a	catFR1	0	R1330D
61638.433	1.624	823474	WORD	n/a	wordpools/wordpool_categorized_EN.txt	ORCHID	Flowers	3	5	[0, 0, 0]	n/a	catFR1	0	R1330D
61640.057	0.787	825098	WORD_OFF	n/a	n/a	ORCHID	Flowers	3	5	[0, 0, 0]	n/a	catFR1	0	R1330D
61640.844	1.63	825885	WORD	n/a	wordpools/wordpool_categorized_EN.txt	LILAC	Flowers	4	5	[0, 0, 0]	n/a	catFR1	0	R1330D
61642.474	1.084	827515	WORD_OFF	n/a	n/a	LILAC	Flowers	4	5	[0, 0, 0]	n/a	catFR1	0	R1330D
61643.558	1.633	828599	WORD	n/a	wordpools/wordpool_categorized_EN.txt	LION	Zoo	5	5	[0, 0, 0]	n/a	catFR1	0	R1330D
61645.191	1.035	830232	WORD_OFF	n/a	n/a	LION	Zoo	5	5	[0, 0, 0]	n/a	catFR1	0	R1330D
61646.226	1.633	831267	WORD	n/a	wordpools/wordpool_categorized_EN.txt	ORANGUTAN	Zoo	6	5	[0, 0, 0]	n/a	catFR1	0	R1330D
61647.859	0.798	832900	WORD_OFF	n/a	n/a	ORANGUTAN	Zoo	6	5	[0, 0, 0]	n/a	catFR1	0	R1330D
61648.657	1.635	833698	WORD	n/a	wordpools/wordpool_categorized_EN.txt	MARIGOLD	Flowers	7	5	[0, 0, 0]	n/a	catFR1	0	R1330D
61650.292	0.969	835333	WORD_OFF	n/a	n/a	MARIGOLD	Flowers	7	5	[0, 0, 0]	n/a	catFR1	0	R1330D
61651.261	1.632	836302	WORD	n/a	wordpools/wordpool_categorized_EN.txt	TULIP	Flowers	8	5	[0, 0, 0]	n/a	catFR1	0	R1330D
61652.893	1.092	837933	WORD_OFF	n/a	n/a	TULIP	Flowers	8	5	[0, 0, 0]	n/a	catFR1	0	R1330D
61653.985	1.626	839025	WORD	n/a	wordpools/wordpool_categorized_EN.txt	TIGER	Zoo	9	5	[0, 0, 0]	n/a	catFR1	0	R1330D
61655.611	0.792	840651	WORD_OFF	n/a	n/a	TIGER	Zoo	9	5	[0, 0, 0]	n/a	catFR1	0	R1330D
61656.403	1.624	841443	WORD	n/a	wordpools/wordpool_categorized_EN.txt	CHIMPANZEE	Zoo	10	5	[0, 0, 0]	n/a	catFR1	0	R1330D
61658.027	1.133	843067	WORD_OFF	n/a	n/a	CHIMPANZEE	Zoo	10	5	[0, 0, 0]	n/a	catFR1	0	R1330D
61659.16	1.634	844200	WORD	n/a	wordpools/wordpool_categorized_EN.txt	ROBIN	Birds	11	5	[0, 0, 0]	n/a	catFR1	0	R1330D
61660.794	0.83	845834	WORD_OFF	n/a	n/a	ROBIN	Birds	11	5	[0, 0, 0]	n/a	catFR1	0	R1330D
61661.624	1.637	846664	WORD	n/a	wordpools/wordpool_categorized_EN.txt	SEAGULL	Birds	12	5	[0, 0, 0]	n/a	catFR1	0	R1330D
61663.261	0.001	848301	WORD_OFF	n/a	n/a	SEAGULL	Birds	12	5	[0, 0, 0]	n/a	catFR1	0	R1330D
61663.262	0.0	848302	ENCODING_END	n/a	n/a	n/a	n/a	-999	5	[0, 0, 0]	n/a	catFR1	0	R1330D
61663.262	0.0	848302	DISTRACT_START	n/a	n/a	n/a	n/a	-999	5	[0, 0, 0]	n/a	catFR1	0	R1330D
61663.262	0.016	848302	START	n/a	n/a	n/a	n/a	-999	5	[-999, -999, -999]	n/a	catFR1	0	R1330D
61663.278	10.002	848318	PROB	9.973	n/a	n/a	n/a	-999	5	[9, 1, 8]	18.0	catFR1	0	R1330D
61673.28	8.668	858319	PROB	8.636	n/a	n/a	n/a	-999	5	[7, 7, 3]	17.0	catFR1	0	R1330D
61681.948	5.985	866987	PROB	5.985	n/a	n/a	n/a	-999	5	[6, 4, 1]	11.0	catFR1	0	R1330D
61687.933	0.016	872971	STOP	n/a	n/a	n/a	n/a	-999	5	[-999, -999, -999]	n/a	catFR1	0	R1330D
61687.949	0.524	872987	DISTRACT_END	n/a	n/a	n/a	n/a	-999	5	[0, 0, 0]	n/a	catFR1	0	R1330D
61688.473	1.627	873511	RETRIEVAL_ORIENT_START	n/a	n/a	n/a	n/a	-999	5	[0, 0, 0]	n/a	catFR1	0	R1330D
61690.1	0.0	875138	RETRIEVAL_ORIENT_END	n/a	n/a	n/a	n/a	-999	5	[0, 0, 0]	n/a	catFR1	0	R1330D
61690.1	2.253	875138	REC_START	n/a	n/a	n/a	n/a	-999	5	[0, 0, 0]	n/a	catFR1	0	R1330D
61692.353	2.245	877391	REC_WORD	2.253	n/a	ORANGUTAN	Zoo	6	5	[0, 0, 0]	n/a	catFR1	0	R1330D
61694.598	3.922	879636	REC_WORD	4.498	n/a	CHIMPANZEE	Zoo	10	5	[0, 0, 0]	n/a	catFR1	0	R1330D
61698.52	1.909	883558	REC_WORD	8.42	n/a	MARIGOLD	Flowers	7	5	[0, 0, 0]	n/a	catFR1	0	R1330D
61700.429	4.174	885467	REC_WORD	10.329	n/a	TULIP	Flowers	8	5	[0, 0, 0]	n/a	catFR1	0	R1330D
61704.603	1.811	889641	REC_WORD_VV	14.503	n/a	<>	n/a	-999	5	[0, 0, 0]	n/a	catFR1	0	R1330D
61706.414	1.0	891451	REC_WORD_VV	16.314	n/a	<>	n/a	-999	5	[0, 0, 0]	n/a	catFR1	0	R1330D
61707.414	12.698	892451	REC_WORD_VV	17.314	n/a	<>	n/a	-999	5	[0, 0, 0]	n/a	catFR1	0	R1330D
61720.112	0.0	905149	REC_END	n/a	n/a	n/a	n/a	-999	5	[0, 0, 0]	n/a	catFR1	0	R1330D
61720.112	0.022	905149	TRIAL_END	n/a	n/a	n/a	n/a	-999	5	[0, 0, 0]	n/a	catFR1	0	R1330D
61720.134	0.001	905171	TRIAL_START	n/a	n/a	n/a	n/a	-999	6	[0, 0, 0]	n/a	catFR1	0	R1330D
61720.135	0.0	905172	WAITING_START	n/a	n/a	n/a	n/a	-999	6	[0, 0, 0]	n/a	catFR1	0	R1330D
61720.135	3.604	905172	TRIAL	n/a	n/a	n/a	n/a	-999	6	[0, 0, 0]	n/a	catFR1	0	R1330D
61723.739	0.0	908775	WAITING_END	n/a	n/a	n/a	n/a	-999	6	[0, 0, 0]	n/a	catFR1	0	R1330D
61723.739	10.429	908775	COUNTDOWN_START	n/a	n/a	n/a	n/a	-999	6	[0, 0, 0]	n/a	catFR1	0	R1330D
61734.168	0.001	919204	COUNTDOWN_END	n/a	n/a	n/a	n/a	-999	6	[0, 0, 0]	n/a	catFR1	0	R1330D
61734.169	1.172	919205	ORIENT_START	n/a	n/a	n/a	n/a	-999	6	[0, 0, 0]	n/a	catFR1	0	R1330D
61735.341	0.0	920377	ORIENT_END	n/a	n/a	n/a	n/a	-999	6	[0, 0, 0]	n/a	catFR1	0	R1330D
61735.341	1.14	920377	ENCODING_START	n/a	n/a	n/a	n/a	-999	6	[0, 0, 0]	n/a	catFR1	0	R1330D
61736.481	1.627	921517	WORD	n/a	wordpools/wordpool_categorized_EN.txt	HEN	FarmAnimals	1	6	[0, 0, 0]	n/a	catFR1	0	R1330D
61738.108	0.933	923144	WORD_OFF	n/a	n/a	HEN	FarmAnimals	1	6	[0, 0, 0]	n/a	catFR1	0	R1330D
61739.041	1.619	924077	WORD	n/a	wordpools/wordpool_categorized_EN.txt	TURKEY	FarmAnimals	2	6	[0, 0, 0]	n/a	catFR1	0	R1330D
61740.66	0.785	925696	WORD_OFF	n/a	n/a	TURKEY	FarmAnimals	2	6	[0, 0, 0]	n/a	catFR1	0	R1330D
61741.445	1.631	926481	WORD	n/a	wordpools/wordpool_categorized_EN.txt	PEN	OfficeSupplies	3	6	[0, 0, 0]	n/a	catFR1	0	R1330D
61743.076	1.036	928111	WORD_OFF	n/a	n/a	PEN	OfficeSupplies	3	6	[0, 0, 0]	n/a	catFR1	0	R1330D
61744.112	1.631	929147	WORD	n/a	wordpools/wordpool_categorized_EN.txt	RULER	OfficeSupplies	4	6	[0, 0, 0]	n/a	catFR1	0	R1330D
61745.743	1.068	930778	WORD_OFF	n/a	n/a	RULER	OfficeSupplies	4	6	[0, 0, 0]	n/a	catFR1	0	R1330D
61746.811	1.632	931846	WORD	n/a	wordpools/wordpool_categorized_EN.txt	BUS	Vehicles	5	6	[0, 0, 0]	n/a	catFR1	0	R1330D
61748.443	0.946	933478	WORD_OFF	n/a	n/a	BUS	Vehicles	5	6	[0, 0, 0]	n/a	catFR1	0	R1330D
61749.389	1.622	934424	WORD	n/a	wordpools/wordpool_categorized_EN.txt	CAR	Vehicles	6	6	[0, 0, 0]	n/a	catFR1	0	R1330D
61751.011	0.798	936046	WORD_OFF	n/a	n/a	CAR	Vehicles	6	6	[0, 0, 0]	n/a	catFR1	0	R1330D
61751.809	1.635	936844	WORD	n/a	wordpools/wordpool_categorized_EN.txt	LAMB	FarmAnimals	7	6	[0, 0, 0]	n/a	catFR1	0	R1330D
61753.444	1.026	938479	WORD_OFF	n/a	n/a	LAMB	FarmAnimals	7	6	[0, 0, 0]	n/a	catFR1	0	R1330D
61754.47	1.625	939505	WORD	n/a	wordpools/wordpool_categorized_EN.txt	CHICKEN	FarmAnimals	8	6	[0, 0, 0]	n/a	catFR1	0	R1330D
61756.095	0.81	941130	WORD_OFF	n/a	n/a	CHICKEN	FarmAnimals	8	6	[0, 0, 0]	n/a	catFR1	0	R1330D
61756.905	1.624	941940	WORD	n/a	wordpools/wordpool_categorized_EN.txt	BIKE	Vehicles	9	6	[0, 0, 0]	n/a	catFR1	0	R1330D
61758.529	1.057	943564	WORD_OFF	n/a	n/a	BIKE	Vehicles	9	6	[0, 0, 0]	n/a	catFR1	0	R1330D
61759.586	1.626	944621	WORD	n/a	wordpools/wordpool_categorized_EN.txt	MOTORCYCLE	Vehicles	10	6	[0, 0, 0]	n/a	catFR1	0	R1330D
61761.212	0.909	946246	WORD_OFF	n/a	n/a	MOTORCYCLE	Vehicles	10	6	[0, 0, 0]	n/a	catFR1	0	R1330D
61762.121	1.625	947155	WORD	n/a	wordpools/wordpool_categorized_EN.txt	ERASER	OfficeSupplies	11	6	[0, 0, 0]	n/a	catFR1	0	R1330D
61763.746	1.112	948780	WORD_OFF	n/a	n/a	ERASER	OfficeSupplies	11	6	[0, 0, 0]	n/a	catFR1	0	R1330D
61764.858	1.622	949892	WORD	n/a	wordpools/wordpool_categorized_EN.txt	FOLDER	OfficeSupplies	12	6	[0, 0, 0]	n/a	catFR1	0	R1330D
61766.48	0.0	951514	WORD_OFF	n/a	n/a	FOLDER	OfficeSupplies	12	6	[0, 0, 0]	n/a	catFR1	0	R1330D
61766.48	0.001	951514	ENCODING_END	n/a	n/a	n/a	n/a	-999	6	[0, 0, 0]	n/a	catFR1	0	R1330D
61766.481	0.0	951515	DISTRACT_START	n/a	n/a	n/a	n/a	-999	6	[0, 0, 0]	n/a	catFR1	0	R1330D
61766.481	0.016	951515	START	n/a	n/a	n/a	n/a	-999	6	[-999, -999, -999]	n/a	catFR1	0	R1330D
61766.497	8.218	951531	PROB	8.194	n/a	n/a	n/a	-999	6	[7, 7, 5]	19.0	catFR1	0	R1330D
61774.715	7.151	959749	PROB	7.12	n/a	n/a	n/a	-999	6	[7, 6, 1]	14.0	catFR1	0	R1330D
61781.866	6.233	966899	PROB	6.233	n/a	n/a	n/a	-999	6	[8, 5, 1]	14.0	catFR1	0	R1330D
61788.099	0.018	973132	STOP	n/a	n/a	n/a	n/a	-999	6	[-999, -999, -999]	n/a	catFR1	0	R1330D
61788.117	0.686	973150	DISTRACT_END	n/a	n/a	n/a	n/a	-999	6	[0, 0, 0]	n/a	catFR1	0	R1330D
61788.803	1.681	973836	RETRIEVAL_ORIENT_START	n/a	n/a	n/a	n/a	-999	6	[0, 0, 0]	n/a	catFR1	0	R1330D
61790.484	0.001	975517	RETRIEVAL_ORIENT_END	n/a	n/a	n/a	n/a	-999	6	[0, 0, 0]	n/a	catFR1	0	R1330D
61790.485	2.187	975518	REC_START	n/a	n/a	n/a	n/a	-999	6	[0, 0, 0]	n/a	catFR1	0	R1330D
61792.672	2.147	977705	REC_WORD	2.187	n/a	ERASER	OfficeSupplies	11	6	[0, 0, 0]	n/a	catFR1	0	R1330D
61794.819	1.0	979852	REC_WORD_VV	4.334	n/a	<>	n/a	-999	6	[0, 0, 0]	n/a	catFR1	0	R1330D
61795.819	1.0	980852	REC_WORD_VV	5.334	n/a	<>	n/a	-999	6	[0, 0, 0]	n/a	catFR1	0	R1330D
61796.819	6.567	981851	REC_WORD_VV	6.334	n/a	<>	n/a	-999	6	[0, 0, 0]	n/a	catFR1	0	R1330D
61803.386	1.0	988418	REC_WORD_VV	12.901	n/a	<>	n/a	-999	6	[0, 0, 0]	n/a	catFR1	0	R1330D
61804.386	16.109	989418	REC_WORD_VV	13.901	n/a	<>	n/a	-999	6	[0, 0, 0]	n/a	catFR1	0	R1330D
61820.495	0.0	1005526	REC_END	n/a	n/a	n/a	n/a	-999	6	[0, 0, 0]	n/a	catFR1	0	R1330D
61820.495	0.025	1005526	TRIAL_END	n/a	n/a	n/a	n/a	-999	6	[0, 0, 0]	n/a	catFR1	0	R1330D
61820.52	0.001	1005551	TRIAL_START	n/a	n/a	n/a	n/a	-999	7	[0, 0, 0]	n/a	catFR1	0	R1330D
61820.521	0.0	1005552	TRIAL	n/a	n/a	n/a	n/a	-999	7	[0, 0, 0]	n/a	catFR1	0	R1330D
61820.521	6.787	1005552	WAITING_START	n/a	n/a	n/a	n/a	-999	7	[0, 0, 0]	n/a	catFR1	0	R1330D
61827.308	0.0	1012339	WAITING_END	n/a	n/a	n/a	n/a	-999	7	[0, 0, 0]	n/a	catFR1	0	R1330D
61827.308	10.429	1012339	COUNTDOWN_START	n/a	n/a	n/a	n/a	-999	7	[0, 0, 0]	n/a	catFR1	0	R1330D
61837.737	0.0	1022767	ORIENT_START	n/a	n/a	n/a	n/a	-999	7	[0, 0, 0]	n/a	catFR1	0	R1330D
61837.737	1.156	1022767	COUNTDOWN_END	n/a	n/a	n/a	n/a	-999	7	[0, 0, 0]	n/a	catFR1	0	R1330D
61838.893	0.001	1023923	ORIENT_END	n/a	n/a	n/a	n/a	-999	7	[0, 0, 0]	n/a	catFR1	0	R1330D
61838.894	0.908	1023924	ENCODING_START	n/a	n/a	n/a	n/a	-999	7	[0, 0, 0]	n/a	catFR1	0	R1330D
61839.802	1.625	1024832	WORD	n/a	wordpools/wordpool_categorized_EN.txt	DRESS	Clothing	1	7	[0, 0, 0]	n/a	catFR1	0	R1330D
61841.427	1.095	1026457	WORD_OFF	n/a	n/a	DRESS	Clothing	1	7	[0, 0, 0]	n/a	catFR1	0	R1330D
61842.522	1.622	1027552	WORD	n/a	wordpools/wordpool_categorized_EN.txt	SHORTS	Clothing	2	7	[0, 0, 0]	n/a	catFR1	0	R1330D
61844.144	0.956	1029174	WORD_OFF	n/a	n/a	SHORTS	Clothing	2	7	[0, 0, 0]	n/a	catFR1	0	R1330D
61845.1	1.628	1030130	WORD	n/a	wordpools/wordpool_categorized_EN.txt	BROWNIES	Desserts	3	7	[0, 0, 0]	n/a	catFR1	0	R1330D
61846.728	0.828	1031758	WORD_OFF	n/a	n/a	BROWNIES	Desserts	3	7	[0, 0, 0]	n/a	catFR1	0	R1330D
61847.556	1.622	1032586	WORD	n/a	wordpools/wordpool_categorized_EN.txt	PIE	Desserts	4	7	[0, 0, 0]	n/a	catFR1	0	R1330D
61849.178	1.127	1034208	WORD_OFF	n/a	n/a	PIE	Desserts	4	7	[0, 0, 0]	n/a	catFR1	0	R1330D
61850.305	1.624	1035334	WORD	n/a	wordpools/wordpool_categorized_EN.txt	SQUID	OceanAnimals	5	7	[0, 0, 0]	n/a	catFR1	0	R1330D
61851.929	0.793	1036958	WORD_OFF	n/a	n/a	SQUID	OceanAnimals	5	7	[0, 0, 0]	n/a	catFR1	0	R1330D
61852.722	1.624	1037751	WORD	n/a	wordpools/wordpool_categorized_EN.txt	FISH	OceanAnimals	6	7	[0, 0, 0]	n/a	catFR1	0	R1330D
61854.346	1.142	1039375	WORD_OFF	n/a	n/a	FISH	OceanAnimals	6	7	[0, 0, 0]	n/a	catFR1	0	R1330D
61855.488	1.625	1040517	WORD	n/a	wordpools/wordpool_categorized_EN.txt	CHEESECAKE	Desserts	7	7	[0, 0, 0]	n/a	catFR1	0	R1330D
61857.113	0.86	1042142	WORD_OFF	n/a	n/a	CHEESECAKE	Desserts	7	7	[0, 0, 0]	n/a	catFR1	0	R1330D
61857.973	1.608	1043002	WORD	n/a	wordpools/wordpool_categorized_EN.txt	PASTRY	Desserts	8	7	[0, 0, 0]	n/a	catFR1	0	R1330D
61859.581	0.838	1044610	WORD_OFF	n/a	n/a	PASTRY	Desserts	8	7	[0, 0, 0]	n/a	catFR1	0	R1330D
61860.419	1.629	1045448	WORD	n/a	wordpools/wordpool_categorized_EN.txt	JACKET	Clothing	9	7	[0, 0, 0]	n/a	catFR1	0	R1330D
61862.048	1.122	1047077	WORD_OFF	n/a	n/a	JACKET	Clothing	9	7	[0, 0, 0]	n/a	catFR1	0	R1330D
61863.17	1.628	1048199	WORD	n/a	wordpools/wordpool_categorized_EN.txt	JEANS	Clothing	10	7	[0, 0, 0]	n/a	catFR1	0	R1330D
61864.798	0.985	1049827	WORD_OFF	n/a	n/a	JEANS	Clothing	10	7	[0, 0, 0]	n/a	catFR1	0	R1330D
61865.783	1.632	1050812	WORD	n/a	wordpools/wordpool_categorized_EN.txt	SHRIMP	OceanAnimals	11	7	[0, 0, 0]	n/a	catFR1	0	R1330D
61867.415	1.016	1052444	WORD_OFF	n/a	n/a	SHRIMP	OceanAnimals	11	7	[0, 0, 0]	n/a	catFR1	0	R1330D
61868.431	1.635	1053459	WORD	n/a	wordpools/wordpool_categorized_EN.txt	OYSTER	OceanAnimals	12	7	[0, 0, 0]	n/a	catFR1	0	R1330D
61870.066	0.0	1055094	WORD_OFF	n/a	n/a	OYSTER	OceanAnimals	12	7	[0, 0, 0]	n/a	catFR1	0	R1330D
61870.066	0.001	1055094	ENCODING_END	n/a	n/a	n/a	n/a	-999	7	[0, 0, 0]	n/a	catFR1	0	R1330D
61870.067	0.0	1055095	DISTRACT_START	n/a	n/a	n/a	n/a	-999	7	[0, 0, 0]	n/a	catFR1	0	R1330D
61870.067	0.015	1055095	START	n/a	n/a	n/a	n/a	-999	7	[-999, -999, -999]	n/a	catFR1	0	R1330D
61870.082	8.268	1055110	PROB	8.242	n/a	n/a	n/a	-999	7	[9, 5, 6]	18.0	catFR1	0	R1330D
61878.35	6.818	1063378	PROB	6.79	n/a	n/a	n/a	-999	7	[7, 7, 4]	18.0	catFR1	0	R1330D
61885.168	7.011	1070196	PROB	7.011	n/a	n/a	n/a	-999	7	[5, 9, 5]	19.0	catFR1	0	R1330D
61892.179	0.007	1077206	STOP	n/a	n/a	n/a	n/a	-999	7	[-999, -999, -999]	n/a	catFR1	0	R1330D
61892.186	0.574	1077213	DISTRACT_END	n/a	n/a	n/a	n/a	-999	7	[0, 0, 0]	n/a	catFR1	0	R1330D
61892.76	1.66	1077787	RETRIEVAL_ORIENT_START	n/a	n/a	n/a	n/a	-999	7	[0, 0, 0]	n/a	catFR1	0	R1330D
61894.42	0.0	1079447	RETRIEVAL_ORIENT_END	n/a	n/a	n/a	n/a	-999	7	[0, 0, 0]	n/a	catFR1	0	R1330D
61894.42	2.431	1079447	REC_START	n/a	n/a	n/a	n/a	-999	7	[0, 0, 0]	n/a	catFR1	0	R1330D
61896.851	1.907	1081878	REC_WORD	2.431	n/a	JEANS	Clothing	10	7	[0, 0, 0]	n/a	catFR1	0	R1330D
61898.758	4.458	1083785	REC_WORD	4.338	n/a	JACKET	Clothing	9	7	[0, 0, 0]	n/a	catFR1	0	R1330D
61903.216	2.998	1088243	REC_WORD	8.796	n/a	ORANGUTAN	Zoo	-999	7	[0, 0, 0]	n/a	catFR1	0	R1330D
61906.214	4.296	1091240	REC_WORD	11.794	n/a	CRACKER	n/a	-999	7	[0, 0, 0]	n/a	catFR1	0	R1330D
61910.51	2.549	1095536	REC_WORD	16.09	n/a	TULIP	Flowers	-999	7	[0, 0, 0]	n/a	catFR1	0	R1330D
61913.059	2.691	1098085	REC_WORD	18.639	n/a	BUNGEE CORD	n/a	-999	7	[0, 0, 0]	n/a	catFR1	0	R1330D
61915.75	1.0	1100776	REC_WORD_VV	21.33	n/a	<>	n/a	-999	7	[0, 0, 0]	n/a	catFR1	0	R1330D
61916.75	1.0	1101776	REC_WORD_VV	22.33	n/a	<>	n/a	-999	7	[0, 0, 0]	n/a	catFR1	0	R1330D
61917.75	4.114	1102776	REC_WORD_VV	23.33	n/a	<>	n/a	-999	7	[0, 0, 0]	n/a	catFR1	0	R1330D
61921.864	0.934	1106890	REC_WORD_VV	27.444	n/a	<>	n/a	-999	7	[0, 0, 0]	n/a	catFR1	0	R1330D
61922.798	1.633	1107823	REC_WORD	28.378	n/a	COFFEE	Beverages	-999	7	[0, 0, 0]	n/a	catFR1	0	R1330D
61924.431	0.001	1109456	REC_END	n/a	n/a	n/a	n/a	-999	7	[0, 0, 0]	n/a	catFR1	0	R1330D
61924.432	0.025	1109457	TRIAL_END	n/a	n/a	n/a	n/a	-999	7	[0, 0, 0]	n/a	catFR1	0	R1330D
61924.457	0.0	1109482	TRIAL_START	n/a	n/a	n/a	n/a	-999	8	[0, 0, 0]	n/a	catFR1	0	R1330D
61924.457	0.001	1109482	TRIAL	n/a	n/a	n/a	n/a	-999	8	[0, 0, 0]	n/a	catFR1	0	R1330D
61924.458	3.085	1109483	WAITING_START	n/a	n/a	n/a	n/a	-999	8	[0, 0, 0]	n/a	catFR1	0	R1330D
61927.543	0.0	1112568	WAITING_END	n/a	n/a	n/a	n/a	-999	8	[0, 0, 0]	n/a	catFR1	0	R1330D
61927.543	10.429	1112568	COUNTDOWN_START	n/a	n/a	n/a	n/a	-999	8	[0, 0, 0]	n/a	catFR1	0	R1330D
61937.972	0.0	1122997	COUNTDOWN_END	n/a	n/a	n/a	n/a	-999	8	[0, 0, 0]	n/a	catFR1	0	R1330D
61937.972	1.123	1122997	ORIENT_START	n/a	n/a	n/a	n/a	-999	8	[0, 0, 0]	n/a	catFR1	0	R1330D
61939.095	0.0	1124120	ENCODING_START	n/a	n/a	n/a	n/a	-999	8	[0, 0, 0]	n/a	catFR1	0	R1330D
61939.095	0.809	1124120	ORIENT_END	n/a	n/a	n/a	n/a	-999	8	[0, 0, 0]	n/a	catFR1	0	R1330D
61939.904	1.625	1124929	WORD	n/a	wordpools/wordpool_categorized_EN.txt	MOTH	Insects	1	8	[0, 0, 0]	n/a	catFR1	0	R1330D
61941.529	1.003	1126553	WORD_OFF	n/a	n/a	MOTH	Insects	1	8	[0, 0, 0]	n/a	catFR1	0	R1330D
61942.532	1.631	1127556	WORD	n/a	wordpools/wordpool_categorized_EN.txt	LADYBUG	Insects	2	8	[0, 0, 0]	n/a	catFR1	0	R1330D
61944.163	0.908	1129187	WORD_OFF	n/a	n/a	LADYBUG	Insects	2	8	[0, 0, 0]	n/a	catFR1	0	R1330D
61945.071	1.609	1130095	WORD	n/a	wordpools/wordpool_categorized_EN.txt	PINE	Trees	3	8	[0, 0, 0]	n/a	catFR1	0	R1330D
61946.68	0.755	1131704	WORD_OFF	n/a	n/a	PINE	Trees	3	8	[0, 0, 0]	n/a	catFR1	0	R1330D
61947.435	1.628	1132459	WORD	n/a	wordpools/wordpool_categorized_EN.txt	OAK	Trees	4	8	[0, 0, 0]	n/a	catFR1	0	R1330D
61949.063	0.906	1134087	WORD_OFF	n/a	n/a	OAK	Trees	4	8	[0, 0, 0]	n/a	catFR1	0	R1330D
61949.969	1.629	1134993	WORD	n/a	wordpools/wordpool_categorized_EN.txt	ELEPHANT	Zoo	5	8	[0, 0, 0]	n/a	catFR1	0	R1330D
61951.598	0.782	1136622	WORD_OFF	n/a	n/a	ELEPHANT	Zoo	5	8	[0, 0, 0]	n/a	catFR1	0	R1330D
61952.38	1.634	1137404	WORD	n/a	wordpools/wordpool_categorized_EN.txt	PANDA	Zoo	6	8	[0, 0, 0]	n/a	catFR1	0	R1330D
61954.014	0.942	1139038	WORD_OFF	n/a	n/a	PANDA	Zoo	6	8	[0, 0, 0]	n/a	catFR1	0	R1330D
61954.956	1.61	1139980	WORD	n/a	wordpools/wordpool_categorized_EN.txt	ELM	Trees	7	8	[0, 0, 0]	n/a	catFR1	0	R1330D
61956.566	0.906	1141590	WORD_OFF	n/a	n/a	ELM	Trees	7	8	[0, 0, 0]	n/a	catFR1	0	R1330D
61957.472	1.626	1142496	WORD	n/a	wordpools/wordpool_categorized_EN.txt	CYPRESS	Trees	8	8	[0, 0, 0]	n/a	catFR1	0	R1330D
61959.098	1.006	1144121	WORD_OFF	n/a	n/a	CYPRESS	Trees	8	8	[0, 0, 0]	n/a	catFR1	0	R1330D
61960.104	1.628	1145127	WORD	n/a	wordpools/wordpool_categorized_EN.txt	ROACH	Insects	9	8	[0, 0, 0]	n/a	catFR1	0	R1330D
61961.732	1.012	1146755	WORD_OFF	n/a	n/a	ROACH	Insects	9	8	[0, 0, 0]	n/a	catFR1	0	R1330D
61962.744	1.639	1147767	WORD	n/a	wordpools/wordpool_categorized_EN.txt	MOSQUITO	Insects	10	8	[0, 0, 0]	n/a	catFR1	0	R1330D
61964.383	1.061	1149406	WORD_OFF	n/a	n/a	MOSQUITO	Insects	10	8	[0, 0, 0]	n/a	catFR1	0	R1330D
61965.444	1.639	1150467	WORD	n/a	wordpools/wordpool_categorized_EN.txt	GORILLA	Zoo	11	8	[0, 0, 0]	n/a	catFR1	0	R1330D
61967.083	1.123	1152106	WORD_OFF	n/a	n/a	GORILLA	Zoo	11	8	[0, 0, 0]	n/a	catFR1	0	R1330D
61968.206	1.628	1153229	WORD	n/a	wordpools/wordpool_categorized_EN.txt	BEAR	Zoo	12	8	[0, 0, 0]	n/a	catFR1	0	R1330D
61969.834	0.0	1154857	DISTRACT_START	n/a	n/a	n/a	n/a	-999	8	[0, 0, 0]	n/a	catFR1	0	R1330D
61969.834	0.0	1154857	ENCODING_END	n/a	n/a	n/a	n/a	-999	8	[0, 0, 0]	n/a	catFR1	0	R1330D
61969.834	0.0	1154857	WORD_OFF	n/a	n/a	BEAR	Zoo	12	8	[0, 0, 0]	n/a	catFR1	0	R1330D
61969.834	0.016	1154857	START	n/a	n/a	n/a	n/a	-999	8	[-999, -999, -999]	n/a	catFR1	0	R1330D
61969.85	7.502	1154873	PROB	7.471	n/a	n/a	n/a	-999	8	[3, 8, 1]	12.0	catFR1	0	R1330D
61977.352	5.701	1162374	PROB	5.674	n/a	n/a	n/a	-999	8	[1, 5, 1]	7.0	catFR1	0	R1330D
61983.053	7.248	1168075	PROB	7.248	n/a	n/a	n/a	-999	8	[4, 7, 3]	14.0	catFR1	0	R1330D
61990.301	0.02	1175323	STOP	n/a	n/a	n/a	n/a	-999	8	[-999, -999, -999]	n/a	catFR1	0	R1330D
61990.321	0.551	1175343	DISTRACT_END	n/a	n/a	n/a	n/a	-999	8	[0, 0, 0]	n/a	catFR1	0	R1330D
61990.872	1.566	1175894	RETRIEVAL_ORIENT_START	n/a	n/a	n/a	n/a	-999	8	[0, 0, 0]	n/a	catFR1	0	R1330D
61992.438	0.0	1177460	RETRIEVAL_ORIENT_END	n/a	n/a	n/a	n/a	-999	8	[0, 0, 0]	n/a	catFR1	0	R1330D
61992.438	2.325	1177460	REC_START	n/a	n/a	n/a	n/a	-999	8	[0, 0, 0]	n/a	catFR1	0	R1330D
61994.763	14.855	1179784	REC_WORD	2.325	n/a	MOSQUITO	Insects	10	8	[0, 0, 0]	n/a	catFR1	0	R1330D
62009.618	1.0	1194639	REC_WORD_VV	17.18	n/a	<>	n/a	-999	8	[0, 0, 0]	n/a	catFR1	0	R1330D
62010.618	2.926	1195639	REC_WORD_VV	18.18	n/a	<>	n/a	-999	8	[0, 0, 0]	n/a	catFR1	0	R1330D
62013.544	8.904	1198564	REC_WORD	21.106	n/a	ROACH	Insects	9	8	[0, 0, 0]	n/a	catFR1	0	R1330D
62022.448	0.001	1207468	REC_END	n/a	n/a	n/a	n/a	-999	8	[0, 0, 0]	n/a	catFR1	0	R1330D
62022.449	0.021	1207469	TRIAL_END	n/a	n/a	n/a	n/a	-999	8	[0, 0, 0]	n/a	catFR1	0	R1330D
62022.47	0.0	1207490	WAITING_START	n/a	n/a	n/a	n/a	-999	9	[0, 0, 0]	n/a	catFR1	0	R1330D
62022.47	0.0	1207490	TRIAL	n/a	n/a	n/a	n/a	-999	9	[0, 0, 0]	n/a	catFR1	0	R1330D
62022.47	7.041	1207490	TRIAL_START	n/a	n/a	n/a	n/a	-999	9	[0, 0, 0]	n/a	catFR1	0	R1330D
62029.511	0.001	1214531	WAITING_END	n/a	n/a	n/a	n/a	-999	9	[0, 0, 0]	n/a	catFR1	0	R1330D
62029.512	10.428	1214532	COUNTDOWN_START	n/a	n/a	n/a	n/a	-999	9	[0, 0, 0]	n/a	catFR1	0	R1330D
62039.94	0.001	1224959	COUNTDOWN_END	n/a	n/a	n/a	n/a	-999	9	[0, 0, 0]	n/a	catFR1	0	R1330D
62039.941	1.206	1224960	ORIENT_START	n/a	n/a	n/a	n/a	-999	9	[0, 0, 0]	n/a	catFR1	0	R1330D
62041.147	0.0	1226166	ORIENT_END	n/a	n/a	n/a	n/a	-999	9	[0, 0, 0]	n/a	catFR1	0	R1330D
62041.147	1.075	1226166	ENCODING_START	n/a	n/a	n/a	n/a	-999	9	[0, 0, 0]	n/a	catFR1	0	R1330D
62042.222	1.625	1227241	WORD	n/a	wordpools/wordpool_categorized_EN.txt	CELLO	Instruments	1	9	[0, 0, 0]	n/a	catFR1	0	R1330D
62043.847	0.998	1228866	WORD_OFF	n/a	n/a	CELLO	Instruments	1	9	[0, 0, 0]	n/a	catFR1	0	R1330D
62044.845	1.636	1229864	WORD	n/a	wordpools/wordpool_categorized_EN.txt	TUBA	Instruments	2	9	[0, 0, 0]	n/a	catFR1	0	R1330D
62046.481	0.897	1231500	WORD_OFF	n/a	n/a	TUBA	Instruments	2	9	[0, 0, 0]	n/a	catFR1	0	R1330D
62047.378	1.637	1232397	WORD	n/a	wordpools/wordpool_categorized_EN.txt	CELERY	Vegetables	3	9	[0, 0, 0]	n/a	catFR1	0	R1330D
62049.015	0.753	1234033	WORD_OFF	n/a	n/a	CELERY	Vegetables	3	9	[0, 0, 0]	n/a	catFR1	0	R1330D
62049.768	1.631	1234786	WORD	n/a	wordpools/wordpool_categorized_EN.txt	BROCCOLI	Vegetables	4	9	[0, 0, 0]	n/a	catFR1	0	R1330D
62051.399	0.755	1236417	WORD_OFF	n/a	n/a	BROCCOLI	Vegetables	4	9	[0, 0, 0]	n/a	catFR1	0	R1330D
62052.154	1.628	1237172	WORD	n/a	wordpools/wordpool_categorized_EN.txt	MONKEY	Zoo	5	9	[0, 0, 0]	n/a	catFR1	0	R1330D
62053.782	0.783	1238800	WORD_OFF	n/a	n/a	MONKEY	Zoo	5	9	[0, 0, 0]	n/a	catFR1	0	R1330D
62054.565	1.634	1239583	WORD	n/a	wordpools/wordpool_categorized_EN.txt	GIRAFFE	Zoo	6	9	[0, 0, 0]	n/a	catFR1	0	R1330D
62056.199	0.999	1241217	WORD_OFF	n/a	n/a	GIRAFFE	Zoo	6	9	[0, 0, 0]	n/a	catFR1	0	R1330D
62057.198	1.635	1242216	WORD	n/a	wordpools/wordpool_categorized_EN.txt	ONION	Vegetables	7	9	[0, 0, 0]	n/a	catFR1	0	R1330D
62058.833	0.95	1243851	WORD_OFF	n/a	n/a	ONION	Vegetables	7	9	[0, 0, 0]	n/a	catFR1	0	R1330D
62059.783	1.634	1244801	WORD	n/a	wordpools/wordpool_categorized_EN.txt	PEAS	Vegetables	8	9	[0, 0, 0]	n/a	catFR1	0	R1330D
62061.417	0.968	1246435	WORD_OFF	n/a	n/a	PEAS	Vegetables	8	9	[0, 0, 0]	n/a	catFR1	0	R1330D
62062.385	1.633	1247403	WORD	n/a	wordpools/wordpool_categorized_EN.txt	CHEETAH	Zoo	9	9	[0, 0, 0]	n/a	catFR1	0	R1330D
62064.018	0.942	1249036	WORD_OFF	n/a	n/a	CHEETAH	Zoo	9	9	[0, 0, 0]	n/a	catFR1	0	R1330D
62064.96	1.626	1249978	WORD	n/a	wordpools/wordpool_categorized_EN.txt	ZEBRA	Zoo	10	9	[0, 0, 0]	n/a	catFR1	0	R1330D
62066.586	0.848	1251604	WORD_OFF	n/a	n/a	ZEBRA	Zoo	10	9	[0, 0, 0]	n/a	catFR1	0	R1330D
62067.434	1.635	1252451	WORD	n/a	wordpools/wordpool_categorized_EN.txt	FLUTE	Instruments	11	9	[0, 0, 0]	n/a	catFR1	0	R1330D
62069.069	0.791	1254086	WORD_OFF	n/a	n/a	FLUTE	Instruments	11	9	[0, 0, 0]	n/a	catFR1	0	R1330D
62069.86	1.626	1254877	WORD	n/a	wordpools/wordpool_categorized_EN.txt	DRUM	Instruments	12	9	[0, 0, 0]	n/a	catFR1	0	R1330D
62071.486	0.0	1256503	WORD_OFF	n/a	n/a	DRUM	Instruments	12	9	[0, 0, 0]	n/a	catFR1	0	R1330D
62071.486	0.0	1256503	ENCODING_END	n/a	n/a	n/a	n/a	-999	9	[0, 0, 0]	n/a	catFR1	0	R1330D
62071.486	0.001	1256503	DISTRACT_START	n/a	n/a	n/a	n/a	-999	9	[0, 0, 0]	n/a	catFR1	0	R1330D
62071.487	0.015	1256504	START	n/a	n/a	n/a	n/a	-999	9	[-999, -999, -999]	n/a	catFR1	0	R1330D
62071.502	6.135	1256519	PROB	6.108	n/a	n/a	n/a	-999	9	[1, 1, 7]	9.0	catFR1	0	R1330D
62077.637	5.001	1262654	PROB	4.972	n/a	n/a	n/a	-999	9	[2, 4, 6]	12.0	catFR1	0	R1330D
62082.638	8.384	1267655	PROB	8.351	n/a	n/a	n/a	-999	9	[7, 1, 4]	13.0	catFR1	0	R1330D
62091.022	5.102	1276038	PROB	5.102	n/a	n/a	n/a	-999	9	[6, 4, 1]	11.0	catFR1	0	R1330D
62096.124	0.016	1281140	STOP	n/a	n/a	n/a	n/a	-999	9	[-999, -999, -999]	n/a	catFR1	0	R1330D
62096.14	0.58	1281156	DISTRACT_END	n/a	n/a	n/a	n/a	-999	9	[0, 0, 0]	n/a	catFR1	0	R1330D
62096.72	1.67	1281736	RETRIEVAL_ORIENT_START	n/a	n/a	n/a	n/a	-999	9	[0, 0, 0]	n/a	catFR1	0	R1330D
62098.39	0.001	1283406	RETRIEVAL_ORIENT_END	n/a	n/a	n/a	n/a	-999	9	[0, 0, 0]	n/a	catFR1	0	R1330D
62098.391	2.809	1283407	REC_START	n/a	n/a	n/a	n/a	-999	9	[0, 0, 0]	n/a	catFR1	0	R1330D
62101.2	6.597	1286216	REC_WORD	2.809	n/a	ZEBRA	Zoo	10	9	[0, 0, 0]	n/a	catFR1	0	R1330D
62107.797	4.713	1292812	REC_WORD_VV	9.406	n/a	<>	n/a	-999	9	[0, 0, 0]	n/a	catFR1	0	R1330D
62112.51	5.191	1297525	REC_WORD	14.119	n/a	MONKEY	Zoo	5	9	[0, 0, 0]	n/a	catFR1	0	R1330D
62117.701	5.881	1302716	REC_WORD_VV	19.31	n/a	<>	n/a	-999	9	[0, 0, 0]	n/a	catFR1	0	R1330D
62123.582	1.0	1308596	REC_WORD_VV	25.191	n/a	<>	n/a	-999	9	[0, 0, 0]	n/a	catFR1	0	R1330D
62124.582	3.819	1309596	REC_WORD_VV	26.191	n/a	<>	n/a	-999	9	[0, 0, 0]	n/a	catFR1	0	R1330D
62128.401	0.0	1313415	REC_END	n/a	n/a	n/a	n/a	-999	9	[0, 0, 0]	n/a	catFR1	0	R1330D
62128.401	0.023	1313415	TRIAL_END	n/a	n/a	n/a	n/a	-999	9	[0, 0, 0]	n/a	catFR1	0	R1330D
62128.424	0.0	1313438	TRIAL_START	n/a	n/a	n/a	n/a	-999	10	[0, 0, 0]	n/a	catFR1	0	R1330D
62128.424	0.0	1313438	TRIAL	n/a	n/a	n/a	n/a	-999	10	[0, 0, 0]	n/a	catFR1	0	R1330D
62128.424	5.84	1313438	WAITING_START	n/a	n/a	n/a	n/a	-999	10	[0, 0, 0]	n/a	catFR1	0	R1330D
62134.264	0.0	1319278	WAITING_END	n/a	n/a	n/a	n/a	-999	10	[0, 0, 0]	n/a	catFR1	0	R1330D
62134.264	10.429	1319278	COUNTDOWN_START	n/a	n/a	n/a	n/a	-999	10	[0, 0, 0]	n/a	catFR1	0	R1330D
62144.693	0.001	1329706	COUNTDOWN_END	n/a	n/a	n/a	n/a	-999	10	[0, 0, 0]	n/a	catFR1	0	R1330D
62144.694	1.255	1329707	ORIENT_START	n/a	n/a	n/a	n/a	-999	10	[0, 0, 0]	n/a	catFR1	0	R1330D
62145.949	0.001	1330962	ORIENT_END	n/a	n/a	n/a	n/a	-999	10	[0, 0, 0]	n/a	catFR1	0	R1330D
62145.95	0.897	1330963	ENCODING_START	n/a	n/a	n/a	n/a	-999	10	[0, 0, 0]	n/a	catFR1	0	R1330D
62146.847	1.636	1331860	WORD	n/a	wordpools/wordpool_categorized_EN.txt	CALF	FarmAnimals	1	10	[0, 0, 0]	n/a	catFR1	0	R1330D
62148.483	0.797	1333496	WORD_OFF	n/a	n/a	CALF	FarmAnimals	1	10	[0, 0, 0]	n/a	catFR1	0	R1330D
62149.28	1.637	1334293	WORD	n/a	wordpools/wordpool_categorized_EN.txt	SHEEP	FarmAnimals	2	10	[0, 0, 0]	n/a	catFR1	0	R1330D
62150.917	0.935	1335930	WORD_OFF	n/a	n/a	SHEEP	FarmAnimals	2	10	[0, 0, 0]	n/a	catFR1	0	R1330D
62151.852	1.632	1336865	WORD	n/a	wordpools/wordpool_categorized_EN.txt	ORGAN	Instruments	3	10	[0, 0, 0]	n/a	catFR1	0	R1330D
62153.484	0.806	1338497	WORD_OFF	n/a	n/a	ORGAN	Instruments	3	10	[0, 0, 0]	n/a	catFR1	0	R1330D
62154.29	1.628	1339303	WORD	n/a	wordpools/wordpool_categorized_EN.txt	BASS	Instruments	4	10	[0, 0, 0]	n/a	catFR1	0	R1330D
62155.918	0.792	1340931	WORD_OFF	n/a	n/a	BASS	Instruments	4	10	[0, 0, 0]	n/a	catFR1	0	R1330D
62156.71	1.625	1341723	WORD	n/a	wordpools/wordpool_categorized_EN.txt	AXE	Tools	5	10	[0, 0, 0]	n/a	catFR1	0	R1330D
62158.335	1.009	1343347	WORD_OFF	n/a	n/a	AXE	Tools	5	10	[0, 0, 0]	n/a	catFR1	0	R1330D
62159.344	1.625	1344356	WORD	n/a	wordpools/wordpool_categorized_EN.txt	SCREWDRIVER	Tools	6	10	[0, 0, 0]	n/a	catFR1	0	R1330D
62160.969	0.839	1345981	WORD_OFF	n/a	n/a	SCREWDRIVER	Tools	6	10	[0, 0, 0]	n/a	catFR1	0	R1330D
62161.808	1.628	1346820	WORD	n/a	wordpools/wordpool_categorized_EN.txt	TROMBONE	Instruments	7	10	[0, 0, 0]	n/a	catFR1	0	R1330D
62163.436	0.926	1348448	WORD_OFF	n/a	n/a	TROMBONE	Instruments	7	10	[0, 0, 0]	n/a	catFR1	0	R1330D
62164.362	1.624	1349374	WORD	n/a	wordpools/wordpool_categorized_EN.txt	PIANO	Instruments	8	10	[0, 0, 0]	n/a	catFR1	0	R1330D
62165.986	0.883	1350998	WORD_OFF	n/a	n/a	PIANO	Instruments	8	10	[0, 0, 0]	n/a	catFR1	0	R1330D
62166.869	1.634	1351881	WORD	n/a	wordpools/wordpool_categorized_EN.txt	WRENCH	Tools	9	10	[0, 0, 0]	n/a	catFR1	0	R1330D
62168.503	1.142	1353515	WORD_OFF	n/a	n/a	WRENCH	Tools	9	10	[0, 0, 0]	n/a	catFR1	0	R1330D
62169.645	1.625	1354657	WORD	n/a	wordpools/wordpool_categorized_EN.txt	SHOVEL	Tools	10	10	[0, 0, 0]	n/a	catFR1	0	R1330D
62171.27	0.755	1356282	WORD_OFF	n/a	n/a	SHOVEL	Tools	10	10	[0, 0, 0]	n/a	catFR1	0	R1330D
62172.025	1.63	1357037	WORD	n/a	wordpools/wordpool_categorized_EN.txt	COW	FarmAnimals	11	10	[0, 0, 0]	n/a	catFR1	0	R1330D
62173.655	1.141	1358667	WORD_OFF	n/a	n/a	COW	FarmAnimals	11	10	[0, 0, 0]	n/a	catFR1	0	R1330D
62174.796	1.625	1359808	WORD	n/a	wordpools/wordpool_categorized_EN.txt	BULL	FarmAnimals	12	10	[0, 0, 0]	n/a	catFR1	0	R1330D
62176.421	0.001	1361432	WORD_OFF	n/a	n/a	BULL	FarmAnimals	12	10	[0, 0, 0]	n/a	catFR1	0	R1330D
62176.422	0.0	1361433	ENCODING_END	n/a	n/a	n/a	n/a	-999	10	[0, 0, 0]	n/a	catFR1	0	R1330D
62176.422	0.0	1361433	DISTRACT_START	n/a	n/a	n/a	n/a	-999	10	[0, 0, 0]	n/a	catFR1	0	R1330D
62176.422	0.016	1361433	START	n/a	n/a	n/a	n/a	-999	10	[-999, -999, -999]	n/a	catFR1	0	R1330D
62176.438	11.335	1361449	PROB	11.301	n/a	n/a	n/a	-999	10	[7, 4, 5]	16.0	catFR1	0	R1330D
62187.773	5.284	1372784	PROB	5.245	n/a	n/a	n/a	-999	10	[7, 8, 3]	18.0	catFR1	0	R1330D
62193.057	4.833	1378068	PROB	4.833	n/a	n/a	n/a	-999	10	[2, 7, 3]	12.0	catFR1	0	R1330D
62197.89	0.019	1382900	STOP	n/a	n/a	n/a	n/a	-999	10	[-999, -999, -999]	n/a	catFR1	0	R1330D
62197.909	0.575	1382919	DISTRACT_END	n/a	n/a	n/a	n/a	-999	10	[0, 0, 0]	n/a	catFR1	0	R1330D
62198.484	1.592	1383494	RETRIEVAL_ORIENT_START	n/a	n/a	n/a	n/a	-999	10	[0, 0, 0]	n/a	catFR1	0	R1330D
62200.076	0.0	1385086	RETRIEVAL_ORIENT_END	n/a	n/a	n/a	n/a	-999	10	[0, 0, 0]	n/a	catFR1	0	R1330D
62200.076	2.024	1385086	REC_START	n/a	n/a	n/a	n/a	-999	10	[0, 0, 0]	n/a	catFR1	0	R1330D
62202.1	2.03	1387110	REC_WORD	2.024	n/a	TROMBONE	Instruments	7	10	[0, 0, 0]	n/a	catFR1	0	R1330D
62204.13	5.81	1389140	REC_WORD	4.054	n/a	AXE	Tools	5	10	[0, 0, 0]	n/a	catFR1	0	R1330D
62209.94	0.755	1394950	REC_WORD	9.864	n/a	TROMBONE	Instruments	7	10	[0, 0, 0]	n/a	catFR1	0	R1330D
62210.695	0.678	1395705	REC_WORD	10.619	n/a	AXE	Tools	5	10	[0, 0, 0]	n/a	catFR1	0	R1330D
62211.373	12.484	1396382	REC_WORD	11.297	n/a	CELLO	Instruments	-999	10	[0, 0, 0]	n/a	catFR1	0	R1330D
62223.857	1.0	1408866	REC_WORD_VV	23.781	n/a	<>	n/a	-999	10	[0, 0, 0]	n/a	catFR1	0	R1330D
62224.857	1.0	1409866	REC_WORD_VV	24.781	n/a	<>	n/a	-999	10	[0, 0, 0]	n/a	catFR1	0	R1330D
62225.857	1.05	1410866	REC_WORD_VV	25.781	n/a	<>	n/a	-999	10	[0, 0, 0]	n/a	catFR1	0	R1330D
62226.907	3.179	1411916	REC_WORD_VV	26.831	n/a	<>	n/a	-999	10	[0, 0, 0]	n/a	catFR1	0	R1330D
62230.086	0.001	1415094	REC_END	n/a	n/a	n/a	n/a	-999	10	[0, 0, 0]	n/a	catFR1	0	R1330D
62230.087	0.024	1415095	TRIAL_END	n/a	n/a	n/a	n/a	-999	10	[0, 0, 0]	n/a	catFR1	0	R1330D
62230.111	0.0	1415119	TRIAL_START	n/a	n/a	n/a	n/a	-999	11	[0, 0, 0]	n/a	catFR1	0	R1330D
62230.111	0.0	1415119	TRIAL	n/a	n/a	n/a	n/a	-999	11	[0, 0, 0]	n/a	catFR1	0	R1330D
62230.111	6.621	1415119	WAITING_START	n/a	n/a	n/a	n/a	-999	11	[0, 0, 0]	n/a	catFR1	0	R1330D
62236.732	0.001	1421740	WAITING_END	n/a	n/a	n/a	n/a	-999	11	[0, 0, 0]	n/a	catFR1	0	R1330D
62236.733	10.429	1421741	COUNTDOWN_START	n/a	n/a	n/a	n/a	-999	11	[0, 0, 0]	n/a	catFR1	0	R1330D
62247.162	0.001	1432170	COUNTDOWN_END	n/a	n/a	n/a	n/a	-999	11	[0, 0, 0]	n/a	catFR1	0	R1330D
62247.163	1.205	1432171	ORIENT_START	n/a	n/a	n/a	n/a	-999	11	[0, 0, 0]	n/a	catFR1	0	R1330D
62248.368	0.0	1433375	ENCODING_START	n/a	n/a	n/a	n/a	-999	11	[0, 0, 0]	n/a	catFR1	0	R1330D
62248.368	1.058	1433375	ORIENT_END	n/a	n/a	n/a	n/a	-999	11	[0, 0, 0]	n/a	catFR1	0	R1330D
62249.426	1.626	1434433	WORD	n/a	wordpools/wordpool_categorized_EN.txt	GOOSE	Birds	1	11	[0, 0, 0]	n/a	catFR1	0	R1330D
62251.052	0.87	1436059	WORD_OFF	n/a	n/a	GOOSE	Birds	1	11	[0, 0, 0]	n/a	catFR1	0	R1330D
62251.922	1.631	1436929	WORD	n/a	wordpools/wordpool_categorized_EN.txt	FINCH	Birds	2	11	[0, 0, 0]	n/a	catFR1	0	R1330D
62253.553	0.991	1438560	WORD_OFF	n/a	n/a	FINCH	Birds	2	11	[0, 0, 0]	n/a	catFR1	0	R1330D
62254.544	1.625	1439551	WORD	n/a	wordpools/wordpool_categorized_EN.txt	ELBOW	BodyParts	3	11	[0, 0, 0]	n/a	catFR1	0	R1330D
62256.169	1.069	1441176	WORD_OFF	n/a	n/a	ELBOW	BodyParts	3	11	[0, 0, 0]	n/a	catFR1	0	R1330D
62257.238	1.615	1442245	WORD	n/a	wordpools/wordpool_categorized_EN.txt	FINGERS	BodyParts	4	11	[0, 0, 0]	n/a	catFR1	0	R1330D
62258.853	0.895	1443860	WORD_OFF	n/a	n/a	FINGERS	BodyParts	4	11	[0, 0, 0]	n/a	catFR1	0	R1330D
62259.748	1.639	1444755	WORD	n/a	wordpools/wordpool_categorized_EN.txt	TURTLE	OceanAnimals	5	11	[0, 0, 0]	n/a	catFR1	0	R1330D
62261.387	0.941	1446394	WORD_OFF	n/a	n/a	TURTLE	OceanAnimals	5	11	[0, 0, 0]	n/a	catFR1	0	R1330D
62262.328	1.626	1447335	WORD	n/a	wordpools/wordpool_categorized_EN.txt	CRAB	OceanAnimals	6	11	[0, 0, 0]	n/a	catFR1	0	R1330D
62263.954	1.035	1448961	WORD_OFF	n/a	n/a	CRAB	OceanAnimals	6	11	[0, 0, 0]	n/a	catFR1	0	R1330D
62264.989	1.633	1449996	WORD	n/a	wordpools/wordpool_categorized_EN.txt	ARM	BodyParts	7	11	[0, 0, 0]	n/a	catFR1	0	R1330D
62266.622	1.144	1451628	WORD_OFF	n/a	n/a	ARM	BodyParts	7	11	[0, 0, 0]	n/a	catFR1	0	R1330D
62267.766	1.622	1452772	WORD	n/a	wordpools/wordpool_categorized_EN.txt	HEAD	BodyParts	8	11	[0, 0, 0]	n/a	catFR1	0	R1330D
62269.388	1.055	1454394	WORD_OFF	n/a	n/a	HEAD	BodyParts	8	11	[0, 0, 0]	n/a	catFR1	0	R1330D
62270.443	1.629	1455449	WORD	n/a	wordpools/wordpool_categorized_EN.txt	JELLYFISH	OceanAnimals	9	11	[0, 0, 0]	n/a	catFR1	0	R1330D
62272.072	0.924	1457078	WORD_OFF	n/a	n/a	JELLYFISH	OceanAnimals	9	11	[0, 0, 0]	n/a	catFR1	0	R1330D
62272.996	1.611	1458002	WORD	n/a	wordpools/wordpool_categorized_EN.txt	WHALE	OceanAnimals	10	11	[0, 0, 0]	n/a	catFR1	0	R1330D
62274.607	0.883	1459613	WORD_OFF	n/a	n/a	WHALE	OceanAnimals	10	11	[0, 0, 0]	n/a	catFR1	0	R1330D
62275.49	1.633	1460496	WORD	n/a	wordpools/wordpool_categorized_EN.txt	DOVE	Birds	11	11	[0, 0, 0]	n/a	catFR1	0	R1330D
62277.123	1.022	1462129	WORD_OFF	n/a	n/a	DOVE	Birds	11	11	[0, 0, 0]	n/a	catFR1	0	R1330D
62278.145	1.628	1463151	WORD	n/a	wordpools/wordpool_categorized_EN.txt	DUCK	Birds	12	11	[0, 0, 0]	n/a	catFR1	0	R1330D
62279.773	0.001	1464779	WORD_OFF	n/a	n/a	DUCK	Birds	12	11	[0, 0, 0]	n/a	catFR1	0	R1330D
62279.774	0.0	1464780	DISTRACT_START	n/a	n/a	n/a	n/a	-999	11	[0, 0, 0]	n/a	catFR1	0	R1330D
62279.774	0.0	1464780	ENCODING_END	n/a	n/a	n/a	n/a	-999	11	[0, 0, 0]	n/a	catFR1	0	R1330D
62279.774	0.016	1464780	START	n/a	n/a	n/a	n/a	-999	11	[-999, -999, -999]	n/a	catFR1	0	R1330D
62279.79	7.485	1464796	PROB	7.453	n/a	n/a	n/a	-999	11	[8, 5, 5]	18.0	catFR1	0	R1330D
62287.275	6.584	1472280	PROB	6.551	n/a	n/a	n/a	-999	11	[4, 1, 8]	13.0	catFR1	0	R1330D
62293.859	5.568	1478864	PROB	5.536	n/a	n/a	n/a	-999	11	[8, 8, 6]	20.0	catFR1	0	R1330D
62299.427	6.84	1484432	PROB	6.84	n/a	n/a	n/a	-999	11	[3, 1, 2]	6.0	catFR1	0	R1330D
62306.267	0.011	1491271	STOP	n/a	n/a	n/a	n/a	-999	11	[-999, -999, -999]	n/a	catFR1	0	R1330D
62306.278	0.694	1491282	DISTRACT_END	n/a	n/a	n/a	n/a	-999	11	[0, 0, 0]	n/a	catFR1	0	R1330D
62306.972	1.591	1491976	RETRIEVAL_ORIENT_START	n/a	n/a	n/a	n/a	-999	11	[0, 0, 0]	n/a	catFR1	0	R1330D
62308.563	0.0	1493567	RETRIEVAL_ORIENT_END	n/a	n/a	n/a	n/a	-999	11	[0, 0, 0]	n/a	catFR1	0	R1330D
62308.563	1.967	1493567	REC_START	n/a	n/a	n/a	n/a	-999	11	[0, 0, 0]	n/a	catFR1	0	R1330D
62310.53	1.847	1495534	REC_WORD	1.967	n/a	BRAILLE	n/a	-999	11	[0, 0, 0]	n/a	catFR1	0	R1330D
62312.377	4.828	1497381	REC_WORD	3.814	n/a	DOVE	Birds	11	11	[0, 0, 0]	n/a	catFR1	0	R1330D
62317.205	1.867	1502209	REC_WORD_VV	8.642	n/a	<>	n/a	-999	11	[0, 0, 0]	n/a	catFR1	0	R1330D
62319.072	3.576	1504076	REC_WORD_VV	10.509	n/a	<>	n/a	-999	11	[0, 0, 0]	n/a	catFR1	0	R1330D
62322.648	15.927	1507651	REC_WORD	14.085	n/a	SCREWDRIVER	Tools	-999	11	[0, 0, 0]	n/a	catFR1	0	R1330D
62338.575	0.001	1523577	REC_END	n/a	n/a	n/a	n/a	-999	11	[0, 0, 0]	n/a	catFR1	0	R1330D
62338.576	0.021	1523578	TRIAL_END	n/a	n/a	n/a	n/a	-999	11	[0, 0, 0]	n/a	catFR1	0	R1330D
62338.597	0.0	1523599	WAITING_START	n/a	n/a	n/a	n/a	-999	12	[0, 0, 0]	n/a	catFR1	0	R1330D
62338.597	0.0	1523599	TRIAL	n/a	n/a	n/a	n/a	-999	12	[0, 0, 0]	n/a	catFR1	0	R1330D
62338.597	3.788	1523599	TRIAL_START	n/a	n/a	n/a	n/a	-999	12	[0, 0, 0]	n/a	catFR1	0	R1330D
62342.385	0.001	1527387	WAITING_END	n/a	n/a	n/a	n/a	-999	12	[0, 0, 0]	n/a	catFR1	0	R1330D
62342.386	10.429	1527388	COUNTDOWN_START	n/a	n/a	n/a	n/a	-999	12	[0, 0, 0]	n/a	catFR1	0	R1330D
62352.815	0.001	1537817	COUNTDOWN_END	n/a	n/a	n/a	n/a	-999	12	[0, 0, 0]	n/a	catFR1	0	R1330D
62352.816	1.238	1537818	ORIENT_START	n/a	n/a	n/a	n/a	-999	12	[0, 0, 0]	n/a	catFR1	0	R1330D
62354.054	0.0	1539056	ORIENT_END	n/a	n/a	n/a	n/a	-999	12	[0, 0, 0]	n/a	catFR1	0	R1330D
62354.054	0.834	1539056	ENCODING_START	n/a	n/a	n/a	n/a	-999	12	[0, 0, 0]	n/a	catFR1	0	R1330D
62354.888	1.633	1539890	WORD	n/a	wordpools/wordpool_categorized_EN.txt	BED	Furniture	1	12	[0, 0, 0]	n/a	catFR1	0	R1330D
62356.521	1.114	1541522	WORD_OFF	n/a	n/a	BED	Furniture	1	12	[0, 0, 0]	n/a	catFR1	0	R1330D
62357.635	1.619	1542636	WORD	n/a	wordpools/wordpool_categorized_EN.txt	SOFA	Furniture	2	12	[0, 0, 0]	n/a	catFR1	0	R1330D
62359.254	0.784	1544255	WORD_OFF	n/a	n/a	SOFA	Furniture	2	12	[0, 0, 0]	n/a	catFR1	0	R1330D
62360.038	1.635	1545039	WORD	n/a	wordpools/wordpool_categorized_EN.txt	BARBIE	Toys	3	12	[0, 0, 0]	n/a	catFR1	0	R1330D
62361.673	0.762	1546674	WORD_OFF	n/a	n/a	BARBIE	Toys	3	12	[0, 0, 0]	n/a	catFR1	0	R1330D
62362.435	1.637	1547436	WORD	n/a	wordpools/wordpool_categorized_EN.txt	PUZZLE	Toys	4	12	[0, 0, 0]	n/a	catFR1	0	R1330D
62364.072	1.043	1549073	WORD_OFF	n/a	n/a	PUZZLE	Toys	4	12	[0, 0, 0]	n/a	catFR1	0	R1330D
62365.115	1.624	1550116	WORD	n/a	wordpools/wordpool_categorized_EN.txt	THUNDER	Weather	5	12	[0, 0, 0]	n/a	catFR1	0	R1330D
62366.739	1.015	1551740	WORD_OFF	n/a	n/a	THUNDER	Weather	5	12	[0, 0, 0]	n/a	catFR1	0	R1330D
62367.754	1.636	1552755	WORD	n/a	wordpools/wordpool_categorized_EN.txt	HURRICANE	Weather	6	12	[0, 0, 0]	n/a	catFR1	0	R1330D
62369.39	1.062	1554391	WORD_OFF	n/a	n/a	HURRICANE	Weather	6	12	[0, 0, 0]	n/a	catFR1	0	R1330D
62370.452	1.622	1555453	WORD	n/a	wordpools/wordpool_categorized_EN.txt	FRISBEE	Toys	7	12	[0, 0, 0]	n/a	catFR1	0	R1330D
62372.074	0.92	1557075	WORD_OFF	n/a	n/a	FRISBEE	Toys	7	12	[0, 0, 0]	n/a	catFR1	0	R1330D
62372.994	1.631	1557995	WORD	n/a	wordpools/wordpool_categorized_EN.txt	BLOCKS	Toys	8	12	[0, 0, 0]	n/a	catFR1	0	R1330D
62374.625	1.102	1559625	WORD_OFF	n/a	n/a	BLOCKS	Toys	8	12	[0, 0, 0]	n/a	catFR1	0	R1330D
62375.727	1.631	1560727	WORD	n/a	wordpools/wordpool_categorized_EN.txt	SNOW	Weather	9	12	[0, 0, 0]	n/a	catFR1	0	R1330D
62377.358	1.006	1562358	WORD_OFF	n/a	n/a	SNOW	Weather	9	12	[0, 0, 0]	n/a	catFR1	0	R1330D
62378.364	1.628	1563364	WORD	n/a	wordpools/wordpool_categorized_EN.txt	DRIZZLE	Weather	10	12	[0, 0, 0]	n/a	catFR1	0	R1330D
62379.992	0.789	1564992	WORD_OFF	n/a	n/a	DRIZZLE	Weather	10	12	[0, 0, 0]	n/a	catFR1	0	R1330D
62380.781	1.628	1565781	WORD	n/a	wordpools/wordpool_categorized_EN.txt	DRESSER	Furniture	11	12	[0, 0, 0]	n/a	catFR1	0	R1330D
62382.409	1.002	1567409	WORD_OFF	n/a	n/a	DRESSER	Furniture	11	12	[0, 0, 0]	n/a	catFR1	0	R1330D
62383.411	1.632	1568411	WORD	n/a	wordpools/wordpool_categorized_EN.txt	TABLE	Furniture	12	12	[0, 0, 0]	n/a	catFR1	0	R1330D
62385.043	0.0	1570043	WORD_OFF	n/a	n/a	TABLE	Furniture	12	12	[0, 0, 0]	n/a	catFR1	0	R1330D
62385.043	0.0	1570043	ENCODING_END	n/a	n/a	n/a	n/a	-999	12	[0, 0, 0]	n/a	catFR1	0	R1330D
62385.043	0.0	1570043	DISTRACT_START	n/a	n/a	n/a	n/a	-999	12	[0, 0, 0]	n/a	catFR1	0	R1330D
62385.043	0.016	1570043	START	n/a	n/a	n/a	n/a	-999	12	[-999, -999, -999]	n/a	catFR1	0	R1330D
62385.059	6.602	1570059	PROB	6.567	n/a	n/a	n/a	-999	12	[3, 9, 9]	21.0	catFR1	0	R1330D
62391.661	5.5	1576661	PROB	5.468	n/a	n/a	n/a	-999	12	[1, 1, 8]	10.0	catFR1	0	R1330D
62397.161	6.051	1582160	PROB	6.024	n/a	n/a	n/a	-999	12	[2, 7, 7]	16.0	catFR1	0	R1330D
62403.212	6.702	1588211	PROB	6.702	n/a	n/a	n/a	-999	12	[8, 3, 3]	14.0	catFR1	0	R1330D
62409.914	0.016	1594912	STOP	n/a	n/a	n/a	n/a	-999	12	[-999, -999, -999]	n/a	catFR1	0	R1330D
62409.93	0.639	1594928	DISTRACT_END	n/a	n/a	n/a	n/a	-999	12	[0, 0, 0]	n/a	catFR1	0	R1330D
62410.569	1.562	1595567	RETRIEVAL_ORIENT_START	n/a	n/a	n/a	n/a	-999	12	[0, 0, 0]	n/a	catFR1	0	R1330D
62412.131	0.0	1597129	RETRIEVAL_ORIENT_END	n/a	n/a	n/a	n/a	-999	12	[0, 0, 0]	n/a	catFR1	0	R1330D
62412.131	1.849	1597129	REC_START	n/a	n/a	n/a	n/a	-999	12	[0, 0, 0]	n/a	catFR1	0	R1330D
62413.98	2.042	1598978	REC_WORD	1.849	n/a	DRESSER	Furniture	11	12	[0, 0, 0]	n/a	catFR1	0	R1330D
62416.022	1.511	1601020	REC_WORD	3.891	n/a	HURRICANE	Weather	6	12	[0, 0, 0]	n/a	catFR1	0	R1330D
62417.533	24.611	1602531	REC_WORD	5.402	n/a	DRIZZLE	Weather	10	12	[0, 0, 0]	n/a	catFR1	0	R1330D
62442.144	0.0	1627141	REC_END	n/a	n/a	n/a	n/a	-999	12	[0, 0, 0]	n/a	catFR1	0	R1330D
62442.144	0.025	1627141	TRIAL_END	n/a	n/a	n/a	n/a	-999	12	[0, 0, 0]	n/a	catFR1	0	R1330D
62442.169	0.0	1627166	TRIAL_START	n/a	n/a	n/a	n/a	-999	13	[0, 0, 0]	n/a	catFR1	0	R1330D
62442.169	0.0	1627166	TRIAL	n/a	n/a	n/a	n/a	-999	13	[0, 0, 0]	n/a	catFR1	0	R1330D
62442.169	3.419	1627166	WAITING_START	n/a	n/a	n/a	n/a	-999	13	[0, 0, 0]	n/a	catFR1	0	R1330D
62445.588	0.0	1630585	WAITING_END	n/a	n/a	n/a	n/a	-999	13	[0, 0, 0]	n/a	catFR1	0	R1330D
62445.588	10.43	1630585	COUNTDOWN_START	n/a	n/a	n/a	n/a	-999	13	[0, 0, 0]	n/a	catFR1	0	R1330D
62456.018	0.0	1641014	COUNTDOWN_END	n/a	n/a	n/a	n/a	-999	13	[0, 0, 0]	n/a	catFR1	0	R1330D
62456.018	1.154	1641014	ORIENT_START	n/a	n/a	n/a	n/a	-999	13	[0, 0, 0]	n/a	catFR1	0	R1330D
62457.172	0.001	1642168	ORIENT_END	n/a	n/a	n/a	n/a	-999	13	[0, 0, 0]	n/a	catFR1	0	R1330D
62457.173	1.064	1642169	ENCODING_START	n/a	n/a	n/a	n/a	-999	13	[0, 0, 0]	n/a	catFR1	0	R1330D
62458.237	1.636	1643233	WORD	n/a	wordpools/wordpool_categorized_EN.txt	COOKIE	Desserts	1	13	[0, 0, 0]	n/a	catFR1	0	R1330D
62459.873	0.962	1644869	WORD_OFF	n/a	n/a	COOKIE	Desserts	1	13	[0, 0, 0]	n/a	catFR1	0	R1330D
62460.835	1.638	1645831	WORD	n/a	wordpools/wordpool_categorized_EN.txt	PUDDING	Desserts	2	13	[0, 0, 0]	n/a	catFR1	0	R1330D
62462.473	0.78	1647469	WORD_OFF	n/a	n/a	PUDDING	Desserts	2	13	[0, 0, 0]	n/a	catFR1	0	R1330D
62463.253	1.621	1648249	WORD	n/a	wordpools/wordpool_categorized_EN.txt	TAPE	OfficeSupplies	3	13	[0, 0, 0]	n/a	catFR1	0	R1330D
62464.874	1.012	1649869	WORD_OFF	n/a	n/a	TAPE	OfficeSupplies	3	13	[0, 0, 0]	n/a	catFR1	0	R1330D
62465.886	1.622	1650881	WORD	n/a	wordpools/wordpool_categorized_EN.txt	PAPER	OfficeSupplies	4	13	[0, 0, 0]	n/a	catFR1	0	R1330D
62467.508	1.049	1652503	WORD_OFF	n/a	n/a	PAPER	OfficeSupplies	4	13	[0, 0, 0]	n/a	catFR1	0	R1330D
62468.557	1.635	1653552	WORD	n/a	wordpools/wordpool_categorized_EN.txt	FOG	Weather	5	13	[0, 0, 0]	n/a	catFR1	0	R1330D
62470.192	1.149	1655187	WORD_OFF	n/a	n/a	FOG	Weather	5	13	[0, 0, 0]	n/a	catFR1	0	R1330D
62471.341	1.634	1656336	WORD	n/a	wordpools/wordpool_categorized_EN.txt	TORNADO	Weather	6	13	[0, 0, 0]	n/a	catFR1	0	R1330D
62472.975	1.119	1657970	WORD_OFF	n/a	n/a	TORNADO	Weather	6	13	[0, 0, 0]	n/a	catFR1	0	R1330D
62474.094	1.632	1659089	WORD	n/a	wordpools/wordpool_categorized_EN.txt	STAPLER	OfficeSupplies	7	13	[0, 0, 0]	n/a	catFR1	0	R1330D
62475.726	1.005	1660721	WORD_OFF	n/a	n/a	STAPLER	OfficeSupplies	7	13	[0, 0, 0]	n/a	catFR1	0	R1330D
62476.731	1.629	1661726	WORD	n/a	wordpools/wordpool_categorized_EN.txt	NOTEBOOK	OfficeSupplies	8	13	[0, 0, 0]	n/a	catFR1	0	R1330D
62478.36	0.797	1663355	WORD_OFF	n/a	n/a	NOTEBOOK	OfficeSupplies	8	13	[0, 0, 0]	n/a	catFR1	0	R1330D
62479.157	1.636	1664152	WORD	n/a	wordpools/wordpool_categorized_EN.txt	WIND	Weather	9	13	[0, 0, 0]	n/a	catFR1	0	R1330D
62480.793	0.863	1665788	WORD_OFF	n/a	n/a	WIND	Weather	9	13	[0, 0, 0]	n/a	catFR1	0	R1330D
62481.656	1.638	1666651	WORD	n/a	wordpools/wordpool_categorized_EN.txt	CLOUD	Weather	10	13	[0, 0, 0]	n/a	catFR1	0	R1330D
62483.294	0.75	1668288	WORD_OFF	n/a	n/a	CLOUD	Weather	10	13	[0, 0, 0]	n/a	catFR1	0	R1330D
62484.044	1.618	1669038	WORD	n/a	wordpools/wordpool_categorized_EN.txt	COBBLER	Desserts	11	13	[0, 0, 0]	n/a	catFR1	0	R1330D
62485.662	1.084	1670656	WORD_OFF	n/a	n/a	COBBLER	Desserts	11	13	[0, 0, 0]	n/a	catFR1	0	R1330D
62486.746	1.632	1671740	WORD	n/a	wordpools/wordpool_categorized_EN.txt	FUDGE	Desserts	12	13	[0, 0, 0]	n/a	catFR1	0	R1330D
62488.378	0.0	1673372	WORD_OFF	n/a	n/a	FUDGE	Desserts	12	13	[0, 0, 0]	n/a	catFR1	0	R1330D
62488.378	0.001	1673372	ENCODING_END	n/a	n/a	n/a	n/a	-999	13	[0, 0, 0]	n/a	catFR1	0	R1330D
62488.379	0.0	1673373	DISTRACT_START	n/a	n/a	n/a	n/a	-999	13	[0, 0, 0]	n/a	catFR1	0	R1330D
62488.379	0.016	1673373	START	n/a	n/a	n/a	n/a	-999	13	[-999, -999, -999]	n/a	catFR1	0	R1330D
62488.395	7.918	1673389	PROB	7.883	n/a	n/a	n/a	-999	13	[7, 7, 4]	18.0	catFR1	0	R1330D
62496.313	9.319	1681307	PROB	9.281	n/a	n/a	n/a	-999	13	[7, 6, 8]	20.0	catFR1	0	R1330D
62505.632	9.201	1690625	PROB	9.201	n/a	n/a	n/a	-999	13	[5, 2, 4]	14.0	catFR1	0	R1330D
62514.833	0.017	1699826	STOP	n/a	n/a	n/a	n/a	-999	13	[-999, -999, -999]	n/a	catFR1	0	R1330D
62514.85	0.516	1699843	DISTRACT_END	n/a	n/a	n/a	n/a	-999	13	[0, 0, 0]	n/a	catFR1	0	R1330D
62515.366	1.601	1700359	RETRIEVAL_ORIENT_START	n/a	n/a	n/a	n/a	-999	13	[0, 0, 0]	n/a	catFR1	0	R1330D
62516.967	0.0	1701960	RETRIEVAL_ORIENT_END	n/a	n/a	n/a	n/a	-999	13	[0, 0, 0]	n/a	catFR1	0	R1330D
62516.967	1.71	1701960	REC_START	n/a	n/a	n/a	n/a	-999	13	[0, 0, 0]	n/a	catFR1	0	R1330D
62518.677	1.535	1703669	REC_WORD	1.71	n/a	COBBLER	Desserts	11	13	[0, 0, 0]	n/a	catFR1	0	R1330D
62520.212	5.043	1705204	REC_WORD	3.245	n/a	FUDGE	Desserts	12	13	[0, 0, 0]	n/a	catFR1	0	R1330D
62525.255	3.101	1710247	REC_WORD	8.288	n/a	PAPER	OfficeSupplies	4	13	[0, 0, 0]	n/a	catFR1	0	R1330D
62528.356	18.621	1713348	REC_WORD	11.389	n/a	TAPE	OfficeSupplies	3	13	[0, 0, 0]	n/a	catFR1	0	R1330D
62546.977	0.0	1731968	REC_END	n/a	n/a	n/a	n/a	-999	13	[0, 0, 0]	n/a	catFR1	0	R1330D
62546.977	0.021	1731968	TRIAL_END	n/a	n/a	n/a	n/a	-999	13	[0, 0, 0]	n/a	catFR1	0	R1330D
62546.998	0.001	1731989	TRIAL_START	n/a	n/a	n/a	n/a	-999	14	[0, 0, 0]	n/a	catFR1	0	R1330D
62546.999	0.0	1731990	TRIAL	n/a	n/a	n/a	n/a	-999	14	[0, 0, 0]	n/a	catFR1	0	R1330D
62546.999	4.757	1731990	WAITING_START	n/a	n/a	n/a	n/a	-999	14	[0, 0, 0]	n/a	catFR1	0	R1330D
62551.756	0.001	1736747	WAITING_END	n/a	n/a	n/a	n/a	-999	14	[0, 0, 0]	n/a	catFR1	0	R1330D
62551.757	10.428	1736748	COUNTDOWN_START	n/a	n/a	n/a	n/a	-999	14	[0, 0, 0]	n/a	catFR1	0	R1330D
62562.185	0.001	1747175	COUNTDOWN_END	n/a	n/a	n/a	n/a	-999	14	[0, 0, 0]	n/a	catFR1	0	R1330D
62562.186	1.239	1747176	ORIENT_START	n/a	n/a	n/a	n/a	-999	14	[0, 0, 0]	n/a	catFR1	0	R1330D
62563.425	0.001	1748415	ORIENT_END	n/a	n/a	n/a	n/a	-999	14	[0, 0, 0]	n/a	catFR1	0	R1330D
62563.426	0.839	1748416	ENCODING_START	n/a	n/a	n/a	n/a	-999	14	[0, 0, 0]	n/a	catFR1	0	R1330D
62564.265	1.627	1749255	WORD	n/a	wordpools/wordpool_categorized_EN.txt	PANTS	Clothing	1	14	[0, 0, 0]	n/a	catFR1	0	R1330D
62565.892	0.775	1750882	WORD_OFF	n/a	n/a	PANTS	Clothing	1	14	[0, 0, 0]	n/a	catFR1	0	R1330D
62566.667	1.626	1751657	WORD	n/a	wordpools/wordpool_categorized_EN.txt	SHOES	Clothing	2	14	[0, 0, 0]	n/a	catFR1	0	R1330D
62568.293	0.828	1753283	WORD_OFF	n/a	n/a	SHOES	Clothing	2	14	[0, 0, 0]	n/a	catFR1	0	R1330D
62569.121	1.622	1754111	WORD	n/a	wordpools/wordpool_categorized_EN.txt	MOUSSE	Desserts	3	14	[0, 0, 0]	n/a	catFR1	0	R1330D
62570.743	1.007	1755733	WORD_OFF	n/a	n/a	MOUSSE	Desserts	3	14	[0, 0, 0]	n/a	catFR1	0	R1330D
62571.75	1.627	1756740	WORD	n/a	wordpools/wordpool_categorized_EN.txt	CAKE	Desserts	4	14	[0, 0, 0]	n/a	catFR1	0	R1330D
62573.377	0.829	1758366	WORD_OFF	n/a	n/a	CAKE	Desserts	4	14	[0, 0, 0]	n/a	catFR1	0	R1330D
62574.206	1.638	1759195	WORD	n/a	wordpools/wordpool_categorized_EN.txt	BANJO	Instruments	5	14	[0, 0, 0]	n/a	catFR1	0	R1330D
62575.844	1.122	1760833	WORD_OFF	n/a	n/a	BANJO	Instruments	5	14	[0, 0, 0]	n/a	catFR1	0	R1330D
62576.966	1.613	1761955	WORD	n/a	wordpools/wordpool_categorized_EN.txt	VIOLIN	Instruments	6	14	[0, 0, 0]	n/a	catFR1	0	R1330D
62578.579	1.072	1763568	WORD_OFF	n/a	n/a	VIOLIN	Instruments	6	14	[0, 0, 0]	n/a	catFR1	0	R1330D
62579.651	1.627	1764640	WORD	n/a	wordpools/wordpool_categorized_EN.txt	JELLO	Desserts	7	14	[0, 0, 0]	n/a	catFR1	0	R1330D
62581.278	0.8	1766267	WORD_OFF	n/a	n/a	JELLO	Desserts	7	14	[0, 0, 0]	n/a	catFR1	0	R1330D
62582.078	1.634	1767067	WORD	n/a	wordpools/wordpool_categorized_EN.txt	CUPCAKE	Desserts	8	14	[0, 0, 0]	n/a	catFR1	0	R1330D
62583.712	0.865	1768701	WORD_OFF	n/a	n/a	CUPCAKE	Desserts	8	14	[0, 0, 0]	n/a	catFR1	0	R1330D
62584.577	1.636	1769566	WORD	n/a	wordpools/wordpool_categorized_EN.txt	COAT	Clothing	9	14	[0, 0, 0]	n/a	catFR1	0	R1330D
62586.213	0.806	1771202	WORD_OFF	n/a	n/a	COAT	Clothing	9	14	[0, 0, 0]	n/a	catFR1	0	R1330D
62587.019	1.612	1772008	WORD	n/a	wordpools/wordpool_categorized_EN.txt	SKIRT	Clothing	10	14	[0, 0, 0]	n/a	catFR1	0	R1330D
62588.631	1.069	1773620	WORD_OFF	n/a	n/a	SKIRT	Clothing	10	14	[0, 0, 0]	n/a	catFR1	0	R1330D
62589.7	1.63	1774689	WORD	n/a	wordpools/wordpool_categorized_EN.txt	TRUMPET	Instruments	11	14	[0, 0, 0]	n/a	catFR1	0	R1330D
62591.33	1.147	1776318	WORD_OFF	n/a	n/a	TRUMPET	Instruments	11	14	[0, 0, 0]	n/a	catFR1	0	R1330D
62592.477	1.637	1777465	WORD	n/a	wordpools/wordpool_categorized_EN.txt	GUITAR	Instruments	12	14	[0, 0, 0]	n/a	catFR1	0	R1330D
62594.114	0.0	1779102	WORD_OFF	n/a	n/a	GUITAR	Instruments	12	14	[0, 0, 0]	n/a	catFR1	0	R1330D
62594.114	0.001	1779102	ENCODING_END	n/a	n/a	n/a	n/a	-999	14	[0, 0, 0]	n/a	catFR1	0	R1330D
62594.115	0.0	1779103	DISTRACT_START	n/a	n/a	n/a	n/a	-999	14	[0, 0, 0]	n/a	catFR1	0	R1330D
62594.115	0.015	1779103	START	n/a	n/a	n/a	n/a	-999	14	[-999, -999, -999]	n/a	catFR1	0	R1330D
62594.13	8.652	1779118	PROB	8.625	n/a	n/a	n/a	-999	14	[2, 4, 8]	14.0	catFR1	0	R1330D
62602.782	9.602	1787770	PROB	9.566	n/a	n/a	n/a	-999	14	[3, 8, 9]	20.0	catFR1	0	R1330D
62612.384	8.371	1797371	PROB	8.371	n/a	n/a	n/a	-999	14	[5, 8, 1]	14.0	catFR1	0	R1330D
62620.755	0.014	1805742	STOP	n/a	n/a	n/a	n/a	-999	14	[-999, -999, -999]	n/a	catFR1	0	R1330D
62620.769	0.521	1805756	DISTRACT_END	n/a	n/a	n/a	n/a	-999	14	[0, 0, 0]	n/a	catFR1	0	R1330D
62621.29	1.579	1806277	RETRIEVAL_ORIENT_START	n/a	n/a	n/a	n/a	-999	14	[0, 0, 0]	n/a	catFR1	0	R1330D
62622.869	0.001	1807856	RETRIEVAL_ORIENT_END	n/a	n/a	n/a	n/a	-999	14	[0, 0, 0]	n/a	catFR1	0	R1330D
62622.87	3.296	1807857	REC_START	n/a	n/a	n/a	n/a	-999	14	[0, 0, 0]	n/a	catFR1	0	R1330D
62626.166	1.196	1811153	REC_WORD_VV	3.296	n/a	<>	n/a	-999	14	[0, 0, 0]	n/a	catFR1	0	R1330D
62627.362	0.583	1812348	REC_WORD	4.492	n/a	CAKE	Desserts	4	14	[0, 0, 0]	n/a	catFR1	0	R1330D
62627.945	2.735	1812931	REC_WORD	5.075	n/a	MOUSSE	Desserts	3	14	[0, 0, 0]	n/a	catFR1	0	R1330D
62630.68	3.206	1815666	REC_WORD_VV	7.81	n/a	<>	n/a	-999	14	[0, 0, 0]	n/a	catFR1	0	R1330D
62633.886	4.575	1818872	REC_WORD_VV	11.016	n/a	<>	n/a	-999	14	[0, 0, 0]	n/a	catFR1	0	R1330D
62638.461	6.575	1823447	REC_WORD_VV	15.591	n/a	<>	n/a	-999	14	[0, 0, 0]	n/a	catFR1	0	R1330D
62645.036	7.845	1830021	REC_WORD_VV	22.166	n/a	<>	n/a	-999	14	[0, 0, 0]	n/a	catFR1	0	R1330D
62652.881	0.001	1837866	REC_END	n/a	n/a	n/a	n/a	-999	14	[0, 0, 0]	n/a	catFR1	0	R1330D
62652.882	0.023	1837867	TRIAL_END	n/a	n/a	n/a	n/a	-999	14	[0, 0, 0]	n/a	catFR1	0	R1330D
62652.905	0.0	1837890	TRIAL_START	n/a	n/a	n/a	n/a	-999	15	[0, 0, 0]	n/a	catFR1	0	R1330D
62652.905	0.0	1837890	TRIAL	n/a	n/a	n/a	n/a	-999	15	[0, 0, 0]	n/a	catFR1	0	R1330D
62652.905	4.404	1837890	WAITING_START	n/a	n/a	n/a	n/a	-999	15	[0, 0, 0]	n/a	catFR1	0	R1330D
62657.309	0.0	1842294	WAITING_END	n/a	n/a	n/a	n/a	-999	15	[0, 0, 0]	n/a	catFR1	0	R1330D
62657.309	10.429	1842294	COUNTDOWN_START	n/a	n/a	n/a	n/a	-999	15	[0, 0, 0]	n/a	catFR1	0	R1330D
62667.738	0.0	1852722	COUNTDOWN_END	n/a	n/a	n/a	n/a	-999	15	[0, 0, 0]	n/a	catFR1	0	R1330D
62667.738	1.24	1852722	ORIENT_START	n/a	n/a	n/a	n/a	-999	15	[0, 0, 0]	n/a	catFR1	0	R1330D
62668.978	0.0	1853962	ENCODING_START	n/a	n/a	n/a	n/a	-999	15	[0, 0, 0]	n/a	catFR1	0	R1330D
62668.978	0.849	1853962	ORIENT_END	n/a	n/a	n/a	n/a	-999	15	[0, 0, 0]	n/a	catFR1	0	R1330D
62669.827	1.634	1854811	WORD	n/a	wordpools/wordpool_categorized_EN.txt	PLIERS	Tools	1	15	[0, 0, 0]	n/a	catFR1	0	R1330D
62671.461	1.058	1856445	WORD_OFF	n/a	n/a	PLIERS	Tools	1	15	[0, 0, 0]	n/a	catFR1	0	R1330D
62672.519	1.626	1857503	WORD	n/a	wordpools/wordpool_categorized_EN.txt	CROWBAR	Tools	2	15	[0, 0, 0]	n/a	catFR1	0	R1330D
62674.145	1.063	1859129	WORD_OFF	n/a	n/a	CROWBAR	Tools	2	15	[0, 0, 0]	n/a	catFR1	0	R1330D
62675.208	1.638	1860192	WORD	n/a	wordpools/wordpool_categorized_EN.txt	CEDAR	Trees	3	15	[0, 0, 0]	n/a	catFR1	0	R1330D
62676.846	0.816	1861830	WORD_OFF	n/a	n/a	CEDAR	Trees	3	15	[0, 0, 0]	n/a	catFR1	0	R1330D
62677.662	1.634	1862646	WORD	n/a	wordpools/wordpool_categorized_EN.txt	SPRUCE	Trees	4	15	[0, 0, 0]	n/a	catFR1	0	R1330D
62679.296	1.066	1864280	WORD_OFF	n/a	n/a	SPRUCE	Trees	4	15	[0, 0, 0]	n/a	catFR1	0	R1330D
62680.362	1.635	1865346	WORD	n/a	wordpools/wordpool_categorized_EN.txt	SPINACH	Vegetables	5	15	[0, 0, 0]	n/a	catFR1	0	R1330D
62681.997	0.959	1866980	WORD_OFF	n/a	n/a	SPINACH	Vegetables	5	15	[0, 0, 0]	n/a	catFR1	0	R1330D
62682.956	1.608	1867939	WORD	n/a	wordpools/wordpool_categorized_EN.txt	CARROT	Vegetables	6	15	[0, 0, 0]	n/a	catFR1	0	R1330D
62684.564	0.861	1869547	WORD_OFF	n/a	n/a	CARROT	Vegetables	6	15	[0, 0, 0]	n/a	catFR1	0	R1330D
62685.425	1.623	1870408	WORD	n/a	wordpools/wordpool_categorized_EN.txt	HAMMER	Tools	7	15	[0, 0, 0]	n/a	catFR1	0	R1330D
62687.048	1.039	1872031	WORD_OFF	n/a	n/a	HAMMER	Tools	7	15	[0, 0, 0]	n/a	catFR1	0	R1330D
62688.087	1.628	1873070	WORD	n/a	wordpools/wordpool_categorized_EN.txt	DRILL	Tools	8	15	[0, 0, 0]	n/a	catFR1	0	R1330D
62689.715	0.825	1874698	WORD_OFF	n/a	n/a	DRILL	Tools	8	15	[0, 0, 0]	n/a	catFR1	0	R1330D
62690.54	1.625	1875523	WORD	n/a	wordpools/wordpool_categorized_EN.txt	MAPLE	Trees	9	15	[0, 0, 0]	n/a	catFR1	0	R1330D
62692.165	1.075	1877148	WORD_OFF	n/a	n/a	MAPLE	Trees	9	15	[0, 0, 0]	n/a	catFR1	0	R1330D
62693.24	1.626	1878223	WORD	n/a	wordpools/wordpool_categorized_EN.txt	WILLOW	Trees	10	15	[0, 0, 0]	n/a	catFR1	0	R1330D
62694.866	0.819	1879849	WORD_OFF	n/a	n/a	WILLOW	Trees	10	15	[0, 0, 0]	n/a	catFR1	0	R1330D
62695.685	1.631	1880668	WORD	n/a	wordpools/wordpool_categorized_EN.txt	CUCUMBER	Vegetables	11	15	[0, 0, 0]	n/a	catFR1	0	R1330D
62697.316	0.791	1882299	WORD_OFF	n/a	n/a	CUCUMBER	Vegetables	11	15	[0, 0, 0]	n/a	catFR1	0	R1330D
62698.107	1.626	1883090	WORD	n/a	wordpools/wordpool_categorized_EN.txt	LETTUCE	Vegetables	12	15	[0, 0, 0]	n/a	catFR1	0	R1330D
62699.733	0.001	1884715	WORD_OFF	n/a	n/a	LETTUCE	Vegetables	12	15	[0, 0, 0]	n/a	catFR1	0	R1330D
62699.734	0.0	1884716	DISTRACT_START	n/a	n/a	n/a	n/a	-999	15	[0, 0, 0]	n/a	catFR1	0	R1330D
62699.734	0.0	1884716	ENCODING_END	n/a	n/a	n/a	n/a	-999	15	[0, 0, 0]	n/a	catFR1	0	R1330D
62699.734	0.016	1884716	START	n/a	n/a	n/a	n/a	-999	15	[-999, -999, -999]	n/a	catFR1	0	R1330D
62699.75	9.952	1884732	PROB	9.914	n/a	n/a	n/a	-999	15	[6, 5, 8]	19.0	catFR1	0	R1330D
62709.702	11.151	1894684	PROB	11.151	n/a	n/a	n/a	-999	15	[3, 1, 2]	6.0	catFR1	0	R1330D
62720.853	0.017	1905834	STOP	n/a	n/a	n/a	n/a	-999	15	[-999, -999, -999]	n/a	catFR1	0	R1330D
62720.87	0.568	1905851	DISTRACT_END	n/a	n/a	n/a	n/a	-999	15	[0, 0, 0]	n/a	catFR1	0	R1330D
62721.438	1.566	1906419	RETRIEVAL_ORIENT_START	n/a	n/a	n/a	n/a	-999	15	[0, 0, 0]	n/a	catFR1	0	R1330D
62723.004	0.0	1907985	RETRIEVAL_ORIENT_END	n/a	n/a	n/a	n/a	-999	15	[0, 0, 0]	n/a	catFR1	0	R1330D
62723.004	2.251	1907985	REC_START	n/a	n/a	n/a	n/a	-999	15	[0, 0, 0]	n/a	catFR1	0	R1330D
62725.255	0.945	1910236	REC_WORD_VV	2.251	n/a	<>	n/a	-999	15	[0, 0, 0]	n/a	catFR1	0	R1330D
62726.2	2.876	1911181	REC_WORD	3.196	n/a	CARROT	Vegetables	6	15	[0, 0, 0]	n/a	catFR1	0	R1330D
62729.076	0.623	1914057	REC_WORD	6.072	n/a	DRILL	Tools	8	15	[0, 0, 0]	n/a	catFR1	0	R1330D
62729.699	2.525	1914680	REC_WORD	6.695	n/a	MAPLE	Trees	9	15	[0, 0, 0]	n/a	catFR1	0	R1330D
62732.224	10.157	1917205	REC_WORD_VV	9.22	n/a	<>	n/a	-999	15	[0, 0, 0]	n/a	catFR1	0	R1330D
62742.381	8.357	1927361	REC_WORD	19.377	n/a	PHONE	n/a	-999	15	[0, 0, 0]	n/a	catFR1	0	R1330D
62750.738	1.604	1935718	REC_WORD	27.734	n/a	SCREWDRIVER	Tools	-999	15	[0, 0, 0]	n/a	catFR1	0	R1330D
62752.342	0.674	1937322	REC_WORD	29.338	n/a	HAMMER	Tools	7	15	[0, 0, 0]	n/a	catFR1	0	R1330D
62753.016	0.0	1937996	REC_END	n/a	n/a	n/a	n/a	-999	15	[0, 0, 0]	n/a	catFR1	0	R1330D
62753.016	0.023	1937996	TRIAL_END	n/a	n/a	n/a	n/a	-999	15	[0, 0, 0]	n/a	catFR1	0	R1330D
62753.039	0.0	1938019	TRIAL_START	n/a	n/a	n/a	n/a	-999	16	[0, 0, 0]	n/a	catFR1	0	R1330D
62753.039	0.0	1938019	TRIAL	n/a	n/a	n/a	n/a	-999	16	[0, 0, 0]	n/a	catFR1	0	R1330D
62753.039	3.271	1938019	WAITING_START	n/a	n/a	n/a	n/a	-999	16	[0, 0, 0]	n/a	catFR1	0	R1330D
62756.31	0.0	1941289	WAITING_END	n/a	n/a	n/a	n/a	-999	16	[0, 0, 0]	n/a	catFR1	0	R1330D
62756.31	10.43	1941289	COUNTDOWN_START	n/a	n/a	n/a	n/a	-999	16	[0, 0, 0]	n/a	catFR1	0	R1330D
62766.74	0.0	1951719	COUNTDOWN_END	n/a	n/a	n/a	n/a	-999	16	[0, 0, 0]	n/a	catFR1	0	R1330D
62766.74	1.106	1951719	ORIENT_START	n/a	n/a	n/a	n/a	-999	16	[0, 0, 0]	n/a	catFR1	0	R1330D
62767.846	0.0	1952825	ORIENT_END	n/a	n/a	n/a	n/a	-999	16	[0, 0, 0]	n/a	catFR1	0	R1330D
62767.846	1.086	1952825	ENCODING_START	n/a	n/a	n/a	n/a	-999	16	[0, 0, 0]	n/a	catFR1	0	R1330D
62768.932	1.632	1953911	WORD	n/a	wordpools/wordpool_categorized_EN.txt	FOREST	Landscapes	1	16	[0, 0, 0]	n/a	catFR1	0	R1330D
62770.564	1.086	1955543	WORD_OFF	n/a	n/a	FOREST	Landscapes	1	16	[0, 0, 0]	n/a	catFR1	0	R1330D
62771.65	1.63	1956628	WORD	n/a	wordpools/wordpool_categorized_EN.txt	ISLAND	Landscapes	2	16	[0, 0, 0]	n/a	catFR1	0	R1330D
62773.28	1.108	1958258	WORD_OFF	n/a	n/a	ISLAND	Landscapes	2	16	[0, 0, 0]	n/a	catFR1	0	R1330D
62774.388	1.626	1959366	WORD	n/a	wordpools/wordpool_categorized_EN.txt	BINDER	OfficeSupplies	3	16	[0, 0, 0]	n/a	catFR1	0	R1330D
62776.014	0.915	1960992	WORD_OFF	n/a	n/a	BINDER	OfficeSupplies	3	16	[0, 0, 0]	n/a	catFR1	0	R1330D
62776.929	1.636	1961907	WORD	n/a	wordpools/wordpool_categorized_EN.txt	MARKER	OfficeSupplies	4	16	[0, 0, 0]	n/a	catFR1	0	R1330D
62778.565	0.762	1963543	WORD_OFF	n/a	n/a	MARKER	OfficeSupplies	4	16	[0, 0, 0]	n/a	catFR1	0	R1330D
62779.327	1.621	1964305	WORD	n/a	wordpools/wordpool_categorized_EN.txt	RAIN	Weather	5	16	[0, 0, 0]	n/a	catFR1	0	R1330D
62780.948	0.935	1965926	WORD_OFF	n/a	n/a	RAIN	Weather	5	16	[0, 0, 0]	n/a	catFR1	0	R1330D
62781.883	1.632	1966861	WORD	n/a	wordpools/wordpool_categorized_EN.txt	THUNDERSTORM	Weather	6	16	[0, 0, 0]	n/a	catFR1	0	R1330D
62783.515	0.81	1968493	WORD_OFF	n/a	n/a	THUNDERSTORM	Weather	6	16	[0, 0, 0]	n/a	catFR1	0	R1330D
62784.325	1.624	1969303	WORD	n/a	wordpools/wordpool_categorized_EN.txt	CREEK	Landscapes	7	16	[0, 0, 0]	n/a	catFR1	0	R1330D
62785.949	0.96	1970927	WORD_OFF	n/a	n/a	CREEK	Landscapes	7	16	[0, 0, 0]	n/a	catFR1	0	R1330D
62786.909	1.624	1971887	WORD	n/a	wordpools/wordpool_categorized_EN.txt	STREAM	Landscapes	8	16	[0, 0, 0]	n/a	catFR1	0	R1330D
62788.533	0.998	1973511	WORD_OFF	n/a	n/a	STREAM	Landscapes	8	16	[0, 0, 0]	n/a	catFR1	0	R1330D
62789.531	1.636	1974508	WORD	n/a	wordpools/wordpool_categorized_EN.txt	GLUE	OfficeSupplies	9	16	[0, 0, 0]	n/a	catFR1	0	R1330D
62791.167	0.914	1976144	WORD_OFF	n/a	n/a	GLUE	OfficeSupplies	9	16	[0, 0, 0]	n/a	catFR1	0	R1330D
62792.081	1.636	1977058	WORD	n/a	wordpools/wordpool_categorized_EN.txt	PENCIL	OfficeSupplies	10	16	[0, 0, 0]	n/a	catFR1	0	R1330D
62793.717	1.109	1978694	WORD_OFF	n/a	n/a	PENCIL	OfficeSupplies	10	16	[0, 0, 0]	n/a	catFR1	0	R1330D
62794.826	1.625	1979803	WORD	n/a	wordpools/wordpool_categorized_EN.txt	HUMIDITY	Weather	11	16	[0, 0, 0]	n/a	catFR1	0	R1330D
62796.451	0.959	1981428	WORD_OFF	n/a	n/a	HUMIDITY	Weather	11	16	[0, 0, 0]	n/a	catFR1	0	R1330D
62797.41	1.608	1982387	WORD	n/a	wordpools/wordpool_categorized_EN.txt	LIGHTNING	Weather	12	16	[0, 0, 0]	n/a	catFR1	0	R1330D
62799.018	0.0	1983995	WORD_OFF	n/a	n/a	LIGHTNING	Weather	12	16	[0, 0, 0]	n/a	catFR1	0	R1330D
62799.018	0.001	1983995	ENCODING_END	n/a	n/a	n/a	n/a	-999	16	[0, 0, 0]	n/a	catFR1	0	R1330D
62799.019	0.0	1983996	DISTRACT_START	n/a	n/a	n/a	n/a	-999	16	[0, 0, 0]	n/a	catFR1	0	R1330D
62799.019	0.015	1983996	START	n/a	n/a	n/a	n/a	-999	16	[-999, -999, -999]	n/a	catFR1	0	R1330D
62799.034	7.152	1984011	PROB	7.128	n/a	n/a	n/a	-999	16	[5, 4, 6]	15.0	catFR1	0	R1330D
62806.186	5.184	1991163	PROB	5.149	n/a	n/a	n/a	-999	16	[4, 2, 3]	9.0	catFR1	0	R1330D
62811.37	4.252	1996346	PROB	4.214	n/a	n/a	n/a	-999	16	[7, 1, 1]	9.0	catFR1	0	R1330D
62815.622	5.528	2000598	PROB	5.528	n/a	n/a	n/a	-999	16	[2, 2, 1]	5.0	catFR1	0	R1330D
62821.15	0.022	2006126	STOP	n/a	n/a	n/a	n/a	-999	16	[-999, -999, -999]	n/a	catFR1	0	R1330D
62821.172	0.549	2006148	DISTRACT_END	n/a	n/a	n/a	n/a	-999	16	[0, 0, 0]	n/a	catFR1	0	R1330D
62821.721	1.668	2006697	RETRIEVAL_ORIENT_START	n/a	n/a	n/a	n/a	-999	16	[0, 0, 0]	n/a	catFR1	0	R1330D
62823.389	0.0	2008365	RETRIEVAL_ORIENT_END	n/a	n/a	n/a	n/a	-999	16	[0, 0, 0]	n/a	catFR1	0	R1330D
62823.389	2.419	2008365	REC_START	n/a	n/a	n/a	n/a	-999	16	[0, 0, 0]	n/a	catFR1	0	R1330D
62825.808	0.515	2010783	REC_WORD	2.419	n/a	ISLAND	Landscapes	2	16	[0, 0, 0]	n/a	catFR1	0	R1330D
62826.323	1.777	2011298	REC_WORD	2.934	n/a	CREEK	Landscapes	7	16	[0, 0, 0]	n/a	catFR1	0	R1330D
62828.1	2.889	2013075	REC_WORD	4.711	n/a	MARKER	OfficeSupplies	4	16	[0, 0, 0]	n/a	catFR1	0	R1330D
62830.989	4.211	2015964	REC_WORD	7.6	n/a	THUNDERSTORM	Weather	6	16	[0, 0, 0]	n/a	catFR1	0	R1330D
62835.2	3.585	2020175	REC_WORD	11.811	n/a	MAPLE	Trees	-999	16	[0, 0, 0]	n/a	catFR1	0	R1330D
62838.785	11.621	2023760	REC_WORD_VV	15.396	n/a	<>	n/a	-999	16	[0, 0, 0]	n/a	catFR1	0	R1330D
62850.406	2.656	2035380	REC_WORD	27.017	n/a	ELK	n/a	-999	16	[0, 0, 0]	n/a	catFR1	0	R1330D
62853.062	0.339	2038036	REC_WORD	29.673	n/a	CARIBOU	n/a	-999	16	[0, 0, 0]	n/a	catFR1	0	R1330D
62853.401	0.0	2038375	REC_END	n/a	n/a	n/a	n/a	-999	16	[0, 0, 0]	n/a	catFR1	0	R1330D
62853.401	0.023	2038375	TRIAL_END	n/a	n/a	n/a	n/a	-999	16	[0, 0, 0]	n/a	catFR1	0	R1330D
62853.424	0.0	2038398	TRIAL	n/a	n/a	n/a	n/a	-999	17	[0, 0, 0]	n/a	catFR1	0	R1330D
62853.424	0.0	2038398	TRIAL_START	n/a	n/a	n/a	n/a	-999	17	[0, 0, 0]	n/a	catFR1	0	R1330D
62853.424	0.0	2038398	WAITING_START	n/a	n/a	n/a	n/a	-999	17	[0, 0, 0]	n/a	catFR1	0	R1330D
