onset	duration	sample	trial_type	response_time	stim_file	item_name	category	serialpos	list	test	answer	experiment	session	subject
0.0	4.331	199529	INSTRUCT_START	n/a	n/a	n/a	n/a	-999	-999	[0, 0, 0]	n/a	catFR1	4	R1617S
4.331	31.948	203860	INSTRUCT_END	n/a	n/a	n/a	n/a	-999	-999	[0, 0, 0]	n/a	catFR1	4	R1617S
36.279	10.349	235811	COUNTDOWN_START	n/a	n/a	n/a	n/a	-999	-999	[0, 0, 0]	n/a	catFR1	4	R1617S
46.628	0.0	246153	COUNTDOWN_END	n/a	n/a	n/a	n/a	-999	-999	[0, 0, 0]	n/a	catFR1	4	R1617S
46.628	2.001	246163	ENCODING_START	n/a	n/a	n/a	n/a	-999	-1	[0, 0, 0]	n/a	catFR1	4	R1617S
48.629	1.6	248156	WORD	n/a	n/a	FUDGE	Desserts	1	-1	[0, 0, 0]	n/a	catFR1	4	R1617S
50.229	0.834	249757	WORD_OFF	n/a	n/a	FUDGE	Desserts	1	-1	[0, 0, 0]	n/a	catFR1	4	R1617S
51.063	1.599	250592	WORD	n/a	n/a	CHEESECAKE	Desserts	2	-1	[0, 0, 0]	n/a	catFR1	4	R1617S
52.662	0.884	252193	WORD_OFF	n/a	n/a	CHEESECAKE	Desserts	2	-1	[0, 0, 0]	n/a	catFR1	4	R1617S
53.546	1.6	253077	WORD	n/a	n/a	TRUCK	Vehicles	3	-1	[0, 0, 0]	n/a	catFR1	4	R1617S
55.146	0.85	254678	WORD_OFF	n/a	n/a	TRUCK	Vehicles	3	-1	[0, 0, 0]	n/a	catFR1	4	R1617S
55.996	1.616	255523	WORD	n/a	n/a	JEEP	Vehicles	4	-1	[0, 0, 0]	n/a	catFR1	4	R1617S
57.612	0.85	257143	WORD_OFF	n/a	n/a	JEEP	Vehicles	4	-1	[0, 0, 0]	n/a	catFR1	4	R1617S
58.462	1.616	257988	WORD	n/a	n/a	SPARROW	Birds	5	-1	[0, 0, 0]	n/a	catFR1	4	R1617S
60.078	0.934	259609	WORD_OFF	n/a	n/a	SPARROW	Birds	5	-1	[0, 0, 0]	n/a	catFR1	4	R1617S
61.012	1.6	260542	WORD	n/a	n/a	HAWK	Birds	6	-1	[0, 0, 0]	n/a	catFR1	4	R1617S
62.612	0.9	262143	WORD_OFF	n/a	n/a	HAWK	Birds	6	-1	[0, 0, 0]	n/a	catFR1	4	R1617S
63.512	1.6	263046	WORD	n/a	n/a	COOKIE	Desserts	7	-1	[0, 0, 0]	n/a	catFR1	4	R1617S
65.112	0.966	264637	WORD_OFF	n/a	n/a	COOKIE	Desserts	7	-1	[0, 0, 0]	n/a	catFR1	4	R1617S
66.078	1.601	265610	WORD	n/a	n/a	PASTRY	Desserts	8	-1	[0, 0, 0]	n/a	catFR1	4	R1617S
67.679	0.883	267211	WORD_OFF	n/a	n/a	PASTRY	Desserts	8	-1	[0, 0, 0]	n/a	catFR1	4	R1617S
68.562	1.6	268095	WORD	n/a	n/a	BIKE	Vehicles	9	-1	[0, 0, 0]	n/a	catFR1	4	R1617S
70.162	0.967	269686	WORD_OFF	n/a	n/a	BIKE	Vehicles	9	-1	[0, 0, 0]	n/a	catFR1	4	R1617S
71.129	1.6	270658	WORD	n/a	n/a	TRAIN	Vehicles	10	-1	[0, 0, 0]	n/a	catFR1	4	R1617S
72.729	0.783	272259	WORD_OFF	n/a	n/a	TRAIN	Vehicles	10	-1	[0, 0, 0]	n/a	catFR1	4	R1617S
73.512	1.601	273045	WORD	n/a	n/a	ROBIN	Birds	11	-1	[0, 0, 0]	n/a	catFR1	4	R1617S
75.113	0.782	274636	WORD_OFF	n/a	n/a	ROBIN	Birds	11	-1	[0, 0, 0]	n/a	catFR1	4	R1617S
75.895	1.617	275422	WORD	n/a	n/a	PIGEON	Birds	12	-1	[0, 0, 0]	n/a	catFR1	4	R1617S
77.512	0.001	277040	PROB	0.001	n/a	n/a	n/a	-999	-1	[6, 5, 2]	13	catFR1	4	R1617S
77.513	0.0	277041	START	n/a	n/a	n/a	n/a	-999	-1	[-999, -999, -999]	n/a	catFR1	4	R1617S
77.511	0.002	277042	WORD_OFF	n/a	n/a	PIGEON	Birds	12	-1	[0, 0, 0]	n/a	catFR1	4	R1617S
77.513	0.0	277042	ENCODING_END	n/a	n/a	n/a	n/a	-999	-1	[0, 0, 0]	n/a	catFR1	4	R1617S
77.513	10.466	277042	DISTRACT_START	n/a	n/a	n/a	n/a	-999	-1	[0, 0, 0]	n/a	catFR1	4	R1617S
87.979	4.318	287506	PROB	4.318	n/a	n/a	n/a	-999	-1	[1, 1, 5]	7	catFR1	4	R1617S
92.297	4.183	291824	PROB	4.183	n/a	n/a	n/a	-999	-1	[1, 6, 8]	15	catFR1	4	R1617S
96.48	3.816	296007	PROB	3.816	n/a	n/a	n/a	-999	-1	[6, 7, 8]	21	catFR1	4	R1617S
100.296	0.0	299819	DISTRACT_END	n/a	n/a	n/a	n/a	-999	-1	[0, 0, 0]	n/a	catFR1	4	R1617S
100.296	1.383	299823	STOP	n/a	n/a	n/a	n/a	-999	-1	[-999, -999, -999]	n/a	catFR1	4	R1617S
101.679	0.827	301204	REC_START	n/a	n/a	n/a	n/a	-999	-1	[0, 0, 0]	n/a	catFR1	4	R1617S
102.506	1.153	302033	REC_WORD	1.153	n/a	FUDGE	Desserts	1	-1	[0, 0, 0]	n/a	catFR1	4	R1617S
103.659	1.97	303186	REC_WORD	1.97	n/a	CHEESECAKE	Desserts	2	-1	[0, 0, 0]	n/a	catFR1	4	R1617S
105.629	2.514	305156	REC_WORD	2.514	n/a	HAWK	Birds	6	-1	[0, 0, 0]	n/a	catFR1	4	R1617S
108.143	3.342	307669	REC_WORD_VV	3.342	n/a	<>	n/a	-999	-1	[0, 0, 0]	n/a	catFR1	4	R1617S
111.485	0.525	311011	REC_WORD_VV	0.525	n/a	<>	n/a	-999	-1	[0, 0, 0]	n/a	catFR1	4	R1617S
112.01	2.749	311536	REC_WORD	2.749	n/a	BAKERY	n/a	-999	-1	[0, 0, 0]	n/a	catFR1	4	R1617S
114.759	0.651	314285	REC_WORD_VV	0.651	n/a	<>	n/a	-999	-1	[0, 0, 0]	n/a	catFR1	4	R1617S
115.41	5.35	314936	REC_WORD	5.35	n/a	CHOCOLATE	n/a	-999	-1	[0, 0, 0]	n/a	catFR1	4	R1617S
120.76	1.553	320286	REC_WORD_VV	1.553	n/a	<>	n/a	-999	-1	[0, 0, 0]	n/a	catFR1	4	R1617S
122.313	1.24	321839	REC_WORD_VV	1.24	n/a	<>	n/a	-999	-1	[0, 0, 0]	n/a	catFR1	4	R1617S
123.553	3.329	323079	REC_WORD_VV	3.329	n/a	<>	n/a	-999	-1	[0, 0, 0]	n/a	catFR1	4	R1617S
126.882	2.662	326408	REC_WORD	2.662	n/a	TRUCK	Vehicles	3	-1	[0, 0, 0]	n/a	catFR1	4	R1617S
129.544	3.341	329069	REC_WORD	3.341	n/a	BIKE	Vehicles	9	-1	[0, 0, 0]	n/a	catFR1	4	R1617S
132.885	64.428	332408	REC_END	n/a	n/a	n/a	n/a	-999	-1	[0, 0, 0]	n/a	catFR1	4	R1617S
197.313	10.349	396839	COUNTDOWN_START	n/a	n/a	n/a	n/a	-999	1	[0, 0, 0]	n/a	catFR1	4	R1617S
207.662	0.0	407181	COUNTDOWN_END	n/a	n/a	n/a	n/a	-999	1	[0, 0, 0]	n/a	catFR1	4	R1617S
207.662	2.084	407181	ENCODING_START	n/a	n/a	n/a	n/a	-999	1	[0, 0, 0]	n/a	catFR1	4	R1617S
209.746	1.616	409263	WORD	n/a	wordpools/wordpool_categorized_EN.txt	TAPE	OfficeSupplies	1	1	[0, 0, 0]	n/a	catFR1	4	R1617S
211.362	0.784	410884	WORD_OFF	n/a	n/a	TAPE	OfficeSupplies	1	1	[0, 0, 0]	n/a	catFR1	4	R1617S
212.146	1.6	411669	WORD	n/a	wordpools/wordpool_categorized_EN.txt	BINDER	OfficeSupplies	2	1	[0, 0, 0]	n/a	catFR1	4	R1617S
213.746	1.0	413270	WORD_OFF	n/a	n/a	BINDER	OfficeSupplies	2	1	[0, 0, 0]	n/a	catFR1	4	R1617S
214.746	1.616	414262	WORD	n/a	wordpools/wordpool_categorized_EN.txt	IRON	Appliances	3	1	[0, 0, 0]	n/a	catFR1	4	R1617S
216.362	1.0	415883	WORD_OFF	n/a	n/a	IRON	Appliances	3	1	[0, 0, 0]	n/a	catFR1	4	R1617S
217.362	1.6	416885	WORD	n/a	wordpools/wordpool_categorized_EN.txt	OVEN	Appliances	4	1	[0, 0, 0]	n/a	catFR1	4	R1617S
218.962	1.0	418486	WORD_OFF	n/a	n/a	OVEN	Appliances	4	1	[0, 0, 0]	n/a	catFR1	4	R1617S
219.962	1.616	419488	WORD	n/a	wordpools/wordpool_categorized_EN.txt	JUICE	Beverages	5	1	[0, 0, 0]	n/a	catFR1	4	R1617S
221.578	0.901	421098	WORD_OFF	n/a	n/a	JUICE	Beverages	5	1	[0, 0, 0]	n/a	catFR1	4	R1617S
222.479	1.617	422002	WORD	n/a	wordpools/wordpool_categorized_EN.txt	WINE	Beverages	6	1	[0, 0, 0]	n/a	catFR1	4	R1617S
224.096	0.883	423613	WORD_OFF	n/a	n/a	WINE	Beverages	6	1	[0, 0, 0]	n/a	catFR1	4	R1617S
224.979	1.617	424497	WORD	n/a	wordpools/wordpool_categorized_EN.txt	PEN	OfficeSupplies	7	1	[0, 0, 0]	n/a	catFR1	4	R1617S
226.596	0.783	426117	WORD_OFF	n/a	n/a	PEN	OfficeSupplies	7	1	[0, 0, 0]	n/a	catFR1	4	R1617S
227.379	1.6	426903	WORD	n/a	wordpools/wordpool_categorized_EN.txt	PENCIL	OfficeSupplies	8	1	[0, 0, 0]	n/a	catFR1	4	R1617S
228.979	0.967	428504	WORD_OFF	n/a	n/a	PENCIL	OfficeSupplies	8	1	[0, 0, 0]	n/a	catFR1	4	R1617S
229.946	1.6	429466	WORD	n/a	wordpools/wordpool_categorized_EN.txt	TEA	Beverages	9	1	[0, 0, 0]	n/a	catFR1	4	R1617S
231.546	0.815	431067	WORD_OFF	n/a	n/a	TEA	Beverages	9	1	[0, 0, 0]	n/a	catFR1	4	R1617S
232.361	1.601	431883	WORD	n/a	wordpools/wordpool_categorized_EN.txt	LEMONADE	Beverages	10	1	[0, 0, 0]	n/a	catFR1	4	R1617S
233.962	0.933	433484	WORD_OFF	n/a	n/a	LEMONADE	Beverages	10	1	[0, 0, 0]	n/a	catFR1	4	R1617S
234.895	1.617	434417	WORD	n/a	wordpools/wordpool_categorized_EN.txt	TOASTER	Appliances	11	1	[0, 0, 0]	n/a	catFR1	4	R1617S
236.512	0.984	436027	WORD_OFF	n/a	n/a	TOASTER	Appliances	11	1	[0, 0, 0]	n/a	catFR1	4	R1617S
237.496	1.616	437019	WORD	n/a	wordpools/wordpool_categorized_EN.txt	STOVE	Appliances	12	1	[0, 0, 0]	n/a	catFR1	4	R1617S
239.112	0.002	438630	WORD_OFF	n/a	n/a	STOVE	Appliances	12	1	[0, 0, 0]	n/a	catFR1	4	R1617S
239.114	0.0	438630	ENCODING_END	n/a	n/a	n/a	n/a	-999	1	[0, 0, 0]	n/a	catFR1	4	R1617S
239.113	0.001	438633	PROB	0.001	n/a	n/a	n/a	-999	1	[6, 1, 3]	10	catFR1	4	R1617S
239.114	0.0	438634	START	n/a	n/a	n/a	n/a	-999	1	[-999, -999, -999]	n/a	catFR1	4	R1617S
239.114	5.132	438640	DISTRACT_START	n/a	n/a	n/a	n/a	-999	1	[0, 0, 0]	n/a	catFR1	4	R1617S
244.246	3.501	443766	PROB	3.501	n/a	n/a	n/a	-999	1	[4, 4, 4]	16	catFR1	4	R1617S
247.747	8.732	447267	PROB	8.732	n/a	n/a	n/a	-999	1	[5, 2, 8]	15	catFR1	4	R1617S
256.479	10.083	455998	PROB	10.083	n/a	n/a	n/a	-999	1	[8, 6, 5]	19	catFR1	4	R1617S
266.562	0.0	466081	STOP	n/a	n/a	n/a	n/a	-999	1	[-999, -999, -999]	n/a	catFR1	4	R1617S
266.562	1.3	466082	DISTRACT_END	n/a	n/a	n/a	n/a	-999	1	[0, 0, 0]	n/a	catFR1	4	R1617S
267.862	1.301	467379	REC_START	n/a	n/a	n/a	n/a	-999	1	[0, 0, 0]	n/a	catFR1	4	R1617S
269.163	1.175	468682	REC_WORD	1.175	n/a	PEN	OfficeSupplies	7	1	[0, 0, 0]	n/a	catFR1	4	R1617S
270.338	2.924	469856	REC_WORD	2.924	n/a	PENCIL	OfficeSupplies	8	1	[0, 0, 0]	n/a	catFR1	4	R1617S
273.262	1.94	472780	REC_WORD_VV	1.94	n/a	<>	n/a	-999	1	[0, 0, 0]	n/a	catFR1	4	R1617S
275.202	2.87	474720	REC_WORD	2.87	n/a	WOOD	n/a	-999	1	[0, 0, 0]	n/a	catFR1	4	R1617S
278.072	1.431	477590	REC_WORD	1.431	n/a	OVEN	Appliances	4	1	[0, 0, 0]	n/a	catFR1	4	R1617S
279.503	7.582	479021	REC_WORD	7.582	n/a	LEMONADE	Beverages	10	1	[0, 0, 0]	n/a	catFR1	4	R1617S
287.085	4.382	486603	REC_WORD	4.382	n/a	WINE	Beverages	6	1	[0, 0, 0]	n/a	catFR1	4	R1617S
291.467	7.584	490984	REC_WORD_VV	7.584	n/a	<>	n/a	-999	1	[0, 0, 0]	n/a	catFR1	4	R1617S
299.051	44.561	498572	REC_END	n/a	n/a	n/a	n/a	-999	1	[0, 0, 0]	n/a	catFR1	4	R1617S
343.612	10.349	543134	COUNTDOWN_START	n/a	n/a	n/a	n/a	-999	1	[0, 0, 0]	n/a	catFR1	4	R1617S
353.961	0.001	553476	COUNTDOWN_END	n/a	n/a	n/a	n/a	-999	1	[0, 0, 0]	n/a	catFR1	4	R1617S
353.962	2.167	553476	ENCODING_START	n/a	n/a	n/a	n/a	-999	2	[0, 0, 0]	n/a	catFR1	4	R1617S
356.129	1.617	555647	WORD	n/a	wordpools/wordpool_categorized_EN.txt	LAMB	FarmAnimals	1	2	[0, 0, 0]	n/a	catFR1	4	R1617S
357.746	0.816	557258	WORD_OFF	n/a	n/a	LAMB	FarmAnimals	1	2	[0, 0, 0]	n/a	catFR1	4	R1617S
358.562	1.6	558073	WORD	n/a	wordpools/wordpool_categorized_EN.txt	HORSE	FarmAnimals	2	2	[0, 0, 0]	n/a	catFR1	4	R1617S
360.162	0.833	559674	WORD_OFF	n/a	n/a	HORSE	FarmAnimals	2	2	[0, 0, 0]	n/a	catFR1	4	R1617S
360.995	1.6	560509	WORD	n/a	wordpools/wordpool_categorized_EN.txt	SHRIMP	OceanAnimals	3	2	[0, 0, 0]	n/a	catFR1	4	R1617S
362.595	0.901	562110	WORD_OFF	n/a	n/a	SHRIMP	OceanAnimals	3	2	[0, 0, 0]	n/a	catFR1	4	R1617S
363.496	1.6	563013	WORD	n/a	wordpools/wordpool_categorized_EN.txt	OCTOPUS	OceanAnimals	4	2	[0, 0, 0]	n/a	catFR1	4	R1617S
365.096	0.95	564614	WORD_OFF	n/a	n/a	OCTOPUS	OceanAnimals	4	2	[0, 0, 0]	n/a	catFR1	4	R1617S
366.046	1.6	565557	WORD	n/a	wordpools/wordpool_categorized_EN.txt	WRENCH	Tools	5	2	[0, 0, 0]	n/a	catFR1	4	R1617S
367.646	0.867	567158	WORD_OFF	n/a	n/a	WRENCH	Tools	5	2	[0, 0, 0]	n/a	catFR1	4	R1617S
368.513	1.616	568022	WORD	n/a	wordpools/wordpool_categorized_EN.txt	SAW	Tools	6	2	[0, 0, 0]	n/a	catFR1	4	R1617S
370.129	0.916	569643	WORD_OFF	n/a	n/a	SAW	Tools	6	2	[0, 0, 0]	n/a	catFR1	4	R1617S
371.045	1.601	570556	WORD	n/a	wordpools/wordpool_categorized_EN.txt	SQUID	OceanAnimals	7	2	[0, 0, 0]	n/a	catFR1	4	R1617S
372.646	0.8	572157	WORD_OFF	n/a	n/a	SQUID	OceanAnimals	7	2	[0, 0, 0]	n/a	catFR1	4	R1617S
373.446	1.616	572963	WORD	n/a	wordpools/wordpool_categorized_EN.txt	JELLYFISH	OceanAnimals	8	2	[0, 0, 0]	n/a	catFR1	4	R1617S
375.062	0.817	574573	WORD_OFF	n/a	n/a	JELLYFISH	OceanAnimals	8	2	[0, 0, 0]	n/a	catFR1	4	R1617S
375.879	1.617	575389	WORD	n/a	wordpools/wordpool_categorized_EN.txt	HEN	FarmAnimals	9	2	[0, 0, 0]	n/a	catFR1	4	R1617S
377.496	0.966	577009	WORD_OFF	n/a	n/a	HEN	FarmAnimals	9	2	[0, 0, 0]	n/a	catFR1	4	R1617S
378.462	1.6	577972	WORD	n/a	wordpools/wordpool_categorized_EN.txt	TURKEY	FarmAnimals	10	2	[0, 0, 0]	n/a	catFR1	4	R1617S
380.062	0.817	579573	WORD_OFF	n/a	n/a	TURKEY	FarmAnimals	10	2	[0, 0, 0]	n/a	catFR1	4	R1617S
380.879	1.6	580388	WORD	n/a	wordpools/wordpool_categorized_EN.txt	PLIERS	Tools	11	2	[0, 0, 0]	n/a	catFR1	4	R1617S
382.479	0.967	581989	WORD_OFF	n/a	n/a	PLIERS	Tools	11	2	[0, 0, 0]	n/a	catFR1	4	R1617S
383.446	1.601	582961	WORD	n/a	wordpools/wordpool_categorized_EN.txt	AXE	Tools	12	2	[0, 0, 0]	n/a	catFR1	4	R1617S
385.047	0.001	584560	PROB	0.001	n/a	n/a	n/a	-999	2	[2, 6, 8]	16	catFR1	4	R1617S
385.048	0.0	584561	START	n/a	n/a	n/a	n/a	-999	2	[-999, -999, -999]	n/a	catFR1	4	R1617S
385.046	0.002	584562	WORD_OFF	n/a	n/a	AXE	Tools	12	2	[0, 0, 0]	n/a	catFR1	4	R1617S
385.048	0.0	584562	ENCODING_END	n/a	n/a	n/a	n/a	-999	2	[0, 0, 0]	n/a	catFR1	4	R1617S
385.048	9.815	584562	DISTRACT_START	n/a	n/a	n/a	n/a	-999	2	[0, 0, 0]	n/a	catFR1	4	R1617S
394.863	3.334	594375	PROB	3.334	n/a	n/a	n/a	-999	2	[7, 3, 1]	11	catFR1	4	R1617S
398.197	5.65	597709	PROB	5.65	n/a	n/a	n/a	-999	2	[8, 2, 5]	15	catFR1	4	R1617S
403.847	4.165	603359	PROB	4.165	n/a	n/a	n/a	-999	2	[5, 2, 2]	9	catFR1	4	R1617S
408.012	0.0	607524	STOP	n/a	n/a	n/a	n/a	-999	2	[-999, -999, -999]	n/a	catFR1	4	R1617S
408.012	1.15	607525	DISTRACT_END	n/a	n/a	n/a	n/a	-999	2	[0, 0, 0]	n/a	catFR1	4	R1617S
409.162	0.336	608675	REC_START	n/a	n/a	n/a	n/a	-999	2	[0, 0, 0]	n/a	catFR1	4	R1617S
409.498	2.201	609010	REC_WORD_VV	2.201	n/a	<>	n/a	-999	2	[0, 0, 0]	n/a	catFR1	4	R1617S
411.699	2.384	611211	REC_WORD	2.384	n/a	LAMB	FarmAnimals	1	2	[0, 0, 0]	n/a	catFR1	4	R1617S
414.083	0.85	613594	REC_WORD	0.85	n/a	OCTOPUS	OceanAnimals	4	2	[0, 0, 0]	n/a	catFR1	4	R1617S
414.933	2.48	614444	REC_WORD	2.48	n/a	SQUID	OceanAnimals	7	2	[0, 0, 0]	n/a	catFR1	4	R1617S
417.413	7.954	616924	REC_WORD	7.954	n/a	WRENCH	Tools	5	2	[0, 0, 0]	n/a	catFR1	4	R1617S
425.367	3.245	624878	REC_WORD	3.245	n/a	HEN	FarmAnimals	9	2	[0, 0, 0]	n/a	catFR1	4	R1617S
428.612	11.749	628123	REC_WORD	11.749	n/a	HORSE	FarmAnimals	2	2	[0, 0, 0]	n/a	catFR1	4	R1617S
440.361	24.668	639869	REC_END	n/a	n/a	n/a	n/a	-999	2	[0, 0, 0]	n/a	catFR1	4	R1617S
465.029	10.35	664541	COUNTDOWN_START	n/a	n/a	n/a	n/a	-999	2	[0, 0, 0]	n/a	catFR1	4	R1617S
475.379	0.0	674883	COUNTDOWN_END	n/a	n/a	n/a	n/a	-999	2	[0, 0, 0]	n/a	catFR1	4	R1617S
475.379	2.2	674893	ENCODING_START	n/a	n/a	n/a	n/a	-999	3	[0, 0, 0]	n/a	catFR1	4	R1617S
477.579	1.617	677083	WORD	n/a	wordpools/wordpool_categorized_EN.txt	ROACH	Insects	1	3	[0, 0, 0]	n/a	catFR1	4	R1617S
479.196	0.966	678704	WORD_OFF	n/a	n/a	ROACH	Insects	1	3	[0, 0, 0]	n/a	catFR1	4	R1617S
480.162	1.618	679666	WORD	n/a	wordpools/wordpool_categorized_EN.txt	BEE	Insects	2	3	[0, 0, 0]	n/a	catFR1	4	R1617S
481.78	0.866	681287	WORD_OFF	n/a	n/a	BEE	Insects	2	3	[0, 0, 0]	n/a	catFR1	4	R1617S
482.646	1.616	682151	WORD	n/a	wordpools/wordpool_categorized_EN.txt	ISLAND	Landscapes	3	3	[0, 0, 0]	n/a	catFR1	4	R1617S
484.262	0.884	683772	WORD_OFF	n/a	n/a	ISLAND	Landscapes	3	3	[0, 0, 0]	n/a	catFR1	4	R1617S
485.146	1.6	684656	WORD	n/a	wordpools/wordpool_categorized_EN.txt	WOODS	Landscapes	4	3	[0, 0, 0]	n/a	catFR1	4	R1617S
486.746	0.833	686257	WORD_OFF	n/a	n/a	WOODS	Landscapes	4	3	[0, 0, 0]	n/a	catFR1	4	R1617S
487.579	1.617	687082	WORD	n/a	wordpools/wordpool_categorized_EN.txt	DOLLHOUSE	Toys	5	3	[0, 0, 0]	n/a	catFR1	4	R1617S
489.196	0.783	688702	WORD_OFF	n/a	n/a	DOLLHOUSE	Toys	5	3	[0, 0, 0]	n/a	catFR1	4	R1617S
489.979	1.616	689488	WORD	n/a	wordpools/wordpool_categorized_EN.txt	BARBIE	Toys	6	3	[0, 0, 0]	n/a	catFR1	4	R1617S
491.595	0.951	691099	WORD_OFF	n/a	n/a	BARBIE	Toys	6	3	[0, 0, 0]	n/a	catFR1	4	R1617S
492.546	1.615	692052	WORD	n/a	wordpools/wordpool_categorized_EN.txt	FLY	Insects	7	3	[0, 0, 0]	n/a	catFR1	4	R1617S
494.161	0.885	693672	WORD_OFF	n/a	n/a	FLY	Insects	7	3	[0, 0, 0]	n/a	catFR1	4	R1617S
495.046	1.616	694556	WORD	n/a	wordpools/wordpool_categorized_EN.txt	CRICKET	Insects	8	3	[0, 0, 0]	n/a	catFR1	4	R1617S
496.662	0.783	696167	WORD_OFF	n/a	n/a	CRICKET	Insects	8	3	[0, 0, 0]	n/a	catFR1	4	R1617S
497.445	1.6	696953	WORD	n/a	wordpools/wordpool_categorized_EN.txt	STREAM	Landscapes	9	3	[0, 0, 0]	n/a	catFR1	4	R1617S
499.045	0.916	698554	WORD_OFF	n/a	n/a	STREAM	Landscapes	9	3	[0, 0, 0]	n/a	catFR1	4	R1617S
499.961	1.602	699467	WORD	n/a	wordpools/wordpool_categorized_EN.txt	RIVER	Landscapes	10	3	[0, 0, 0]	n/a	catFR1	4	R1617S
501.563	0.932	701068	WORD_OFF	n/a	n/a	RIVER	Landscapes	10	3	[0, 0, 0]	n/a	catFR1	4	R1617S
502.495	1.601	702001	WORD	n/a	wordpools/wordpool_categorized_EN.txt	BLOCKS	Toys	11	3	[0, 0, 0]	n/a	catFR1	4	R1617S
504.096	0.849	703602	WORD_OFF	n/a	n/a	BLOCKS	Toys	11	3	[0, 0, 0]	n/a	catFR1	4	R1617S
504.945	1.601	704457	WORD	n/a	wordpools/wordpool_categorized_EN.txt	SLINKY	Toys	12	3	[0, 0, 0]	n/a	catFR1	4	R1617S
506.546	0.0	706048	WORD_OFF	n/a	n/a	SLINKY	Toys	12	3	[0, 0, 0]	n/a	catFR1	4	R1617S
506.546	0.001	706053	PROB	0.001	n/a	n/a	n/a	-999	3	[3, 7, 6]	16	catFR1	4	R1617S
506.547	0.0	706054	START	n/a	n/a	n/a	n/a	-999	3	[-999, -999, -999]	n/a	catFR1	4	R1617S
506.547	0.0	706058	ENCODING_END	n/a	n/a	n/a	n/a	-999	3	[0, 0, 0]	n/a	catFR1	4	R1617S
506.547	9.166	706058	DISTRACT_START	n/a	n/a	n/a	n/a	-999	3	[0, 0, 0]	n/a	catFR1	4	R1617S
515.713	4.482	715219	PROB	4.482	n/a	n/a	n/a	-999	3	[1, 1, 7]	9	catFR1	4	R1617S
520.195	8.784	719701	PROB	8.784	n/a	n/a	n/a	-999	3	[5, 3, 6]	14	catFR1	4	R1617S
528.979	0.0	728481	DISTRACT_END	n/a	n/a	n/a	n/a	-999	3	[0, 0, 0]	n/a	catFR1	4	R1617S
528.979	1.383	728485	STOP	n/a	n/a	n/a	n/a	-999	3	[-999, -999, -999]	n/a	catFR1	4	R1617S
530.362	0.58	729865	REC_START	n/a	n/a	n/a	n/a	-999	3	[0, 0, 0]	n/a	catFR1	4	R1617S
530.942	1.149	730448	REC_WORD	1.149	n/a	BOX	n/a	-999	3	[0, 0, 0]	n/a	catFR1	4	R1617S
532.091	2.687	731597	REC_WORD	2.687	n/a	SLINKY	Toys	12	3	[0, 0, 0]	n/a	catFR1	4	R1617S
534.778	1.436	734284	REC_WORD	1.436	n/a	WOODS	Landscapes	4	3	[0, 0, 0]	n/a	catFR1	4	R1617S
536.214	2.412	735719	REC_WORD	2.412	n/a	ISLAND	Landscapes	3	3	[0, 0, 0]	n/a	catFR1	4	R1617S
538.626	1.722	738131	REC_WORD	1.722	n/a	ROACH	Insects	1	3	[0, 0, 0]	n/a	catFR1	4	R1617S
540.348	4.169	739853	REC_WORD	4.169	n/a	BEE	Insects	2	3	[0, 0, 0]	n/a	catFR1	4	R1617S
544.517	17.078	744022	REC_WORD	17.078	n/a	ANTS	n/a	-999	3	[0, 0, 0]	n/a	catFR1	4	R1617S
561.595	17.402	761099	REC_END	n/a	n/a	n/a	n/a	-999	3	[0, 0, 0]	n/a	catFR1	4	R1617S
578.997	10.348	778503	COUNTDOWN_START	n/a	n/a	n/a	n/a	-999	3	[0, 0, 0]	n/a	catFR1	4	R1617S
589.345	0.0	788845	COUNTDOWN_END	n/a	n/a	n/a	n/a	-999	3	[0, 0, 0]	n/a	catFR1	4	R1617S
589.345	2.0	788845	ENCODING_START	n/a	n/a	n/a	n/a	-999	4	[0, 0, 0]	n/a	catFR1	4	R1617S
591.345	1.6	790849	WORD	n/a	wordpools/wordpool_categorized_EN.txt	KNIFE	KitchenTools	1	4	[0, 0, 0]	n/a	catFR1	4	R1617S
592.945	0.967	792450	WORD_OFF	n/a	n/a	KNIFE	KitchenTools	1	4	[0, 0, 0]	n/a	catFR1	4	R1617S
593.912	1.617	793412	WORD	n/a	wordpools/wordpool_categorized_EN.txt	SPOON	KitchenTools	2	4	[0, 0, 0]	n/a	catFR1	4	R1617S
595.529	0.849	795033	WORD_OFF	n/a	n/a	SPOON	KitchenTools	2	4	[0, 0, 0]	n/a	catFR1	4	R1617S
596.378	1.601	795878	WORD	n/a	wordpools/wordpool_categorized_EN.txt	RECLINER	Furniture	3	4	[0, 0, 0]	n/a	catFR1	4	R1617S
597.979	1.0	797479	WORD_OFF	n/a	n/a	RECLINER	Furniture	3	4	[0, 0, 0]	n/a	catFR1	4	R1617S
598.979	1.617	798480	WORD	n/a	wordpools/wordpool_categorized_EN.txt	BOOKCASE	Furniture	4	4	[0, 0, 0]	n/a	catFR1	4	R1617S
600.596	0.999	800101	WORD_OFF	n/a	n/a	BOOKCASE	Furniture	4	4	[0, 0, 0]	n/a	catFR1	4	R1617S
601.595	1.601	801093	WORD	n/a	wordpools/wordpool_categorized_EN.txt	CAULIFLOWER	Vegetables	5	4	[0, 0, 0]	n/a	catFR1	4	R1617S
603.196	1.0	802694	WORD_OFF	n/a	n/a	CAULIFLOWER	Vegetables	5	4	[0, 0, 0]	n/a	catFR1	4	R1617S
604.196	1.616	803696	WORD	n/a	wordpools/wordpool_categorized_EN.txt	CUCUMBER	Vegetables	6	4	[0, 0, 0]	n/a	catFR1	4	R1617S
605.812	0.967	805316	WORD_OFF	n/a	n/a	CUCUMBER	Vegetables	6	4	[0, 0, 0]	n/a	catFR1	4	R1617S
606.779	1.617	806279	WORD	n/a	wordpools/wordpool_categorized_EN.txt	SHELF	Furniture	7	4	[0, 0, 0]	n/a	catFR1	4	R1617S
608.396	0.966	807900	WORD_OFF	n/a	n/a	SHELF	Furniture	7	4	[0, 0, 0]	n/a	catFR1	4	R1617S
609.362	1.601	808862	WORD	n/a	wordpools/wordpool_categorized_EN.txt	DESK	Furniture	8	4	[0, 0, 0]	n/a	catFR1	4	R1617S
610.963	0.997	810463	WORD_OFF	n/a	n/a	DESK	Furniture	8	4	[0, 0, 0]	n/a	catFR1	4	R1617S
611.96	1.602	811465	WORD	n/a	wordpools/wordpool_categorized_EN.txt	CABBAGE	Vegetables	9	4	[0, 0, 0]	n/a	catFR1	4	R1617S
613.562	0.85	813066	WORD_OFF	n/a	n/a	CABBAGE	Vegetables	9	4	[0, 0, 0]	n/a	catFR1	4	R1617S
614.412	1.617	813910	WORD	n/a	wordpools/wordpool_categorized_EN.txt	PEAS	Vegetables	10	4	[0, 0, 0]	n/a	catFR1	4	R1617S
616.029	0.916	815531	WORD_OFF	n/a	n/a	PEAS	Vegetables	10	4	[0, 0, 0]	n/a	catFR1	4	R1617S
616.945	1.601	816444	WORD	n/a	wordpools/wordpool_categorized_EN.txt	PEELER	KitchenTools	11	4	[0, 0, 0]	n/a	catFR1	4	R1617S
618.546	0.783	818045	WORD_OFF	n/a	n/a	PEELER	KitchenTools	11	4	[0, 0, 0]	n/a	catFR1	4	R1617S
619.329	1.601	818831	WORD	n/a	wordpools/wordpool_categorized_EN.txt	WHISK	KitchenTools	12	4	[0, 0, 0]	n/a	catFR1	4	R1617S
620.93	0.0	820431	PROB	0.0	n/a	n/a	n/a	-999	4	[4, 5, 5]	14	catFR1	4	R1617S
620.929	0.002	820432	WORD_OFF	n/a	n/a	WHISK	KitchenTools	12	4	[0, 0, 0]	n/a	catFR1	4	R1617S
620.931	0.0	820432	ENCODING_END	n/a	n/a	n/a	n/a	-999	4	[0, 0, 0]	n/a	catFR1	4	R1617S
620.931	0.0	820432	DISTRACT_START	n/a	n/a	n/a	n/a	-999	4	[0, 0, 0]	n/a	catFR1	4	R1617S
620.931	11.965	820432	START	n/a	n/a	n/a	n/a	-999	4	[-999, -999, -999]	n/a	catFR1	4	R1617S
632.896	4.267	832397	PROB	4.267	n/a	n/a	n/a	-999	4	[2, 2, 6]	10	catFR1	4	R1617S
637.163	6.583	836664	PROB	6.583	n/a	n/a	n/a	-999	4	[6, 3, 5]	14	catFR1	4	R1617S
643.746	0.0	843246	STOP	n/a	n/a	n/a	n/a	-999	4	[-999, -999, -999]	n/a	catFR1	4	R1617S
643.746	1.3	843248	DISTRACT_END	n/a	n/a	n/a	n/a	-999	4	[0, 0, 0]	n/a	catFR1	4	R1617S
645.046	1.339	844545	REC_START	n/a	n/a	n/a	n/a	-999	4	[0, 0, 0]	n/a	catFR1	4	R1617S
646.385	1.402	845885	REC_WORD_VV	1.402	n/a	<>	n/a	-999	4	[0, 0, 0]	n/a	catFR1	4	R1617S
647.787	1.685	847287	REC_WORD	1.685	n/a	WHISK	KitchenTools	12	4	[0, 0, 0]	n/a	catFR1	4	R1617S
649.472	0.714	848972	REC_WORD	0.714	n/a	WHISK	KitchenTools	12	4	[0, 0, 0]	n/a	catFR1	4	R1617S
650.186	1.515	849686	REC_WORD	1.515	n/a	PEELER	KitchenTools	11	4	[0, 0, 0]	n/a	catFR1	4	R1617S
651.701	18.324	851201	REC_WORD_VV	18.324	n/a	<>	n/a	-999	4	[0, 0, 0]	n/a	catFR1	4	R1617S
670.025	6.255	869524	REC_WORD	6.255	n/a	ROACH	Insects	-999	4	[0, 0, 0]	n/a	catFR1	4	R1617S
676.28	21.816	875778	REC_END	n/a	n/a	n/a	n/a	-999	4	[0, 0, 0]	n/a	catFR1	4	R1617S
698.096	10.349	897592	COUNTDOWN_START	n/a	n/a	n/a	n/a	-999	4	[0, 0, 0]	n/a	catFR1	4	R1617S
708.445	0.0	907944	COUNTDOWN_END	n/a	n/a	n/a	n/a	-999	4	[0, 0, 0]	n/a	catFR1	4	R1617S
708.445	1.917	907944	ENCODING_START	n/a	n/a	n/a	n/a	-999	5	[0, 0, 0]	n/a	catFR1	4	R1617S
710.362	1.6	909859	WORD	n/a	wordpools/wordpool_categorized_EN.txt	FLUTE	Instruments	1	5	[0, 0, 0]	n/a	catFR1	4	R1617S
711.962	0.851	911460	WORD_OFF	n/a	n/a	FLUTE	Instruments	1	5	[0, 0, 0]	n/a	catFR1	4	R1617S
712.813	1.599	912305	WORD	n/a	wordpools/wordpool_categorized_EN.txt	TUBA	Instruments	2	5	[0, 0, 0]	n/a	catFR1	4	R1617S
714.412	1.0	913906	WORD_OFF	n/a	n/a	TUBA	Instruments	2	5	[0, 0, 0]	n/a	catFR1	4	R1617S
715.412	1.601	914908	WORD	n/a	wordpools/wordpool_categorized_EN.txt	LEMON	Fruit	3	5	[0, 0, 0]	n/a	catFR1	4	R1617S
717.013	0.866	916509	WORD_OFF	n/a	n/a	LEMON	Fruit	3	5	[0, 0, 0]	n/a	catFR1	4	R1617S
717.879	1.617	917373	WORD	n/a	wordpools/wordpool_categorized_EN.txt	BLUEBERRY	Fruit	4	5	[0, 0, 0]	n/a	catFR1	4	R1617S
719.496	0.983	918994	WORD_OFF	n/a	n/a	BLUEBERRY	Fruit	4	5	[0, 0, 0]	n/a	catFR1	4	R1617S
720.479	1.6	919976	WORD	n/a	wordpools/wordpool_categorized_EN.txt	GIRAFFE	Zoo	5	5	[0, 0, 0]	n/a	catFR1	4	R1617S
722.079	0.95	921577	WORD_OFF	n/a	n/a	GIRAFFE	Zoo	5	5	[0, 0, 0]	n/a	catFR1	4	R1617S
723.029	1.617	922529	WORD	n/a	wordpools/wordpool_categorized_EN.txt	TIGER	Zoo	6	5	[0, 0, 0]	n/a	catFR1	4	R1617S
724.646	1.0	924140	WORD_OFF	n/a	n/a	TIGER	Zoo	6	5	[0, 0, 0]	n/a	catFR1	4	R1617S
725.646	1.614	925142	WORD	n/a	wordpools/wordpool_categorized_EN.txt	ORANGE	Fruit	7	5	[0, 0, 0]	n/a	catFR1	4	R1617S
727.26	0.802	926753	WORD_OFF	n/a	n/a	ORANGE	Fruit	7	5	[0, 0, 0]	n/a	catFR1	4	R1617S
728.062	1.6	927558	WORD	n/a	wordpools/wordpool_categorized_EN.txt	GRAPE	Fruit	8	5	[0, 0, 0]	n/a	catFR1	4	R1617S
729.662	0.834	929159	WORD_OFF	n/a	n/a	GRAPE	Fruit	8	5	[0, 0, 0]	n/a	catFR1	4	R1617S
730.496	1.616	929994	WORD	n/a	wordpools/wordpool_categorized_EN.txt	CELLO	Instruments	9	5	[0, 0, 0]	n/a	catFR1	4	R1617S
732.112	0.817	931605	WORD_OFF	n/a	n/a	CELLO	Instruments	9	5	[0, 0, 0]	n/a	catFR1	4	R1617S
732.929	1.6	932430	WORD	n/a	wordpools/wordpool_categorized_EN.txt	TRUMPET	Instruments	10	5	[0, 0, 0]	n/a	catFR1	4	R1617S
734.529	0.967	934021	WORD_OFF	n/a	n/a	TRUMPET	Instruments	10	5	[0, 0, 0]	n/a	catFR1	4	R1617S
735.496	1.6	934993	WORD	n/a	wordpools/wordpool_categorized_EN.txt	PANDA	Zoo	11	5	[0, 0, 0]	n/a	catFR1	4	R1617S
737.096	0.9	936594	WORD_OFF	n/a	n/a	PANDA	Zoo	11	5	[0, 0, 0]	n/a	catFR1	4	R1617S
737.996	1.616	937488	WORD	n/a	wordpools/wordpool_categorized_EN.txt	ZEBRA	Zoo	12	5	[0, 0, 0]	n/a	catFR1	4	R1617S
739.612	0.002	939109	WORD_OFF	n/a	n/a	ZEBRA	Zoo	12	5	[0, 0, 0]	n/a	catFR1	4	R1617S
739.614	0.0	939109	ENCODING_END	n/a	n/a	n/a	n/a	-999	5	[0, 0, 0]	n/a	catFR1	4	R1617S
739.614	0.0	939109	DISTRACT_START	n/a	n/a	n/a	n/a	-999	5	[0, 0, 0]	n/a	catFR1	4	R1617S
739.613	0.001	939109	PROB	0.001	n/a	n/a	n/a	-999	5	[6, 6, 6]	18	catFR1	4	R1617S
739.614	4.949	939110	START	n/a	n/a	n/a	n/a	-999	5	[-999, -999, -999]	n/a	catFR1	4	R1617S
744.563	4.133	944058	PROB	4.133	n/a	n/a	n/a	-999	5	[6, 4, 7]	17	catFR1	4	R1617S
748.696	7.966	948191	PROB	7.966	n/a	n/a	n/a	-999	5	[8, 7, 7]	23	catFR1	4	R1617S
756.662	5.884	956157	PROB	5.884	n/a	n/a	n/a	-999	5	[7, 3, 8]	18	catFR1	4	R1617S
762.546	0.0	962040	STOP	n/a	n/a	n/a	n/a	-999	5	[-999, -999, -999]	n/a	catFR1	4	R1617S
762.546	1.083	962042	DISTRACT_END	n/a	n/a	n/a	n/a	-999	5	[0, 0, 0]	n/a	catFR1	4	R1617S
763.629	1.8	963123	REC_START	n/a	n/a	n/a	n/a	-999	5	[0, 0, 0]	n/a	catFR1	4	R1617S
765.429	1.65	964923	REC_WORD_VV	1.65	n/a	<>	n/a	-999	5	[0, 0, 0]	n/a	catFR1	4	R1617S
767.079	1.719	966573	REC_WORD	1.719	n/a	LEMON	Fruit	3	5	[0, 0, 0]	n/a	catFR1	4	R1617S
768.798	3.08	968292	REC_WORD	3.08	n/a	TUBA	Instruments	2	5	[0, 0, 0]	n/a	catFR1	4	R1617S
771.878	1.537	971372	REC_WORD	1.537	n/a	BLUEBERRY	Fruit	4	5	[0, 0, 0]	n/a	catFR1	4	R1617S
773.415	5.797	972909	REC_WORD	5.797	n/a	ORANGE	Fruit	7	5	[0, 0, 0]	n/a	catFR1	4	R1617S
779.212	10.636	978706	REC_WORD_VV	10.636	n/a	<>	n/a	-999	5	[0, 0, 0]	n/a	catFR1	4	R1617S
789.848	1.158	989341	REC_WORD	1.158	n/a	PANDA	Zoo	11	5	[0, 0, 0]	n/a	catFR1	4	R1617S
791.006	3.857	990499	REC_WORD	3.857	n/a	ZEBRA	Zoo	12	5	[0, 0, 0]	n/a	catFR1	4	R1617S
794.863	14.483	994356	REC_END	n/a	n/a	n/a	n/a	-999	5	[0, 0, 0]	n/a	catFR1	4	R1617S
809.346	10.349	1008843	COUNTDOWN_START	n/a	n/a	n/a	n/a	-999	5	[0, 0, 0]	n/a	catFR1	4	R1617S
819.695	0.0	1019186	COUNTDOWN_END	n/a	n/a	n/a	n/a	-999	5	[0, 0, 0]	n/a	catFR1	4	R1617S
819.695	2.236	1019186	ENCODING_START	n/a	n/a	n/a	n/a	-999	6	[0, 0, 0]	n/a	catFR1	4	R1617S
821.931	1.598	1021425	WORD	n/a	wordpools/wordpool_categorized_EN.txt	HURRICANE	Weather	1	6	[0, 0, 0]	n/a	catFR1	4	R1617S
823.529	0.884	1023016	WORD_OFF	n/a	n/a	HURRICANE	Weather	1	6	[0, 0, 0]	n/a	catFR1	4	R1617S
824.413	1.616	1023900	WORD	n/a	wordpools/wordpool_categorized_EN.txt	TORNADO	Weather	2	6	[0, 0, 0]	n/a	catFR1	4	R1617S
826.029	1.0	1025521	WORD_OFF	n/a	n/a	TORNADO	Weather	2	6	[0, 0, 0]	n/a	catFR1	4	R1617S
827.029	1.6	1026522	WORD	n/a	wordpools/wordpool_categorized_EN.txt	OCEAN	Landscapes	3	6	[0, 0, 0]	n/a	catFR1	4	R1617S
828.629	0.95	1028123	WORD_OFF	n/a	n/a	OCEAN	Landscapes	3	6	[0, 0, 0]	n/a	catFR1	4	R1617S
829.579	1.616	1029066	WORD	n/a	wordpools/wordpool_categorized_EN.txt	CREEK	Landscapes	4	6	[0, 0, 0]	n/a	catFR1	4	R1617S
831.195	0.934	1030687	WORD_OFF	n/a	n/a	CREEK	Landscapes	4	6	[0, 0, 0]	n/a	catFR1	4	R1617S
832.129	1.616	1031620	WORD	n/a	wordpools/wordpool_categorized_EN.txt	HEADPHONES	Electronics	5	6	[0, 0, 0]	n/a	catFR1	4	R1617S
833.745	0.767	1033240	WORD_OFF	n/a	n/a	HEADPHONES	Electronics	5	6	[0, 0, 0]	n/a	catFR1	4	R1617S
834.512	1.601	1034007	WORD	n/a	wordpools/wordpool_categorized_EN.txt	TABLET	Electronics	6	6	[0, 0, 0]	n/a	catFR1	4	R1617S
836.113	0.817	1035608	WORD_OFF	n/a	n/a	TABLET	Electronics	6	6	[0, 0, 0]	n/a	catFR1	4	R1617S
836.93	1.616	1036423	WORD	n/a	wordpools/wordpool_categorized_EN.txt	HILLS	Landscapes	7	6	[0, 0, 0]	n/a	catFR1	4	R1617S
838.546	0.883	1038034	WORD_OFF	n/a	n/a	HILLS	Landscapes	7	6	[0, 0, 0]	n/a	catFR1	4	R1617S
839.429	1.6	1038917	WORD	n/a	wordpools/wordpool_categorized_EN.txt	LAKE	Landscapes	8	6	[0, 0, 0]	n/a	catFR1	4	R1617S
841.029	0.783	1040518	WORD_OFF	n/a	n/a	LAKE	Landscapes	8	6	[0, 0, 0]	n/a	catFR1	4	R1617S
841.812	1.617	1041304	WORD	n/a	wordpools/wordpool_categorized_EN.txt	SCANNER	Electronics	9	6	[0, 0, 0]	n/a	catFR1	4	R1617S
843.429	0.9	1042915	WORD_OFF	n/a	n/a	SCANNER	Electronics	9	6	[0, 0, 0]	n/a	catFR1	4	R1617S
844.329	1.617	1043819	WORD	n/a	wordpools/wordpool_categorized_EN.txt	MICROWAVE	Electronics	10	6	[0, 0, 0]	n/a	catFR1	4	R1617S
845.946	0.849	1045439	WORD_OFF	n/a	n/a	MICROWAVE	Electronics	10	6	[0, 0, 0]	n/a	catFR1	4	R1617S
846.795	1.6	1046284	WORD	n/a	wordpools/wordpool_categorized_EN.txt	DRIZZLE	Weather	11	6	[0, 0, 0]	n/a	catFR1	4	R1617S
848.395	0.917	1047885	WORD_OFF	n/a	n/a	DRIZZLE	Weather	11	6	[0, 0, 0]	n/a	catFR1	4	R1617S
849.312	1.618	1048798	WORD	n/a	wordpools/wordpool_categorized_EN.txt	LIGHTNING	Weather	12	6	[0, 0, 0]	n/a	catFR1	4	R1617S
850.93	0.002	1050419	WORD_OFF	n/a	n/a	LIGHTNING	Weather	12	6	[0, 0, 0]	n/a	catFR1	4	R1617S
850.932	0.0	1050419	ENCODING_END	n/a	n/a	n/a	n/a	-999	6	[0, 0, 0]	n/a	catFR1	4	R1617S
850.932	0.0	1050419	DISTRACT_START	n/a	n/a	n/a	n/a	-999	6	[0, 0, 0]	n/a	catFR1	4	R1617S
850.93	0.002	1050420	PROB	0.002	n/a	n/a	n/a	-999	6	[8, 6, 6]	28	catFR1	4	R1617S
850.932	11.047	1050422	START	n/a	n/a	n/a	n/a	-999	6	[-999, -999, -999]	n/a	catFR1	4	R1617S
861.979	12.167	1061469	PROB	12.167	n/a	n/a	n/a	-999	6	[5, 3, 4]	12	catFR1	4	R1617S
874.146	0.0	1073635	STOP	n/a	n/a	n/a	n/a	-999	6	[-999, -999, -999]	n/a	catFR1	4	R1617S
874.146	1.317	1073637	DISTRACT_END	n/a	n/a	n/a	n/a	-999	6	[0, 0, 0]	n/a	catFR1	4	R1617S
875.463	0.01	1074954	REC_START	n/a	n/a	n/a	n/a	-999	6	[0, 0, 0]	n/a	catFR1	4	R1617S
875.473	2.334	1074962	REC_WORD_VV	2.334	n/a	<>	n/a	-999	6	[0, 0, 0]	n/a	catFR1	4	R1617S
877.807	2.564	1077296	REC_WORD	2.564	n/a	OCEAN	Landscapes	3	6	[0, 0, 0]	n/a	catFR1	4	R1617S
880.371	4.585	1079860	REC_WORD	4.585	n/a	HURRICANE	Weather	1	6	[0, 0, 0]	n/a	catFR1	4	R1617S
884.956	0.636	1084444	REC_WORD_VV	0.636	n/a	<>	n/a	-999	6	[0, 0, 0]	n/a	catFR1	4	R1617S
885.592	3.009	1085080	REC_WORD	3.009	n/a	TORNADO	Weather	2	6	[0, 0, 0]	n/a	catFR1	4	R1617S
888.601	4.093	1088089	REC_WORD	4.093	n/a	TABLET	Electronics	6	6	[0, 0, 0]	n/a	catFR1	4	R1617S
892.694	8.57	1092182	REC_WORD_VV	8.57	n/a	<>	n/a	-999	6	[0, 0, 0]	n/a	catFR1	4	R1617S
901.264	5.431	1100752	REC_WORD	5.431	n/a	RAIN	n/a	-999	6	[0, 0, 0]	n/a	catFR1	4	R1617S
906.695	17.284	1106187	REC_END	n/a	n/a	n/a	n/a	-999	6	[0, 0, 0]	n/a	catFR1	4	R1617S
923.979	10.349	1123473	COUNTDOWN_START	n/a	n/a	n/a	n/a	-999	6	[0, 0, 0]	n/a	catFR1	4	R1617S
934.328	0.0	1133816	COUNTDOWN_END	n/a	n/a	n/a	n/a	-999	6	[0, 0, 0]	n/a	catFR1	4	R1617S
934.328	2.134	1133816	ENCODING_START	n/a	n/a	n/a	n/a	-999	7	[0, 0, 0]	n/a	catFR1	4	R1617S
936.462	1.616	1135947	WORD	n/a	wordpools/wordpool_categorized_EN.txt	UNDERWEAR	Clothing	1	7	[0, 0, 0]	n/a	catFR1	4	R1617S
938.078	0.884	1137567	WORD_OFF	n/a	n/a	UNDERWEAR	Clothing	1	7	[0, 0, 0]	n/a	catFR1	4	R1617S
938.962	1.6	1138451	WORD	n/a	wordpools/wordpool_categorized_EN.txt	JEANS	Clothing	2	7	[0, 0, 0]	n/a	catFR1	4	R1617S
940.562	0.984	1140046	WORD_OFF	n/a	n/a	JEANS	Clothing	2	7	[0, 0, 0]	n/a	catFR1	4	R1617S
941.546	1.616	1141035	WORD	n/a	wordpools/wordpool_categorized_EN.txt	THUNDER	Weather	3	7	[0, 0, 0]	n/a	catFR1	4	R1617S
943.162	0.883	1142645	WORD_OFF	n/a	n/a	THUNDER	Weather	3	7	[0, 0, 0]	n/a	catFR1	4	R1617S
944.045	1.6	1143529	WORD	n/a	wordpools/wordpool_categorized_EN.txt	CLOUD	Weather	4	7	[0, 0, 0]	n/a	catFR1	4	R1617S
945.645	0.834	1145130	WORD_OFF	n/a	n/a	CLOUD	Weather	4	7	[0, 0, 0]	n/a	catFR1	4	R1617S
946.479	1.616	1145965	WORD	n/a	wordpools/wordpool_categorized_EN.txt	SCREWDRIVER	Tools	5	7	[0, 0, 0]	n/a	catFR1	4	R1617S
948.095	0.8	1147576	WORD_OFF	n/a	n/a	SCREWDRIVER	Tools	5	7	[0, 0, 0]	n/a	catFR1	4	R1617S
948.895	1.6	1148381	WORD	n/a	wordpools/wordpool_categorized_EN.txt	SANDER	Tools	6	7	[0, 0, 0]	n/a	catFR1	4	R1617S
950.495	0.917	1149982	WORD_OFF	n/a	n/a	SANDER	Tools	6	7	[0, 0, 0]	n/a	catFR1	4	R1617S
951.412	1.6	1150896	WORD	n/a	wordpools/wordpool_categorized_EN.txt	WIND	Weather	7	7	[0, 0, 0]	n/a	catFR1	4	R1617S
953.012	0.867	1152496	WORD_OFF	n/a	n/a	WIND	Weather	7	7	[0, 0, 0]	n/a	catFR1	4	R1617S
953.879	1.6	1153361	WORD	n/a	wordpools/wordpool_categorized_EN.txt	RAIN	Weather	8	7	[0, 0, 0]	n/a	catFR1	4	R1617S
955.479	0.816	1154962	WORD_OFF	n/a	n/a	RAIN	Weather	8	7	[0, 0, 0]	n/a	catFR1	4	R1617S
956.295	1.6	1155777	WORD	n/a	wordpools/wordpool_categorized_EN.txt	HAMMER	Tools	9	7	[0, 0, 0]	n/a	catFR1	4	R1617S
957.895	0.917	1157378	WORD_OFF	n/a	n/a	HAMMER	Tools	9	7	[0, 0, 0]	n/a	catFR1	4	R1617S
958.812	1.6	1158301	WORD	n/a	wordpools/wordpool_categorized_EN.txt	CROWBAR	Tools	10	7	[0, 0, 0]	n/a	catFR1	4	R1617S
960.412	0.833	1159902	WORD_OFF	n/a	n/a	CROWBAR	Tools	10	7	[0, 0, 0]	n/a	catFR1	4	R1617S
961.245	1.601	1160727	WORD	n/a	wordpools/wordpool_categorized_EN.txt	SKIRT	Clothing	11	7	[0, 0, 0]	n/a	catFR1	4	R1617S
962.846	0.916	1162328	WORD_OFF	n/a	n/a	SKIRT	Clothing	11	7	[0, 0, 0]	n/a	catFR1	4	R1617S
963.762	1.6	1163242	WORD	n/a	wordpools/wordpool_categorized_EN.txt	JACKET	Clothing	12	7	[0, 0, 0]	n/a	catFR1	4	R1617S
965.362	0.002	1164842	WORD_OFF	n/a	n/a	JACKET	Clothing	12	7	[0, 0, 0]	n/a	catFR1	4	R1617S
965.364	0.0	1164848	START	n/a	n/a	n/a	n/a	-999	7	[-999, -999, -999]	n/a	catFR1	4	R1617S
965.364	0.0	1164848	PROB	0.0	n/a	n/a	n/a	-999	7	[3, 6, 6]	15	catFR1	4	R1617S
965.364	0.0	1164852	ENCODING_END	n/a	n/a	n/a	n/a	-999	7	[0, 0, 0]	n/a	catFR1	4	R1617S
965.364	8.466	1164852	DISTRACT_START	n/a	n/a	n/a	n/a	-999	7	[0, 0, 0]	n/a	catFR1	4	R1617S
973.83	5.633	1173314	PROB	5.633	n/a	n/a	n/a	-999	7	[2, 8, 7]	17	catFR1	4	R1617S
979.463	5.016	1178947	PROB	5.016	n/a	n/a	n/a	-999	7	[1, 5, 3]	9	catFR1	4	R1617S
984.479	5.934	1183963	PROB	5.934	n/a	n/a	n/a	-999	7	[5, 1, 3]	9	catFR1	4	R1617S
990.413	0.0	1189896	STOP	n/a	n/a	n/a	n/a	-999	7	[-999, -999, -999]	n/a	catFR1	4	R1617S
990.413	1.149	1189898	DISTRACT_END	n/a	n/a	n/a	n/a	-999	7	[0, 0, 0]	n/a	catFR1	4	R1617S
991.562	2.539	1191047	REC_START	n/a	n/a	n/a	n/a	-999	7	[0, 0, 0]	n/a	catFR1	4	R1617S
994.101	2.781	1193584	REC_WORD_VV	2.781	n/a	<>	n/a	-999	7	[0, 0, 0]	n/a	catFR1	4	R1617S
996.882	1.987	1196365	REC_WORD	1.987	n/a	UNDERWEAR	Clothing	1	7	[0, 0, 0]	n/a	catFR1	4	R1617S
998.869	5.132	1198352	REC_WORD	5.132	n/a	PANTS	n/a	-999	7	[0, 0, 0]	n/a	catFR1	4	R1617S
1004.001	4.636	1203484	REC_WORD	4.636	n/a	SKIRT	Clothing	11	7	[0, 0, 0]	n/a	catFR1	4	R1617S
1008.637	1.239	1208119	REC_WORD_VV	1.239	n/a	<>	n/a	-999	7	[0, 0, 0]	n/a	catFR1	4	R1617S
1009.876	12.928	1209358	REC_WORD_VV	12.928	n/a	<>	n/a	-999	7	[0, 0, 0]	n/a	catFR1	4	R1617S
1022.804	20.175	1222290	REC_END	n/a	n/a	n/a	n/a	-999	7	[0, 0, 0]	n/a	catFR1	4	R1617S
1042.979	10.35	1242464	COUNTDOWN_START	n/a	n/a	n/a	n/a	-999	7	[0, 0, 0]	n/a	catFR1	4	R1617S
1053.329	0.0	1252806	COUNTDOWN_END	n/a	n/a	n/a	n/a	-999	7	[0, 0, 0]	n/a	catFR1	4	R1617S
1053.329	1.95	1252806	ENCODING_START	n/a	n/a	n/a	n/a	-999	8	[0, 0, 0]	n/a	catFR1	4	R1617S
1055.279	1.6	1254761	WORD	n/a	wordpools/wordpool_categorized_EN.txt	CAR	Vehicles	1	8	[0, 0, 0]	n/a	catFR1	4	R1617S
1056.879	0.985	1256362	WORD_OFF	n/a	n/a	CAR	Vehicles	1	8	[0, 0, 0]	n/a	catFR1	4	R1617S
1057.864	1.615	1257344	WORD	n/a	wordpools/wordpool_categorized_EN.txt	BOAT	Vehicles	2	8	[0, 0, 0]	n/a	catFR1	4	R1617S
1059.479	0.934	1258955	WORD_OFF	n/a	n/a	BOAT	Vehicles	2	8	[0, 0, 0]	n/a	catFR1	4	R1617S
1060.413	1.615	1259888	WORD	n/a	wordpools/wordpool_categorized_EN.txt	ORGAN	Instruments	3	8	[0, 0, 0]	n/a	catFR1	4	R1617S
1062.028	0.818	1261508	WORD_OFF	n/a	n/a	ORGAN	Instruments	3	8	[0, 0, 0]	n/a	catFR1	4	R1617S
1062.846	1.616	1262324	WORD	n/a	wordpools/wordpool_categorized_EN.txt	DRUM	Instruments	4	8	[0, 0, 0]	n/a	catFR1	4	R1617S
1064.462	0.834	1263944	WORD_OFF	n/a	n/a	DRUM	Instruments	4	8	[0, 0, 0]	n/a	catFR1	4	R1617S
1065.296	1.6	1264779	WORD	n/a	wordpools/wordpool_categorized_EN.txt	DOOR	Building	5	8	[0, 0, 0]	n/a	catFR1	4	R1617S
1066.896	1.0	1266370	WORD_OFF	n/a	n/a	DOOR	Building	5	8	[0, 0, 0]	n/a	catFR1	4	R1617S
1067.896	1.616	1267372	WORD	n/a	wordpools/wordpool_categorized_EN.txt	STAIRS	Building	6	8	[0, 0, 0]	n/a	catFR1	4	R1617S
1069.512	0.801	1268993	WORD_OFF	n/a	n/a	STAIRS	Building	6	8	[0, 0, 0]	n/a	catFR1	4	R1617S
1070.313	1.616	1269788	WORD	n/a	wordpools/wordpool_categorized_EN.txt	VAN	Vehicles	7	8	[0, 0, 0]	n/a	catFR1	4	R1617S
1071.929	0.9	1271409	WORD_OFF	n/a	n/a	VAN	Vehicles	7	8	[0, 0, 0]	n/a	catFR1	4	R1617S
1072.829	1.6	1272312	WORD	n/a	wordpools/wordpool_categorized_EN.txt	SCOOTER	Vehicles	8	8	[0, 0, 0]	n/a	catFR1	4	R1617S
1074.429	0.85	1273913	WORD_OFF	n/a	n/a	SCOOTER	Vehicles	8	8	[0, 0, 0]	n/a	catFR1	4	R1617S
1075.279	1.6	1274758	WORD	n/a	wordpools/wordpool_categorized_EN.txt	PIANO	Instruments	9	8	[0, 0, 0]	n/a	catFR1	4	R1617S
1076.879	0.85	1276359	WORD_OFF	n/a	n/a	PIANO	Instruments	9	8	[0, 0, 0]	n/a	catFR1	4	R1617S
1077.729	1.6	1277204	WORD	n/a	wordpools/wordpool_categorized_EN.txt	VIOLIN	Instruments	10	8	[0, 0, 0]	n/a	catFR1	4	R1617S
1079.329	0.883	1278805	WORD_OFF	n/a	n/a	VIOLIN	Instruments	10	8	[0, 0, 0]	n/a	catFR1	4	R1617S
1080.212	1.601	1279688	WORD	n/a	wordpools/wordpool_categorized_EN.txt	ROOM	Building	11	8	[0, 0, 0]	n/a	catFR1	4	R1617S
1081.813	0.999	1281289	WORD_OFF	n/a	n/a	ROOM	Building	11	8	[0, 0, 0]	n/a	catFR1	4	R1617S
1082.812	1.617	1282291	WORD	n/a	wordpools/wordpool_categorized_EN.txt	FOUNDATION	Building	12	8	[0, 0, 0]	n/a	catFR1	4	R1617S
1084.429	0.002	1283908	PROB	0.002	n/a	n/a	n/a	-999	8	[4, 4, 6]	14	catFR1	4	R1617S
1084.431	0.0	1283910	START	n/a	n/a	n/a	n/a	-999	8	[-999, -999, -999]	n/a	catFR1	4	R1617S
1084.429	0.002	1283912	WORD_OFF	n/a	n/a	FOUNDATION	Building	12	8	[0, 0, 0]	n/a	catFR1	4	R1617S
1084.431	0.0	1283912	ENCODING_END	n/a	n/a	n/a	n/a	-999	8	[0, 0, 0]	n/a	catFR1	4	R1617S
1084.431	6.698	1283912	DISTRACT_START	n/a	n/a	n/a	n/a	-999	8	[0, 0, 0]	n/a	catFR1	4	R1617S
1091.129	8.05	1290607	PROB	8.05	n/a	n/a	n/a	-999	8	[8, 1, 5]	14	catFR1	4	R1617S
1099.179	4.001	1298657	PROB	4.001	n/a	n/a	n/a	-999	8	[2, 8, 2]	12	catFR1	4	R1617S
1103.18	5.632	1302658	PROB	5.632	n/a	n/a	n/a	-999	8	[6, 4, 6]	6	catFR1	4	R1617S
1108.812	0.0	1308289	STOP	n/a	n/a	n/a	n/a	-999	8	[-999, -999, -999]	n/a	catFR1	4	R1617S
1108.812	1.099	1308290	DISTRACT_END	n/a	n/a	n/a	n/a	-999	8	[0, 0, 0]	n/a	catFR1	4	R1617S
1109.911	0.454	1309390	REC_START	n/a	n/a	n/a	n/a	-999	8	[0, 0, 0]	n/a	catFR1	4	R1617S
1110.365	1.007	1309842	REC_WORD_VV	1.007	n/a	<>	n/a	-999	8	[0, 0, 0]	n/a	catFR1	4	R1617S
1111.372	2.92	1310849	REC_WORD	2.92	n/a	VIOLIN	Instruments	10	8	[0, 0, 0]	n/a	catFR1	4	R1617S
1114.292	2.464	1313769	REC_WORD_VV	2.464	n/a	<>	n/a	-999	8	[0, 0, 0]	n/a	catFR1	4	R1617S
1116.756	3.591	1316233	REC_WORD	3.591	n/a	BOAT	Vehicles	2	8	[0, 0, 0]	n/a	catFR1	4	R1617S
1120.347	3.862	1319824	REC_WORD	3.862	n/a	SCOOTER	Vehicles	8	8	[0, 0, 0]	n/a	catFR1	4	R1617S
1124.209	7.381	1323686	REC_WORD	7.381	n/a	JEEP	Vehicles	-999	8	[0, 0, 0]	n/a	catFR1	4	R1617S
1131.59	9.539	1331066	REC_WORD	9.539	n/a	PIANO	Instruments	9	8	[0, 0, 0]	n/a	catFR1	4	R1617S
1141.129	18.184	1340603	REC_END	n/a	n/a	n/a	n/a	-999	8	[0, 0, 0]	n/a	catFR1	4	R1617S
1159.313	10.35	1358793	COUNTDOWN_START	n/a	n/a	n/a	n/a	-999	8	[0, 0, 0]	n/a	catFR1	4	R1617S
1169.663	0.0	1369135	COUNTDOWN_END	n/a	n/a	n/a	n/a	-999	8	[0, 0, 0]	n/a	catFR1	4	R1617S
1169.663	1.866	1369145	ENCODING_START	n/a	n/a	n/a	n/a	-999	9	[0, 0, 0]	n/a	catFR1	4	R1617S
1171.529	1.6	1371002	WORD	n/a	wordpools/wordpool_categorized_EN.txt	WOOL	Fabric	1	9	[0, 0, 0]	n/a	catFR1	4	R1617S
1173.129	0.767	1372603	WORD_OFF	n/a	n/a	WOOL	Fabric	1	9	[0, 0, 0]	n/a	catFR1	4	R1617S
1173.896	1.6	1373369	WORD	n/a	wordpools/wordpool_categorized_EN.txt	SPANDEX	Fabric	2	9	[0, 0, 0]	n/a	catFR1	4	R1617S
1175.496	0.916	1374970	WORD_OFF	n/a	n/a	SPANDEX	Fabric	2	9	[0, 0, 0]	n/a	catFR1	4	R1617S
1176.412	1.616	1375883	WORD	n/a	wordpools/wordpool_categorized_EN.txt	BASS	Instruments	3	9	[0, 0, 0]	n/a	catFR1	4	R1617S
1178.028	0.935	1377504	WORD_OFF	n/a	n/a	BASS	Instruments	3	9	[0, 0, 0]	n/a	catFR1	4	R1617S
1178.963	1.617	1378437	WORD	n/a	wordpools/wordpool_categorized_EN.txt	BANJO	Instruments	4	9	[0, 0, 0]	n/a	catFR1	4	R1617S
1180.58	0.949	1380057	WORD_OFF	n/a	n/a	BANJO	Instruments	4	9	[0, 0, 0]	n/a	catFR1	4	R1617S
1181.529	1.6	1381000	WORD	n/a	wordpools/wordpool_categorized_EN.txt	BULL	FarmAnimals	5	9	[0, 0, 0]	n/a	catFR1	4	R1617S
1183.129	0.916	1382601	WORD_OFF	n/a	n/a	BULL	FarmAnimals	5	9	[0, 0, 0]	n/a	catFR1	4	R1617S
1184.045	1.601	1383514	WORD	n/a	wordpools/wordpool_categorized_EN.txt	ROOSTER	FarmAnimals	6	9	[0, 0, 0]	n/a	catFR1	4	R1617S
1185.646	0.85	1385115	WORD_OFF	n/a	n/a	ROOSTER	FarmAnimals	6	9	[0, 0, 0]	n/a	catFR1	4	R1617S
1186.496	1.6	1385970	WORD	n/a	wordpools/wordpool_categorized_EN.txt	TROMBONE	Instruments	7	9	[0, 0, 0]	n/a	catFR1	4	R1617S
1188.096	0.8	1387571	WORD_OFF	n/a	n/a	TROMBONE	Instruments	7	9	[0, 0, 0]	n/a	catFR1	4	R1617S
1188.896	1.6	1388366	WORD	n/a	wordpools/wordpool_categorized_EN.txt	GUITAR	Instruments	8	9	[0, 0, 0]	n/a	catFR1	4	R1617S
1190.496	0.966	1389977	WORD_OFF	n/a	n/a	GUITAR	Instruments	8	9	[0, 0, 0]	n/a	catFR1	4	R1617S
1191.462	1.6	1390940	WORD	n/a	wordpools/wordpool_categorized_EN.txt	CALF	FarmAnimals	9	9	[0, 0, 0]	n/a	catFR1	4	R1617S
1193.062	0.917	1392534	WORD_OFF	n/a	n/a	CALF	FarmAnimals	9	9	[0, 0, 0]	n/a	catFR1	4	R1617S
1193.979	1.6	1393454	WORD	n/a	wordpools/wordpool_categorized_EN.txt	PIG	FarmAnimals	10	9	[0, 0, 0]	n/a	catFR1	4	R1617S
1195.579	0.967	1395055	WORD_OFF	n/a	n/a	PIG	FarmAnimals	10	9	[0, 0, 0]	n/a	catFR1	4	R1617S
1196.546	1.616	1396018	WORD	n/a	wordpools/wordpool_categorized_EN.txt	SILK	Fabric	11	9	[0, 0, 0]	n/a	catFR1	4	R1617S
1198.162	1.001	1397638	WORD_OFF	n/a	n/a	SILK	Fabric	11	9	[0, 0, 0]	n/a	catFR1	4	R1617S
1199.163	1.616	1398640	WORD	n/a	wordpools/wordpool_categorized_EN.txt	LINEN	Fabric	12	9	[0, 0, 0]	n/a	catFR1	4	R1617S
1200.779	0.001	1400251	WORD_OFF	n/a	n/a	LINEN	Fabric	12	9	[0, 0, 0]	n/a	catFR1	4	R1617S
1200.78	0.0	1400251	ENCODING_END	n/a	n/a	n/a	n/a	-999	9	[0, 0, 0]	n/a	catFR1	4	R1617S
1200.779	0.002	1400252	PROB	0.002	n/a	n/a	n/a	-999	9	[5, 6, 3]	14	catFR1	4	R1617S
1200.781	0.0	1400254	START	n/a	n/a	n/a	n/a	-999	9	[-999, -999, -999]	n/a	catFR1	4	R1617S
1200.781	8.949	1400261	DISTRACT_START	n/a	n/a	n/a	n/a	-999	9	[0, 0, 0]	n/a	catFR1	4	R1617S
1209.73	8.732	1409203	PROB	8.732	n/a	n/a	n/a	-999	9	[8, 2, 2]	12	catFR1	4	R1617S
1218.462	12.951	1417934	PROB	12.951	n/a	n/a	n/a	-999	9	[3, 3, 5]	11	catFR1	4	R1617S
1231.413	0.0	1430884	STOP	n/a	n/a	n/a	n/a	-999	9	[-999, -999, -999]	n/a	catFR1	4	R1617S
1231.413	1.016	1430885	DISTRACT_END	n/a	n/a	n/a	n/a	-999	9	[0, 0, 0]	n/a	catFR1	4	R1617S
1232.429	1.045	1431897	REC_START	n/a	n/a	n/a	n/a	-999	9	[0, 0, 0]	n/a	catFR1	4	R1617S
1233.474	2.041	1432945	REC_WORD_VV	2.041	n/a	<>	n/a	-999	9	[0, 0, 0]	n/a	catFR1	4	R1617S
1235.515	1.335	1434986	REC_WORD	1.335	n/a	BASS	Instruments	3	9	[0, 0, 0]	n/a	catFR1	4	R1617S
1236.85	5.088	1436321	REC_WORD	5.088	n/a	GUITAR	Instruments	8	9	[0, 0, 0]	n/a	catFR1	4	R1617S
1241.938	1.46	1441409	REC_WORD_VV	1.46	n/a	<>	n/a	-999	9	[0, 0, 0]	n/a	catFR1	4	R1617S
1243.398	20.271	1442869	REC_WORD	20.271	n/a	BANJO	Instruments	4	9	[0, 0, 0]	n/a	catFR1	4	R1617S
1263.669	69.476	1463140	REC_END	n/a	n/a	n/a	n/a	-999	9	[0, 0, 0]	n/a	catFR1	4	R1617S
1333.145	10.35	1532609	COUNTDOWN_START	n/a	n/a	n/a	n/a	-999	9	[0, 0, 0]	n/a	catFR1	4	R1617S
1343.495	0.0	1542961	COUNTDOWN_END	n/a	n/a	n/a	n/a	-999	9	[0, 0, 0]	n/a	catFR1	4	R1617S
1343.495	2.167	1542961	ENCODING_START	n/a	n/a	n/a	n/a	-999	10	[0, 0, 0]	n/a	catFR1	4	R1617S
1345.662	1.617	1545132	WORD	n/a	wordpools/wordpool_categorized_EN.txt	CARDINAL	Birds	1	10	[0, 0, 0]	n/a	catFR1	4	R1617S
1347.279	0.849	1546743	WORD_OFF	n/a	n/a	CARDINAL	Birds	1	10	[0, 0, 0]	n/a	catFR1	4	R1617S
1348.128	1.601	1547597	WORD	n/a	wordpools/wordpool_categorized_EN.txt	SEAGULL	Birds	2	10	[0, 0, 0]	n/a	catFR1	4	R1617S
1349.729	0.767	1549198	WORD_OFF	n/a	n/a	SEAGULL	Birds	2	10	[0, 0, 0]	n/a	catFR1	4	R1617S
1350.496	1.617	1549964	WORD	n/a	wordpools/wordpool_categorized_EN.txt	BEAR	Zoo	3	10	[0, 0, 0]	n/a	catFR1	4	R1617S
1352.113	0.982	1551575	WORD_OFF	n/a	n/a	BEAR	Zoo	3	10	[0, 0, 0]	n/a	catFR1	4	R1617S
1353.095	1.601	1552557	WORD	n/a	wordpools/wordpool_categorized_EN.txt	CHIMPANZEE	Zoo	4	10	[0, 0, 0]	n/a	catFR1	4	R1617S
1354.696	0.983	1554158	WORD_OFF	n/a	n/a	CHIMPANZEE	Zoo	4	10	[0, 0, 0]	n/a	catFR1	4	R1617S
1355.679	1.6	1555140	WORD	n/a	wordpools/wordpool_categorized_EN.txt	MOTORCYCLE	Vehicles	5	10	[0, 0, 0]	n/a	catFR1	4	R1617S
1357.279	0.916	1556741	WORD_OFF	n/a	n/a	MOTORCYCLE	Vehicles	5	10	[0, 0, 0]	n/a	catFR1	4	R1617S
1358.195	1.602	1557664	WORD	n/a	wordpools/wordpool_categorized_EN.txt	PLANE	Vehicles	6	10	[0, 0, 0]	n/a	catFR1	4	R1617S
1359.797	0.932	1559265	WORD_OFF	n/a	n/a	PLANE	Vehicles	6	10	[0, 0, 0]	n/a	catFR1	4	R1617S
1360.729	1.6	1560198	WORD	n/a	wordpools/wordpool_categorized_EN.txt	ORANGUTAN	Zoo	7	10	[0, 0, 0]	n/a	catFR1	4	R1617S
1362.329	0.884	1561790	WORD_OFF	n/a	n/a	ORANGUTAN	Zoo	7	10	[0, 0, 0]	n/a	catFR1	4	R1617S
1363.213	1.616	1562673	WORD	n/a	wordpools/wordpool_categorized_EN.txt	CHEETAH	Zoo	8	10	[0, 0, 0]	n/a	catFR1	4	R1617S
1364.829	0.866	1564294	WORD_OFF	n/a	n/a	CHEETAH	Zoo	8	10	[0, 0, 0]	n/a	catFR1	4	R1617S
1365.695	1.601	1565158	WORD	n/a	wordpools/wordpool_categorized_EN.txt	DUCK	Birds	9	10	[0, 0, 0]	n/a	catFR1	4	R1617S
1367.296	0.999	1566759	WORD_OFF	n/a	n/a	DUCK	Birds	9	10	[0, 0, 0]	n/a	catFR1	4	R1617S
1368.295	1.601	1567761	WORD	n/a	wordpools/wordpool_categorized_EN.txt	BLUEBIRD	Birds	10	10	[0, 0, 0]	n/a	catFR1	4	R1617S
1369.896	0.901	1569362	WORD_OFF	n/a	n/a	BLUEBIRD	Birds	10	10	[0, 0, 0]	n/a	catFR1	4	R1617S
1370.797	1.599	1570266	WORD	n/a	wordpools/wordpool_categorized_EN.txt	BUS	Vehicles	11	10	[0, 0, 0]	n/a	catFR1	4	R1617S
1372.396	0.95	1571857	WORD_OFF	n/a	n/a	BUS	Vehicles	11	10	[0, 0, 0]	n/a	catFR1	4	R1617S
1373.346	1.6	1572810	WORD	n/a	wordpools/wordpool_categorized_EN.txt	MOPED	Vehicles	12	10	[0, 0, 0]	n/a	catFR1	4	R1617S
1374.946	0.001	1574411	WORD_OFF	n/a	n/a	MOPED	Vehicles	12	10	[0, 0, 0]	n/a	catFR1	4	R1617S
1374.947	0.0	1574411	ENCODING_END	n/a	n/a	n/a	n/a	-999	10	[0, 0, 0]	n/a	catFR1	4	R1617S
1374.947	0.0	1574411	DISTRACT_START	n/a	n/a	n/a	n/a	-999	10	[0, 0, 0]	n/a	catFR1	4	R1617S
1374.947	0.0	1574411	START	n/a	n/a	n/a	n/a	-999	10	[-999, -999, -999]	n/a	catFR1	4	R1617S
1374.947	11.616	1574411	PROB	11.616	n/a	n/a	n/a	-999	10	[2, 5, 3]	10	catFR1	4	R1617S
1386.563	4.501	1586027	PROB	4.501	n/a	n/a	n/a	-999	10	[2, 7, 8]	17	catFR1	4	R1617S
1391.064	3.75	1590528	PROB	3.75	n/a	n/a	n/a	-999	10	[3, 6, 2]	11	catFR1	4	R1617S
1394.814	6.998	1594277	PROB	6.998	n/a	n/a	n/a	-999	10	[8, 8, 3]	19	catFR1	4	R1617S
1401.812	0.0	1601273	DISTRACT_END	n/a	n/a	n/a	n/a	-999	10	[0, 0, 0]	n/a	catFR1	4	R1617S
1401.812	1.05	1601275	STOP	n/a	n/a	n/a	n/a	-999	10	[-999, -999, -999]	n/a	catFR1	4	R1617S
1402.862	2.105	1602324	REC_START	n/a	n/a	n/a	n/a	-999	10	[0, 0, 0]	n/a	catFR1	4	R1617S
1404.967	3.776	1604430	REC_WORD	3.776	n/a	CARDINAL	Birds	1	10	[0, 0, 0]	n/a	catFR1	4	R1617S
1408.743	2.767	1608206	REC_WORD_VV	2.767	n/a	<>	n/a	-999	10	[0, 0, 0]	n/a	catFR1	4	R1617S
1411.51	3.949	1610973	REC_WORD	3.949	n/a	MOPED	Vehicles	12	10	[0, 0, 0]	n/a	catFR1	4	R1617S
1415.459	0.722	1614921	REC_WORD_VV	0.722	n/a	<>	n/a	-999	10	[0, 0, 0]	n/a	catFR1	4	R1617S
1416.181	2.058	1615643	REC_WORD	2.058	n/a	CHIMPANZEE	Zoo	4	10	[0, 0, 0]	n/a	catFR1	4	R1617S
1418.239	4.293	1617701	REC_WORD	4.293	n/a	BEAR	Zoo	3	10	[0, 0, 0]	n/a	catFR1	4	R1617S
1422.532	6.045	1621994	REC_WORD_VV	6.045	n/a	<>	n/a	-999	10	[0, 0, 0]	n/a	catFR1	4	R1617S
1428.577	5.509	1628039	REC_WORD_VV	5.509	n/a	<>	n/a	-999	10	[0, 0, 0]	n/a	catFR1	4	R1617S
1434.086	56.76	1633547	REC_END	n/a	n/a	n/a	n/a	-999	10	[0, 0, 0]	n/a	catFR1	4	R1617S
1490.846	10.349	1690307	COUNTDOWN_START	n/a	n/a	n/a	n/a	-999	10	[0, 0, 0]	n/a	catFR1	4	R1617S
1501.195	0.0	1700650	COUNTDOWN_END	n/a	n/a	n/a	n/a	-999	10	[0, 0, 0]	n/a	catFR1	4	R1617S
1501.195	2.034	1700660	ENCODING_START	n/a	n/a	n/a	n/a	-999	11	[0, 0, 0]	n/a	catFR1	4	R1617S
1503.229	1.617	1702683	WORD	n/a	wordpools/wordpool_categorized_EN.txt	HALLWAY	Building	1	11	[0, 0, 0]	n/a	catFR1	4	R1617S
1504.846	0.867	1704304	WORD_OFF	n/a	n/a	HALLWAY	Building	1	11	[0, 0, 0]	n/a	catFR1	4	R1617S
1505.713	1.616	1705168	WORD	n/a	wordpools/wordpool_categorized_EN.txt	ROOF	Building	2	11	[0, 0, 0]	n/a	catFR1	4	R1617S
1507.329	0.883	1706788	WORD_OFF	n/a	n/a	ROOF	Building	2	11	[0, 0, 0]	n/a	catFR1	4	R1617S
1508.212	1.6	1707672	WORD	n/a	wordpools/wordpool_categorized_EN.txt	DOVE	Birds	3	11	[0, 0, 0]	n/a	catFR1	4	R1617S
1509.812	0.784	1709273	WORD_OFF	n/a	n/a	DOVE	Birds	3	11	[0, 0, 0]	n/a	catFR1	4	R1617S
1510.596	1.6	1710049	WORD	n/a	wordpools/wordpool_categorized_EN.txt	FINCH	Birds	4	11	[0, 0, 0]	n/a	catFR1	4	R1617S
1512.196	0.766	1711650	WORD_OFF	n/a	n/a	FINCH	Birds	4	11	[0, 0, 0]	n/a	catFR1	4	R1617S
1512.962	1.617	1712416	WORD	n/a	wordpools/wordpool_categorized_EN.txt	SATIN	Fabric	5	11	[0, 0, 0]	n/a	catFR1	4	R1617S
1514.579	0.884	1714037	WORD_OFF	n/a	n/a	SATIN	Fabric	5	11	[0, 0, 0]	n/a	catFR1	4	R1617S
1515.463	1.616	1714921	WORD	n/a	wordpools/wordpool_categorized_EN.txt	FLEECE	Fabric	6	11	[0, 0, 0]	n/a	catFR1	4	R1617S
1517.079	0.883	1716541	WORD_OFF	n/a	n/a	FLEECE	Fabric	6	11	[0, 0, 0]	n/a	catFR1	4	R1617S
1517.962	1.601	1717416	WORD	n/a	wordpools/wordpool_categorized_EN.txt	CROW	Birds	7	11	[0, 0, 0]	n/a	catFR1	4	R1617S
1519.563	0.766	1719017	WORD_OFF	n/a	n/a	CROW	Birds	7	11	[0, 0, 0]	n/a	catFR1	4	R1617S
1520.329	1.6	1719783	WORD	n/a	wordpools/wordpool_categorized_EN.txt	GOOSE	Birds	8	11	[0, 0, 0]	n/a	catFR1	4	R1617S
1521.929	0.767	1721384	WORD_OFF	n/a	n/a	GOOSE	Birds	8	11	[0, 0, 0]	n/a	catFR1	4	R1617S
1522.696	1.616	1722150	WORD	n/a	wordpools/wordpool_categorized_EN.txt	ATTIC	Building	9	11	[0, 0, 0]	n/a	catFR1	4	R1617S
1524.312	0.801	1723770	WORD_OFF	n/a	n/a	ATTIC	Building	9	11	[0, 0, 0]	n/a	catFR1	4	R1617S
1525.113	1.616	1724566	WORD	n/a	wordpools/wordpool_categorized_EN.txt	FLOOR	Building	10	11	[0, 0, 0]	n/a	catFR1	4	R1617S
1526.729	0.9	1726186	WORD_OFF	n/a	n/a	FLOOR	Building	10	11	[0, 0, 0]	n/a	catFR1	4	R1617S
1527.629	1.616	1727090	WORD	n/a	wordpools/wordpool_categorized_EN.txt	DENIM	Fabric	11	11	[0, 0, 0]	n/a	catFR1	4	R1617S
1529.245	0.768	1728701	WORD_OFF	n/a	n/a	DENIM	Fabric	11	11	[0, 0, 0]	n/a	catFR1	4	R1617S
1530.013	1.616	1729467	WORD	n/a	wordpools/wordpool_categorized_EN.txt	NYLON	Fabric	12	11	[0, 0, 0]	n/a	catFR1	4	R1617S
1531.629	0.001	1731086	PROB	0.001	n/a	n/a	n/a	-999	11	[5, 6, 5]	16	catFR1	4	R1617S
1531.63	0.0	1731087	START	n/a	n/a	n/a	n/a	-999	11	[-999, -999, -999]	n/a	catFR1	4	R1617S
1531.629	0.001	1731088	WORD_OFF	n/a	n/a	NYLON	Fabric	12	11	[0, 0, 0]	n/a	catFR1	4	R1617S
1531.63	0.0	1731088	ENCODING_END	n/a	n/a	n/a	n/a	-999	11	[0, 0, 0]	n/a	catFR1	4	R1617S
1531.63	5.45	1731088	DISTRACT_START	n/a	n/a	n/a	n/a	-999	11	[0, 0, 0]	n/a	catFR1	4	R1617S
1537.08	5.315	1736537	PROB	5.315	n/a	n/a	n/a	-999	11	[8, 8, 1]	17	catFR1	4	R1617S
1542.395	6.001	1741851	PROB	6.001	n/a	n/a	n/a	-999	11	[4, 3, 2]	9	catFR1	4	R1617S
1548.396	6.499	1747852	PROB	6.499	n/a	n/a	n/a	-999	11	[7, 4, 3]	14	catFR1	4	R1617S
1554.895	0.0	1754351	STOP	n/a	n/a	n/a	n/a	-999	11	[-999, -999, -999]	n/a	catFR1	4	R1617S
1554.895	1.1	1754355	DISTRACT_END	n/a	n/a	n/a	n/a	-999	11	[0, 0, 0]	n/a	catFR1	4	R1617S
1555.995	0.129	1755445	REC_START	n/a	n/a	n/a	n/a	-999	11	[0, 0, 0]	n/a	catFR1	4	R1617S
1556.124	1.681	1755580	REC_WORD	1.681	n/a	HALLWAY	Building	1	11	[0, 0, 0]	n/a	catFR1	4	R1617S
1557.805	1.679	1757260	REC_WORD	1.679	n/a	NYLON	Fabric	12	11	[0, 0, 0]	n/a	catFR1	4	R1617S
1559.484	3.763	1758939	REC_WORD	3.763	n/a	FLEECE	Fabric	6	11	[0, 0, 0]	n/a	catFR1	4	R1617S
1563.247	4.467	1762702	REC_WORD	4.467	n/a	ROOF	Building	2	11	[0, 0, 0]	n/a	catFR1	4	R1617S
1567.714	1.431	1767169	REC_WORD	1.431	n/a	LINEN	Fabric	-999	11	[0, 0, 0]	n/a	catFR1	4	R1617S
1569.145	5.065	1768600	REC_WORD	5.065	n/a	SILK	Fabric	-999	11	[0, 0, 0]	n/a	catFR1	4	R1617S
1574.21	2.802	1773665	REC_WORD_VV	2.802	n/a	<>	n/a	-999	11	[0, 0, 0]	n/a	catFR1	4	R1617S
1577.012	5.634	1776467	REC_WORD	5.634	n/a	LINEN	Fabric	-999	11	[0, 0, 0]	n/a	catFR1	4	R1617S
1582.646	1.749	1782100	REC_WORD_VV	1.749	n/a	<>	n/a	-999	11	[0, 0, 0]	n/a	catFR1	4	R1617S
1584.395	2.825	1783849	REC_WORD	2.825	n/a	ROOF	Building	2	11	[0, 0, 0]	n/a	catFR1	4	R1617S
1587.22	42.842	1786679	REC_END	n/a	n/a	n/a	n/a	-999	11	[0, 0, 0]	n/a	catFR1	4	R1617S
1630.062	10.35	1829512	COUNTDOWN_START	n/a	n/a	n/a	n/a	-999	11	[0, 0, 0]	n/a	catFR1	4	R1617S
1640.412	0.0	1839864	COUNTDOWN_END	n/a	n/a	n/a	n/a	-999	11	[0, 0, 0]	n/a	catFR1	4	R1617S
1640.412	2.149	1839864	ENCODING_START	n/a	n/a	n/a	n/a	-999	12	[0, 0, 0]	n/a	catFR1	4	R1617S
1642.561	1.601	1842015	WORD	n/a	wordpools/wordpool_categorized_EN.txt	MONKEY	Zoo	1	12	[0, 0, 0]	n/a	catFR1	4	R1617S
1644.162	1.0	1843616	WORD_OFF	n/a	n/a	MONKEY	Zoo	1	12	[0, 0, 0]	n/a	catFR1	4	R1617S
1645.162	1.6	1844617	WORD	n/a	wordpools/wordpool_categorized_EN.txt	GORILLA	Zoo	2	12	[0, 0, 0]	n/a	catFR1	4	R1617S
1646.762	0.917	1846218	WORD_OFF	n/a	n/a	GORILLA	Zoo	2	12	[0, 0, 0]	n/a	catFR1	4	R1617S
1647.679	1.6	1847132	WORD	n/a	wordpools/wordpool_categorized_EN.txt	GOAT	FarmAnimals	3	12	[0, 0, 0]	n/a	catFR1	4	R1617S
1649.279	0.95	1848733	WORD_OFF	n/a	n/a	GOAT	FarmAnimals	3	12	[0, 0, 0]	n/a	catFR1	4	R1617S
1650.229	1.6	1849685	WORD	n/a	wordpools/wordpool_categorized_EN.txt	SHEEP	FarmAnimals	4	12	[0, 0, 0]	n/a	catFR1	4	R1617S
1651.829	0.867	1851277	WORD_OFF	n/a	n/a	SHEEP	FarmAnimals	4	12	[0, 0, 0]	n/a	catFR1	4	R1617S
1652.696	1.615	1852151	WORD	n/a	wordpools/wordpool_categorized_EN.txt	WINDOW	Building	5	12	[0, 0, 0]	n/a	catFR1	4	R1617S
1654.311	0.785	1853761	WORD_OFF	n/a	n/a	WINDOW	Building	5	12	[0, 0, 0]	n/a	catFR1	4	R1617S
1655.096	1.617	1854547	WORD	n/a	wordpools/wordpool_categorized_EN.txt	CEILING	Building	6	12	[0, 0, 0]	n/a	catFR1	4	R1617S
1656.713	0.782	1856168	WORD_OFF	n/a	n/a	CEILING	Building	6	12	[0, 0, 0]	n/a	catFR1	4	R1617S
1657.495	1.601	1856944	WORD	n/a	wordpools/wordpool_categorized_EN.txt	ELEPHANT	Zoo	7	12	[0, 0, 0]	n/a	catFR1	4	R1617S
1659.096	0.932	1858545	WORD_OFF	n/a	n/a	ELEPHANT	Zoo	7	12	[0, 0, 0]	n/a	catFR1	4	R1617S
1660.028	1.601	1859478	WORD	n/a	wordpools/wordpool_categorized_EN.txt	LION	Zoo	8	12	[0, 0, 0]	n/a	catFR1	4	R1617S
1661.629	0.982	1861079	WORD_OFF	n/a	n/a	LION	Zoo	8	12	[0, 0, 0]	n/a	catFR1	4	R1617S
1662.611	1.602	1862061	WORD	n/a	wordpools/wordpool_categorized_EN.txt	BATHROOM	Building	9	12	[0, 0, 0]	n/a	catFR1	4	R1617S
1664.213	0.966	1863662	WORD_OFF	n/a	n/a	BATHROOM	Building	9	12	[0, 0, 0]	n/a	catFR1	4	R1617S
1665.179	1.6	1864634	WORD	n/a	wordpools/wordpool_categorized_EN.txt	WALL	Building	10	12	[0, 0, 0]	n/a	catFR1	4	R1617S
1666.779	1.0	1866225	WORD_OFF	n/a	n/a	WALL	Building	10	12	[0, 0, 0]	n/a	catFR1	4	R1617S
1667.779	1.617	1867227	WORD	n/a	wordpools/wordpool_categorized_EN.txt	CHICKEN	FarmAnimals	11	12	[0, 0, 0]	n/a	catFR1	4	R1617S
1669.396	0.933	1868848	WORD_OFF	n/a	n/a	CHICKEN	FarmAnimals	11	12	[0, 0, 0]	n/a	catFR1	4	R1617S
1670.329	1.617	1869781	WORD	n/a	wordpools/wordpool_categorized_EN.txt	COW	FarmAnimals	12	12	[0, 0, 0]	n/a	catFR1	4	R1617S
1671.946	0.0	1871392	WORD_OFF	n/a	n/a	COW	FarmAnimals	12	12	[0, 0, 0]	n/a	catFR1	4	R1617S
1671.946	0.001	1871396	PROB	0.001	n/a	n/a	n/a	-999	12	[6, 5, 7]	18	catFR1	4	R1617S
1671.947	0.0	1871397	START	n/a	n/a	n/a	n/a	-999	12	[-999, -999, -999]	n/a	catFR1	4	R1617S
1671.947	0.0	1871401	ENCODING_END	n/a	n/a	n/a	n/a	-999	12	[0, 0, 0]	n/a	catFR1	4	R1617S
1671.947	6.466	1871401	DISTRACT_START	n/a	n/a	n/a	n/a	-999	12	[0, 0, 0]	n/a	catFR1	4	R1617S
1678.413	4.1	1877863	PROB	4.1	n/a	n/a	n/a	-999	12	[1, 5, 5]	11	catFR1	4	R1617S
1682.513	5.35	1881962	PROB	5.35	n/a	n/a	n/a	-999	12	[4, 6, 4]	14	catFR1	4	R1617S
1687.863	7.183	1887312	PROB	7.183	n/a	n/a	n/a	-999	12	[1, 4, 8]	13	catFR1	4	R1617S
1695.046	0.0	1894492	DISTRACT_END	n/a	n/a	n/a	n/a	-999	12	[0, 0, 0]	n/a	catFR1	4	R1617S
1695.046	1.316	1894495	STOP	n/a	n/a	n/a	n/a	-999	12	[-999, -999, -999]	n/a	catFR1	4	R1617S
1696.362	2.407	1895808	REC_START	n/a	n/a	n/a	n/a	-999	12	[0, 0, 0]	n/a	catFR1	4	R1617S
1698.769	3.086	1898218	REC_WORD	3.086	n/a	GORILLA	Zoo	2	12	[0, 0, 0]	n/a	catFR1	4	R1617S
1701.855	3.699	1901303	REC_WORD	3.699	n/a	SHEEP	FarmAnimals	4	12	[0, 0, 0]	n/a	catFR1	4	R1617S
1705.554	2.124	1905002	REC_WORD	2.124	n/a	WINDOW	Building	5	12	[0, 0, 0]	n/a	catFR1	4	R1617S
1707.678	3.634	1907126	REC_WORD	3.634	n/a	WALL	Building	10	12	[0, 0, 0]	n/a	catFR1	4	R1617S
1711.312	12.277	1910760	REC_WORD_VV	12.277	n/a	<>	n/a	-999	12	[0, 0, 0]	n/a	catFR1	4	R1617S
1723.589	4.024	1923036	REC_WORD_VV	4.024	n/a	<>	n/a	-999	12	[0, 0, 0]	n/a	catFR1	4	R1617S
1727.613	0.0	1927061	REC_END	n/a	n/a	n/a	n/a	-999	12	[0, 0, 0]	n/a	catFR1	4	R1617S
