onset	duration	sample	trial_type	response_time	stim_file	item_name	category	serialpos	list	test	answer	experiment	session	subject
0.0	0.0	104301	INSTRUCT_START	n/a	n/a	n/a	n/a	-999	-999	[0, 0, 0]	n/a	catFR1	1	R1273D
0.0	11.125	104301	INSTRUCT_END	n/a	n/a	n/a	n/a	-999	-999	[0, 0, 0]	n/a	catFR1	1	R1273D
11.125	0.0	115425	SESS_START	n/a	n/a	n/a	n/a	-999	-999	[0, 0, 0]	n/a	catFR1	1	R1273D
11.125	99.903	115425	MIC_TEST	n/a	n/a	n/a	n/a	-999	-999	[0, 0, 0]	n/a	catFR1	1	R1273D
111.028	4.493	215322	PRACTICE_TRIAL	n/a	n/a	n/a	n/a	-999	-1	[0, 0, 0]	n/a	catFR1	1	R1273D
115.521	10.428	219815	COUNTDOWN_START	n/a	n/a	n/a	n/a	-999	-1	[0, 0, 0]	n/a	catFR1	1	R1273D
125.949	0.007	230243	COUNTDOWN_END	n/a	n/a	n/a	n/a	-999	-1	[0, 0, 0]	n/a	catFR1	1	R1273D
125.956	1.616	230250	PRACTICE_ORIENT	n/a	n/a	n/a	n/a	-999	-1	[0, 0, 0]	n/a	catFR1	1	R1273D
127.572	2.101	231865	PRACTICE_ORIENT_OFF	n/a	n/a	n/a	n/a	-999	-1	[0, 0, 0]	n/a	catFR1	1	R1273D
129.673	1.618	233966	PRACTICE_WORD	n/a	n/a	TONGUE	n/a	-1	-1	[0, 0, 0]	n/a	catFR1	1	R1273D
131.291	0.783	235584	PRACTICE_WORD_OFF	n/a	n/a	TONGUE	n/a	-999	-1	[0, 0, 0]	n/a	catFR1	1	R1273D
132.074	1.616	236367	PRACTICE_WORD	n/a	n/a	BEAM	n/a	-1	-1	[0, 0, 0]	n/a	catFR1	1	R1273D
133.69	0.817	237983	PRACTICE_WORD_OFF	n/a	n/a	BEAM	n/a	-999	-1	[0, 0, 0]	n/a	catFR1	1	R1273D
134.507	1.618	238800	PRACTICE_WORD	n/a	n/a	RHINO	n/a	-1	-1	[0, 0, 0]	n/a	catFR1	1	R1273D
136.125	0.85	240418	PRACTICE_WORD_OFF	n/a	n/a	RHINO	n/a	-999	-1	[0, 0, 0]	n/a	catFR1	1	R1273D
136.975	1.616	241268	PRACTICE_WORD	n/a	n/a	IRON	n/a	-1	-1	[0, 0, 0]	n/a	catFR1	1	R1273D
138.591	0.967	242884	PRACTICE_WORD_OFF	n/a	n/a	IRON	n/a	-999	-1	[0, 0, 0]	n/a	catFR1	1	R1273D
139.558	1.618	243851	PRACTICE_WORD	n/a	n/a	CHEST	n/a	-1	-1	[0, 0, 0]	n/a	catFR1	1	R1273D
141.176	0.917	245469	PRACTICE_WORD_OFF	n/a	n/a	CHEST	n/a	-999	-1	[0, 0, 0]	n/a	catFR1	1	R1273D
142.093	1.615	246386	PRACTICE_WORD	n/a	n/a	CAMEL	n/a	-1	-1	[0, 0, 0]	n/a	catFR1	1	R1273D
143.708	0.984	248001	PRACTICE_WORD_OFF	n/a	n/a	CAMEL	n/a	-999	-1	[0, 0, 0]	n/a	catFR1	1	R1273D
144.692	1.618	248984	PRACTICE_WORD	n/a	n/a	FLOOD	n/a	-1	-1	[0, 0, 0]	n/a	catFR1	1	R1273D
146.31	1.0	250602	PRACTICE_WORD_OFF	n/a	n/a	FLOOD	n/a	-999	-1	[0, 0, 0]	n/a	catFR1	1	R1273D
147.31	1.617	251602	PRACTICE_WORD	n/a	n/a	COTTON	n/a	-1	-1	[0, 0, 0]	n/a	catFR1	1	R1273D
148.927	1.0	253219	PRACTICE_WORD_OFF	n/a	n/a	COTTON	n/a	-999	-1	[0, 0, 0]	n/a	catFR1	1	R1273D
149.927	1.616	254219	PRACTICE_WORD	n/a	n/a	WATCH	n/a	-1	-1	[0, 0, 0]	n/a	catFR1	1	R1273D
151.543	0.852	255835	PRACTICE_WORD_OFF	n/a	n/a	WATCH	n/a	-999	-1	[0, 0, 0]	n/a	catFR1	1	R1273D
152.395	1.617	256687	PRACTICE_WORD	n/a	n/a	RING	n/a	-1	-1	[0, 0, 0]	n/a	catFR1	1	R1273D
154.012	0.883	258304	PRACTICE_WORD_OFF	n/a	n/a	RING	n/a	-999	-1	[0, 0, 0]	n/a	catFR1	1	R1273D
154.895	1.616	259187	PRACTICE_WORD	n/a	n/a	WAGON	n/a	-1	-1	[0, 0, 0]	n/a	catFR1	1	R1273D
156.511	0.967	260803	PRACTICE_WORD_OFF	n/a	n/a	WAGON	n/a	-999	-1	[0, 0, 0]	n/a	catFR1	1	R1273D
157.478	1.618	261770	PRACTICE_WORD	n/a	n/a	ATTIC	n/a	-1	-1	[0, 0, 0]	n/a	catFR1	1	R1273D
159.096	0.0	263388	ENCODING_END	n/a	n/a	n/a	n/a	-999	-1	[0, 0, 0]	n/a	catFR1	1	R1273D
159.096	0.0	263388	PRACTICE_WORD_OFF	n/a	n/a	ATTIC	n/a	-999	-1	[0, 0, 0]	n/a	catFR1	1	R1273D
159.096	0.0	263388	DISTRACT_START	n/a	n/a	n/a	n/a	-999	-1	[0, 0, 0]	n/a	catFR1	1	R1273D
159.096	0.016	263388	START	n/a	n/a	n/a	n/a	-999	-1	[-999, -999, -999]	n/a	catFR1	0	R1273D
159.112	14.186	263404	PROB	14.186	n/a	n/a	n/a	-999	-1	[8, 5, 3]	16	catFR1	0	R1273D
173.298	3.701	277589	PROB	3.701	n/a	n/a	n/a	-999	-1	[1, 4, 4]	9	catFR1	0	R1273D
176.999	5.697	281290	PROB	5.697	n/a	n/a	n/a	-999	-1	[1, 3, 4]	8	catFR1	0	R1273D
182.696	0.02	286986	STOP	n/a	n/a	n/a	n/a	-999	-1	[-999, -999, -999]	n/a	catFR1	0	R1273D
182.716	0.701	287006	DISTRACT_END	n/a	n/a	n/a	n/a	-999	-1	[0, 0, 0]	n/a	catFR1	1	R1273D
183.417	0.52	287707	RETRIEVAL_ORIENT	n/a	n/a	n/a	n/a	-999	-1	[0, 0, 0]	n/a	catFR1	1	R1273D
183.937	30.009	288227	PRACTICE_REC_START	n/a	n/a	n/a	n/a	-999	-1	[0, 0, 0]	n/a	catFR1	1	R1273D
213.946	11.378	318235	PRACTICE_REC_END	n/a	n/a	n/a	n/a	-999	-1	[0, 0, 0]	n/a	catFR1	1	R1273D
225.324	0.5	329612	TRIAL	n/a	n/a	n/a	n/a	-999	1	[0, 0, 0]	n/a	catFR1	1	R1273D
225.824	10.428	330112	COUNTDOWN_START	n/a	n/a	n/a	n/a	-999	1	[0, 0, 0]	n/a	catFR1	1	R1273D
236.252	0.008	340539	COUNTDOWN_END	n/a	n/a	n/a	n/a	-999	1	[0, 0, 0]	n/a	catFR1	1	R1273D
236.26	1.617	340547	ORIENT	n/a	n/a	n/a	n/a	-999	1	[0, 0, 0]	n/a	catFR1	1	R1273D
237.877	2.283	342164	ORIENT_OFF	n/a	n/a	n/a	n/a	-999	1	[0, 0, 0]	n/a	catFR1	1	R1273D
240.16	1.616	344447	WORD	n/a	wordpools/wordpool_categorized_EN.txt	PIG	FarmAnimals	1	1	[0, 0, 0]	n/a	catFR1	1	R1273D
241.776	0.801	346063	WORD_OFF	n/a	n/a	PIG	n/a	1	1	[0, 0, 0]	n/a	catFR1	1	R1273D
242.577	1.617	346864	WORD	n/a	wordpools/wordpool_categorized_EN.txt	HORSE	FarmAnimals	2	1	[0, 0, 0]	n/a	catFR1	1	R1273D
244.194	0.801	348481	WORD_OFF	n/a	n/a	HORSE	n/a	2	1	[0, 0, 0]	n/a	catFR1	1	R1273D
244.995	1.616	349282	WORD	n/a	wordpools/wordpool_categorized_EN.txt	STEREO	Electronics	3	1	[0, 0, 0]	n/a	catFR1	1	R1273D
246.611	0.801	350898	WORD_OFF	n/a	n/a	STEREO	n/a	3	1	[0, 0, 0]	n/a	catFR1	1	R1273D
247.412	1.616	351699	WORD	n/a	wordpools/wordpool_categorized_EN.txt	SPEAKER	Electronics	4	1	[0, 0, 0]	n/a	catFR1	1	R1273D
249.028	0.766	353315	WORD_OFF	n/a	n/a	SPEAKER	n/a	4	1	[0, 0, 0]	n/a	catFR1	1	R1273D
249.794	1.618	354081	WORD	n/a	wordpools/wordpool_categorized_EN.txt	WATER	Beverages	5	1	[0, 0, 0]	n/a	catFR1	1	R1273D
251.412	0.884	355698	WORD_OFF	n/a	n/a	WATER	n/a	5	1	[0, 0, 0]	n/a	catFR1	1	R1273D
252.296	1.617	356582	WORD	n/a	wordpools/wordpool_categorized_EN.txt	LEMONADE	Beverages	6	1	[0, 0, 0]	n/a	catFR1	1	R1273D
253.913	0.95	358199	WORD_OFF	n/a	n/a	LEMONADE	n/a	6	1	[0, 0, 0]	n/a	catFR1	1	R1273D
254.863	1.616	359149	WORD	n/a	wordpools/wordpool_categorized_EN.txt	HEN	FarmAnimals	7	1	[0, 0, 0]	n/a	catFR1	1	R1273D
256.479	0.785	360765	WORD_OFF	n/a	n/a	HEN	n/a	7	1	[0, 0, 0]	n/a	catFR1	1	R1273D
257.264	1.616	361550	WORD	n/a	wordpools/wordpool_categorized_EN.txt	GOAT	FarmAnimals	8	1	[0, 0, 0]	n/a	catFR1	1	R1273D
258.88	0.967	363166	WORD_OFF	n/a	n/a	GOAT	n/a	8	1	[0, 0, 0]	n/a	catFR1	1	R1273D
259.847	1.616	364133	WORD	n/a	wordpools/wordpool_categorized_EN.txt	PHONE	Electronics	9	1	[0, 0, 0]	n/a	catFR1	1	R1273D
261.463	0.784	365749	WORD_OFF	n/a	n/a	PHONE	n/a	9	1	[0, 0, 0]	n/a	catFR1	1	R1273D
262.247	1.618	366533	WORD	n/a	wordpools/wordpool_categorized_EN.txt	SCANNER	Electronics	10	1	[0, 0, 0]	n/a	catFR1	1	R1273D
263.865	0.882	368151	WORD_OFF	n/a	n/a	SCANNER	n/a	10	1	[0, 0, 0]	n/a	catFR1	1	R1273D
264.747	1.618	369033	WORD	n/a	wordpools/wordpool_categorized_EN.txt	CIDER	Beverages	11	1	[0, 0, 0]	n/a	catFR1	1	R1273D
266.365	0.867	370651	WORD_OFF	n/a	n/a	CIDER	n/a	11	1	[0, 0, 0]	n/a	catFR1	1	R1273D
267.232	1.617	371518	WORD	n/a	wordpools/wordpool_categorized_EN.txt	JUICE	Beverages	12	1	[0, 0, 0]	n/a	catFR1	1	R1273D
268.849	0.0	373134	ENCODING_END	n/a	n/a	n/a	n/a	-999	1	[0, 0, 0]	n/a	catFR1	1	R1273D
268.849	0.136	373134	WORD_OFF	n/a	n/a	JUICE	n/a	12	1	[0, 0, 0]	n/a	catFR1	1	R1273D
268.985	0.0	373270	DISTRACT_START	n/a	n/a	n/a	n/a	-999	1	[0, 0, 0]	n/a	catFR1	1	R1273D
268.985	0.014	373270	START	n/a	n/a	n/a	n/a	-999	1	[-999, -999, -999]	n/a	catFR1	0	R1273D
268.999	8.418	373284	PROB	8.418	n/a	n/a	n/a	-999	1	[7, 2, 8]	17	catFR1	0	R1273D
277.417	5.818	381702	PROB	5.818	n/a	n/a	n/a	-999	1	[3, 8, 4]	15	catFR1	0	R1273D
283.235	7.07	387520	PROB	7.07	n/a	n/a	n/a	-999	1	[4, 8, 1]	13	catFR1	0	R1273D
290.305	0.015	394589	STOP	n/a	n/a	n/a	n/a	-999	1	[-999, -999, -999]	n/a	catFR1	0	R1273D
290.32	0.55	394604	DISTRACT_END	n/a	n/a	n/a	n/a	-999	1	[0, 0, 0]	n/a	catFR1	1	R1273D
290.87	0.517	395154	RETRIEVAL_ORIENT	n/a	n/a	n/a	n/a	-999	1	[0, 0, 0]	n/a	catFR1	1	R1273D
291.387	0.458	395671	REC_START	n/a	n/a	n/a	n/a	-999	1	[0, 0, 0]	n/a	catFR1	1	R1273D
291.845	6.727	396129	REC_WORD_VV	6.727	n/a	<>	n/a	-999	1	[0, 0, 0]	n/a	catFR1	1	R1273D
298.572	1.677	402856	REC_WORD	1.677	n/a	HORSE	FarmAnimals	2	1	[0, 0, 0]	n/a	catFR1	1	R1273D
300.249	4.797	404533	REC_WORD_VV	4.797	n/a	<>	n/a	-999	1	[0, 0, 0]	n/a	catFR1	1	R1273D
305.046	0.82	409329	REC_WORD	0.82	n/a	COMPUTER	n/a	-999	1	[0, 0, 0]	n/a	catFR1	1	R1273D
305.866	0.463	410149	REC_WORD	0.463	n/a	WATER	Beverages	5	1	[0, 0, 0]	n/a	catFR1	1	R1273D
306.329	4.063	410612	REC_WORD	4.063	n/a	PHONE	Electronics	9	1	[0, 0, 0]	n/a	catFR1	1	R1273D
310.392	0.55	414675	REC_WORD_VV	0.55	n/a	<>	n/a	-999	1	[0, 0, 0]	n/a	catFR1	1	R1273D
310.942	0.627	415225	REC_WORD	0.627	n/a	LEMONADE	Beverages	6	1	[0, 0, 0]	n/a	catFR1	1	R1273D
311.569	9.827	415852	REC_WORD_VV	9.827	n/a	<>	n/a	-999	1	[0, 0, 0]	n/a	catFR1	1	R1273D
321.396	6.464	425679	REC_END	n/a	n/a	n/a	n/a	-999	1	[0, 0, 0]	n/a	catFR1	1	R1273D
327.86	0.5	432142	TRIAL	n/a	n/a	n/a	n/a	-999	2	[0, 0, 0]	n/a	catFR1	1	R1273D
328.36	10.428	432642	COUNTDOWN_START	n/a	n/a	n/a	n/a	-999	2	[0, 0, 0]	n/a	catFR1	1	R1273D
338.788	0.006	443070	COUNTDOWN_END	n/a	n/a	n/a	n/a	-999	2	[0, 0, 0]	n/a	catFR1	1	R1273D
338.794	1.618	443076	ORIENT	n/a	n/a	n/a	n/a	-999	2	[0, 0, 0]	n/a	catFR1	1	R1273D
340.412	2.049	444693	ORIENT_OFF	n/a	n/a	n/a	n/a	-999	2	[0, 0, 0]	n/a	catFR1	1	R1273D
342.461	1.601	446742	WORD	n/a	wordpools/wordpool_categorized_EN.txt	LEMON	Fruit	1	2	[0, 0, 0]	n/a	catFR1	1	R1273D
344.062	0.784	448343	WORD_OFF	n/a	n/a	LEMON	n/a	1	2	[0, 0, 0]	n/a	catFR1	1	R1273D
344.846	1.616	449127	WORD	n/a	wordpools/wordpool_categorized_EN.txt	ORANGE	Fruit	2	2	[0, 0, 0]	n/a	catFR1	1	R1273D
346.462	0.818	450743	WORD_OFF	n/a	n/a	ORANGE	n/a	2	2	[0, 0, 0]	n/a	catFR1	1	R1273D
347.28	1.617	451561	WORD	n/a	wordpools/wordpool_categorized_EN.txt	FRISBEE	Toys	3	2	[0, 0, 0]	n/a	catFR1	1	R1273D
348.897	1.017	453178	WORD_OFF	n/a	n/a	FRISBEE	n/a	3	2	[0, 0, 0]	n/a	catFR1	1	R1273D
349.914	1.616	454195	WORD	n/a	wordpools/wordpool_categorized_EN.txt	DOLLHOUSE	Toys	4	2	[0, 0, 0]	n/a	catFR1	1	R1273D
351.53	0.916	455811	WORD_OFF	n/a	n/a	DOLLHOUSE	n/a	4	2	[0, 0, 0]	n/a	catFR1	1	R1273D
352.446	1.618	456727	WORD	n/a	wordpools/wordpool_categorized_EN.txt	BATHROOM	Building	5	2	[0, 0, 0]	n/a	catFR1	1	R1273D
354.064	1.001	458345	WORD_OFF	n/a	n/a	BATHROOM	n/a	5	2	[0, 0, 0]	n/a	catFR1	1	R1273D
355.065	1.616	459346	WORD	n/a	wordpools/wordpool_categorized_EN.txt	DOOR	Building	6	2	[0, 0, 0]	n/a	catFR1	1	R1273D
356.681	0.916	460962	WORD_OFF	n/a	n/a	DOOR	n/a	6	2	[0, 0, 0]	n/a	catFR1	1	R1273D
357.597	1.601	461878	WORD	n/a	wordpools/wordpool_categorized_EN.txt	BALL	Toys	7	2	[0, 0, 0]	n/a	catFR1	1	R1273D
359.198	1.001	463478	WORD_OFF	n/a	n/a	BALL	n/a	7	2	[0, 0, 0]	n/a	catFR1	1	R1273D
360.199	1.617	464479	WORD	n/a	wordpools/wordpool_categorized_EN.txt	SLINKY	Toys	8	2	[0, 0, 0]	n/a	catFR1	1	R1273D
361.816	0.966	466096	WORD_OFF	n/a	n/a	SLINKY	n/a	8	2	[0, 0, 0]	n/a	catFR1	1	R1273D
362.782	1.618	467062	WORD	n/a	wordpools/wordpool_categorized_EN.txt	APPLE	Fruit	9	2	[0, 0, 0]	n/a	catFR1	1	R1273D
364.4	0.866	468680	WORD_OFF	n/a	n/a	APPLE	n/a	9	2	[0, 0, 0]	n/a	catFR1	1	R1273D
365.266	1.617	469546	WORD	n/a	wordpools/wordpool_categorized_EN.txt	STRAWBERRY	Fruit	10	2	[0, 0, 0]	n/a	catFR1	1	R1273D
366.883	0.9	471163	WORD_OFF	n/a	n/a	STRAWBERRY	n/a	10	2	[0, 0, 0]	n/a	catFR1	1	R1273D
367.783	1.618	472063	WORD	n/a	wordpools/wordpool_categorized_EN.txt	ROOF	Building	11	2	[0, 0, 0]	n/a	catFR1	1	R1273D
369.401	0.95	473681	WORD_OFF	n/a	n/a	ROOF	n/a	11	2	[0, 0, 0]	n/a	catFR1	1	R1273D
370.351	1.617	474631	WORD	n/a	wordpools/wordpool_categorized_EN.txt	FLOOR	Building	12	2	[0, 0, 0]	n/a	catFR1	1	R1273D
371.968	0.0	476248	ENCODING_END	n/a	n/a	n/a	n/a	-999	2	[0, 0, 0]	n/a	catFR1	1	R1273D
371.968	0.102	476248	WORD_OFF	n/a	n/a	FLOOR	n/a	12	2	[0, 0, 0]	n/a	catFR1	1	R1273D
372.07	0.001	476350	DISTRACT_START	n/a	n/a	n/a	n/a	-999	2	[0, 0, 0]	n/a	catFR1	1	R1273D
372.071	0.013	476351	START	n/a	n/a	n/a	n/a	-999	2	[-999, -999, -999]	n/a	catFR1	0	R1273D
372.084	10.485	476364	PROB	10.485	n/a	n/a	n/a	-999	2	[2, 3, 2]	7	catFR1	0	R1273D
382.569	11.127	486848	PROB	11.127	n/a	n/a	n/a	-999	2	[2, 6, 6]	14	catFR1	0	R1273D
393.696	0.008	497974	STOP	n/a	n/a	n/a	n/a	-999	2	[-999, -999, -999]	n/a	catFR1	0	R1273D
393.704	0.651	497982	DISTRACT_END	n/a	n/a	n/a	n/a	-999	2	[0, 0, 0]	n/a	catFR1	1	R1273D
394.355	0.517	498633	RETRIEVAL_ORIENT	n/a	n/a	n/a	n/a	-999	2	[0, 0, 0]	n/a	catFR1	1	R1273D
394.872	5.841	499150	REC_START	n/a	n/a	n/a	n/a	-999	2	[0, 0, 0]	n/a	catFR1	1	R1273D
400.713	5.874	504991	REC_WORD_VV	5.874	n/a	<>	n/a	-999	2	[0, 0, 0]	n/a	catFR1	1	R1273D
406.587	18.298	510865	REC_WORD_VV	18.298	n/a	<>	n/a	-999	2	[0, 0, 0]	n/a	catFR1	1	R1273D
424.885	9.527	529162	REC_END	n/a	n/a	n/a	n/a	-999	2	[0, 0, 0]	n/a	catFR1	1	R1273D
434.412	0.5	538688	TRIAL	n/a	n/a	n/a	n/a	-999	3	[0, 0, 0]	n/a	catFR1	1	R1273D
434.912	10.428	539188	COUNTDOWN_START	n/a	n/a	n/a	n/a	-999	3	[0, 0, 0]	n/a	catFR1	1	R1273D
445.34	0.008	549616	COUNTDOWN_END	n/a	n/a	n/a	n/a	-999	3	[0, 0, 0]	n/a	catFR1	1	R1273D
445.348	1.617	549624	ORIENT	n/a	n/a	n/a	n/a	-999	3	[0, 0, 0]	n/a	catFR1	1	R1273D
446.965	2.2	551241	ORIENT_OFF	n/a	n/a	n/a	n/a	-999	3	[0, 0, 0]	n/a	catFR1	1	R1273D
449.165	1.616	553440	WORD	n/a	wordpools/wordpool_categorized_EN.txt	MOTH	Insects	1	3	[0, 0, 0]	n/a	catFR1	1	R1273D
450.781	0.934	555056	WORD_OFF	n/a	n/a	MOTH	n/a	1	3	[0, 0, 0]	n/a	catFR1	1	R1273D
451.715	1.617	555990	WORD	n/a	wordpools/wordpool_categorized_EN.txt	ROACH	Insects	2	3	[0, 0, 0]	n/a	catFR1	1	R1273D
453.332	0.967	557607	WORD_OFF	n/a	n/a	ROACH	n/a	2	3	[0, 0, 0]	n/a	catFR1	1	R1273D
454.299	1.617	558574	WORD	n/a	wordpools/wordpool_categorized_EN.txt	CABINET	Furniture	3	3	[0, 0, 0]	n/a	catFR1	1	R1273D
455.916	0.884	560191	WORD_OFF	n/a	n/a	CABINET	n/a	3	3	[0, 0, 0]	n/a	catFR1	1	R1273D
456.8	1.617	561075	WORD	n/a	wordpools/wordpool_categorized_EN.txt	CHAIR	Furniture	4	3	[0, 0, 0]	n/a	catFR1	1	R1273D
458.417	0.85	562692	WORD_OFF	n/a	n/a	CHAIR	n/a	4	3	[0, 0, 0]	n/a	catFR1	1	R1273D
459.267	1.617	563542	WORD	n/a	wordpools/wordpool_categorized_EN.txt	FREEZER	Appliances	5	3	[0, 0, 0]	n/a	catFR1	1	R1273D
460.884	1.017	565159	WORD_OFF	n/a	n/a	FREEZER	n/a	5	3	[0, 0, 0]	n/a	catFR1	1	R1273D
461.901	1.616	566176	WORD	n/a	wordpools/wordpool_categorized_EN.txt	OVEN	Appliances	6	3	[0, 0, 0]	n/a	catFR1	1	R1273D
463.517	0.95	567792	WORD_OFF	n/a	n/a	OVEN	n/a	6	3	[0, 0, 0]	n/a	catFR1	1	R1273D
464.467	1.617	568742	WORD	n/a	wordpools/wordpool_categorized_EN.txt	GNAT	Insects	7	3	[0, 0, 0]	n/a	catFR1	1	R1273D
466.084	0.951	570358	WORD_OFF	n/a	n/a	GNAT	n/a	7	3	[0, 0, 0]	n/a	catFR1	1	R1273D
467.035	1.616	571309	WORD	n/a	wordpools/wordpool_categorized_EN.txt	CRICKET	Insects	8	3	[0, 0, 0]	n/a	catFR1	1	R1273D
468.651	0.917	572925	WORD_OFF	n/a	n/a	CRICKET	n/a	8	3	[0, 0, 0]	n/a	catFR1	1	R1273D
469.568	1.618	573842	WORD	n/a	wordpools/wordpool_categorized_EN.txt	TABLE	Furniture	9	3	[0, 0, 0]	n/a	catFR1	1	R1273D
471.186	0.783	575460	WORD_OFF	n/a	n/a	TABLE	n/a	9	3	[0, 0, 0]	n/a	catFR1	1	R1273D
471.969	1.616	576243	WORD	n/a	wordpools/wordpool_categorized_EN.txt	SOFA	Furniture	10	3	[0, 0, 0]	n/a	catFR1	1	R1273D
473.585	0.984	577859	WORD_OFF	n/a	n/a	SOFA	n/a	10	3	[0, 0, 0]	n/a	catFR1	1	R1273D
474.569	1.618	578843	WORD	n/a	wordpools/wordpool_categorized_EN.txt	BLENDER	Appliances	11	3	[0, 0, 0]	n/a	catFR1	1	R1273D
476.187	0.916	580461	WORD_OFF	n/a	n/a	BLENDER	n/a	11	3	[0, 0, 0]	n/a	catFR1	1	R1273D
477.103	1.616	581377	WORD	n/a	wordpools/wordpool_categorized_EN.txt	TOASTER	Appliances	12	3	[0, 0, 0]	n/a	catFR1	1	R1273D
478.719	0.001	582993	WORD_OFF	n/a	n/a	TOASTER	n/a	12	3	[0, 0, 0]	n/a	catFR1	1	R1273D
478.72	0.102	582994	ENCODING_END	n/a	n/a	n/a	n/a	-999	3	[0, 0, 0]	n/a	catFR1	1	R1273D
478.822	0.0	583096	DISTRACT_START	n/a	n/a	n/a	n/a	-999	3	[0, 0, 0]	n/a	catFR1	1	R1273D
478.822	0.015	583096	START	n/a	n/a	n/a	n/a	-999	3	[-999, -999, -999]	n/a	catFR1	0	R1273D
478.837	9.385	583111	PROB	9.385	n/a	n/a	n/a	-999	3	[8, 3, 6]	17	catFR1	0	R1273D
488.222	7.152	592495	PROB	7.152	n/a	n/a	n/a	-999	3	[9, 3, 5]	17	catFR1	0	R1273D
495.374	22.082	599647	PROB	22.082	n/a	n/a	n/a	-999	3	[6, 9, 9]	24	catFR1	0	R1273D
517.456	0.02	621728	STOP	n/a	n/a	n/a	n/a	-999	3	[-999, -999, -999]	n/a	catFR1	0	R1273D
517.476	0.535	621748	DISTRACT_END	n/a	n/a	n/a	n/a	-999	3	[0, 0, 0]	n/a	catFR1	1	R1273D
518.011	0.516	622283	RETRIEVAL_ORIENT	n/a	n/a	n/a	n/a	-999	3	[0, 0, 0]	n/a	catFR1	1	R1273D
518.527	1.253	622799	REC_START	n/a	n/a	n/a	n/a	-999	3	[0, 0, 0]	n/a	catFR1	1	R1273D
519.78	5.898	624051	REC_WORD_VV	5.898	n/a	<>	n/a	-999	3	[0, 0, 0]	n/a	catFR1	1	R1273D
525.678	0.808	629949	REC_WORD	0.808	n/a	TABLE	Furniture	9	3	[0, 0, 0]	n/a	catFR1	1	R1273D
526.486	2.837	630757	REC_WORD	2.837	n/a	FREEZER	Appliances	5	3	[0, 0, 0]	n/a	catFR1	1	R1273D
529.323	7.983	633594	REC_WORD	7.983	n/a	CRICKET	Insects	8	3	[0, 0, 0]	n/a	catFR1	1	R1273D
537.306	3.422	641576	REC_WORD_VV	3.422	n/a	<>	n/a	-999	3	[0, 0, 0]	n/a	catFR1	1	R1273D
540.728	7.811	644998	REC_WORD_VV	7.811	n/a	<>	n/a	-999	3	[0, 0, 0]	n/a	catFR1	1	R1273D
548.539	34.199	652809	REC_END	n/a	n/a	n/a	n/a	-999	3	[0, 0, 0]	n/a	catFR1	1	R1273D
582.738	0.5	687006	TRIAL	n/a	n/a	n/a	n/a	-999	4	[0, 0, 0]	n/a	catFR1	1	R1273D
583.238	10.428	687506	COUNTDOWN_START	n/a	n/a	n/a	n/a	-999	4	[0, 0, 0]	n/a	catFR1	1	R1273D
593.666	0.008	697933	COUNTDOWN_END	n/a	n/a	n/a	n/a	-999	4	[0, 0, 0]	n/a	catFR1	1	R1273D
593.674	1.618	697941	ORIENT	n/a	n/a	n/a	n/a	-999	4	[0, 0, 0]	n/a	catFR1	1	R1273D
595.292	1.883	699559	ORIENT_OFF	n/a	n/a	n/a	n/a	-999	4	[0, 0, 0]	n/a	catFR1	1	R1273D
597.175	1.616	701442	WORD	n/a	wordpools/wordpool_categorized_EN.txt	SANDER	Tools	1	4	[0, 0, 0]	n/a	catFR1	1	R1273D
598.791	0.784	703058	WORD_OFF	n/a	n/a	SANDER	n/a	1	4	[0, 0, 0]	n/a	catFR1	1	R1273D
599.575	1.618	703842	WORD	n/a	wordpools/wordpool_categorized_EN.txt	SHOVEL	Tools	2	4	[0, 0, 0]	n/a	catFR1	1	R1273D
601.193	0.783	705460	WORD_OFF	n/a	n/a	SHOVEL	n/a	2	4	[0, 0, 0]	n/a	catFR1	1	R1273D
601.976	1.616	706243	WORD	n/a	wordpools/wordpool_categorized_EN.txt	VIOLIN	Instruments	3	4	[0, 0, 0]	n/a	catFR1	1	R1273D
603.592	0.785	707859	WORD_OFF	n/a	n/a	VIOLIN	n/a	3	4	[0, 0, 0]	n/a	catFR1	1	R1273D
604.377	1.617	708644	WORD	n/a	wordpools/wordpool_categorized_EN.txt	DRUM	Instruments	4	4	[0, 0, 0]	n/a	catFR1	1	R1273D
605.994	0.983	710261	WORD_OFF	n/a	n/a	DRUM	n/a	4	4	[0, 0, 0]	n/a	catFR1	1	R1273D
606.977	1.616	711244	WORD	n/a	wordpools/wordpool_categorized_EN.txt	CLOUD	Weather	5	4	[0, 0, 0]	n/a	catFR1	1	R1273D
608.593	0.9	712859	WORD_OFF	n/a	n/a	CLOUD	n/a	5	4	[0, 0, 0]	n/a	catFR1	1	R1273D
609.493	1.618	713759	WORD	n/a	wordpools/wordpool_categorized_EN.txt	HURRICANE	Weather	6	4	[0, 0, 0]	n/a	catFR1	1	R1273D
611.111	0.8	715377	WORD_OFF	n/a	n/a	HURRICANE	n/a	6	4	[0, 0, 0]	n/a	catFR1	1	R1273D
611.911	1.616	716177	WORD	n/a	wordpools/wordpool_categorized_EN.txt	PIANO	Instruments	7	4	[0, 0, 0]	n/a	catFR1	1	R1273D
613.527	1.017	717793	WORD_OFF	n/a	n/a	PIANO	n/a	7	4	[0, 0, 0]	n/a	catFR1	1	R1273D
614.544	1.618	718810	WORD	n/a	wordpools/wordpool_categorized_EN.txt	GUITAR	Instruments	8	4	[0, 0, 0]	n/a	catFR1	1	R1273D
616.162	0.784	720428	WORD_OFF	n/a	n/a	GUITAR	n/a	8	4	[0, 0, 0]	n/a	catFR1	1	R1273D
616.946	1.615	721212	WORD	n/a	wordpools/wordpool_categorized_EN.txt	SAW	Tools	9	4	[0, 0, 0]	n/a	catFR1	1	R1273D
618.561	0.768	722827	WORD_OFF	n/a	n/a	SAW	n/a	9	4	[0, 0, 0]	n/a	catFR1	1	R1273D
619.329	1.617	723595	WORD	n/a	wordpools/wordpool_categorized_EN.txt	RATCHET	Tools	10	4	[0, 0, 0]	n/a	catFR1	1	R1273D
620.946	0.766	725212	WORD_OFF	n/a	n/a	RATCHET	n/a	10	4	[0, 0, 0]	n/a	catFR1	1	R1273D
621.712	1.618	725978	WORD	n/a	wordpools/wordpool_categorized_EN.txt	DRIZZLE	Weather	11	4	[0, 0, 0]	n/a	catFR1	1	R1273D
623.33	0.867	727596	WORD_OFF	n/a	n/a	DRIZZLE	n/a	11	4	[0, 0, 0]	n/a	catFR1	1	R1273D
624.197	1.617	728463	WORD	n/a	wordpools/wordpool_categorized_EN.txt	THUNDER	Weather	12	4	[0, 0, 0]	n/a	catFR1	1	R1273D
625.814	0.0	730079	WORD_OFF	n/a	n/a	THUNDER	n/a	12	4	[0, 0, 0]	n/a	catFR1	1	R1273D
625.814	0.128	730079	ENCODING_END	n/a	n/a	n/a	n/a	-999	4	[0, 0, 0]	n/a	catFR1	1	R1273D
625.942	0.0	730207	DISTRACT_START	n/a	n/a	n/a	n/a	-999	4	[0, 0, 0]	n/a	catFR1	1	R1273D
625.942	0.022	730207	START	n/a	n/a	n/a	n/a	-999	4	[-999, -999, -999]	n/a	catFR1	0	R1273D
625.964	19.47	730229	PROB	19.47	n/a	n/a	n/a	-999	4	[8, 6, 1]	15	catFR1	0	R1273D
645.434	19.527	749698	PROB	19.527	n/a	n/a	n/a	-999	4	[6, 4, 5]	15	catFR1	0	R1273D
664.961	0.01	769224	STOP	n/a	n/a	n/a	n/a	-999	4	[-999, -999, -999]	n/a	catFR1	0	R1273D
664.971	0.616	769234	DISTRACT_END	n/a	n/a	n/a	n/a	-999	4	[0, 0, 0]	n/a	catFR1	1	R1273D
665.587	0.518	769850	RETRIEVAL_ORIENT	n/a	n/a	n/a	n/a	-999	4	[0, 0, 0]	n/a	catFR1	1	R1273D
666.105	10.12	770368	REC_START	n/a	n/a	n/a	n/a	-999	4	[0, 0, 0]	n/a	catFR1	1	R1273D
676.225	19.891	780488	REC_WORD_VV	19.891	n/a	<>	n/a	-999	4	[0, 0, 0]	n/a	catFR1	1	R1273D
696.116	6.611	800378	REC_END	n/a	n/a	n/a	n/a	-999	4	[0, 0, 0]	n/a	catFR1	1	R1273D
702.727	0.5	806988	TRIAL	n/a	n/a	n/a	n/a	-999	5	[0, 0, 0]	n/a	catFR1	1	R1273D
703.227	10.428	807488	COUNTDOWN_START	n/a	n/a	n/a	n/a	-999	5	[0, 0, 0]	n/a	catFR1	1	R1273D
713.655	0.007	817916	COUNTDOWN_END	n/a	n/a	n/a	n/a	-999	5	[0, 0, 0]	n/a	catFR1	1	R1273D
713.662	1.618	817923	ORIENT	n/a	n/a	n/a	n/a	-999	5	[0, 0, 0]	n/a	catFR1	1	R1273D
715.28	1.95	819540	ORIENT_OFF	n/a	n/a	n/a	n/a	-999	5	[0, 0, 0]	n/a	catFR1	1	R1273D
717.23	1.617	821490	WORD	n/a	wordpools/wordpool_categorized_EN.txt	SHRIMP	OceanAnimals	1	5	[0, 0, 0]	n/a	catFR1	1	R1273D
718.847	1.001	823107	WORD_OFF	n/a	n/a	SHRIMP	n/a	1	5	[0, 0, 0]	n/a	catFR1	1	R1273D
719.848	1.616	824108	WORD	n/a	wordpools/wordpool_categorized_EN.txt	OCTOPUS	OceanAnimals	2	5	[0, 0, 0]	n/a	catFR1	1	R1273D
721.464	0.934	825724	WORD_OFF	n/a	n/a	OCTOPUS	n/a	2	5	[0, 0, 0]	n/a	catFR1	1	R1273D
722.398	1.617	826658	WORD	n/a	wordpools/wordpool_categorized_EN.txt	STAPLER	OfficeSupplies	3	5	[0, 0, 0]	n/a	catFR1	1	R1273D
724.015	1.0	828275	WORD_OFF	n/a	n/a	STAPLER	n/a	3	5	[0, 0, 0]	n/a	catFR1	1	R1273D
725.015	1.616	829275	WORD	n/a	wordpools/wordpool_categorized_EN.txt	MARKER	OfficeSupplies	4	5	[0, 0, 0]	n/a	catFR1	1	R1273D
726.631	1.0	830891	WORD_OFF	n/a	n/a	MARKER	n/a	4	5	[0, 0, 0]	n/a	catFR1	1	R1273D
727.631	1.618	831891	WORD	n/a	wordpools/wordpool_categorized_EN.txt	HILLS	Landscapes	5	5	[0, 0, 0]	n/a	catFR1	1	R1273D
729.249	0.917	833509	WORD_OFF	n/a	n/a	HILLS	n/a	5	5	[0, 0, 0]	n/a	catFR1	1	R1273D
730.166	1.616	834426	WORD	n/a	wordpools/wordpool_categorized_EN.txt	MOUNTAIN	Landscapes	6	5	[0, 0, 0]	n/a	catFR1	1	R1273D
731.782	0.95	836042	WORD_OFF	n/a	n/a	MOUNTAIN	n/a	6	5	[0, 0, 0]	n/a	catFR1	1	R1273D
732.732	1.601	836992	WORD	n/a	wordpools/wordpool_categorized_EN.txt	FISH	OceanAnimals	7	5	[0, 0, 0]	n/a	catFR1	1	R1273D
734.333	0.867	838592	WORD_OFF	n/a	n/a	FISH	n/a	7	5	[0, 0, 0]	n/a	catFR1	1	R1273D
735.2	1.617	839459	WORD	n/a	wordpools/wordpool_categorized_EN.txt	PLANKTON	OceanAnimals	8	5	[0, 0, 0]	n/a	catFR1	1	R1273D
736.817	0.966	841076	WORD_OFF	n/a	n/a	PLANKTON	n/a	8	5	[0, 0, 0]	n/a	catFR1	1	R1273D
737.783	1.601	842042	WORD	n/a	wordpools/wordpool_categorized_EN.txt	ERASER	OfficeSupplies	9	5	[0, 0, 0]	n/a	catFR1	1	R1273D
739.384	0.917	843643	WORD_OFF	n/a	n/a	ERASER	n/a	9	5	[0, 0, 0]	n/a	catFR1	1	R1273D
740.301	1.617	844560	WORD	n/a	wordpools/wordpool_categorized_EN.txt	FOLDER	OfficeSupplies	10	5	[0, 0, 0]	n/a	catFR1	1	R1273D
741.918	0.833	846177	WORD_OFF	n/a	n/a	FOLDER	n/a	10	5	[0, 0, 0]	n/a	catFR1	1	R1273D
742.751	1.618	847010	WORD	n/a	wordpools/wordpool_categorized_EN.txt	FOREST	Landscapes	11	5	[0, 0, 0]	n/a	catFR1	1	R1273D
744.369	0.866	848628	WORD_OFF	n/a	n/a	FOREST	n/a	11	5	[0, 0, 0]	n/a	catFR1	1	R1273D
745.235	1.618	849494	WORD	n/a	wordpools/wordpool_categorized_EN.txt	STREAM	Landscapes	12	5	[0, 0, 0]	n/a	catFR1	1	R1273D
746.853	0.0	851112	ENCODING_END	n/a	n/a	n/a	n/a	-999	5	[0, 0, 0]	n/a	catFR1	1	R1273D
746.853	0.103	851112	WORD_OFF	n/a	n/a	STREAM	n/a	12	5	[0, 0, 0]	n/a	catFR1	1	R1273D
746.956	0.0	851215	DISTRACT_START	n/a	n/a	n/a	n/a	-999	5	[0, 0, 0]	n/a	catFR1	1	R1273D
746.956	0.013	851215	START	n/a	n/a	n/a	n/a	-999	5	[-999, -999, -999]	n/a	catFR1	0	R1273D
746.969	6.935	851228	PROB	6.935	n/a	n/a	n/a	-999	5	[5, 4, 5]	14	catFR1	0	R1273D
753.904	3.384	858162	PROB	3.384	n/a	n/a	n/a	-999	5	[8, 2, 6]	16	catFR1	0	R1273D
757.288	7.118	861546	PROB	7.118	n/a	n/a	n/a	-999	5	[9, 8, 7]	24	catFR1	0	R1273D
764.406	9.618	868664	PROB	9.618	n/a	n/a	n/a	-999	5	[6, 4, 8]	18	catFR1	0	R1273D
774.024	0.017	878281	STOP	n/a	n/a	n/a	n/a	-999	5	[-999, -999, -999]	n/a	catFR1	0	R1273D
774.041	0.515	878298	DISTRACT_END	n/a	n/a	n/a	n/a	-999	5	[0, 0, 0]	n/a	catFR1	1	R1273D
774.556	0.519	878813	RETRIEVAL_ORIENT	n/a	n/a	n/a	n/a	-999	5	[0, 0, 0]	n/a	catFR1	1	R1273D
775.075	0.752	879332	REC_START	n/a	n/a	n/a	n/a	-999	5	[0, 0, 0]	n/a	catFR1	1	R1273D
775.827	3.167	880084	REC_WORD_VV	3.167	n/a	<>	n/a	-999	5	[0, 0, 0]	n/a	catFR1	1	R1273D
778.994	1.72	883251	REC_WORD	1.72	n/a	SHRIMP	OceanAnimals	1	5	[0, 0, 0]	n/a	catFR1	1	R1273D
780.714	1.786	884971	REC_WORD	1.786	n/a	PLANKTON	OceanAnimals	8	5	[0, 0, 0]	n/a	catFR1	1	R1273D
782.5	2.265	886757	REC_WORD_VV	2.265	n/a	<>	n/a	-999	5	[0, 0, 0]	n/a	catFR1	1	R1273D
784.765	20.318	889022	REC_WORD_VV	20.318	n/a	<>	n/a	-999	5	[0, 0, 0]	n/a	catFR1	1	R1273D
805.083	30.136	909338	REC_END	n/a	n/a	n/a	n/a	-999	5	[0, 0, 0]	n/a	catFR1	1	R1273D
835.219	0.5	939473	TRIAL	n/a	n/a	n/a	n/a	-999	6	[0, 0, 0]	n/a	catFR1	1	R1273D
835.719	10.428	939973	COUNTDOWN_START	n/a	n/a	n/a	n/a	-999	6	[0, 0, 0]	n/a	catFR1	1	R1273D
846.147	0.007	950400	COUNTDOWN_END	n/a	n/a	n/a	n/a	-999	6	[0, 0, 0]	n/a	catFR1	1	R1273D
846.154	1.616	950407	ORIENT	n/a	n/a	n/a	n/a	-999	6	[0, 0, 0]	n/a	catFR1	1	R1273D
847.77	2.318	952023	ORIENT_OFF	n/a	n/a	n/a	n/a	-999	6	[0, 0, 0]	n/a	catFR1	1	R1273D
850.088	1.616	954341	WORD	n/a	wordpools/wordpool_categorized_EN.txt	TRAIN	Vehicles	1	6	[0, 0, 0]	n/a	catFR1	1	R1273D
851.704	0.883	955957	WORD_OFF	n/a	n/a	TRAIN	n/a	1	6	[0, 0, 0]	n/a	catFR1	1	R1273D
852.587	1.618	956840	WORD	n/a	wordpools/wordpool_categorized_EN.txt	SCOOTER	Vehicles	2	6	[0, 0, 0]	n/a	catFR1	1	R1273D
854.205	0.95	958458	WORD_OFF	n/a	n/a	SCOOTER	n/a	2	6	[0, 0, 0]	n/a	catFR1	1	R1273D
855.155	1.616	959408	WORD	n/a	wordpools/wordpool_categorized_EN.txt	BANANA	Fruit	3	6	[0, 0, 0]	n/a	catFR1	1	R1273D
856.771	0.851	961024	WORD_OFF	n/a	n/a	BANANA	n/a	3	6	[0, 0, 0]	n/a	catFR1	1	R1273D
857.622	1.618	961875	WORD	n/a	wordpools/wordpool_categorized_EN.txt	BLUEBERRY	Fruit	4	6	[0, 0, 0]	n/a	catFR1	1	R1273D
859.24	0.9	963492	WORD_OFF	n/a	n/a	BLUEBERRY	n/a	4	6	[0, 0, 0]	n/a	catFR1	1	R1273D
860.14	1.616	964392	WORD	n/a	wordpools/wordpool_categorized_EN.txt	DUCK	Birds	5	6	[0, 0, 0]	n/a	catFR1	1	R1273D
861.756	0.883	966008	WORD_OFF	n/a	n/a	DUCK	n/a	5	6	[0, 0, 0]	n/a	catFR1	1	R1273D
862.639	1.601	966891	WORD	n/a	wordpools/wordpool_categorized_EN.txt	ROBIN	Birds	6	6	[0, 0, 0]	n/a	catFR1	1	R1273D
864.24	0.884	968492	WORD_OFF	n/a	n/a	ROBIN	n/a	6	6	[0, 0, 0]	n/a	catFR1	1	R1273D
865.124	1.616	969376	WORD	n/a	wordpools/wordpool_categorized_EN.txt	BIKE	Vehicles	7	6	[0, 0, 0]	n/a	catFR1	1	R1273D
866.74	0.817	970992	WORD_OFF	n/a	n/a	BIKE	n/a	7	6	[0, 0, 0]	n/a	catFR1	1	R1273D
867.557	1.618	971809	WORD	n/a	wordpools/wordpool_categorized_EN.txt	CAR	Vehicles	8	6	[0, 0, 0]	n/a	catFR1	1	R1273D
869.175	0.933	973427	WORD_OFF	n/a	n/a	CAR	n/a	8	6	[0, 0, 0]	n/a	catFR1	1	R1273D
870.108	1.616	974360	WORD	n/a	wordpools/wordpool_categorized_EN.txt	LIME	Fruit	9	6	[0, 0, 0]	n/a	catFR1	1	R1273D
871.724	0.984	975976	WORD_OFF	n/a	n/a	LIME	n/a	9	6	[0, 0, 0]	n/a	catFR1	1	R1273D
872.708	1.601	976960	WORD	n/a	wordpools/wordpool_categorized_EN.txt	CHERRY	Fruit	10	6	[0, 0, 0]	n/a	catFR1	1	R1273D
874.309	0.817	978561	WORD_OFF	n/a	n/a	CHERRY	n/a	10	6	[0, 0, 0]	n/a	catFR1	1	R1273D
875.126	1.616	979378	WORD	n/a	wordpools/wordpool_categorized_EN.txt	CARDINAL	Birds	11	6	[0, 0, 0]	n/a	catFR1	1	R1273D
876.742	1.0	980993	WORD_OFF	n/a	n/a	CARDINAL	n/a	11	6	[0, 0, 0]	n/a	catFR1	1	R1273D
877.742	1.618	981993	WORD	n/a	wordpools/wordpool_categorized_EN.txt	CROW	Birds	12	6	[0, 0, 0]	n/a	catFR1	1	R1273D
879.36	0.0	983611	WORD_OFF	n/a	n/a	CROW	n/a	12	6	[0, 0, 0]	n/a	catFR1	1	R1273D
879.36	0.133	983611	ENCODING_END	n/a	n/a	n/a	n/a	-999	6	[0, 0, 0]	n/a	catFR1	1	R1273D
879.493	0.0	983744	DISTRACT_START	n/a	n/a	n/a	n/a	-999	6	[0, 0, 0]	n/a	catFR1	1	R1273D
879.493	0.016	983744	START	n/a	n/a	n/a	n/a	-999	6	[-999, -999, -999]	n/a	catFR1	0	R1273D
879.509	16.604	983760	PROB	16.604	n/a	n/a	n/a	-999	6	[2, 5, 2]	9	catFR1	0	R1273D
896.113	10.694	1000363	PROB	10.694	n/a	n/a	n/a	-999	6	[5, 9, 4]	18	catFR1	0	R1273D
906.807	0.008	1011057	STOP	n/a	n/a	n/a	n/a	-999	6	[-999, -999, -999]	n/a	catFR1	0	R1273D
906.815	0.533	1011065	DISTRACT_END	n/a	n/a	n/a	n/a	-999	6	[0, 0, 0]	n/a	catFR1	1	R1273D
907.348	0.518	1011598	RETRIEVAL_ORIENT	n/a	n/a	n/a	n/a	-999	6	[0, 0, 0]	n/a	catFR1	1	R1273D
907.866	24.456	1012116	REC_START	n/a	n/a	n/a	n/a	-999	6	[0, 0, 0]	n/a	catFR1	1	R1273D
932.322	5.554	1036570	REC_WORD_VV	5.554	n/a	<>	n/a	-999	6	[0, 0, 0]	n/a	catFR1	1	R1273D
937.876	5.979	1042124	REC_END	n/a	n/a	n/a	n/a	-999	6	[0, 0, 0]	n/a	catFR1	1	R1273D
943.855	0.5	1048103	TRIAL	n/a	n/a	n/a	n/a	-999	7	[0, 0, 0]	n/a	catFR1	1	R1273D
944.355	10.428	1048603	COUNTDOWN_START	n/a	n/a	n/a	n/a	-999	7	[0, 0, 0]	n/a	catFR1	1	R1273D
954.783	0.006	1059030	COUNTDOWN_END	n/a	n/a	n/a	n/a	-999	7	[0, 0, 0]	n/a	catFR1	1	R1273D
954.789	1.618	1059036	ORIENT	n/a	n/a	n/a	n/a	-999	7	[0, 0, 0]	n/a	catFR1	1	R1273D
956.407	1.851	1060654	ORIENT_OFF	n/a	n/a	n/a	n/a	-999	7	[0, 0, 0]	n/a	catFR1	1	R1273D
958.258	1.617	1062505	WORD	n/a	wordpools/wordpool_categorized_EN.txt	AXE	Tools	1	7	[0, 0, 0]	n/a	catFR1	1	R1273D
959.875	0.95	1064122	WORD_OFF	n/a	n/a	AXE	n/a	1	7	[0, 0, 0]	n/a	catFR1	1	R1273D
960.825	1.616	1065072	WORD	n/a	wordpools/wordpool_categorized_EN.txt	CROWBAR	Tools	2	7	[0, 0, 0]	n/a	catFR1	1	R1273D
962.441	0.834	1066688	WORD_OFF	n/a	n/a	CROWBAR	n/a	2	7	[0, 0, 0]	n/a	catFR1	1	R1273D
963.275	1.617	1067522	WORD	n/a	wordpools/wordpool_categorized_EN.txt	PENCIL	OfficeSupplies	3	7	[0, 0, 0]	n/a	catFR1	1	R1273D
964.892	0.967	1069138	WORD_OFF	n/a	n/a	PENCIL	n/a	3	7	[0, 0, 0]	n/a	catFR1	1	R1273D
965.859	1.616	1070105	WORD	n/a	wordpools/wordpool_categorized_EN.txt	NOTEBOOK	OfficeSupplies	4	7	[0, 0, 0]	n/a	catFR1	1	R1273D
967.475	1.0	1071721	WORD_OFF	n/a	n/a	NOTEBOOK	n/a	4	7	[0, 0, 0]	n/a	catFR1	1	R1273D
968.475	1.618	1072721	WORD	n/a	wordpools/wordpool_categorized_EN.txt	HALLWAY	Building	5	7	[0, 0, 0]	n/a	catFR1	1	R1273D
970.093	0.984	1074339	WORD_OFF	n/a	n/a	HALLWAY	n/a	5	7	[0, 0, 0]	n/a	catFR1	1	R1273D
971.077	1.616	1075323	WORD	n/a	wordpools/wordpool_categorized_EN.txt	ROOM	Building	6	7	[0, 0, 0]	n/a	catFR1	1	R1273D
972.693	0.95	1076939	WORD_OFF	n/a	n/a	ROOM	n/a	6	7	[0, 0, 0]	n/a	catFR1	1	R1273D
973.643	1.618	1077889	WORD	n/a	wordpools/wordpool_categorized_EN.txt	GLUE	OfficeSupplies	7	7	[0, 0, 0]	n/a	catFR1	1	R1273D
975.261	0.983	1079507	WORD_OFF	n/a	n/a	GLUE	n/a	7	7	[0, 0, 0]	n/a	catFR1	1	R1273D
976.244	1.617	1080490	WORD	n/a	wordpools/wordpool_categorized_EN.txt	TAPE	OfficeSupplies	8	7	[0, 0, 0]	n/a	catFR1	1	R1273D
977.861	0.816	1082107	WORD_OFF	n/a	n/a	TAPE	n/a	8	7	[0, 0, 0]	n/a	catFR1	1	R1273D
978.677	1.618	1082923	WORD	n/a	wordpools/wordpool_categorized_EN.txt	HAMMER	Tools	9	7	[0, 0, 0]	n/a	catFR1	1	R1273D
980.295	0.933	1084541	WORD_OFF	n/a	n/a	HAMMER	n/a	9	7	[0, 0, 0]	n/a	catFR1	1	R1273D
981.228	1.617	1085474	WORD	n/a	wordpools/wordpool_categorized_EN.txt	PLIERS	Tools	10	7	[0, 0, 0]	n/a	catFR1	1	R1273D
982.845	0.816	1087090	WORD_OFF	n/a	n/a	PLIERS	n/a	10	7	[0, 0, 0]	n/a	catFR1	1	R1273D
983.661	1.618	1087906	WORD	n/a	wordpools/wordpool_categorized_EN.txt	WALL	Building	11	7	[0, 0, 0]	n/a	catFR1	1	R1273D
985.279	0.867	1089524	WORD_OFF	n/a	n/a	WALL	n/a	11	7	[0, 0, 0]	n/a	catFR1	1	R1273D
986.146	1.616	1090391	WORD	n/a	wordpools/wordpool_categorized_EN.txt	STAIRS	Building	12	7	[0, 0, 0]	n/a	catFR1	1	R1273D
987.762	0.0	1092007	WORD_OFF	n/a	n/a	STAIRS	n/a	12	7	[0, 0, 0]	n/a	catFR1	1	R1273D
987.762	0.132	1092007	ENCODING_END	n/a	n/a	n/a	n/a	-999	7	[0, 0, 0]	n/a	catFR1	1	R1273D
987.894	0.0	1092139	DISTRACT_START	n/a	n/a	n/a	n/a	-999	7	[0, 0, 0]	n/a	catFR1	1	R1273D
987.894	0.019	1092139	START	n/a	n/a	n/a	n/a	-999	7	[-999, -999, -999]	n/a	catFR1	0	R1273D
987.913	5.683	1092158	PROB	5.683	n/a	n/a	n/a	-999	7	[3, 2, 7]	12	catFR1	0	R1273D
993.596	3.884	1097841	PROB	3.884	n/a	n/a	n/a	-999	7	[5, 2, 5]	12	catFR1	0	R1273D
997.48	5.402	1101725	PROB	5.402	n/a	n/a	n/a	-999	7	[5, 4, 1]	10	catFR1	0	R1273D
1002.882	3.667	1107126	PROB	3.667	n/a	n/a	n/a	-999	7	[2, 3, 3]	8	catFR1	0	R1273D
1006.549	5.074	1110793	PROB	5.074	n/a	n/a	n/a	-999	7	[2, 9, 8]	18	catFR1	0	R1273D
1011.623	0.01	1115867	STOP	n/a	n/a	n/a	n/a	-999	7	[-999, -999, -999]	n/a	catFR1	0	R1273D
1011.633	0.651	1115877	DISTRACT_END	n/a	n/a	n/a	n/a	-999	7	[0, 0, 0]	n/a	catFR1	1	R1273D
1012.284	0.518	1116528	RETRIEVAL_ORIENT	n/a	n/a	n/a	n/a	-999	7	[0, 0, 0]	n/a	catFR1	1	R1273D
1012.802	0.473	1117046	REC_START	n/a	n/a	n/a	n/a	-999	7	[0, 0, 0]	n/a	catFR1	1	R1273D
1013.275	29.536	1117519	REC_WORD_VV	29.536	n/a	<>	n/a	-999	7	[0, 0, 0]	n/a	catFR1	1	R1273D
1042.811	5.346	1147053	REC_END	n/a	n/a	n/a	n/a	-999	7	[0, 0, 0]	n/a	catFR1	1	R1273D
1048.157	0.5	1152399	TRIAL	n/a	n/a	n/a	n/a	-999	8	[0, 0, 0]	n/a	catFR1	1	R1273D
1048.657	10.428	1152899	COUNTDOWN_START	n/a	n/a	n/a	n/a	-999	8	[0, 0, 0]	n/a	catFR1	1	R1273D
1059.085	0.008	1163326	COUNTDOWN_END	n/a	n/a	n/a	n/a	-999	8	[0, 0, 0]	n/a	catFR1	1	R1273D
1059.093	1.616	1163334	ORIENT	n/a	n/a	n/a	n/a	-999	8	[0, 0, 0]	n/a	catFR1	1	R1273D
1060.709	1.983	1164950	ORIENT_OFF	n/a	n/a	n/a	n/a	-999	8	[0, 0, 0]	n/a	catFR1	1	R1273D
1062.692	1.618	1166933	WORD	n/a	wordpools/wordpool_categorized_EN.txt	PUZZLE	Toys	1	8	[0, 0, 0]	n/a	catFR1	1	R1273D
1064.31	0.8	1168551	WORD_OFF	n/a	n/a	PUZZLE	n/a	1	8	[0, 0, 0]	n/a	catFR1	1	R1273D
1065.11	1.616	1169351	WORD	n/a	wordpools/wordpool_categorized_EN.txt	BASKETBALL	Toys	2	8	[0, 0, 0]	n/a	catFR1	1	R1273D
1066.726	0.8	1170967	WORD_OFF	n/a	n/a	BASKETBALL	n/a	2	8	[0, 0, 0]	n/a	catFR1	1	R1273D
1067.526	1.618	1171767	WORD	n/a	wordpools/wordpool_categorized_EN.txt	SPARROW	Birds	3	8	[0, 0, 0]	n/a	catFR1	1	R1273D
1069.144	0.767	1173385	WORD_OFF	n/a	n/a	SPARROW	n/a	3	8	[0, 0, 0]	n/a	catFR1	1	R1273D
1069.911	1.616	1174152	WORD	n/a	wordpools/wordpool_categorized_EN.txt	HAWK	Birds	4	8	[0, 0, 0]	n/a	catFR1	1	R1273D
1071.527	0.917	1175768	WORD_OFF	n/a	n/a	HAWK	n/a	4	8	[0, 0, 0]	n/a	catFR1	1	R1273D
1072.444	1.601	1176684	WORD	n/a	wordpools/wordpool_categorized_EN.txt	MOSQUITO	Insects	5	8	[0, 0, 0]	n/a	catFR1	1	R1273D
1074.045	0.984	1178285	WORD_OFF	n/a	n/a	MOSQUITO	n/a	5	8	[0, 0, 0]	n/a	catFR1	1	R1273D
1075.029	1.616	1179269	WORD	n/a	wordpools/wordpool_categorized_EN.txt	ANT	Insects	6	8	[0, 0, 0]	n/a	catFR1	1	R1273D
1076.645	0.983	1180885	WORD_OFF	n/a	n/a	ANT	n/a	6	8	[0, 0, 0]	n/a	catFR1	1	R1273D
1077.628	1.618	1181868	WORD	n/a	wordpools/wordpool_categorized_EN.txt	FINCH	Birds	7	8	[0, 0, 0]	n/a	catFR1	1	R1273D
1079.246	0.8	1183486	WORD_OFF	n/a	n/a	FINCH	n/a	7	8	[0, 0, 0]	n/a	catFR1	1	R1273D
1080.046	1.616	1184286	WORD	n/a	wordpools/wordpool_categorized_EN.txt	SEAGULL	Birds	8	8	[0, 0, 0]	n/a	catFR1	1	R1273D
1081.662	0.984	1185902	WORD_OFF	n/a	n/a	SEAGULL	n/a	8	8	[0, 0, 0]	n/a	catFR1	1	R1273D
1082.646	1.618	1186886	WORD	n/a	wordpools/wordpool_categorized_EN.txt	BASEBALL	Toys	9	8	[0, 0, 0]	n/a	catFR1	1	R1273D
1084.264	0.867	1188504	WORD_OFF	n/a	n/a	BASEBALL	n/a	9	8	[0, 0, 0]	n/a	catFR1	1	R1273D
1085.131	1.616	1189371	WORD	n/a	wordpools/wordpool_categorized_EN.txt	BLOCKS	Toys	10	8	[0, 0, 0]	n/a	catFR1	1	R1273D
1086.747	0.867	1190987	WORD_OFF	n/a	n/a	BLOCKS	n/a	10	8	[0, 0, 0]	n/a	catFR1	1	R1273D
1087.614	1.617	1191854	WORD	n/a	wordpools/wordpool_categorized_EN.txt	BEE	Insects	11	8	[0, 0, 0]	n/a	catFR1	1	R1273D
1089.231	0.984	1193471	WORD_OFF	n/a	n/a	BEE	n/a	11	8	[0, 0, 0]	n/a	catFR1	1	R1273D
1090.215	1.617	1194454	WORD	n/a	wordpools/wordpool_categorized_EN.txt	BUTTERFLY	Insects	12	8	[0, 0, 0]	n/a	catFR1	1	R1273D
1091.832	0.0	1196071	WORD_OFF	n/a	n/a	BUTTERFLY	n/a	12	8	[0, 0, 0]	n/a	catFR1	1	R1273D
1091.832	0.104	1196071	ENCODING_END	n/a	n/a	n/a	n/a	-999	8	[0, 0, 0]	n/a	catFR1	1	R1273D
1091.936	0.0	1196175	DISTRACT_START	n/a	n/a	n/a	n/a	-999	8	[0, 0, 0]	n/a	catFR1	1	R1273D
1091.936	0.013	1196175	START	n/a	n/a	n/a	n/a	-999	8	[-999, -999, -999]	n/a	catFR1	0	R1273D
1091.949	7.484	1196188	PROB	7.484	n/a	n/a	n/a	-999	8	[6, 7, 7]	20	catFR1	0	R1273D
1099.433	6.3	1203672	PROB	6.3	n/a	n/a	n/a	-999	8	[1, 7, 9]	17	catFR1	0	R1273D
1105.733	5.319	1209972	PROB	5.319	n/a	n/a	n/a	-999	8	[4, 1, 5]	10	catFR1	0	R1273D
1111.052	10.634	1215290	PROB	10.634	n/a	n/a	n/a	-999	8	[7, 9, 7]	23	catFR1	0	R1273D
1121.686	0.017	1225924	STOP	n/a	n/a	n/a	n/a	-999	8	[-999, -999, -999]	n/a	catFR1	0	R1273D
1121.703	0.634	1225941	DISTRACT_END	n/a	n/a	n/a	n/a	-999	8	[0, 0, 0]	n/a	catFR1	1	R1273D
1122.337	0.518	1226575	RETRIEVAL_ORIENT	n/a	n/a	n/a	n/a	-999	8	[0, 0, 0]	n/a	catFR1	1	R1273D
1122.855	1.016	1227093	REC_START	n/a	n/a	n/a	n/a	-999	8	[0, 0, 0]	n/a	catFR1	1	R1273D
1123.871	28.992	1228109	REC_WORD_VV	28.992	n/a	<>	n/a	-999	8	[0, 0, 0]	n/a	catFR1	1	R1273D
1152.863	5.647	1257099	REC_END	n/a	n/a	n/a	n/a	-999	8	[0, 0, 0]	n/a	catFR1	1	R1273D
1158.51	0.5	1262746	TRIAL	n/a	n/a	n/a	n/a	-999	9	[0, 0, 0]	n/a	catFR1	1	R1273D
1159.01	10.428	1263246	COUNTDOWN_START	n/a	n/a	n/a	n/a	-999	9	[0, 0, 0]	n/a	catFR1	1	R1273D
1169.438	0.007	1273673	COUNTDOWN_END	n/a	n/a	n/a	n/a	-999	9	[0, 0, 0]	n/a	catFR1	1	R1273D
1169.445	1.618	1273680	ORIENT	n/a	n/a	n/a	n/a	-999	9	[0, 0, 0]	n/a	catFR1	1	R1273D
1171.063	2.05	1275298	ORIENT_OFF	n/a	n/a	n/a	n/a	-999	9	[0, 0, 0]	n/a	catFR1	1	R1273D
1173.113	1.616	1277348	WORD	n/a	wordpools/wordpool_categorized_EN.txt	MAPLE	Trees	1	9	[0, 0, 0]	n/a	catFR1	1	R1273D
1174.729	0.917	1278964	WORD_OFF	n/a	n/a	MAPLE	n/a	1	9	[0, 0, 0]	n/a	catFR1	1	R1273D
1175.646	1.618	1279881	WORD	n/a	wordpools/wordpool_categorized_EN.txt	CYPRESS	Trees	2	9	[0, 0, 0]	n/a	catFR1	1	R1273D
1177.264	0.817	1281499	WORD_OFF	n/a	n/a	CYPRESS	n/a	2	9	[0, 0, 0]	n/a	catFR1	1	R1273D
1178.081	1.616	1282316	WORD	n/a	wordpools/wordpool_categorized_EN.txt	BULL	FarmAnimals	3	9	[0, 0, 0]	n/a	catFR1	1	R1273D
1179.697	0.917	1283931	WORD_OFF	n/a	n/a	BULL	n/a	3	9	[0, 0, 0]	n/a	catFR1	1	R1273D
1180.614	1.618	1284848	WORD	n/a	wordpools/wordpool_categorized_EN.txt	ROOSTER	FarmAnimals	4	9	[0, 0, 0]	n/a	catFR1	1	R1273D
1182.232	0.85	1286466	WORD_OFF	n/a	n/a	ROOSTER	n/a	4	9	[0, 0, 0]	n/a	catFR1	1	R1273D
1183.082	1.616	1287316	WORD	n/a	wordpools/wordpool_categorized_EN.txt	WASHER	Appliances	5	9	[0, 0, 0]	n/a	catFR1	1	R1273D
1184.698	0.883	1288932	WORD_OFF	n/a	n/a	WASHER	n/a	5	9	[0, 0, 0]	n/a	catFR1	1	R1273D
1185.581	1.601	1289815	WORD	n/a	wordpools/wordpool_categorized_EN.txt	STOVE	Appliances	6	9	[0, 0, 0]	n/a	catFR1	1	R1273D
1187.182	0.834	1291416	WORD_OFF	n/a	n/a	STOVE	n/a	6	9	[0, 0, 0]	n/a	catFR1	1	R1273D
1188.016	1.616	1292250	WORD	n/a	wordpools/wordpool_categorized_EN.txt	TURKEY	FarmAnimals	7	9	[0, 0, 0]	n/a	catFR1	1	R1273D
1189.632	0.785	1293866	WORD_OFF	n/a	n/a	TURKEY	n/a	7	9	[0, 0, 0]	n/a	catFR1	1	R1273D
1190.417	1.616	1294651	WORD	n/a	wordpools/wordpool_categorized_EN.txt	LAMB	FarmAnimals	8	9	[0, 0, 0]	n/a	catFR1	1	R1273D
1192.033	0.784	1296267	WORD_OFF	n/a	n/a	LAMB	n/a	8	9	[0, 0, 0]	n/a	catFR1	1	R1273D
1192.817	1.617	1297051	WORD	n/a	wordpools/wordpool_categorized_EN.txt	PINE	Trees	9	9	[0, 0, 0]	n/a	catFR1	1	R1273D
1194.434	0.8	1298668	WORD_OFF	n/a	n/a	PINE	n/a	9	9	[0, 0, 0]	n/a	catFR1	1	R1273D
1195.234	1.617	1299468	WORD	n/a	wordpools/wordpool_categorized_EN.txt	WALNUT	Trees	10	9	[0, 0, 0]	n/a	catFR1	1	R1273D
1196.851	0.849	1301084	WORD_OFF	n/a	n/a	WALNUT	n/a	10	9	[0, 0, 0]	n/a	catFR1	1	R1273D
1197.7	1.618	1301933	WORD	n/a	wordpools/wordpool_categorized_EN.txt	REFRIGERATOR	Appliances	11	9	[0, 0, 0]	n/a	catFR1	1	R1273D
1199.318	0.967	1303551	WORD_OFF	n/a	n/a	REFRIGERATOR	n/a	11	9	[0, 0, 0]	n/a	catFR1	1	R1273D
1200.285	1.617	1304518	WORD	n/a	wordpools/wordpool_categorized_EN.txt	DRYER	Appliances	12	9	[0, 0, 0]	n/a	catFR1	1	R1273D
1201.902	0.0	1306135	WORD_OFF	n/a	n/a	DRYER	n/a	12	9	[0, 0, 0]	n/a	catFR1	1	R1273D
1201.902	0.15	1306135	ENCODING_END	n/a	n/a	n/a	n/a	-999	9	[0, 0, 0]	n/a	catFR1	1	R1273D
1202.052	0.0	1306285	DISTRACT_START	n/a	n/a	n/a	n/a	-999	9	[0, 0, 0]	n/a	catFR1	1	R1273D
1202.052	0.017	1306285	START	n/a	n/a	n/a	n/a	-999	9	[-999, -999, -999]	n/a	catFR1	0	R1273D
1202.069	15.302	1306302	PROB	15.302	n/a	n/a	n/a	-999	9	[6, 6, 3]	18	catFR1	0	R1273D
1217.371	18.941	1321603	PROB	18.941	n/a	n/a	n/a	-999	9	[9, 9, 8]	26	catFR1	0	R1273D
1236.312	0.013	1340543	STOP	n/a	n/a	n/a	n/a	-999	9	[-999, -999, -999]	n/a	catFR1	0	R1273D
1236.325	0.55	1340556	DISTRACT_END	n/a	n/a	n/a	n/a	-999	9	[0, 0, 0]	n/a	catFR1	1	R1273D
1236.875	0.517	1341106	RETRIEVAL_ORIENT	n/a	n/a	n/a	n/a	-999	9	[0, 0, 0]	n/a	catFR1	1	R1273D
1237.392	3.649	1341623	REC_START	n/a	n/a	n/a	n/a	-999	9	[0, 0, 0]	n/a	catFR1	1	R1273D
1241.041	5.346	1345272	REC_WORD_VV	5.346	n/a	<>	n/a	-999	9	[0, 0, 0]	n/a	catFR1	1	R1273D
1246.387	14.484	1350618	REC_WORD_VV	14.484	n/a	<>	n/a	-999	9	[0, 0, 0]	n/a	catFR1	1	R1273D
1260.871	6.531	1365101	REC_WORD_VV	6.531	n/a	<>	n/a	-999	9	[0, 0, 0]	n/a	catFR1	1	R1273D
1267.402	8.763	1371632	REC_END	n/a	n/a	n/a	n/a	-999	9	[0, 0, 0]	n/a	catFR1	1	R1273D
1276.165	0.5	1380394	TRIAL	n/a	n/a	n/a	n/a	-999	10	[0, 0, 0]	n/a	catFR1	1	R1273D
1276.665	10.428	1380894	COUNTDOWN_START	n/a	n/a	n/a	n/a	-999	10	[0, 0, 0]	n/a	catFR1	1	R1273D
1287.093	0.008	1391321	COUNTDOWN_END	n/a	n/a	n/a	n/a	-999	10	[0, 0, 0]	n/a	catFR1	1	R1273D
1287.101	1.616	1391329	ORIENT	n/a	n/a	n/a	n/a	-999	10	[0, 0, 0]	n/a	catFR1	1	R1273D
1288.717	2.101	1392945	ORIENT_OFF	n/a	n/a	n/a	n/a	-999	10	[0, 0, 0]	n/a	catFR1	1	R1273D
1290.818	1.617	1395046	WORD	n/a	wordpools/wordpool_categorized_EN.txt	STRAINER	KitchenTools	1	10	[0, 0, 0]	n/a	catFR1	1	R1273D
1292.435	0.85	1396663	WORD_OFF	n/a	n/a	STRAINER	n/a	1	10	[0, 0, 0]	n/a	catFR1	1	R1273D
1293.285	1.617	1397513	WORD	n/a	wordpools/wordpool_categorized_EN.txt	KNIFE	KitchenTools	2	10	[0, 0, 0]	n/a	catFR1	1	R1273D
1294.902	1.0	1399130	WORD_OFF	n/a	n/a	KNIFE	n/a	2	10	[0, 0, 0]	n/a	catFR1	1	R1273D
1295.902	1.616	1400130	WORD	n/a	wordpools/wordpool_categorized_EN.txt	DISHWASHER	Appliances	3	10	[0, 0, 0]	n/a	catFR1	1	R1273D
1297.518	0.835	1401746	WORD_OFF	n/a	n/a	DISHWASHER	n/a	3	10	[0, 0, 0]	n/a	catFR1	1	R1273D
1298.353	1.617	1402581	WORD	n/a	wordpools/wordpool_categorized_EN.txt	VACUUM	Appliances	4	10	[0, 0, 0]	n/a	catFR1	1	R1273D
1299.97	0.799	1404198	WORD_OFF	n/a	n/a	VACUUM	n/a	4	10	[0, 0, 0]	n/a	catFR1	1	R1273D
1300.769	1.618	1404997	WORD	n/a	wordpools/wordpool_categorized_EN.txt	SPINACH	Vegetables	5	10	[0, 0, 0]	n/a	catFR1	1	R1273D
1302.387	0.833	1406615	WORD_OFF	n/a	n/a	SPINACH	n/a	5	10	[0, 0, 0]	n/a	catFR1	1	R1273D
1303.22	1.617	1407448	WORD	n/a	wordpools/wordpool_categorized_EN.txt	PEAS	Vegetables	6	10	[0, 0, 0]	n/a	catFR1	1	R1273D
1304.837	0.916	1409064	WORD_OFF	n/a	n/a	PEAS	n/a	6	10	[0, 0, 0]	n/a	catFR1	1	R1273D
1305.753	1.601	1409980	WORD	n/a	wordpools/wordpool_categorized_EN.txt	SPATULA	KitchenTools	7	10	[0, 0, 0]	n/a	catFR1	1	R1273D
1307.354	0.884	1411581	WORD_OFF	n/a	n/a	SPATULA	n/a	7	10	[0, 0, 0]	n/a	catFR1	1	R1273D
1308.238	1.617	1412465	WORD	n/a	wordpools/wordpool_categorized_EN.txt	LADLE	KitchenTools	8	10	[0, 0, 0]	n/a	catFR1	1	R1273D
1309.855	0.866	1414082	WORD_OFF	n/a	n/a	LADLE	n/a	8	10	[0, 0, 0]	n/a	catFR1	1	R1273D
1310.721	1.618	1414948	WORD	n/a	wordpools/wordpool_categorized_EN.txt	MIXER	Appliances	9	10	[0, 0, 0]	n/a	catFR1	1	R1273D
1312.339	0.967	1416566	WORD_OFF	n/a	n/a	MIXER	n/a	9	10	[0, 0, 0]	n/a	catFR1	1	R1273D
1313.306	1.617	1417533	WORD	n/a	wordpools/wordpool_categorized_EN.txt	IRON	Appliances	10	10	[0, 0, 0]	n/a	catFR1	1	R1273D
1314.923	0.765	1419150	WORD_OFF	n/a	n/a	IRON	n/a	10	10	[0, 0, 0]	n/a	catFR1	1	R1273D
1315.688	1.618	1419915	WORD	n/a	wordpools/wordpool_categorized_EN.txt	BROCCOLI	Vegetables	11	10	[0, 0, 0]	n/a	catFR1	1	R1273D
1317.306	0.967	1421533	WORD_OFF	n/a	n/a	BROCCOLI	n/a	11	10	[0, 0, 0]	n/a	catFR1	1	R1273D
1318.273	1.617	1422500	WORD	n/a	wordpools/wordpool_categorized_EN.txt	CARROT	Vegetables	12	10	[0, 0, 0]	n/a	catFR1	1	R1273D
1319.89	0.0	1424117	WORD_OFF	n/a	n/a	CARROT	n/a	12	10	[0, 0, 0]	n/a	catFR1	1	R1273D
1319.89	0.102	1424117	ENCODING_END	n/a	n/a	n/a	n/a	-999	10	[0, 0, 0]	n/a	catFR1	1	R1273D
1319.992	0.0	1424219	DISTRACT_START	n/a	n/a	n/a	n/a	-999	10	[0, 0, 0]	n/a	catFR1	1	R1273D
1319.992	0.015	1424219	START	n/a	n/a	n/a	n/a	-999	10	[-999, -999, -999]	n/a	catFR1	0	R1273D
1320.007	7.335	1424234	PROB	7.335	n/a	n/a	n/a	-999	10	[5, 2, 1]	8	catFR1	0	R1273D
1327.342	3.667	1431568	PROB	3.667	n/a	n/a	n/a	-999	10	[8, 2, 7]	17	catFR1	0	R1273D
1331.009	6.851	1435235	PROB	6.851	n/a	n/a	n/a	-999	10	[4, 8, 8]	20	catFR1	0	R1273D
1337.86	4.795	1442086	PROB	4.795	n/a	n/a	n/a	-999	10	[2, 6, 6]	14	catFR1	0	R1273D
1342.655	0.022	1446880	STOP	n/a	n/a	n/a	n/a	-999	10	[-999, -999, -999]	n/a	catFR1	0	R1273D
1342.677	0.651	1446902	DISTRACT_END	n/a	n/a	n/a	n/a	-999	10	[0, 0, 0]	n/a	catFR1	1	R1273D
1343.328	0.517	1447553	RETRIEVAL_ORIENT	n/a	n/a	n/a	n/a	-999	10	[0, 0, 0]	n/a	catFR1	1	R1273D
1343.845	0.404	1448070	REC_START	n/a	n/a	n/a	n/a	-999	10	[0, 0, 0]	n/a	catFR1	1	R1273D
1344.249	2.277	1448474	REC_WORD_VV	2.277	n/a	<>	n/a	-999	10	[0, 0, 0]	n/a	catFR1	1	R1273D
1346.526	0.891	1450751	REC_WORD	0.891	n/a	STRAINER	KitchenTools	1	10	[0, 0, 0]	n/a	catFR1	1	R1273D
1347.417	1.963	1451642	REC_WORD	1.963	n/a	KNIFE	KitchenTools	2	10	[0, 0, 0]	n/a	catFR1	1	R1273D
1349.38	1.451	1453605	REC_WORD	1.451	n/a	LADLE	KitchenTools	8	10	[0, 0, 0]	n/a	catFR1	1	R1273D
1350.831	3.875	1455056	REC_WORD	3.875	n/a	SPATULA	KitchenTools	7	10	[0, 0, 0]	n/a	catFR1	1	R1273D
1354.706	6.429	1458931	REC_WORD_VV	6.429	n/a	<>	n/a	-999	10	[0, 0, 0]	n/a	catFR1	1	R1273D
1361.135	1.848	1465359	REC_WORD_VV	1.848	n/a	<>	n/a	-999	10	[0, 0, 0]	n/a	catFR1	1	R1273D
1362.983	10.362	1467207	REC_WORD_VV	10.362	n/a	<>	n/a	-999	10	[0, 0, 0]	n/a	catFR1	1	R1273D
1373.345	0.51	1477569	REC_WORD_VV	0.51	n/a	<>	n/a	-999	10	[0, 0, 0]	n/a	catFR1	1	R1273D
1373.855	10.997	1478079	REC_END	n/a	n/a	n/a	n/a	-999	10	[0, 0, 0]	n/a	catFR1	1	R1273D
1384.852	0.5	1489075	TRIAL	n/a	n/a	n/a	n/a	-999	11	[0, 0, 0]	n/a	catFR1	1	R1273D
1385.352	10.428	1489575	COUNTDOWN_START	n/a	n/a	n/a	n/a	-999	11	[0, 0, 0]	n/a	catFR1	1	R1273D
1395.78	0.006	1500002	COUNTDOWN_END	n/a	n/a	n/a	n/a	-999	11	[0, 0, 0]	n/a	catFR1	1	R1273D
1395.786	1.601	1500008	ORIENT	n/a	n/a	n/a	n/a	-999	11	[0, 0, 0]	n/a	catFR1	1	R1273D
1397.387	2.001	1501609	ORIENT_OFF	n/a	n/a	n/a	n/a	-999	11	[0, 0, 0]	n/a	catFR1	1	R1273D
1399.388	1.617	1503610	WORD	n/a	wordpools/wordpool_categorized_EN.txt	FOUNDATION	Building	1	11	[0, 0, 0]	n/a	catFR1	1	R1273D
1401.005	0.817	1505227	WORD_OFF	n/a	n/a	FOUNDATION	n/a	1	11	[0, 0, 0]	n/a	catFR1	1	R1273D
1401.822	1.617	1506044	WORD	n/a	wordpools/wordpool_categorized_EN.txt	WINDOW	Building	2	11	[0, 0, 0]	n/a	catFR1	1	R1273D
1403.439	1.0	1507661	WORD_OFF	n/a	n/a	WINDOW	n/a	2	11	[0, 0, 0]	n/a	catFR1	1	R1273D
1404.439	1.617	1508661	WORD	n/a	wordpools/wordpool_categorized_EN.txt	JELLYFISH	OceanAnimals	3	11	[0, 0, 0]	n/a	catFR1	1	R1273D
1406.056	0.85	1510278	WORD_OFF	n/a	n/a	JELLYFISH	n/a	3	11	[0, 0, 0]	n/a	catFR1	1	R1273D
1406.906	1.616	1511128	WORD	n/a	wordpools/wordpool_categorized_EN.txt	TURTLE	OceanAnimals	4	11	[0, 0, 0]	n/a	catFR1	1	R1273D
1408.522	0.768	1512744	WORD_OFF	n/a	n/a	TURTLE	n/a	4	11	[0, 0, 0]	n/a	catFR1	1	R1273D
1409.29	1.617	1513512	WORD	n/a	wordpools/wordpool_categorized_EN.txt	GRATER	KitchenTools	5	11	[0, 0, 0]	n/a	catFR1	1	R1273D
1410.907	0.849	1515128	WORD_OFF	n/a	n/a	GRATER	n/a	5	11	[0, 0, 0]	n/a	catFR1	1	R1273D
1411.756	1.618	1515977	WORD	n/a	wordpools/wordpool_categorized_EN.txt	WHISK	KitchenTools	6	11	[0, 0, 0]	n/a	catFR1	1	R1273D
1413.374	0.883	1517595	WORD_OFF	n/a	n/a	WHISK	n/a	6	11	[0, 0, 0]	n/a	catFR1	1	R1273D
1414.257	1.617	1518478	WORD	n/a	wordpools/wordpool_categorized_EN.txt	CEILING	Building	7	11	[0, 0, 0]	n/a	catFR1	1	R1273D
1415.874	0.899	1520095	WORD_OFF	n/a	n/a	CEILING	n/a	7	11	[0, 0, 0]	n/a	catFR1	1	R1273D
1416.773	1.618	1520994	WORD	n/a	wordpools/wordpool_categorized_EN.txt	ATTIC	Building	8	11	[0, 0, 0]	n/a	catFR1	1	R1273D
1418.391	0.901	1522612	WORD_OFF	n/a	n/a	ATTIC	n/a	8	11	[0, 0, 0]	n/a	catFR1	1	R1273D
1419.292	1.617	1523513	WORD	n/a	wordpools/wordpool_categorized_EN.txt	SQUID	OceanAnimals	9	11	[0, 0, 0]	n/a	catFR1	1	R1273D
1420.909	0.95	1525130	WORD_OFF	n/a	n/a	SQUID	n/a	9	11	[0, 0, 0]	n/a	catFR1	1	R1273D
1421.859	1.616	1526080	WORD	n/a	wordpools/wordpool_categorized_EN.txt	DOLPHIN	OceanAnimals	10	11	[0, 0, 0]	n/a	catFR1	1	R1273D
1423.475	0.901	1527696	WORD_OFF	n/a	n/a	DOLPHIN	n/a	10	11	[0, 0, 0]	n/a	catFR1	1	R1273D
1424.376	1.617	1528597	WORD	n/a	wordpools/wordpool_categorized_EN.txt	SPOON	KitchenTools	11	11	[0, 0, 0]	n/a	catFR1	1	R1273D
1425.993	0.833	1530214	WORD_OFF	n/a	n/a	SPOON	n/a	11	11	[0, 0, 0]	n/a	catFR1	1	R1273D
1426.826	1.616	1531047	WORD	n/a	wordpools/wordpool_categorized_EN.txt	TONGS	KitchenTools	12	11	[0, 0, 0]	n/a	catFR1	1	R1273D
1428.442	0.0	1532663	WORD_OFF	n/a	n/a	TONGS	n/a	12	11	[0, 0, 0]	n/a	catFR1	1	R1273D
1428.442	0.104	1532663	ENCODING_END	n/a	n/a	n/a	n/a	-999	11	[0, 0, 0]	n/a	catFR1	1	R1273D
1428.546	0.0	1532767	DISTRACT_START	n/a	n/a	n/a	n/a	-999	11	[0, 0, 0]	n/a	catFR1	1	R1273D
1428.546	0.013	1532767	START	n/a	n/a	n/a	n/a	-999	11	[-999, -999, -999]	n/a	catFR1	0	R1273D
1428.559	16.354	1532780	PROB	16.354	n/a	n/a	n/a	-999	11	[8, 9, 7]	24	catFR1	0	R1273D
1444.913	8.174	1549133	PROB	8.174	n/a	n/a	n/a	-999	11	[7, 8, 8]	24	catFR1	0	R1273D
1453.087	0.011	1557306	STOP	n/a	n/a	n/a	n/a	-999	11	[-999, -999, -999]	n/a	catFR1	0	R1273D
1453.098	0.7	1557317	DISTRACT_END	n/a	n/a	n/a	n/a	-999	11	[0, 0, 0]	n/a	catFR1	1	R1273D
1453.798	0.517	1558017	RETRIEVAL_ORIENT	n/a	n/a	n/a	n/a	-999	11	[0, 0, 0]	n/a	catFR1	1	R1273D
1454.315	5.03	1558534	REC_START	n/a	n/a	n/a	n/a	-999	11	[0, 0, 0]	n/a	catFR1	1	R1273D
1459.345	7.075	1563564	REC_WORD_VV	7.075	n/a	<>	n/a	-999	11	[0, 0, 0]	n/a	catFR1	1	R1273D
1466.42	7.378	1570638	REC_WORD	7.378	n/a	DOLPHIN	OceanAnimals	10	11	[0, 0, 0]	n/a	catFR1	1	R1273D
1473.798	4.199	1578016	REC_WORD_VV	4.199	n/a	<>	n/a	-999	11	[0, 0, 0]	n/a	catFR1	1	R1273D
1477.997	5.793	1582215	REC_WORD	5.793	n/a	SQUID	OceanAnimals	9	11	[0, 0, 0]	n/a	catFR1	1	R1273D
1483.79	0.536	1588007	REC_WORD_VV	0.536	n/a	<>	n/a	-999	11	[0, 0, 0]	n/a	catFR1	1	R1273D
1484.326	5.978	1588543	REC_END	n/a	n/a	n/a	n/a	-999	11	[0, 0, 0]	n/a	catFR1	1	R1273D
1490.304	0.5	1594521	TRIAL	n/a	n/a	n/a	n/a	-999	12	[0, 0, 0]	n/a	catFR1	1	R1273D
1490.804	10.428	1595021	COUNTDOWN_START	n/a	n/a	n/a	n/a	-999	12	[0, 0, 0]	n/a	catFR1	1	R1273D
1501.232	0.008	1605448	COUNTDOWN_END	n/a	n/a	n/a	n/a	-999	12	[0, 0, 0]	n/a	catFR1	1	R1273D
1501.24	1.617	1605456	ORIENT	n/a	n/a	n/a	n/a	-999	12	[0, 0, 0]	n/a	catFR1	1	R1273D
1502.857	2.184	1607073	ORIENT_OFF	n/a	n/a	n/a	n/a	-999	12	[0, 0, 0]	n/a	catFR1	1	R1273D
1505.041	1.615	1609257	WORD	n/a	wordpools/wordpool_categorized_EN.txt	HICKORY	Trees	1	12	[0, 0, 0]	n/a	catFR1	1	R1273D
1506.656	0.817	1610872	WORD_OFF	n/a	n/a	HICKORY	n/a	1	12	[0, 0, 0]	n/a	catFR1	1	R1273D
1507.473	1.601	1611689	WORD	n/a	wordpools/wordpool_categorized_EN.txt	BIRCH	Trees	2	12	[0, 0, 0]	n/a	catFR1	1	R1273D
1509.074	0.801	1613290	WORD_OFF	n/a	n/a	BIRCH	n/a	2	12	[0, 0, 0]	n/a	catFR1	1	R1273D
1509.875	1.616	1614091	WORD	n/a	wordpools/wordpool_categorized_EN.txt	DAISY	Flowers	3	12	[0, 0, 0]	n/a	catFR1	1	R1273D
1511.491	0.983	1615707	WORD_OFF	n/a	n/a	DAISY	n/a	3	12	[0, 0, 0]	n/a	catFR1	1	R1273D
1512.474	1.618	1616690	WORD	n/a	wordpools/wordpool_categorized_EN.txt	LILY	Flowers	4	12	[0, 0, 0]	n/a	catFR1	1	R1273D
1514.092	0.917	1618308	WORD_OFF	n/a	n/a	LILY	n/a	4	12	[0, 0, 0]	n/a	catFR1	1	R1273D
1515.009	1.616	1619225	WORD	n/a	wordpools/wordpool_categorized_EN.txt	CALCULATOR	Electronics	5	12	[0, 0, 0]	n/a	catFR1	1	R1273D
1516.625	1.0	1620841	WORD_OFF	n/a	n/a	CALCULATOR	n/a	5	12	[0, 0, 0]	n/a	catFR1	1	R1273D
1517.625	1.618	1621841	WORD	n/a	wordpools/wordpool_categorized_EN.txt	PRINTER	Electronics	6	12	[0, 0, 0]	n/a	catFR1	1	R1273D
1519.243	0.817	1623458	WORD_OFF	n/a	n/a	PRINTER	n/a	6	12	[0, 0, 0]	n/a	catFR1	1	R1273D
1520.06	1.616	1624275	WORD	n/a	wordpools/wordpool_categorized_EN.txt	DAFFODIL	Flowers	7	12	[0, 0, 0]	n/a	catFR1	1	R1273D
1521.676	0.983	1625891	WORD_OFF	n/a	n/a	DAFFODIL	n/a	7	12	[0, 0, 0]	n/a	catFR1	1	R1273D
1522.659	1.602	1626874	WORD	n/a	wordpools/wordpool_categorized_EN.txt	TULIP	Flowers	8	12	[0, 0, 0]	n/a	catFR1	1	R1273D
1524.261	1.0	1628476	WORD_OFF	n/a	n/a	TULIP	n/a	8	12	[0, 0, 0]	n/a	catFR1	1	R1273D
1525.261	1.617	1629476	WORD	n/a	wordpools/wordpool_categorized_EN.txt	SPRUCE	Trees	9	12	[0, 0, 0]	n/a	catFR1	1	R1273D
1526.878	0.816	1631093	WORD_OFF	n/a	n/a	SPRUCE	n/a	9	12	[0, 0, 0]	n/a	catFR1	1	R1273D
1527.694	1.618	1631909	WORD	n/a	wordpools/wordpool_categorized_EN.txt	ELM	Trees	10	12	[0, 0, 0]	n/a	catFR1	1	R1273D
1529.312	0.916	1633527	WORD_OFF	n/a	n/a	ELM	n/a	10	12	[0, 0, 0]	n/a	catFR1	1	R1273D
1530.228	1.617	1634443	WORD	n/a	wordpools/wordpool_categorized_EN.txt	MICROWAVE	Electronics	11	12	[0, 0, 0]	n/a	catFR1	1	R1273D
1531.845	0.85	1636060	WORD_OFF	n/a	n/a	MICROWAVE	n/a	11	12	[0, 0, 0]	n/a	catFR1	1	R1273D
1532.695	1.618	1636910	WORD	n/a	wordpools/wordpool_categorized_EN.txt	TELEVISION	Electronics	12	12	[0, 0, 0]	n/a	catFR1	1	R1273D
1534.313	0.0	1638528	ENCODING_END	n/a	n/a	n/a	n/a	-999	12	[0, 0, 0]	n/a	catFR1	1	R1273D
1534.313	0.132	1638528	WORD_OFF	n/a	n/a	TELEVISION	n/a	12	12	[0, 0, 0]	n/a	catFR1	1	R1273D
1534.445	0.0	1638660	DISTRACT_START	n/a	n/a	n/a	n/a	-999	12	[0, 0, 0]	n/a	catFR1	1	R1273D
1534.445	0.017	1638660	START	n/a	n/a	n/a	n/a	-999	12	[-999, -999, -999]	n/a	catFR1	0	R1273D
1534.462	7.151	1638677	PROB	7.151	n/a	n/a	n/a	-999	12	[8, 2, 7]	17	catFR1	0	R1273D
1541.613	28.338	1645827	PROB	28.338	n/a	n/a	n/a	-999	12	[6, 1, 3]	10	catFR1	0	R1273D
1569.951	0.018	1674164	STOP	n/a	n/a	n/a	n/a	-999	12	[-999, -999, -999]	n/a	catFR1	0	R1273D
1569.969	0.682	1674182	DISTRACT_END	n/a	n/a	n/a	n/a	-999	12	[0, 0, 0]	n/a	catFR1	1	R1273D
1570.651	0.52	1674864	RETRIEVAL_ORIENT	n/a	n/a	n/a	n/a	-999	12	[0, 0, 0]	n/a	catFR1	1	R1273D
1571.171	2.443	1675384	REC_START	n/a	n/a	n/a	n/a	-999	12	[0, 0, 0]	n/a	catFR1	1	R1273D
1573.614	2.701	1677826	REC_WORD_VV	2.701	n/a	<>	n/a	-999	12	[0, 0, 0]	n/a	catFR1	1	R1273D
1576.315	4.096	1680527	REC_WORD_VV	4.096	n/a	<>	n/a	-999	12	[0, 0, 0]	n/a	catFR1	1	R1273D
1580.411	3.965	1684623	REC_WORD_VV	3.965	n/a	<>	n/a	-999	12	[0, 0, 0]	n/a	catFR1	1	R1273D
1584.376	16.804	1688588	REC_WORD_VV	16.804	n/a	<>	n/a	-999	12	[0, 0, 0]	n/a	catFR1	1	R1273D
1601.18	235.254	1705391	REC_END	n/a	n/a	n/a	n/a	-999	12	[0, 0, 0]	n/a	catFR1	1	R1273D
1836.434	0.5	1940632	TRIAL	n/a	n/a	n/a	n/a	-999	13	[0, 0, 0]	n/a	catFR1	1	R1273D
1836.934	10.428	1941132	COUNTDOWN_START	n/a	n/a	n/a	n/a	-999	13	[0, 0, 0]	n/a	catFR1	1	R1273D
1847.362	0.007	1951559	COUNTDOWN_END	n/a	n/a	n/a	n/a	-999	13	[0, 0, 0]	n/a	catFR1	1	R1273D
1847.369	1.617	1951566	ORIENT	n/a	n/a	n/a	n/a	-999	13	[0, 0, 0]	n/a	catFR1	1	R1273D
1848.986	1.984	1953183	ORIENT_OFF	n/a	n/a	n/a	n/a	-999	13	[0, 0, 0]	n/a	catFR1	1	R1273D
1850.97	1.616	1955167	WORD	n/a	wordpools/wordpool_categorized_EN.txt	PASTRY	Desserts	1	13	[0, 0, 0]	n/a	catFR1	1	R1273D
1852.586	0.801	1956783	WORD_OFF	n/a	n/a	PASTRY	n/a	1	13	[0, 0, 0]	n/a	catFR1	1	R1273D
1853.387	1.617	1957584	WORD	n/a	wordpools/wordpool_categorized_EN.txt	CUPCAKE	Desserts	2	13	[0, 0, 0]	n/a	catFR1	1	R1273D
1855.004	0.967	1959201	WORD_OFF	n/a	n/a	CUPCAKE	n/a	2	13	[0, 0, 0]	n/a	catFR1	1	R1273D
1855.971	1.616	1960168	WORD	n/a	wordpools/wordpool_categorized_EN.txt	WILLOW	Trees	3	13	[0, 0, 0]	n/a	catFR1	1	R1273D
1857.587	0.768	1961783	WORD_OFF	n/a	n/a	WILLOW	n/a	3	13	[0, 0, 0]	n/a	catFR1	1	R1273D
1858.355	1.617	1962551	WORD	n/a	wordpools/wordpool_categorized_EN.txt	OAK	Trees	4	13	[0, 0, 0]	n/a	catFR1	1	R1273D
1859.972	0.866	1964168	WORD_OFF	n/a	n/a	OAK	n/a	4	13	[0, 0, 0]	n/a	catFR1	1	R1273D
1860.838	1.601	1965034	WORD	n/a	wordpools/wordpool_categorized_EN.txt	ORGAN	Instruments	5	13	[0, 0, 0]	n/a	catFR1	1	R1273D
1862.439	0.783	1966635	WORD_OFF	n/a	n/a	ORGAN	n/a	5	13	[0, 0, 0]	n/a	catFR1	1	R1273D
1863.222	1.617	1967418	WORD	n/a	wordpools/wordpool_categorized_EN.txt	BANJO	Instruments	6	13	[0, 0, 0]	n/a	catFR1	1	R1273D
1864.839	0.783	1969035	WORD_OFF	n/a	n/a	BANJO	n/a	6	13	[0, 0, 0]	n/a	catFR1	1	R1273D
1865.622	1.618	1969818	WORD	n/a	wordpools/wordpool_categorized_EN.txt	CHEESECAKE	Desserts	7	13	[0, 0, 0]	n/a	catFR1	1	R1273D
1867.24	0.917	1971436	WORD_OFF	n/a	n/a	CHEESECAKE	n/a	7	13	[0, 0, 0]	n/a	catFR1	1	R1273D
1868.157	1.616	1972353	WORD	n/a	wordpools/wordpool_categorized_EN.txt	CAKE	Desserts	8	13	[0, 0, 0]	n/a	catFR1	1	R1273D
1869.773	1.0	1973969	WORD_OFF	n/a	n/a	CAKE	n/a	8	13	[0, 0, 0]	n/a	catFR1	1	R1273D
1870.773	1.618	1974969	WORD	n/a	wordpools/wordpool_categorized_EN.txt	EVERGREEN	Trees	9	13	[0, 0, 0]	n/a	catFR1	1	R1273D
1872.391	0.983	1976587	WORD_OFF	n/a	n/a	EVERGREEN	n/a	9	13	[0, 0, 0]	n/a	catFR1	1	R1273D
1873.374	1.617	1977570	WORD	n/a	wordpools/wordpool_categorized_EN.txt	CEDAR	Trees	10	13	[0, 0, 0]	n/a	catFR1	1	R1273D
1874.991	0.867	1979186	WORD_OFF	n/a	n/a	CEDAR	n/a	10	13	[0, 0, 0]	n/a	catFR1	1	R1273D
1875.858	1.616	1980053	WORD	n/a	wordpools/wordpool_categorized_EN.txt	TRUMPET	Instruments	11	13	[0, 0, 0]	n/a	catFR1	1	R1273D
1877.474	0.768	1981669	WORD_OFF	n/a	n/a	TRUMPET	n/a	11	13	[0, 0, 0]	n/a	catFR1	1	R1273D
1878.242	1.617	1982437	WORD	n/a	wordpools/wordpool_categorized_EN.txt	TUBA	Instruments	12	13	[0, 0, 0]	n/a	catFR1	1	R1273D
1879.859	0.0	1984054	ENCODING_END	n/a	n/a	n/a	n/a	-999	13	[0, 0, 0]	n/a	catFR1	1	R1273D
1879.859	0.102	1984054	WORD_OFF	n/a	n/a	TUBA	n/a	12	13	[0, 0, 0]	n/a	catFR1	1	R1273D
1879.961	0.0	1984156	DISTRACT_START	n/a	n/a	n/a	n/a	-999	13	[0, 0, 0]	n/a	catFR1	1	R1273D
1879.961	0.014	1984156	START	n/a	n/a	n/a	n/a	-999	13	[-999, -999, -999]	n/a	catFR1	0	R1273D
1879.975	10.551	1984170	PROB	10.551	n/a	n/a	n/a	-999	13	[6, 3, 4]	13	catFR1	0	R1273D
1890.526	12.074	1994721	PROB	12.074	n/a	n/a	n/a	-999	13	[5, 7, 4]	16	catFR1	0	R1273D
1902.6	0.012	2006794	STOP	n/a	n/a	n/a	n/a	-999	13	[-999, -999, -999]	n/a	catFR1	0	R1273D
1902.612	0.651	2006806	DISTRACT_END	n/a	n/a	n/a	n/a	-999	13	[0, 0, 0]	n/a	catFR1	1	R1273D
1903.263	0.516	2007457	RETRIEVAL_ORIENT	n/a	n/a	n/a	n/a	-999	13	[0, 0, 0]	n/a	catFR1	1	R1273D
1903.779	1.361	2007973	REC_START	n/a	n/a	n/a	n/a	-999	13	[0, 0, 0]	n/a	catFR1	1	R1273D
1905.14	4.262	2009334	REC_WORD_VV	4.262	n/a	<>	n/a	-999	13	[0, 0, 0]	n/a	catFR1	1	R1273D
1909.402	18.107	2013596	REC_WORD_VV	18.107	n/a	<>	n/a	-999	13	[0, 0, 0]	n/a	catFR1	1	R1273D
1927.509	6.28	2031702	REC_WORD_VV	6.28	n/a	<>	n/a	-999	13	[0, 0, 0]	n/a	catFR1	1	R1273D
1933.789	6.547	2037981	REC_END	n/a	n/a	n/a	n/a	-999	13	[0, 0, 0]	n/a	catFR1	1	R1273D
1940.336	0.5	2044528	TRIAL	n/a	n/a	n/a	n/a	-999	14	[0, 0, 0]	n/a	catFR1	1	R1273D
1940.836	10.428	2045028	COUNTDOWN_START	n/a	n/a	n/a	n/a	-999	14	[0, 0, 0]	n/a	catFR1	1	R1273D
1951.264	0.008	2055455	COUNTDOWN_END	n/a	n/a	n/a	n/a	-999	14	[0, 0, 0]	n/a	catFR1	1	R1273D
1951.272	1.617	2055463	ORIENT	n/a	n/a	n/a	n/a	-999	14	[0, 0, 0]	n/a	catFR1	1	R1273D
1952.889	1.866	2057080	ORIENT_OFF	n/a	n/a	n/a	n/a	-999	14	[0, 0, 0]	n/a	catFR1	1	R1273D
1954.755	1.618	2058946	WORD	n/a	wordpools/wordpool_categorized_EN.txt	MONKEY	Zoo	1	14	[0, 0, 0]	n/a	catFR1	1	R1273D
1956.373	0.883	2060564	WORD_OFF	n/a	n/a	MONKEY	n/a	1	14	[0, 0, 0]	n/a	catFR1	1	R1273D
1957.256	1.617	2061447	WORD	n/a	wordpools/wordpool_categorized_EN.txt	BEAR	Zoo	2	14	[0, 0, 0]	n/a	catFR1	1	R1273D
1958.873	0.899	2063064	WORD_OFF	n/a	n/a	BEAR	n/a	2	14	[0, 0, 0]	n/a	catFR1	1	R1273D
1959.772	1.601	2063963	WORD	n/a	wordpools/wordpool_categorized_EN.txt	CELLO	Instruments	3	14	[0, 0, 0]	n/a	catFR1	1	R1273D
1961.373	0.834	2065564	WORD_OFF	n/a	n/a	CELLO	n/a	3	14	[0, 0, 0]	n/a	catFR1	1	R1273D
1962.207	1.617	2066398	WORD	n/a	wordpools/wordpool_categorized_EN.txt	FLUTE	Instruments	4	14	[0, 0, 0]	n/a	catFR1	1	R1273D
1963.824	0.849	2068015	WORD_OFF	n/a	n/a	FLUTE	n/a	4	14	[0, 0, 0]	n/a	catFR1	1	R1273D
1964.673	1.618	2068863	WORD	n/a	wordpools/wordpool_categorized_EN.txt	MARIGOLD	Flowers	5	14	[0, 0, 0]	n/a	catFR1	1	R1273D
1966.291	0.767	2070481	WORD_OFF	n/a	n/a	MARIGOLD	n/a	5	14	[0, 0, 0]	n/a	catFR1	1	R1273D
1967.058	1.616	2071248	WORD	n/a	wordpools/wordpool_categorized_EN.txt	ORCHID	Flowers	6	14	[0, 0, 0]	n/a	catFR1	1	R1273D
1968.674	0.8	2072864	WORD_OFF	n/a	n/a	ORCHID	n/a	6	14	[0, 0, 0]	n/a	catFR1	1	R1273D
1969.474	1.618	2073664	WORD	n/a	wordpools/wordpool_categorized_EN.txt	ORANGUTAN	Zoo	7	14	[0, 0, 0]	n/a	catFR1	1	R1273D
1971.092	0.834	2075282	WORD_OFF	n/a	n/a	ORANGUTAN	n/a	7	14	[0, 0, 0]	n/a	catFR1	1	R1273D
1971.926	1.615	2076116	WORD	n/a	wordpools/wordpool_categorized_EN.txt	GIRAFFE	Zoo	8	14	[0, 0, 0]	n/a	catFR1	1	R1273D
1973.541	0.967	2077731	WORD_OFF	n/a	n/a	GIRAFFE	n/a	8	14	[0, 0, 0]	n/a	catFR1	1	R1273D
1974.508	1.601	2078698	WORD	n/a	wordpools/wordpool_categorized_EN.txt	BASS	Instruments	9	14	[0, 0, 0]	n/a	catFR1	1	R1273D
1976.109	0.834	2080299	WORD_OFF	n/a	n/a	BASS	n/a	9	14	[0, 0, 0]	n/a	catFR1	1	R1273D
1976.943	1.616	2081133	WORD	n/a	wordpools/wordpool_categorized_EN.txt	TROMBONE	Instruments	10	14	[0, 0, 0]	n/a	catFR1	1	R1273D
1978.559	1.0	2082749	WORD_OFF	n/a	n/a	TROMBONE	n/a	10	14	[0, 0, 0]	n/a	catFR1	1	R1273D
1979.559	1.601	2083749	WORD	n/a	wordpools/wordpool_categorized_EN.txt	LILAC	Flowers	11	14	[0, 0, 0]	n/a	catFR1	1	R1273D
1981.16	0.817	2085350	WORD_OFF	n/a	n/a	LILAC	n/a	11	14	[0, 0, 0]	n/a	catFR1	1	R1273D
1981.977	1.616	2086166	WORD	n/a	wordpools/wordpool_categorized_EN.txt	SUNFLOWER	Flowers	12	14	[0, 0, 0]	n/a	catFR1	1	R1273D
1983.593	0.001	2087782	WORD_OFF	n/a	n/a	SUNFLOWER	n/a	12	14	[0, 0, 0]	n/a	catFR1	1	R1273D
1983.594	0.102	2087783	ENCODING_END	n/a	n/a	n/a	n/a	-999	14	[0, 0, 0]	n/a	catFR1	1	R1273D
1983.696	0.0	2087885	DISTRACT_START	n/a	n/a	n/a	n/a	-999	14	[0, 0, 0]	n/a	catFR1	1	R1273D
1983.696	0.014	2087885	START	n/a	n/a	n/a	n/a	-999	14	[-999, -999, -999]	n/a	catFR1	0	R1273D
1983.71	16.321	2087899	PROB	16.321	n/a	n/a	n/a	-999	14	[1, 7, 6]	14	catFR1	0	R1273D
2000.031	5.265	2104219	PROB	5.265	n/a	n/a	n/a	-999	14	[8, 2, 5]	15	catFR1	0	R1273D
2005.296	0.019	2109484	STOP	n/a	n/a	n/a	n/a	-999	14	[-999, -999, -999]	n/a	catFR1	0	R1273D
2005.315	0.55	2109503	DISTRACT_END	n/a	n/a	n/a	n/a	-999	14	[0, 0, 0]	n/a	catFR1	1	R1273D
2005.865	0.517	2110053	RETRIEVAL_ORIENT	n/a	n/a	n/a	n/a	-999	14	[0, 0, 0]	n/a	catFR1	1	R1273D
2006.382	1.704	2110570	REC_START	n/a	n/a	n/a	n/a	-999	14	[0, 0, 0]	n/a	catFR1	1	R1273D
2008.086	2.022	2112274	REC_WORD_VV	2.022	n/a	<>	n/a	-999	14	[0, 0, 0]	n/a	catFR1	1	R1273D
2010.108	4.921	2114296	REC_WORD_VV	4.921	n/a	<>	n/a	-999	14	[0, 0, 0]	n/a	catFR1	1	R1273D
2015.029	8.086	2119217	REC_WORD_VV	8.086	n/a	<>	n/a	-999	14	[0, 0, 0]	n/a	catFR1	1	R1273D
2023.115	13.278	2127302	REC_WORD_VV	13.278	n/a	<>	n/a	-999	14	[0, 0, 0]	n/a	catFR1	1	R1273D
2036.393	92.444	2140579	REC_END	n/a	n/a	n/a	n/a	-999	14	[0, 0, 0]	n/a	catFR1	1	R1273D
2128.837	0.5	2233018	TRIAL	n/a	n/a	n/a	n/a	-999	15	[0, 0, 0]	n/a	catFR1	1	R1273D
2129.337	0.0	2233518	COUNTDOWN_START	n/a	n/a	n/a	n/a	-999	15	[0, 0, 0]	n/a	catFR1	1	R1273D
