onset	duration	sample	trial_type	response_time	stim_file	item_name	category	serialpos	list	test	answer	experiment	session	subject
0.0	31.572	2519	SESS_START	n/a	n/a	n/a	n/a	-999	-999	[0, 0, 0]	n/a	catFR1	1	R1192C
31.572	10.0	18304	COUNTDOWN_START	n/a	n/a	n/a	n/a	-999	-999	[0, 0, 0]	n/a	catFR1	1	R1192C
42.0	3.591	23517	COUNTDOWN_END	n/a	n/a	n/a	n/a	-999	-999	[0, 0, 0]	n/a	catFR1	1	R1192C
45.591	1.6	25313	PRACTICE_WORD	n/a	n/a	RHINO	n/a	-999	-999	[0, 0, 0]	n/a	catFR1	1	R1192C
48.06	1.6	26547	PRACTICE_WORD	n/a	n/a	WATCH	n/a	-999	-999	[0, 0, 0]	n/a	catFR1	1	R1192C
50.509	1.6	27771	PRACTICE_WORD	n/a	n/a	CAMEL	n/a	-999	-999	[0, 0, 0]	n/a	catFR1	1	R1192C
53.127	1.6	29080	PRACTICE_WORD	n/a	n/a	CHEST	n/a	-999	-999	[0, 0, 0]	n/a	catFR1	1	R1192C
55.593	1.6	30313	PRACTICE_WORD	n/a	n/a	TONGUE	n/a	-999	-999	[0, 0, 0]	n/a	catFR1	1	R1192C
58.095	1.6	31564	PRACTICE_WORD	n/a	n/a	ATTIC	n/a	-999	-999	[0, 0, 0]	n/a	catFR1	1	R1192C
60.544	1.6	32789	PRACTICE_WORD	n/a	n/a	RING	n/a	-999	-999	[0, 0, 0]	n/a	catFR1	1	R1192C
63.012	1.6	34022	PRACTICE_WORD	n/a	n/a	COTTON	n/a	-999	-999	[0, 0, 0]	n/a	catFR1	1	R1192C
65.579	1.6	35306	PRACTICE_WORD	n/a	n/a	BEAM	n/a	-999	-999	[0, 0, 0]	n/a	catFR1	1	R1192C
68.147	1.6	36590	PRACTICE_WORD	n/a	n/a	WAGON	n/a	-999	-999	[0, 0, 0]	n/a	catFR1	1	R1192C
70.546	1.6	37789	PRACTICE_WORD	n/a	n/a	FLOOD	n/a	-999	-999	[0, 0, 0]	n/a	catFR1	1	R1192C
72.964	1.6	38998	PRACTICE_WORD	n/a	n/a	IRON	n/a	-999	-999	[0, 0, 0]	n/a	catFR1	1	R1192C
74.58	0.001	39806	PRACTICE_DISTRACT_START	n/a	n/a	n/a	n/a	-999	-999	[0, 0, 0]	n/a	catFR1	1	R1192C
74.581	0.016	39807	START	n/a	n/a	n/a	n/a	-999	-1	[-999, -999, -999]	n/a	catFR1	1	R1192C
74.597	6.519	39815	PROB	6.492	n/a	n/a	n/a	-999	-1	[5, 3, 5]	13.0	catFR1	1	R1192C
81.116	101.805	43074	PROB	101.805	n/a	n/a	n/a	-999	-1	[9, 8, 4]	21.0	catFR1	1	R1192C
182.921	0.014	93972	STOP	n/a	n/a	n/a	n/a	-999	-1	[-999, -999, -999]	n/a	catFR1	1	R1192C
182.935	0.584	93979	PRACTICE_DISTRACT_END	n/a	n/a	n/a	n/a	-999	-999	[0, 0, 0]	n/a	catFR1	1	R1192C
183.519	30.516	94271	PRACTICE_REC_START	n/a	n/a	n/a	n/a	-999	-999	[0, 0, 0]	n/a	catFR1	1	R1192C
214.035	31.427	109528	PRACTICE_REC_END	n/a	n/a	n/a	n/a	-999	-999	[0, 0, 0]	n/a	catFR1	1	R1192C
245.462	10.0	125240	COUNTDOWN_START	n/a	n/a	n/a	n/a	-999	1	[0, 0, 0]	n/a	catFR1	1	R1192C
245.463	10.427	125241	TRIAL	n/a	n/a	n/a	n/a	-999	1	[0, 0, 0]	n/a	catFR1	1	R1192C
255.89	0.008	130454	COUNTDOWN_END	n/a	n/a	n/a	n/a	-999	1	[0, 0, 0]	n/a	catFR1	1	R1192C
255.898	1.6	130458	ORIENT	n/a	n/a	n/a	n/a	-999	1	[0, 0, 0]	n/a	catFR1	1	R1192C
259.549	1.6	132283	WORD	n/a	wordpools/wordpool_categorized_EN.txt	SEAGULL	Birds	1	1	[0, 0, 0]	n/a	catFR1	1	R1192C
262.05	1.6	133534	WORD	n/a	wordpools/wordpool_categorized_EN.txt	CARDINAL	Birds	2	1	[0, 0, 0]	n/a	catFR1	1	R1192C
264.499	1.6	134758	WORD	n/a	wordpools/wordpool_categorized_EN.txt	PRINTER	Electronics	3	1	[0, 0, 0]	n/a	catFR1	1	R1192C
266.867	1.6	135942	WORD	n/a	wordpools/wordpool_categorized_EN.txt	TELEVISION	Electronics	4	1	[0, 0, 0]	n/a	catFR1	1	R1192C
269.4	1.6	137208	WORD	n/a	wordpools/wordpool_categorized_EN.txt	DRILL	Tools	5	1	[0, 0, 0]	n/a	catFR1	1	R1192C
271.952	1.6	138484	WORD	n/a	wordpools/wordpool_categorized_EN.txt	PLIERS	Tools	6	1	[0, 0, 0]	n/a	catFR1	1	R1192C
274.568	1.6	139792	WORD	n/a	wordpools/wordpool_categorized_EN.txt	MICROWAVE	Electronics	7	1	[0, 0, 0]	n/a	catFR1	1	R1192C
277.103	1.6	141060	WORD	n/a	wordpools/wordpool_categorized_EN.txt	RADIO	Electronics	8	1	[0, 0, 0]	n/a	catFR1	1	R1192C
279.519	1.6	142268	WORD	n/a	wordpools/wordpool_categorized_EN.txt	CROW	Birds	9	1	[0, 0, 0]	n/a	catFR1	1	R1192C
282.104	1.6	143560	WORD	n/a	wordpools/wordpool_categorized_EN.txt	DOVE	Birds	10	1	[0, 0, 0]	n/a	catFR1	1	R1192C
284.653	1.6	144834	WORD	n/a	wordpools/wordpool_categorized_EN.txt	SCREWDRIVER	Tools	11	1	[0, 0, 0]	n/a	catFR1	1	R1192C
287.105	1.6	146060	WORD	n/a	wordpools/wordpool_categorized_EN.txt	RATCHET	Tools	12	1	[0, 0, 0]	n/a	catFR1	1	R1192C
288.721	0.001	146868	DISTRACT_START	n/a	n/a	n/a	n/a	-999	1	[0, 0, 0]	n/a	catFR1	1	R1192C
288.722	0.015	146869	START	n/a	n/a	n/a	n/a	-999	1	[-999, -999, -999]	n/a	catFR1	1	R1192C
288.737	13.636	146876	PROB	13.615	n/a	n/a	n/a	-999	1	[9, 9, 7]	25.0	catFR1	1	R1192C
302.373	9.708	153694	PROB	9.708	n/a	n/a	n/a	-999	1	[2, 6, 6]	14.0	catFR1	1	R1192C
312.081	0.012	158547	STOP	n/a	n/a	n/a	n/a	-999	1	[-999, -999, -999]	n/a	catFR1	1	R1192C
312.093	1.171	158553	DISTRACT_END	n/a	n/a	n/a	n/a	-999	1	[0, 0, 0]	n/a	catFR1	1	R1192C
313.264	7.611	159139	REC_START	n/a	n/a	n/a	n/a	-999	1	[0, 0, 0]	n/a	catFR1	1	R1192C
320.875	1.334	162944	REC_WORD_VV	7.611	n/a	<>	n/a	-999	1	[0, 0, 0]	n/a	catFR1	1	R1192C
322.209	1.247	163611	REC_WORD_VV	8.945	n/a	<>	n/a	-999	1	[0, 0, 0]	n/a	catFR1	1	R1192C
323.456	0.385	164234	REC_WORD	10.192	n/a	CROW	Birds	9	1	[0, 0, 0]	n/a	catFR1	1	R1192C
323.841	5.058	164427	REC_WORD_VV	10.577	n/a	<>	n/a	-999	1	[0, 0, 0]	n/a	catFR1	1	R1192C
328.899	0.845	166956	REC_WORD_VV	15.635	n/a	<>	n/a	-999	1	[0, 0, 0]	n/a	catFR1	1	R1192C
329.744	1.159	167378	REC_WORD_VV	16.48	n/a	<>	n/a	-999	1	[0, 0, 0]	n/a	catFR1	1	R1192C
330.903	0.767	167958	REC_WORD_VV	17.639	n/a	<>	n/a	-999	1	[0, 0, 0]	n/a	catFR1	1	R1192C
331.67	11.601	168341	REC_WORD_VV	18.406	n/a	<>	n/a	-999	1	[0, 0, 0]	n/a	catFR1	1	R1192C
343.271	14.146	174141	REC_END	n/a	n/a	n/a	n/a	-999	1	[0, 0, 0]	n/a	catFR1	1	R1192C
357.417	0.0	181213	TRIAL	n/a	n/a	n/a	n/a	-999	2	[0, 0, 0]	n/a	catFR1	1	R1192C
357.417	10.0	181213	COUNTDOWN_START	n/a	n/a	n/a	n/a	-999	2	[0, 0, 0]	n/a	catFR1	1	R1192C
367.845	0.007	186427	COUNTDOWN_END	n/a	n/a	n/a	n/a	-999	2	[0, 0, 0]	n/a	catFR1	1	R1192C
367.852	1.6	186431	ORIENT	n/a	n/a	n/a	n/a	-999	2	[0, 0, 0]	n/a	catFR1	1	R1192C
371.436	1.6	188222	WORD	n/a	wordpools/wordpool_categorized_EN.txt	HUMIDITY	Weather	1	2	[0, 0, 0]	n/a	catFR1	1	R1192C
374.021	1.6	189515	WORD	n/a	wordpools/wordpool_categorized_EN.txt	THUNDER	Weather	2	2	[0, 0, 0]	n/a	catFR1	1	R1192C
376.52	1.6	190764	WORD	n/a	wordpools/wordpool_categorized_EN.txt	CORN	Vegetables	3	2	[0, 0, 0]	n/a	catFR1	1	R1192C
379.072	1.6	192040	WORD	n/a	wordpools/wordpool_categorized_EN.txt	PEAS	Vegetables	4	2	[0, 0, 0]	n/a	catFR1	1	R1192C
381.671	1.6	193340	WORD	n/a	wordpools/wordpool_categorized_EN.txt	DOLL	Toys	5	2	[0, 0, 0]	n/a	catFR1	1	R1192C
384.256	1.6	194632	WORD	n/a	wordpools/wordpool_categorized_EN.txt	BASKETBALL	Toys	6	2	[0, 0, 0]	n/a	catFR1	1	R1192C
386.772	1.6	195890	WORD	n/a	wordpools/wordpool_categorized_EN.txt	TORNADO	Weather	7	2	[0, 0, 0]	n/a	catFR1	1	R1192C
389.291	1.6	197149	WORD	n/a	wordpools/wordpool_categorized_EN.txt	RAIN	Weather	8	2	[0, 0, 0]	n/a	catFR1	1	R1192C
391.707	1.6	198357	WORD	n/a	wordpools/wordpool_categorized_EN.txt	BARBIE	Toys	9	2	[0, 0, 0]	n/a	catFR1	1	R1192C
394.292	1.6	199650	WORD	n/a	wordpools/wordpool_categorized_EN.txt	SLINKY	Toys	10	2	[0, 0, 0]	n/a	catFR1	1	R1192C
396.909	1.6	200958	WORD	n/a	wordpools/wordpool_categorized_EN.txt	LETTUCE	Vegetables	11	2	[0, 0, 0]	n/a	catFR1	1	R1192C
399.358	1.6	202182	WORD	n/a	wordpools/wordpool_categorized_EN.txt	CAULIFLOWER	Vegetables	12	2	[0, 0, 0]	n/a	catFR1	1	R1192C
400.96	0.001	202983	DISTRACT_START	n/a	n/a	n/a	n/a	-999	2	[0, 0, 0]	n/a	catFR1	1	R1192C
400.961	0.015	202984	START	n/a	n/a	n/a	n/a	-999	2	[-999, -999, -999]	n/a	catFR1	1	R1192C
400.976	9.484	202991	PROB	9.448	n/a	n/a	n/a	-999	2	[5, 4, 9]	18.0	catFR1	1	R1192C
410.46	17.701	207733	PROB	17.701	n/a	n/a	n/a	-999	2	[9, 6, 9]	24.0	catFR1	1	R1192C
428.161	0.003	216583	STOP	n/a	n/a	n/a	n/a	-999	2	[-999, -999, -999]	n/a	catFR1	1	R1192C
428.164	1.135	216584	DISTRACT_END	n/a	n/a	n/a	n/a	-999	2	[0, 0, 0]	n/a	catFR1	1	R1192C
429.299	3.654	217152	REC_START	n/a	n/a	n/a	n/a	-999	2	[0, 0, 0]	n/a	catFR1	1	R1192C
432.953	1.253	218979	REC_WORD	3.654	n/a	RAIN	Weather	8	2	[0, 0, 0]	n/a	catFR1	1	R1192C
434.206	1.0	219605	REC_WORD	4.907	n/a	THUNDER	Weather	2	2	[0, 0, 0]	n/a	catFR1	1	R1192C
435.206	1.315	220105	REC_WORD_VV	5.907	n/a	<>	n/a	-999	2	[0, 0, 0]	n/a	catFR1	1	R1192C
436.521	2.772	220762	REC_WORD_VV	7.222	n/a	<>	n/a	-999	2	[0, 0, 0]	n/a	catFR1	1	R1192C
439.293	1.0	222148	REC_WORD_VV	9.994	n/a	<>	n/a	-999	2	[0, 0, 0]	n/a	catFR1	1	R1192C
440.293	1.452	222648	REC_WORD_VV	10.994	n/a	<>	n/a	-999	2	[0, 0, 0]	n/a	catFR1	1	R1192C
441.745	1.0	223374	REC_WORD_VV	12.446	n/a	<>	n/a	-999	2	[0, 0, 0]	n/a	catFR1	1	R1192C
442.745	0.105	223874	REC_WORD_VV	13.446	n/a	<>	n/a	-999	2	[0, 0, 0]	n/a	catFR1	1	R1192C
442.85	1.0	223927	REC_WORD	13.551	n/a	HUMIDITY	Weather	1	2	[0, 0, 0]	n/a	catFR1	1	R1192C
443.85	2.309	224427	REC_WORD_VV	14.551	n/a	<>	n/a	-999	2	[0, 0, 0]	n/a	catFR1	1	R1192C
446.159	1.0	225581	REC_WORD_VV	16.86	n/a	<>	n/a	-999	2	[0, 0, 0]	n/a	catFR1	1	R1192C
447.159	1.858	226081	REC_WORD_VV	17.86	n/a	<>	n/a	-999	2	[0, 0, 0]	n/a	catFR1	1	R1192C
449.017	1.0	227010	REC_WORD_VV	19.718	n/a	<>	n/a	-999	2	[0, 0, 0]	n/a	catFR1	1	R1192C
450.017	1.851	227510	REC_WORD_VV	20.718	n/a	<>	n/a	-999	2	[0, 0, 0]	n/a	catFR1	1	R1192C
451.868	7.443	228435	REC_WORD	22.569	n/a	CORN	Vegetables	3	2	[0, 0, 0]	n/a	catFR1	1	R1192C
459.311	5.459	232157	REC_END	n/a	n/a	n/a	n/a	-999	2	[0, 0, 0]	n/a	catFR1	1	R1192C
464.77	10.0	234886	COUNTDOWN_START	n/a	n/a	n/a	n/a	-999	3	[0, 0, 0]	n/a	catFR1	1	R1192C
464.771	10.427	234886	TRIAL	n/a	n/a	n/a	n/a	-999	3	[0, 0, 0]	n/a	catFR1	1	R1192C
475.198	0.009	240099	COUNTDOWN_END	n/a	n/a	n/a	n/a	-999	3	[0, 0, 0]	n/a	catFR1	1	R1192C
475.207	1.6	240104	ORIENT	n/a	n/a	n/a	n/a	-999	3	[0, 0, 0]	n/a	catFR1	1	R1192C
478.907	1.6	241954	WORD	n/a	wordpools/wordpool_categorized_EN.txt	BLOUSE	Clothing	1	3	[0, 0, 0]	n/a	catFR1	1	R1192C
481.49	1.6	243245	WORD	n/a	wordpools/wordpool_categorized_EN.txt	UNDERWEAR	Clothing	2	3	[0, 0, 0]	n/a	catFR1	1	R1192C
483.958	1.6	244479	WORD	n/a	wordpools/wordpool_categorized_EN.txt	COBBLER	Desserts	3	3	[0, 0, 0]	n/a	catFR1	1	R1192C
486.558	1.6	245779	WORD	n/a	wordpools/wordpool_categorized_EN.txt	CUPCAKE	Desserts	4	3	[0, 0, 0]	n/a	catFR1	1	R1192C
488.943	1.6	246971	WORD	n/a	wordpools/wordpool_categorized_EN.txt	SANDER	Tools	5	3	[0, 0, 0]	n/a	catFR1	1	R1192C
491.342	1.6	248171	WORD	n/a	wordpools/wordpool_categorized_EN.txt	LEVEL	Tools	6	3	[0, 0, 0]	n/a	catFR1	1	R1192C
493.944	1.6	249472	WORD	n/a	wordpools/wordpool_categorized_EN.txt	SHOES	Clothing	7	3	[0, 0, 0]	n/a	catFR1	1	R1192C
496.493	1.6	250746	WORD	n/a	wordpools/wordpool_categorized_EN.txt	SHIRT	Clothing	8	3	[0, 0, 0]	n/a	catFR1	1	R1192C
498.995	1.6	251997	WORD	n/a	wordpools/wordpool_categorized_EN.txt	WRENCH	Tools	9	3	[0, 0, 0]	n/a	catFR1	1	R1192C
501.461	1.6	253230	WORD	n/a	wordpools/wordpool_categorized_EN.txt	HAMMER	Tools	10	3	[0, 0, 0]	n/a	catFR1	1	R1192C
503.844	1.6	254421	WORD	n/a	wordpools/wordpool_categorized_EN.txt	BROWNIES	Desserts	11	3	[0, 0, 0]	n/a	catFR1	1	R1192C
506.296	1.6	255647	WORD	n/a	wordpools/wordpool_categorized_EN.txt	CHEESECAKE	Desserts	12	3	[0, 0, 0]	n/a	catFR1	1	R1192C
507.913	0.001	256456	DISTRACT_START	n/a	n/a	n/a	n/a	-999	3	[0, 0, 0]	n/a	catFR1	1	R1192C
507.914	0.016	256456	START	n/a	n/a	n/a	n/a	-999	3	[-999, -999, -999]	n/a	catFR1	1	R1192C
507.93	6.466	256464	PROB	6.43	n/a	n/a	n/a	-999	3	[7, 2, 5]	14.0	catFR1	1	R1192C
514.396	6.553	259697	PROB	6.525	n/a	n/a	n/a	-999	3	[7, 3, 3]	13.0	catFR1	1	R1192C
520.949	5.9	262973	PROB	5.866	n/a	n/a	n/a	-999	3	[4, 6, 5]	15.0	catFR1	1	R1192C
526.849	11.456	265923	PROB	11.456	n/a	n/a	n/a	-999	3	[1, 8, 4]	13.0	catFR1	1	R1192C
538.305	0.014	271650	STOP	n/a	n/a	n/a	n/a	-999	3	[-999, -999, -999]	n/a	catFR1	1	R1192C
538.319	1.2	271657	DISTRACT_END	n/a	n/a	n/a	n/a	-999	3	[0, 0, 0]	n/a	catFR1	1	R1192C
539.519	0.847	272257	REC_START	n/a	n/a	n/a	n/a	-999	3	[0, 0, 0]	n/a	catFR1	1	R1192C
540.366	1.0	272681	REC_WORD	0.847	n/a	BROWNIES	Desserts	11	3	[0, 0, 0]	n/a	catFR1	1	R1192C
541.366	1.64	273181	REC_WORD_VV	1.847	n/a	<>	n/a	-999	3	[0, 0, 0]	n/a	catFR1	1	R1192C
543.006	5.641	274001	REC_WORD	3.487	n/a	COBBLER	Desserts	3	3	[0, 0, 0]	n/a	catFR1	1	R1192C
548.647	2.817	276821	REC_WORD	9.128	n/a	UNDERWEAR	Clothing	2	3	[0, 0, 0]	n/a	catFR1	1	R1192C
551.464	18.066	278229	REC_WORD_VV	11.945	n/a	<>	n/a	-999	3	[0, 0, 0]	n/a	catFR1	1	R1192C
569.53	6.211	287262	REC_END	n/a	n/a	n/a	n/a	-999	3	[0, 0, 0]	n/a	catFR1	1	R1192C
575.741	10.0	290367	COUNTDOWN_START	n/a	n/a	n/a	n/a	-999	4	[0, 0, 0]	n/a	catFR1	1	R1192C
575.742	10.427	290367	TRIAL	n/a	n/a	n/a	n/a	-999	4	[0, 0, 0]	n/a	catFR1	1	R1192C
586.169	0.009	295581	COUNTDOWN_END	n/a	n/a	n/a	n/a	-999	4	[0, 0, 0]	n/a	catFR1	1	R1192C
586.178	1.6	295585	ORIENT	n/a	n/a	n/a	n/a	-999	4	[0, 0, 0]	n/a	catFR1	1	R1192C
589.744	1.6	297368	WORD	n/a	wordpools/wordpool_categorized_EN.txt	EAR	BodyParts	1	4	[0, 0, 0]	n/a	catFR1	1	R1192C
592.295	1.6	298643	WORD	n/a	wordpools/wordpool_categorized_EN.txt	KNEE	BodyParts	2	4	[0, 0, 0]	n/a	catFR1	1	R1192C
594.678	1.6	299835	WORD	n/a	wordpools/wordpool_categorized_EN.txt	WIND	Weather	3	4	[0, 0, 0]	n/a	catFR1	1	R1192C
597.096	1.6	301044	WORD	n/a	wordpools/wordpool_categorized_EN.txt	DRIZZLE	Weather	4	4	[0, 0, 0]	n/a	catFR1	1	R1192C
599.513	1.6	302252	WORD	n/a	wordpools/wordpool_categorized_EN.txt	FOUNDATION	Building	5	4	[0, 0, 0]	n/a	catFR1	1	R1192C
602.097	1.6	303544	WORD	n/a	wordpools/wordpool_categorized_EN.txt	DOOR	Building	6	4	[0, 0, 0]	n/a	catFR1	1	R1192C
604.68	1.6	304835	WORD	n/a	wordpools/wordpool_categorized_EN.txt	EYE	BodyParts	7	4	[0, 0, 0]	n/a	catFR1	1	R1192C
607.148	1.6	306069	WORD	n/a	wordpools/wordpool_categorized_EN.txt	TOE	BodyParts	8	4	[0, 0, 0]	n/a	catFR1	1	R1192C
609.664	1.6	307327	WORD	n/a	wordpools/wordpool_categorized_EN.txt	HALLWAY	Building	9	4	[0, 0, 0]	n/a	catFR1	1	R1192C
612.032	1.6	308511	WORD	n/a	wordpools/wordpool_categorized_EN.txt	STAIRS	Building	10	4	[0, 0, 0]	n/a	catFR1	1	R1192C
614.482	1.6	309736	WORD	n/a	wordpools/wordpool_categorized_EN.txt	LIGHTNING	Weather	11	4	[0, 0, 0]	n/a	catFR1	1	R1192C
616.866	1.6	310928	WORD	n/a	wordpools/wordpool_categorized_EN.txt	SNOW	Weather	12	4	[0, 0, 0]	n/a	catFR1	1	R1192C
618.483	0.001	311736	DISTRACT_START	n/a	n/a	n/a	n/a	-999	4	[0, 0, 0]	n/a	catFR1	1	R1192C
618.484	0.015	311737	START	n/a	n/a	n/a	n/a	-999	4	[-999, -999, -999]	n/a	catFR1	1	R1192C
618.499	13.836	311744	PROB	13.806	n/a	n/a	n/a	-999	4	[4, 7, 7]	18.0	catFR1	1	R1192C
632.335	8.786	318662	PROB	8.786	n/a	n/a	n/a	-999	4	[8, 8, 2]	18.0	catFR1	1	R1192C
641.121	0.017	323054	STOP	n/a	n/a	n/a	n/a	-999	4	[-999, -999, -999]	n/a	catFR1	1	R1192C
641.138	1.151	323063	DISTRACT_END	n/a	n/a	n/a	n/a	-999	4	[0, 0, 0]	n/a	catFR1	1	R1192C
642.289	1.771	323638	REC_START	n/a	n/a	n/a	n/a	-999	4	[0, 0, 0]	n/a	catFR1	1	R1192C
644.06	0.82	324524	REC_WORD	1.771	n/a	EAR	BodyParts	1	4	[0, 0, 0]	n/a	catFR1	1	R1192C
644.88	1.029	324934	REC_WORD	2.591	n/a	KNEE	BodyParts	2	4	[0, 0, 0]	n/a	catFR1	1	R1192C
645.909	3.7	325448	REC_WORD	3.62	n/a	EYE	BodyParts	7	4	[0, 0, 0]	n/a	catFR1	1	R1192C
649.609	1.0	327298	REC_WORD	7.32	n/a	FOUNDATION	Building	5	4	[0, 0, 0]	n/a	catFR1	1	R1192C
650.609	21.692	327798	REC_WORD_VV	8.32	n/a	<>	n/a	-999	4	[0, 0, 0]	n/a	catFR1	1	R1192C
672.301	3.977	338643	REC_END	n/a	n/a	n/a	n/a	-999	4	[0, 0, 0]	n/a	catFR1	1	R1192C
676.278	0.0	340632	TRIAL	n/a	n/a	n/a	n/a	-999	5	[0, 0, 0]	n/a	catFR1	1	R1192C
676.278	10.0	340632	COUNTDOWN_START	n/a	n/a	n/a	n/a	-999	5	[0, 0, 0]	n/a	catFR1	1	R1192C
686.706	0.006	345845	COUNTDOWN_END	n/a	n/a	n/a	n/a	-999	5	[0, 0, 0]	n/a	catFR1	1	R1192C
686.712	1.6	345848	ORIENT	n/a	n/a	n/a	n/a	-999	5	[0, 0, 0]	n/a	catFR1	1	R1192C
690.363	1.6	347673	WORD	n/a	wordpools/wordpool_categorized_EN.txt	SODA	Beverages	1	5	[0, 0, 0]	n/a	catFR1	1	R1192C
692.83	1.6	348907	WORD	n/a	wordpools/wordpool_categorized_EN.txt	LEMONADE	Beverages	2	5	[0, 0, 0]	n/a	catFR1	1	R1192C
695.414	1.6	350199	WORD	n/a	wordpools/wordpool_categorized_EN.txt	CABINET	Furniture	3	5	[0, 0, 0]	n/a	catFR1	1	R1192C
697.848	1.6	351416	WORD	n/a	wordpools/wordpool_categorized_EN.txt	RECLINER	Furniture	4	5	[0, 0, 0]	n/a	catFR1	1	R1192C
700.465	1.6	352724	WORD	n/a	wordpools/wordpool_categorized_EN.txt	MIXER	Appliances	5	5	[0, 0, 0]	n/a	catFR1	1	R1192C
702.983	1.6	353983	WORD	n/a	wordpools/wordpool_categorized_EN.txt	FREEZER	Appliances	6	5	[0, 0, 0]	n/a	catFR1	1	R1192C
705.416	1.6	355199	WORD	n/a	wordpools/wordpool_categorized_EN.txt	WINE	Beverages	7	5	[0, 0, 0]	n/a	catFR1	1	R1192C
707.984	1.6	356483	WORD	n/a	wordpools/wordpool_categorized_EN.txt	JUICE	Beverages	8	5	[0, 0, 0]	n/a	catFR1	1	R1192C
710.533	1.6	357758	WORD	n/a	wordpools/wordpool_categorized_EN.txt	DRYER	Appliances	9	5	[0, 0, 0]	n/a	catFR1	1	R1192C
712.968	1.6	358975	WORD	n/a	wordpools/wordpool_categorized_EN.txt	STOVE	Appliances	10	5	[0, 0, 0]	n/a	catFR1	1	R1192C
715.501	1.6	360242	WORD	n/a	wordpools/wordpool_categorized_EN.txt	BOOKCASE	Furniture	11	5	[0, 0, 0]	n/a	catFR1	1	R1192C
718.086	1.6	361534	WORD	n/a	wordpools/wordpool_categorized_EN.txt	DRESSER	Furniture	12	5	[0, 0, 0]	n/a	catFR1	1	R1192C
719.702	0.001	362342	DISTRACT_START	n/a	n/a	n/a	n/a	-999	5	[0, 0, 0]	n/a	catFR1	1	R1192C
719.703	0.015	362342	START	n/a	n/a	n/a	n/a	-999	5	[-999, -999, -999]	n/a	catFR1	1	R1192C
719.718	11.086	362350	PROB	11.058	n/a	n/a	n/a	-999	5	[7, 7, 8]	22.0	catFR1	1	R1192C
730.804	7.818	367892	PROB	7.796	n/a	n/a	n/a	-999	5	[1, 5, 6]	12.0	catFR1	1	R1192C
738.622	35.729	371801	PROB	35.729	n/a	n/a	n/a	-999	5	[7, 9, 8]	16.0	catFR1	1	R1192C
774.351	0.011	389664	STOP	n/a	n/a	n/a	n/a	-999	5	[-999, -999, -999]	n/a	catFR1	1	R1192C
774.362	1.051	389670	DISTRACT_END	n/a	n/a	n/a	n/a	-999	5	[0, 0, 0]	n/a	catFR1	1	R1192C
775.413	4.246	390195	REC_START	n/a	n/a	n/a	n/a	-999	5	[0, 0, 0]	n/a	catFR1	1	R1192C
779.659	0.632	392318	REC_WORD	4.246	n/a	SODA	Beverages	1	5	[0, 0, 0]	n/a	catFR1	1	R1192C
780.291	1.0	392634	REC_WORD	4.878	n/a	LEMONADE	Beverages	2	5	[0, 0, 0]	n/a	catFR1	1	R1192C
781.291	4.076	393134	REC_WORD_VV	5.878	n/a	<>	n/a	-999	5	[0, 0, 0]	n/a	catFR1	1	R1192C
785.367	13.979	395172	REC_WORD	9.954	n/a	MIXER	Appliances	5	5	[0, 0, 0]	n/a	catFR1	1	R1192C
799.346	6.078	402161	REC_WORD_VV	23.933	n/a	<>	n/a	-999	5	[0, 0, 0]	n/a	catFR1	1	R1192C
805.424	19.281	405200	REC_END	n/a	n/a	n/a	n/a	-999	5	[0, 0, 0]	n/a	catFR1	1	R1192C
824.705	10.0	414839	COUNTDOWN_START	n/a	n/a	n/a	n/a	-999	6	[0, 0, 0]	n/a	catFR1	1	R1192C
824.705	10.428	414839	TRIAL	n/a	n/a	n/a	n/a	-999	6	[0, 0, 0]	n/a	catFR1	1	R1192C
835.133	0.008	420053	COUNTDOWN_END	n/a	n/a	n/a	n/a	-999	6	[0, 0, 0]	n/a	catFR1	1	R1192C
835.141	1.6	420057	ORIENT	n/a	n/a	n/a	n/a	-999	6	[0, 0, 0]	n/a	catFR1	1	R1192C
838.691	1.6	421832	WORD	n/a	wordpools/wordpool_categorized_EN.txt	TURTLE	OceanAnimals	1	6	[0, 0, 0]	n/a	catFR1	1	R1192C
841.159	1.6	423066	WORD	n/a	wordpools/wordpool_categorized_EN.txt	SHRIMP	OceanAnimals	2	6	[0, 0, 0]	n/a	catFR1	1	R1192C
843.542	1.6	424257	WORD	n/a	wordpools/wordpool_categorized_EN.txt	ORANGUTAN	Zoo	3	6	[0, 0, 0]	n/a	catFR1	1	R1192C
845.943	1.6	425457	WORD	n/a	wordpools/wordpool_categorized_EN.txt	BEAR	Zoo	4	6	[0, 0, 0]	n/a	catFR1	1	R1192C
848.426	1.6	426699	WORD	n/a	wordpools/wordpool_categorized_EN.txt	PETUNIA	Flowers	5	6	[0, 0, 0]	n/a	catFR1	1	R1192C
850.893	1.6	427932	WORD	n/a	wordpools/wordpool_categorized_EN.txt	LILAC	Flowers	6	6	[0, 0, 0]	n/a	catFR1	1	R1192C
853.377	1.6	429174	WORD	n/a	wordpools/wordpool_categorized_EN.txt	MONKEY	Zoo	7	6	[0, 0, 0]	n/a	catFR1	1	R1192C
855.827	1.6	430399	WORD	n/a	wordpools/wordpool_categorized_EN.txt	CHEETAH	Zoo	8	6	[0, 0, 0]	n/a	catFR1	1	R1192C
858.428	1.6	431699	WORD	n/a	wordpools/wordpool_categorized_EN.txt	PLANKTON	OceanAnimals	9	6	[0, 0, 0]	n/a	catFR1	1	R1192C
860.895	1.6	432933	WORD	n/a	wordpools/wordpool_categorized_EN.txt	SQUID	OceanAnimals	10	6	[0, 0, 0]	n/a	catFR1	1	R1192C
863.429	1.6	434200	WORD	n/a	wordpools/wordpool_categorized_EN.txt	TULIP	Flowers	11	6	[0, 0, 0]	n/a	catFR1	1	R1192C
865.997	1.6	435484	WORD	n/a	wordpools/wordpool_categorized_EN.txt	ROSE	Flowers	12	6	[0, 0, 0]	n/a	catFR1	1	R1192C
867.613	0.001	436292	DISTRACT_START	n/a	n/a	n/a	n/a	-999	6	[0, 0, 0]	n/a	catFR1	1	R1192C
867.614	0.015	436292	START	n/a	n/a	n/a	n/a	-999	6	[-999, -999, -999]	n/a	catFR1	1	R1192C
867.629	8.102	436300	PROB	8.067	n/a	n/a	n/a	-999	6	[4, 6, 5]	15.0	catFR1	1	R1192C
875.731	11.203	440350	PROB	11.173	n/a	n/a	n/a	-999	6	[9, 7, 5]	21.0	catFR1	1	R1192C
886.934	9.171	445951	PROB	9.171	n/a	n/a	n/a	-999	6	[7, 7, 3]	17.0	catFR1	1	R1192C
896.105	0.014	450536	STOP	n/a	n/a	n/a	n/a	-999	6	[-999, -999, -999]	n/a	catFR1	1	R1192C
896.119	1.051	450543	DISTRACT_END	n/a	n/a	n/a	n/a	-999	6	[0, 0, 0]	n/a	catFR1	1	R1192C
897.17	2.098	451069	REC_START	n/a	n/a	n/a	n/a	-999	6	[0, 0, 0]	n/a	catFR1	1	R1192C
899.268	0.736	452118	REC_WORD	2.098	n/a	ROSE	Flowers	12	6	[0, 0, 0]	n/a	catFR1	1	R1192C
900.004	1.0	452486	REC_WORD	2.834	n/a	LILAC	Flowers	6	6	[0, 0, 0]	n/a	catFR1	1	R1192C
901.004	1.302	452986	REC_WORD_VV	3.834	n/a	<>	n/a	-999	6	[0, 0, 0]	n/a	catFR1	1	R1192C
902.306	2.373	453637	REC_WORD	5.136	n/a	BEAR	Zoo	4	6	[0, 0, 0]	n/a	catFR1	1	R1192C
904.679	4.476	454823	REC_WORD	7.509	n/a	SHRIMP	OceanAnimals	2	6	[0, 0, 0]	n/a	catFR1	1	R1192C
909.155	1.0	457061	REC_WORD	11.985	n/a	ORANGUTAN	Zoo	3	6	[0, 0, 0]	n/a	catFR1	1	R1192C
910.155	17.027	457561	REC_WORD_VV	12.985	n/a	<>	n/a	-999	6	[0, 0, 0]	n/a	catFR1	1	R1192C
927.182	21.014	466074	REC_END	n/a	n/a	n/a	n/a	-999	6	[0, 0, 0]	n/a	catFR1	1	R1192C
948.196	0.0	476580	TRIAL	n/a	n/a	n/a	n/a	-999	7	[0, 0, 0]	n/a	catFR1	1	R1192C
948.196	10.0	476580	COUNTDOWN_START	n/a	n/a	n/a	n/a	-999	7	[0, 0, 0]	n/a	catFR1	1	R1192C
958.624	0.006	481794	COUNTDOWN_END	n/a	n/a	n/a	n/a	-999	7	[0, 0, 0]	n/a	catFR1	1	R1192C
958.63	1.6	481797	ORIENT	n/a	n/a	n/a	n/a	-999	7	[0, 0, 0]	n/a	catFR1	1	R1192C
962.298	1.6	483630	WORD	n/a	wordpools/wordpool_categorized_EN.txt	MOUSSE	Desserts	1	7	[0, 0, 0]	n/a	catFR1	1	R1192C
964.748	1.6	484855	WORD	n/a	wordpools/wordpool_categorized_EN.txt	CAKE	Desserts	2	7	[0, 0, 0]	n/a	catFR1	1	R1192C
967.299	1.6	486131	WORD	n/a	wordpools/wordpool_categorized_EN.txt	BLUEBIRD	Birds	3	7	[0, 0, 0]	n/a	catFR1	1	R1192C
969.749	1.6	487356	WORD	n/a	wordpools/wordpool_categorized_EN.txt	FINCH	Birds	4	7	[0, 0, 0]	n/a	catFR1	1	R1192C
972.167	1.6	488565	WORD	n/a	wordpools/wordpool_categorized_EN.txt	OCTOPUS	OceanAnimals	5	7	[0, 0, 0]	n/a	catFR1	1	R1192C
974.55	1.6	489756	WORD	n/a	wordpools/wordpool_categorized_EN.txt	OYSTER	OceanAnimals	6	7	[0, 0, 0]	n/a	catFR1	1	R1192C
977.134	1.6	491048	WORD	n/a	wordpools/wordpool_categorized_EN.txt	SPARROW	Birds	7	7	[0, 0, 0]	n/a	catFR1	1	R1192C
979.551	1.6	492256	WORD	n/a	wordpools/wordpool_categorized_EN.txt	DUCK	Birds	8	7	[0, 0, 0]	n/a	catFR1	1	R1192C
982.169	1.6	493565	WORD	n/a	wordpools/wordpool_categorized_EN.txt	FUDGE	Desserts	9	7	[0, 0, 0]	n/a	catFR1	1	R1192C
984.602	1.6	494782	WORD	n/a	wordpools/wordpool_categorized_EN.txt	PASTRY	Desserts	10	7	[0, 0, 0]	n/a	catFR1	1	R1192C
987.186	1.6	496073	WORD	n/a	wordpools/wordpool_categorized_EN.txt	WHALE	OceanAnimals	11	7	[0, 0, 0]	n/a	catFR1	1	R1192C
989.569	1.6	497265	WORD	n/a	wordpools/wordpool_categorized_EN.txt	LOBSTER	OceanAnimals	12	7	[0, 0, 0]	n/a	catFR1	1	R1192C
991.17	0.001	498065	DISTRACT_START	n/a	n/a	n/a	n/a	-999	7	[0, 0, 0]	n/a	catFR1	1	R1192C
991.171	0.016	498066	START	n/a	n/a	n/a	n/a	-999	7	[-999, -999, -999]	n/a	catFR1	1	R1192C
991.187	8.551	498074	PROB	8.517	n/a	n/a	n/a	-999	7	[8, 1, 9]	18.0	catFR1	1	R1192C
999.738	49.046	502349	PROB	49.046	n/a	n/a	n/a	-999	7	[9, 7, 5]	21.0	catFR1	1	R1192C
1048.784	0.013	526870	STOP	n/a	n/a	n/a	n/a	-999	7	[-999, -999, -999]	n/a	catFR1	1	R1192C
1048.797	1.051	526877	DISTRACT_END	n/a	n/a	n/a	n/a	-999	7	[0, 0, 0]	n/a	catFR1	1	R1192C
1049.848	3.622	527402	REC_START	n/a	n/a	n/a	n/a	-999	7	[0, 0, 0]	n/a	catFR1	1	R1192C
1053.47	0.715	529213	REC_WORD	3.622	n/a	FUDGE	Desserts	9	7	[0, 0, 0]	n/a	catFR1	1	R1192C
1054.185	25.674	529570	REC_WORD	4.337	n/a	FINCH	Birds	4	7	[0, 0, 0]	n/a	catFR1	1	R1192C
1079.859	14.264	542406	REC_END	n/a	n/a	n/a	n/a	-999	7	[0, 0, 0]	n/a	catFR1	1	R1192C
1094.123	0.0	549538	TRIAL	n/a	n/a	n/a	n/a	-999	8	[0, 0, 0]	n/a	catFR1	1	R1192C
1094.123	10.0	549538	COUNTDOWN_START	n/a	n/a	n/a	n/a	-999	8	[0, 0, 0]	n/a	catFR1	1	R1192C
1104.551	0.007	554751	COUNTDOWN_END	n/a	n/a	n/a	n/a	-999	8	[0, 0, 0]	n/a	catFR1	1	R1192C
1104.558	1.6	554755	ORIENT	n/a	n/a	n/a	n/a	-999	8	[0, 0, 0]	n/a	catFR1	1	R1192C
1108.309	1.6	556630	WORD	n/a	wordpools/wordpool_categorized_EN.txt	ORCHID	Flowers	1	8	[0, 0, 0]	n/a	catFR1	1	R1192C
1110.709	1.6	557830	WORD	n/a	wordpools/wordpool_categorized_EN.txt	CARNATION	Flowers	2	8	[0, 0, 0]	n/a	catFR1	1	R1192C
1113.26	1.6	559106	WORD	n/a	wordpools/wordpool_categorized_EN.txt	BLOCKS	Toys	3	8	[0, 0, 0]	n/a	catFR1	1	R1192C
1115.659	1.6	560305	WORD	n/a	wordpools/wordpool_categorized_EN.txt	PUZZLE	Toys	4	8	[0, 0, 0]	n/a	catFR1	1	R1192C
1118.061	1.6	561506	WORD	n/a	wordpools/wordpool_categorized_EN.txt	TURKEY	FarmAnimals	5	8	[0, 0, 0]	n/a	catFR1	1	R1192C
1120.444	1.6	562697	WORD	n/a	wordpools/wordpool_categorized_EN.txt	GOAT	FarmAnimals	6	8	[0, 0, 0]	n/a	catFR1	1	R1192C
1123.045	1.6	563998	WORD	n/a	wordpools/wordpool_categorized_EN.txt	BALL	Toys	7	8	[0, 0, 0]	n/a	catFR1	1	R1192C
1125.495	1.6	565223	WORD	n/a	wordpools/wordpool_categorized_EN.txt	BASEBALL	Toys	8	8	[0, 0, 0]	n/a	catFR1	1	R1192C
1127.929	1.6	566439	WORD	n/a	wordpools/wordpool_categorized_EN.txt	MARIGOLD	Flowers	9	8	[0, 0, 0]	n/a	catFR1	1	R1192C
1130.395	1.6	567672	WORD	n/a	wordpools/wordpool_categorized_EN.txt	SUNFLOWER	Flowers	10	8	[0, 0, 0]	n/a	catFR1	1	R1192C
1132.813	1.6	568881	WORD	n/a	wordpools/wordpool_categorized_EN.txt	CALF	FarmAnimals	11	8	[0, 0, 0]	n/a	catFR1	1	R1192C
1135.298	1.6	570124	WORD	n/a	wordpools/wordpool_categorized_EN.txt	LAMB	FarmAnimals	12	8	[0, 0, 0]	n/a	catFR1	1	R1192C
1136.915	0.001	570932	DISTRACT_START	n/a	n/a	n/a	n/a	-999	8	[0, 0, 0]	n/a	catFR1	1	R1192C
1136.916	0.015	570933	START	n/a	n/a	n/a	n/a	-999	8	[-999, -999, -999]	n/a	catFR1	1	R1192C
1136.931	12.986	570940	PROB	12.949	n/a	n/a	n/a	-999	8	[4, 7, 9]	20.0	catFR1	1	R1192C
1149.917	7.092	577433	PROB	7.092	n/a	n/a	n/a	-999	8	[4, 8, 2]	14.0	catFR1	1	R1192C
1157.009	0.009	580978	STOP	n/a	n/a	n/a	n/a	-999	8	[-999, -999, -999]	n/a	catFR1	1	R1192C
1157.018	1.085	580983	DISTRACT_END	n/a	n/a	n/a	n/a	-999	8	[0, 0, 0]	n/a	catFR1	1	R1192C
1158.103	2.337	581525	REC_START	n/a	n/a	n/a	n/a	-999	8	[0, 0, 0]	n/a	catFR1	1	R1192C
1160.44	0.732	582694	REC_WORD	2.337	n/a	BLOCKS	Toys	3	8	[0, 0, 0]	n/a	catFR1	1	R1192C
1161.172	2.104	583060	REC_WORD	3.069	n/a	PUZZLE	Toys	4	8	[0, 0, 0]	n/a	catFR1	1	R1192C
1163.276	1.575	584112	REC_WORD	5.173	n/a	LAMB	FarmAnimals	12	8	[0, 0, 0]	n/a	catFR1	1	R1192C
1164.851	1.952	584899	REC_WORD	6.748	n/a	GOAT	FarmAnimals	6	8	[0, 0, 0]	n/a	catFR1	1	R1192C
1166.803	21.31	585875	REC_WORD	8.7	n/a	BASEBALL	Toys	8	8	[0, 0, 0]	n/a	catFR1	1	R1192C
1188.113	22.049	596529	REC_END	n/a	n/a	n/a	n/a	-999	8	[0, 0, 0]	n/a	catFR1	1	R1192C
1210.162	10.0	607553	COUNTDOWN_START	n/a	n/a	n/a	n/a	-999	9	[0, 0, 0]	n/a	catFR1	1	R1192C
1210.162	10.428	607553	TRIAL	n/a	n/a	n/a	n/a	-999	9	[0, 0, 0]	n/a	catFR1	1	R1192C
1220.59	0.006	612766	COUNTDOWN_END	n/a	n/a	n/a	n/a	-999	9	[0, 0, 0]	n/a	catFR1	1	R1192C
1220.596	1.6	612769	ORIENT	n/a	n/a	n/a	n/a	-999	9	[0, 0, 0]	n/a	catFR1	1	R1192C
1223.981	1.6	614462	WORD	n/a	wordpools/wordpool_categorized_EN.txt	BANJO	Instruments	1	9	[0, 0, 0]	n/a	catFR1	1	R1192C
1226.547	1.6	615745	WORD	n/a	wordpools/wordpool_categorized_EN.txt	FLUTE	Instruments	2	9	[0, 0, 0]	n/a	catFR1	1	R1192C
1229.048	1.6	616995	WORD	n/a	wordpools/wordpool_categorized_EN.txt	CEILING	Building	3	9	[0, 0, 0]	n/a	catFR1	1	R1192C
1231.481	1.6	618211	WORD	n/a	wordpools/wordpool_categorized_EN.txt	ROOF	Building	4	9	[0, 0, 0]	n/a	catFR1	1	R1192C
1234.083	1.6	619512	WORD	n/a	wordpools/wordpool_categorized_EN.txt	COW	FarmAnimals	5	9	[0, 0, 0]	n/a	catFR1	1	R1192C
1236.482	1.6	620712	WORD	n/a	wordpools/wordpool_categorized_EN.txt	BULL	FarmAnimals	6	9	[0, 0, 0]	n/a	catFR1	1	R1192C
1238.95	1.6	621946	WORD	n/a	wordpools/wordpool_categorized_EN.txt	PIANO	Instruments	7	9	[0, 0, 0]	n/a	catFR1	1	R1192C
1241.417	1.6	623179	WORD	n/a	wordpools/wordpool_categorized_EN.txt	GUITAR	Instruments	8	9	[0, 0, 0]	n/a	catFR1	1	R1192C
1243.85	1.6	624395	WORD	n/a	wordpools/wordpool_categorized_EN.txt	CHICKEN	FarmAnimals	9	9	[0, 0, 0]	n/a	catFR1	1	R1192C
1246.235	1.6	625588	WORD	n/a	wordpools/wordpool_categorized_EN.txt	ROOSTER	FarmAnimals	10	9	[0, 0, 0]	n/a	catFR1	1	R1192C
1248.818	1.6	626879	WORD	n/a	wordpools/wordpool_categorized_EN.txt	WINDOW	Building	11	9	[0, 0, 0]	n/a	catFR1	1	R1192C
1251.435	1.6	628188	WORD	n/a	wordpools/wordpool_categorized_EN.txt	WALL	Building	12	9	[0, 0, 0]	n/a	catFR1	1	R1192C
1253.053	0.001	628997	DISTRACT_START	n/a	n/a	n/a	n/a	-999	9	[0, 0, 0]	n/a	catFR1	1	R1192C
1253.054	0.016	628997	START	n/a	n/a	n/a	n/a	-999	9	[-999, -999, -999]	n/a	catFR1	1	R1192C
1253.07	14.268	629005	PROB	14.243	n/a	n/a	n/a	-999	9	[2, 3, 1]	6.0	catFR1	1	R1192C
1267.338	6.799	636139	PROB	6.799	n/a	n/a	n/a	-999	9	[9, 8, 1]	18.0	catFR1	1	R1192C
1274.137	0.003	639538	STOP	n/a	n/a	n/a	n/a	-999	9	[-999, -999, -999]	n/a	catFR1	1	R1192C
1274.14	1.184	639539	DISTRACT_END	n/a	n/a	n/a	n/a	-999	9	[0, 0, 0]	n/a	catFR1	1	R1192C
1275.324	2.212	640131	REC_START	n/a	n/a	n/a	n/a	-999	9	[0, 0, 0]	n/a	catFR1	1	R1192C
1277.536	1.073	641237	REC_WORD	2.212	n/a	CEILING	Building	3	9	[0, 0, 0]	n/a	catFR1	1	R1192C
1278.609	2.954	641774	REC_WORD_VV	3.285	n/a	<>	n/a	-999	9	[0, 0, 0]	n/a	catFR1	1	R1192C
1281.563	3.399	643250	REC_WORD	6.239	n/a	ROOF	Building	4	9	[0, 0, 0]	n/a	catFR1	1	R1192C
1284.962	7.407	644950	REC_WORD	9.638	n/a	FLOOR	n/a	-999	9	[0, 0, 0]	n/a	catFR1	1	R1192C
1292.369	5.691	648653	REC_WORD	17.045	n/a	COW	FarmAnimals	5	9	[0, 0, 0]	n/a	catFR1	1	R1192C
1298.06	0.561	651498	REC_WORD	22.736	n/a	BANJO	Instruments	1	9	[0, 0, 0]	n/a	catFR1	1	R1192C
1298.621	6.717	651779	REC_WORD	23.297	n/a	FLUTE	Instruments	2	9	[0, 0, 0]	n/a	catFR1	1	R1192C
1305.338	15.928	655137	REC_END	n/a	n/a	n/a	n/a	-999	9	[0, 0, 0]	n/a	catFR1	1	R1192C
1321.266	0.0	663100	TRIAL	n/a	n/a	n/a	n/a	-999	10	[0, 0, 0]	n/a	catFR1	1	R1192C
1321.266	10.0	663100	COUNTDOWN_START	n/a	n/a	n/a	n/a	-999	10	[0, 0, 0]	n/a	catFR1	1	R1192C
1331.694	0.006	668314	COUNTDOWN_END	n/a	n/a	n/a	n/a	-999	10	[0, 0, 0]	n/a	catFR1	1	R1192C
1331.7	1.6	668317	ORIENT	n/a	n/a	n/a	n/a	-999	10	[0, 0, 0]	n/a	catFR1	1	R1192C
1335.384	1.6	670159	WORD	n/a	wordpools/wordpool_categorized_EN.txt	BINDER	OfficeSupplies	1	10	[0, 0, 0]	n/a	catFR1	1	R1192C
1337.751	1.6	671342	WORD	n/a	wordpools/wordpool_categorized_EN.txt	RULER	OfficeSupplies	2	10	[0, 0, 0]	n/a	catFR1	1	R1192C
1340.319	1.6	672626	WORD	n/a	wordpools/wordpool_categorized_EN.txt	SPOON	KitchenTools	3	10	[0, 0, 0]	n/a	catFR1	1	R1192C
1342.886	1.6	673910	WORD	n/a	wordpools/wordpool_categorized_EN.txt	KNIFE	KitchenTools	4	10	[0, 0, 0]	n/a	catFR1	1	R1192C
1345.436	1.6	675184	WORD	n/a	wordpools/wordpool_categorized_EN.txt	RUM	Beverages	5	10	[0, 0, 0]	n/a	catFR1	1	R1192C
1347.988	1.6	676460	WORD	n/a	wordpools/wordpool_categorized_EN.txt	COFFEE	Beverages	6	10	[0, 0, 0]	n/a	catFR1	1	R1192C
1350.487	1.6	677710	WORD	n/a	wordpools/wordpool_categorized_EN.txt	ERASER	OfficeSupplies	7	10	[0, 0, 0]	n/a	catFR1	1	R1192C
1352.905	1.6	678919	WORD	n/a	wordpools/wordpool_categorized_EN.txt	FOLDER	OfficeSupplies	8	10	[0, 0, 0]	n/a	catFR1	1	R1192C
1355.405	1.6	680169	WORD	n/a	wordpools/wordpool_categorized_EN.txt	TEA	Beverages	9	10	[0, 0, 0]	n/a	catFR1	1	R1192C
1357.939	1.6	681435	WORD	n/a	wordpools/wordpool_categorized_EN.txt	MILK	Beverages	10	10	[0, 0, 0]	n/a	catFR1	1	R1192C
1360.406	1.6	682669	WORD	n/a	wordpools/wordpool_categorized_EN.txt	WHISK	KitchenTools	11	10	[0, 0, 0]	n/a	catFR1	1	R1192C
1362.873	1.6	683902	WORD	n/a	wordpools/wordpool_categorized_EN.txt	CORKSCREW	KitchenTools	12	10	[0, 0, 0]	n/a	catFR1	1	R1192C
1364.49	0.001	684711	DISTRACT_START	n/a	n/a	n/a	n/a	-999	10	[0, 0, 0]	n/a	catFR1	1	R1192C
1364.491	0.015	684711	START	n/a	n/a	n/a	n/a	-999	10	[-999, -999, -999]	n/a	catFR1	1	R1192C
1364.506	16.92	684719	PROB	16.894	n/a	n/a	n/a	-999	10	[8, 4, 5]	17.0	catFR1	1	R1192C
1381.426	8.318	693178	PROB	8.318	n/a	n/a	n/a	-999	10	[4, 4, 6]	14.0	catFR1	1	R1192C
1389.744	0.017	697337	STOP	n/a	n/a	n/a	n/a	-999	10	[-999, -999, -999]	n/a	catFR1	1	R1192C
1389.761	1.034	697345	DISTRACT_END	n/a	n/a	n/a	n/a	-999	10	[0, 0, 0]	n/a	catFR1	1	R1192C
1390.795	2.257	697862	REC_START	n/a	n/a	n/a	n/a	-999	10	[0, 0, 0]	n/a	catFR1	1	R1192C
1393.052	0.838	698991	REC_WORD	2.257	n/a	BINDER	OfficeSupplies	1	10	[0, 0, 0]	n/a	catFR1	1	R1192C
1393.89	6.511	699410	REC_WORD	3.095	n/a	RULER	OfficeSupplies	2	10	[0, 0, 0]	n/a	catFR1	1	R1192C
1400.401	4.183	702665	REC_WORD	9.606	n/a	MILK	Beverages	10	10	[0, 0, 0]	n/a	catFR1	1	R1192C
1404.584	7.743	704756	REC_WORD	13.789	n/a	RUM	Beverages	5	10	[0, 0, 0]	n/a	catFR1	1	R1192C
1412.327	8.483	708627	REC_WORD	21.532	n/a	WHISK	KitchenTools	11	10	[0, 0, 0]	n/a	catFR1	1	R1192C
1420.81	10.093	712869	REC_END	n/a	n/a	n/a	n/a	-999	10	[0, 0, 0]	n/a	catFR1	1	R1192C
1430.903	0.0	717915	TRIAL	n/a	n/a	n/a	n/a	-999	11	[0, 0, 0]	n/a	catFR1	1	R1192C
1430.903	10.0	717915	COUNTDOWN_START	n/a	n/a	n/a	n/a	-999	11	[0, 0, 0]	n/a	catFR1	1	R1192C
1441.331	0.007	723128	COUNTDOWN_END	n/a	n/a	n/a	n/a	-999	11	[0, 0, 0]	n/a	catFR1	1	R1192C
1441.338	1.6	723132	ORIENT	n/a	n/a	n/a	n/a	-999	11	[0, 0, 0]	n/a	catFR1	1	R1192C
1445.122	1.6	725024	WORD	n/a	wordpools/wordpool_categorized_EN.txt	SHORTS	Clothing	1	11	[0, 0, 0]	n/a	catFR1	1	R1192C
1447.689	1.6	726307	WORD	n/a	wordpools/wordpool_categorized_EN.txt	PANTS	Clothing	2	11	[0, 0, 0]	n/a	catFR1	1	R1192C
1450.173	1.6	727549	WORD	n/a	wordpools/wordpool_categorized_EN.txt	ISLAND	Landscapes	3	11	[0, 0, 0]	n/a	catFR1	1	R1192C
1452.59	1.6	728757	WORD	n/a	wordpools/wordpool_categorized_EN.txt	OCEAN	Landscapes	4	11	[0, 0, 0]	n/a	catFR1	1	R1192C
1455.224	1.6	730074	WORD	n/a	wordpools/wordpool_categorized_EN.txt	BATHROOM	Building	5	11	[0, 0, 0]	n/a	catFR1	1	R1192C
1457.674	1.6	731299	WORD	n/a	wordpools/wordpool_categorized_EN.txt	ROOM	Building	6	11	[0, 0, 0]	n/a	catFR1	1	R1192C
1460.075	1.6	732499	WORD	n/a	wordpools/wordpool_categorized_EN.txt	FOREST	Landscapes	7	11	[0, 0, 0]	n/a	catFR1	1	R1192C
1462.641	1.6	733782	WORD	n/a	wordpools/wordpool_categorized_EN.txt	HILLS	Landscapes	8	11	[0, 0, 0]	n/a	catFR1	1	R1192C
1465.16	1.6	735042	WORD	n/a	wordpools/wordpool_categorized_EN.txt	COAT	Clothing	9	11	[0, 0, 0]	n/a	catFR1	1	R1192C
1467.626	1.6	736275	WORD	n/a	wordpools/wordpool_categorized_EN.txt	SKIRT	Clothing	10	11	[0, 0, 0]	n/a	catFR1	1	R1192C
1470.211	1.6	737567	WORD	n/a	wordpools/wordpool_categorized_EN.txt	ATTIC	Building	11	11	[0, 0, 0]	n/a	catFR1	1	R1192C
1472.693	1.6	738808	WORD	n/a	wordpools/wordpool_categorized_EN.txt	FLOOR	Building	12	11	[0, 0, 0]	n/a	catFR1	1	R1192C
1474.294	0.001	739608	DISTRACT_START	n/a	n/a	n/a	n/a	-999	11	[0, 0, 0]	n/a	catFR1	1	R1192C
1474.295	0.016	739609	START	n/a	n/a	n/a	n/a	-999	11	[-999, -999, -999]	n/a	catFR1	1	R1192C
1474.311	17.569	739617	PROB	17.545	n/a	n/a	n/a	-999	11	[5, 9, 7]	21.0	catFR1	1	R1192C
1491.88	12.592	748401	PROB	12.592	n/a	n/a	n/a	-999	11	[9, 6, 1]	1.0	catFR1	1	R1192C
1504.472	0.011	754696	STOP	n/a	n/a	n/a	n/a	-999	11	[-999, -999, -999]	n/a	catFR1	1	R1192C
1504.483	1.1	754702	DISTRACT_END	n/a	n/a	n/a	n/a	-999	11	[0, 0, 0]	n/a	catFR1	1	R1192C
1505.583	1.825	755252	REC_START	n/a	n/a	n/a	n/a	-999	11	[0, 0, 0]	n/a	catFR1	1	R1192C
1507.408	4.482	756164	REC_WORD_VV	1.825	n/a	<>	n/a	-999	11	[0, 0, 0]	n/a	catFR1	1	R1192C
1511.89	8.067	758405	REC_WORD_VV	6.307	n/a	<>	n/a	-999	11	[0, 0, 0]	n/a	catFR1	1	R1192C
1519.957	3.458	762438	REC_WORD	14.374	n/a	ISLAND	Landscapes	3	11	[0, 0, 0]	n/a	catFR1	1	R1192C
1523.415	1.0	764167	REC_WORD	17.832	n/a	SHORTS	Clothing	1	11	[0, 0, 0]	n/a	catFR1	1	R1192C
1524.415	2.713	764667	REC_WORD_VV	18.832	n/a	<>	n/a	-999	11	[0, 0, 0]	n/a	catFR1	1	R1192C
1527.128	4.702	766023	REC_WORD	21.545	n/a	COAT	Clothing	9	11	[0, 0, 0]	n/a	catFR1	1	R1192C
1531.83	3.767	768374	REC_WORD	26.247	n/a	ATTIC	Building	11	11	[0, 0, 0]	n/a	catFR1	1	R1192C
1535.597	10.977	770258	REC_END	n/a	n/a	n/a	n/a	-999	11	[0, 0, 0]	n/a	catFR1	1	R1192C
1546.574	0.0	775746	TRIAL	n/a	n/a	n/a	n/a	-999	12	[0, 0, 0]	n/a	catFR1	1	R1192C
1546.574	10.0	775746	COUNTDOWN_START	n/a	n/a	n/a	n/a	-999	12	[0, 0, 0]	n/a	catFR1	1	R1192C
1557.002	0.008	780959	COUNTDOWN_END	n/a	n/a	n/a	n/a	-999	12	[0, 0, 0]	n/a	catFR1	1	R1192C
1557.01	1.6	780963	ORIENT	n/a	n/a	n/a	n/a	-999	12	[0, 0, 0]	n/a	catFR1	1	R1192C
1560.743	1.6	782830	WORD	n/a	wordpools/wordpool_categorized_EN.txt	BOAT	Vehicles	1	12	[0, 0, 0]	n/a	catFR1	1	R1192C
1563.195	1.6	784055	WORD	n/a	wordpools/wordpool_categorized_EN.txt	BUS	Vehicles	2	12	[0, 0, 0]	n/a	catFR1	1	R1192C
1565.611	1.6	785263	WORD	n/a	wordpools/wordpool_categorized_EN.txt	STAPLER	OfficeSupplies	3	12	[0, 0, 0]	n/a	catFR1	1	R1192C
1568.046	1.6	786481	WORD	n/a	wordpools/wordpool_categorized_EN.txt	TAPE	OfficeSupplies	4	12	[0, 0, 0]	n/a	catFR1	1	R1192C
1570.478	1.6	787697	WORD	n/a	wordpools/wordpool_categorized_EN.txt	SCANNER	Electronics	5	12	[0, 0, 0]	n/a	catFR1	1	R1192C
1573.013	1.6	788964	WORD	n/a	wordpools/wordpool_categorized_EN.txt	PHONE	Electronics	6	12	[0, 0, 0]	n/a	catFR1	1	R1192C
1575.396	1.6	790155	WORD	n/a	wordpools/wordpool_categorized_EN.txt	CAR	Vehicles	7	12	[0, 0, 0]	n/a	catFR1	1	R1192C
1577.981	1.6	791448	WORD	n/a	wordpools/wordpool_categorized_EN.txt	BIKE	Vehicles	8	12	[0, 0, 0]	n/a	catFR1	1	R1192C
1580.43	1.6	792672	WORD	n/a	wordpools/wordpool_categorized_EN.txt	CALCULATOR	Electronics	9	12	[0, 0, 0]	n/a	catFR1	1	R1192C
1582.881	1.6	793898	WORD	n/a	wordpools/wordpool_categorized_EN.txt	SPEAKER	Electronics	10	12	[0, 0, 0]	n/a	catFR1	1	R1192C
1585.498	1.6	795206	WORD	n/a	wordpools/wordpool_categorized_EN.txt	MARKER	OfficeSupplies	11	12	[0, 0, 0]	n/a	catFR1	1	R1192C
1587.949	1.6	796431	WORD	n/a	wordpools/wordpool_categorized_EN.txt	PAPER	OfficeSupplies	12	12	[0, 0, 0]	n/a	catFR1	1	R1192C
1589.565	0.001	797239	DISTRACT_START	n/a	n/a	n/a	n/a	-999	12	[0, 0, 0]	n/a	catFR1	1	R1192C
1589.566	0.016	797240	START	n/a	n/a	n/a	n/a	-999	12	[-999, -999, -999]	n/a	catFR1	1	R1192C
1589.582	8.353	797248	PROB	8.33	n/a	n/a	n/a	-999	12	[7, 4, 6]	17.0	catFR1	1	R1192C
1597.935	6.917	801424	PROB	6.889	n/a	n/a	n/a	-999	12	[7, 3, 2]	12.0	catFR1	1	R1192C
1604.852	6.276	804882	PROB	6.276	n/a	n/a	n/a	-999	12	[8, 4, 2]	14.0	catFR1	1	R1192C
1611.128	0.009	808020	STOP	n/a	n/a	n/a	n/a	-999	12	[-999, -999, -999]	n/a	catFR1	1	R1192C
1611.137	1.068	808025	DISTRACT_END	n/a	n/a	n/a	n/a	-999	12	[0, 0, 0]	n/a	catFR1	1	R1192C
1612.205	1.372	808559	REC_START	n/a	n/a	n/a	n/a	-999	12	[0, 0, 0]	n/a	catFR1	1	R1192C
1613.577	0.688	809245	REC_WORD	1.372	n/a	BOAT	Vehicles	1	12	[0, 0, 0]	n/a	catFR1	1	R1192C
1614.265	0.909	809588	REC_WORD	2.06	n/a	BUS	Vehicles	2	12	[0, 0, 0]	n/a	catFR1	1	R1192C
1615.174	0.911	810043	REC_WORD	2.969	n/a	CAR	Vehicles	7	12	[0, 0, 0]	n/a	catFR1	1	R1192C
1616.085	7.169	810498	REC_WORD	3.88	n/a	BIKE	Vehicles	8	12	[0, 0, 0]	n/a	catFR1	1	R1192C
1623.254	6.008	814083	REC_WORD	11.049	n/a	SCANNER	Electronics	5	12	[0, 0, 0]	n/a	catFR1	1	R1192C
1629.262	6.981	817086	REC_WORD_VV	17.057	n/a	<>	n/a	-999	12	[0, 0, 0]	n/a	catFR1	1	R1192C
1636.243	0.675	820577	REC_WORD_VV	24.038	n/a	<>	n/a	-999	12	[0, 0, 0]	n/a	catFR1	1	R1192C
1636.918	5.298	820914	REC_WORD	24.713	n/a	STAPLER	OfficeSupplies	3	12	[0, 0, 0]	n/a	catFR1	1	R1192C
1642.216	75.791	823563	REC_END	n/a	n/a	n/a	n/a	-999	12	[0, 0, 0]	n/a	catFR1	1	R1192C
1718.007	0.0	861455	TRIAL	n/a	n/a	n/a	n/a	-999	13	[0, 0, 0]	n/a	catFR1	1	R1192C
1718.007	10.0	861455	COUNTDOWN_START	n/a	n/a	n/a	n/a	-999	13	[0, 0, 0]	n/a	catFR1	1	R1192C
1728.435	0.006	866669	COUNTDOWN_END	n/a	n/a	n/a	n/a	-999	13	[0, 0, 0]	n/a	catFR1	1	R1192C
1728.441	1.6	866672	ORIENT	n/a	n/a	n/a	n/a	-999	13	[0, 0, 0]	n/a	catFR1	1	R1192C
1731.96	1.6	868431	WORD	n/a	wordpools/wordpool_categorized_EN.txt	LAKE	Landscapes	1	13	[0, 0, 0]	n/a	catFR1	1	R1192C
1734.359	1.6	869631	WORD	n/a	wordpools/wordpool_categorized_EN.txt	MOUNTAIN	Landscapes	2	13	[0, 0, 0]	n/a	catFR1	1	R1192C
1736.76	1.6	870831	WORD	n/a	wordpools/wordpool_categorized_EN.txt	LIME	Fruit	3	13	[0, 0, 0]	n/a	catFR1	1	R1192C
1739.228	1.6	872065	WORD	n/a	wordpools/wordpool_categorized_EN.txt	STRAWBERRY	Fruit	4	13	[0, 0, 0]	n/a	catFR1	1	R1192C
1741.611	1.6	873257	WORD	n/a	wordpools/wordpool_categorized_EN.txt	PIGEON	Birds	5	13	[0, 0, 0]	n/a	catFR1	1	R1192C
1744.095	1.6	874498	WORD	n/a	wordpools/wordpool_categorized_EN.txt	HAWK	Birds	6	13	[0, 0, 0]	n/a	catFR1	1	R1192C
1746.528	1.6	875715	WORD	n/a	wordpools/wordpool_categorized_EN.txt	LEMON	Fruit	7	13	[0, 0, 0]	n/a	catFR1	1	R1192C
1748.946	1.6	876924	WORD	n/a	wordpools/wordpool_categorized_EN.txt	GRAPE	Fruit	8	13	[0, 0, 0]	n/a	catFR1	1	R1192C
1751.496	1.6	878199	WORD	n/a	wordpools/wordpool_categorized_EN.txt	STREAM	Landscapes	9	13	[0, 0, 0]	n/a	catFR1	1	R1192C
1754.081	1.6	879491	WORD	n/a	wordpools/wordpool_categorized_EN.txt	CREEK	Landscapes	10	13	[0, 0, 0]	n/a	catFR1	1	R1192C
1756.663	1.6	880782	WORD	n/a	wordpools/wordpool_categorized_EN.txt	GOOSE	Birds	11	13	[0, 0, 0]	n/a	catFR1	1	R1192C
1759.048	1.6	881974	WORD	n/a	wordpools/wordpool_categorized_EN.txt	ROBIN	Birds	12	13	[0, 0, 0]	n/a	catFR1	1	R1192C
1760.664	0.001	882782	DISTRACT_START	n/a	n/a	n/a	n/a	-999	13	[0, 0, 0]	n/a	catFR1	1	R1192C
1760.665	0.016	882783	START	n/a	n/a	n/a	n/a	-999	13	[-999, -999, -999]	n/a	catFR1	1	R1192C
1760.681	9.735	882791	PROB	9.703	n/a	n/a	n/a	-999	13	[5, 6, 3]	14.0	catFR1	1	R1192C
1770.416	8.318	887658	PROB	8.288	n/a	n/a	n/a	-999	13	[5, 7, 6]	18.0	catFR1	1	R1192C
1778.734	13.283	891817	PROB	13.283	n/a	n/a	n/a	-999	13	[5, 4, 3]	12.0	catFR1	1	R1192C
1792.017	0.004	898458	STOP	n/a	n/a	n/a	n/a	-999	13	[-999, -999, -999]	n/a	catFR1	1	R1192C
1792.021	1.134	898460	DISTRACT_END	n/a	n/a	n/a	n/a	-999	13	[0, 0, 0]	n/a	catFR1	1	R1192C
1793.155	1.879	899026	REC_START	n/a	n/a	n/a	n/a	-999	13	[0, 0, 0]	n/a	catFR1	1	R1192C
1795.034	1.146	899966	REC_WORD	1.879	n/a	MOUNTAIN	Landscapes	2	13	[0, 0, 0]	n/a	catFR1	1	R1192C
1796.18	1.367	900539	REC_WORD	3.025	n/a	LAKE	Landscapes	1	13	[0, 0, 0]	n/a	catFR1	1	R1192C
1797.547	6.063	901222	REC_WORD	4.392	n/a	STREAM	Landscapes	9	13	[0, 0, 0]	n/a	catFR1	1	R1192C
1803.61	0.628	904254	REC_WORD	10.455	n/a	LIME	Fruit	3	13	[0, 0, 0]	n/a	catFR1	1	R1192C
1804.238	1.059	904568	REC_WORD	11.083	n/a	LEMON	Fruit	7	13	[0, 0, 0]	n/a	catFR1	1	R1192C
1805.297	0.824	905097	REC_WORD	12.142	n/a	PIGEON	Birds	5	13	[0, 0, 0]	n/a	catFR1	1	R1192C
1806.121	2.017	905509	REC_WORD	12.966	n/a	HAWK	Birds	6	13	[0, 0, 0]	n/a	catFR1	1	R1192C
1808.138	5.48	906517	REC_WORD_VV	14.983	n/a	<>	n/a	-999	13	[0, 0, 0]	n/a	catFR1	1	R1192C
1813.618	1.0	909257	REC_WORD_VV	20.463	n/a	<>	n/a	-999	13	[0, 0, 0]	n/a	catFR1	1	R1192C
1814.618	8.552	909757	REC_WORD_VV	21.463	n/a	<>	n/a	-999	13	[0, 0, 0]	n/a	catFR1	1	R1192C
1823.17	40.014	914033	REC_END	n/a	n/a	n/a	n/a	-999	13	[0, 0, 0]	n/a	catFR1	1	R1192C
1863.184	10.0	934038	COUNTDOWN_START	n/a	n/a	n/a	n/a	-999	14	[0, 0, 0]	n/a	catFR1	1	R1192C
1863.185	10.427	934039	TRIAL	n/a	n/a	n/a	n/a	-999	14	[0, 0, 0]	n/a	catFR1	1	R1192C
1873.612	0.007	939252	COUNTDOWN_END	n/a	n/a	n/a	n/a	-999	14	[0, 0, 0]	n/a	catFR1	1	R1192C
1873.619	1.6	939255	ORIENT	n/a	n/a	n/a	n/a	-999	14	[0, 0, 0]	n/a	catFR1	1	R1192C
1877.271	1.6	941081	WORD	n/a	wordpools/wordpool_categorized_EN.txt	CUCUMBER	Vegetables	1	14	[0, 0, 0]	n/a	catFR1	1	R1192C
1879.87	1.6	942381	WORD	n/a	wordpools/wordpool_categorized_EN.txt	CARROT	Vegetables	2	14	[0, 0, 0]	n/a	catFR1	1	R1192C
1882.454	1.6	943673	WORD	n/a	wordpools/wordpool_categorized_EN.txt	ELM	Trees	3	14	[0, 0, 0]	n/a	catFR1	1	R1192C
1885.005	1.6	944948	WORD	n/a	wordpools/wordpool_categorized_EN.txt	BIRCH	Trees	4	14	[0, 0, 0]	n/a	catFR1	1	R1192C
1887.605	1.6	946248	WORD	n/a	wordpools/wordpool_categorized_EN.txt	PIE	Desserts	5	14	[0, 0, 0]	n/a	catFR1	1	R1192C
1889.99	1.6	947440	WORD	n/a	wordpools/wordpool_categorized_EN.txt	JELLO	Desserts	6	14	[0, 0, 0]	n/a	catFR1	1	R1192C
1892.539	1.6	948715	WORD	n/a	wordpools/wordpool_categorized_EN.txt	SPRUCE	Trees	7	14	[0, 0, 0]	n/a	catFR1	1	R1192C
1894.94	1.6	949915	WORD	n/a	wordpools/wordpool_categorized_EN.txt	MAPLE	Trees	8	14	[0, 0, 0]	n/a	catFR1	1	R1192C
1897.39	1.6	951140	WORD	n/a	wordpools/wordpool_categorized_EN.txt	ONION	Vegetables	9	14	[0, 0, 0]	n/a	catFR1	1	R1192C
1899.975	1.6	952432	WORD	n/a	wordpools/wordpool_categorized_EN.txt	CELERY	Vegetables	10	14	[0, 0, 0]	n/a	catFR1	1	R1192C
1902.391	1.6	953640	WORD	n/a	wordpools/wordpool_categorized_EN.txt	PUDDING	Desserts	11	14	[0, 0, 0]	n/a	catFR1	1	R1192C
1904.791	1.6	954840	WORD	n/a	wordpools/wordpool_categorized_EN.txt	COOKIE	Desserts	12	14	[0, 0, 0]	n/a	catFR1	1	R1192C
1906.408	0.001	955649	DISTRACT_START	n/a	n/a	n/a	n/a	-999	14	[0, 0, 0]	n/a	catFR1	1	R1192C
1906.409	0.016	955649	START	n/a	n/a	n/a	n/a	-999	14	[-999, -999, -999]	n/a	catFR1	1	R1192C
1906.425	7.368	955657	PROB	7.335	n/a	n/a	n/a	-999	14	[4, 8, 4]	16.0	catFR1	1	R1192C
1913.793	65.384	959341	PROB	65.384	n/a	n/a	n/a	-999	14	[9, 8, 5]	22.0	catFR1	1	R1192C
1979.177	0.013	992030	STOP	n/a	n/a	n/a	n/a	-999	14	[-999, -999, -999]	n/a	catFR1	1	R1192C
1979.19	1.199	992037	DISTRACT_END	n/a	n/a	n/a	n/a	-999	14	[0, 0, 0]	n/a	catFR1	1	R1192C
1980.389	2.855	992636	REC_START	n/a	n/a	n/a	n/a	-999	14	[0, 0, 0]	n/a	catFR1	1	R1192C
1983.244	0.911	994064	REC_WORD	2.855	n/a	CARROT	Vegetables	2	14	[0, 0, 0]	n/a	catFR1	1	R1192C
1984.155	1.275	994519	REC_WORD	3.766	n/a	CELERY	Vegetables	10	14	[0, 0, 0]	n/a	catFR1	1	R1192C
1985.43	24.974	995157	REC_WORD	5.041	n/a	ONION	Vegetables	9	14	[0, 0, 0]	n/a	catFR1	1	R1192C
2010.404	26.179	1007643	REC_END	n/a	n/a	n/a	n/a	-999	14	[0, 0, 0]	n/a	catFR1	1	R1192C
2036.583	10.0	1020731	COUNTDOWN_START	n/a	n/a	n/a	n/a	-999	15	[0, 0, 0]	n/a	catFR1	1	R1192C
2036.583	10.428	1020731	TRIAL	n/a	n/a	n/a	n/a	-999	15	[0, 0, 0]	n/a	catFR1	1	R1192C
2047.011	0.008	1025945	COUNTDOWN_END	n/a	n/a	n/a	n/a	-999	15	[0, 0, 0]	n/a	catFR1	1	R1192C
2047.019	1.6	1025949	ORIENT	n/a	n/a	n/a	n/a	-999	15	[0, 0, 0]	n/a	catFR1	1	R1192C
2050.702	1.6	1027790	WORD	n/a	wordpools/wordpool_categorized_EN.txt	SHELF	Furniture	1	15	[0, 0, 0]	n/a	catFR1	1	R1192C
2053.27	1.6	1029074	WORD	n/a	wordpools/wordpool_categorized_EN.txt	TABLE	Furniture	2	15	[0, 0, 0]	n/a	catFR1	1	R1192C
2055.736	1.6	1030307	WORD	n/a	wordpools/wordpool_categorized_EN.txt	SPIDER	Insects	3	15	[0, 0, 0]	n/a	catFR1	1	R1192C
2058.354	1.6	1031616	WORD	n/a	wordpools/wordpool_categorized_EN.txt	BUTTERFLY	Insects	4	15	[0, 0, 0]	n/a	catFR1	1	R1192C
2060.737	1.6	1032807	WORD	n/a	wordpools/wordpool_categorized_EN.txt	GRATER	KitchenTools	5	15	[0, 0, 0]	n/a	catFR1	1	R1192C
2063.255	1.6	1034066	WORD	n/a	wordpools/wordpool_categorized_EN.txt	FORK	KitchenTools	6	15	[0, 0, 0]	n/a	catFR1	1	R1192C
2065.705	1.6	1035291	WORD	n/a	wordpools/wordpool_categorized_EN.txt	NIGHTSTAND	Furniture	7	15	[0, 0, 0]	n/a	catFR1	1	R1192C
2068.223	1.6	1036550	WORD	n/a	wordpools/wordpool_categorized_EN.txt	BED	Furniture	8	15	[0, 0, 0]	n/a	catFR1	1	R1192C
2070.739	1.6	1037808	WORD	n/a	wordpools/wordpool_categorized_EN.txt	LADLE	KitchenTools	9	15	[0, 0, 0]	n/a	catFR1	1	R1192C
2073.157	1.6	1039017	WORD	n/a	wordpools/wordpool_categorized_EN.txt	SPATULA	KitchenTools	10	15	[0, 0, 0]	n/a	catFR1	1	R1192C
2075.54	1.6	1040208	WORD	n/a	wordpools/wordpool_categorized_EN.txt	BEE	Insects	11	15	[0, 0, 0]	n/a	catFR1	1	R1192C
2078.142	1.6	1041509	WORD	n/a	wordpools/wordpool_categorized_EN.txt	MOSQUITO	Insects	12	15	[0, 0, 0]	n/a	catFR1	1	R1192C
2079.758	0.001	1042317	DISTRACT_START	n/a	n/a	n/a	n/a	-999	15	[0, 0, 0]	n/a	catFR1	1	R1192C
2079.759	0.015	1042317	START	n/a	n/a	n/a	n/a	-999	15	[-999, -999, -999]	n/a	catFR1	1	R1192C
2079.774	13.17	1042325	PROB	13.147	n/a	n/a	n/a	-999	15	[5, 8, 4]	17.0	catFR1	1	R1192C
2092.944	7.424	1048909	PROB	7.424	n/a	n/a	n/a	-999	15	[9, 5, 3]	17.0	catFR1	1	R1192C
2100.368	0.01	1052621	STOP	n/a	n/a	n/a	n/a	-999	15	[-999, -999, -999]	n/a	catFR1	1	R1192C
2100.378	1.084	1052626	DISTRACT_END	n/a	n/a	n/a	n/a	-999	15	[0, 0, 0]	n/a	catFR1	1	R1192C
2101.462	2.676	1053168	REC_START	n/a	n/a	n/a	n/a	-999	15	[0, 0, 0]	n/a	catFR1	1	R1192C
2104.138	1.112	1054506	REC_WORD	2.676	n/a	BED	Furniture	8	15	[0, 0, 0]	n/a	catFR1	1	R1192C
2105.25	3.332	1055062	REC_WORD	3.788	n/a	CABINET	n/a	-999	15	[0, 0, 0]	n/a	catFR1	1	R1192C
2108.582	1.0	1056728	REC_WORD	7.12	n/a	SHELF	Furniture	1	15	[0, 0, 0]	n/a	catFR1	1	R1192C
2109.582	11.836	1057228	REC_WORD_VV	8.12	n/a	<>	n/a	-999	15	[0, 0, 0]	n/a	catFR1	1	R1192C
2121.418	10.057	1063145	REC_WORD	19.956	n/a	MOSQUITO	Insects	12	15	[0, 0, 0]	n/a	catFR1	1	R1192C
2131.475	31.833	1068173	REC_END	n/a	n/a	n/a	n/a	-999	15	[0, 0, 0]	n/a	catFR1	1	R1192C
2163.308	0.0	1084089	TRIAL	n/a	n/a	n/a	n/a	-999	16	[0, 0, 0]	n/a	catFR1	1	R1192C
2163.308	10.0	1084089	COUNTDOWN_START	n/a	n/a	n/a	n/a	-999	16	[0, 0, 0]	n/a	catFR1	1	R1192C
2173.736	0.006	1089302	COUNTDOWN_END	n/a	n/a	n/a	n/a	-999	16	[0, 0, 0]	n/a	catFR1	1	R1192C
2173.742	1.6	1089305	ORIENT	n/a	n/a	n/a	n/a	-999	16	[0, 0, 0]	n/a	catFR1	1	R1192C
2177.194	1.6	1091031	WORD	n/a	wordpools/wordpool_categorized_EN.txt	OVEN	Appliances	1	16	[0, 0, 0]	n/a	catFR1	1	R1192C
2179.793	1.6	1092330	WORD	n/a	wordpools/wordpool_categorized_EN.txt	REFRIGERATOR	Appliances	2	16	[0, 0, 0]	n/a	catFR1	1	R1192C
2182.228	1.6	1093548	WORD	n/a	wordpools/wordpool_categorized_EN.txt	VIOLIN	Instruments	3	16	[0, 0, 0]	n/a	catFR1	1	R1192C
2184.76	1.6	1094814	WORD	n/a	wordpools/wordpool_categorized_EN.txt	TROMBONE	Instruments	4	16	[0, 0, 0]	n/a	catFR1	1	R1192C
2187.344	1.6	1096106	WORD	n/a	wordpools/wordpool_categorized_EN.txt	NOTEBOOK	OfficeSupplies	5	16	[0, 0, 0]	n/a	catFR1	1	R1192C
2189.828	1.6	1097348	WORD	n/a	wordpools/wordpool_categorized_EN.txt	GLUE	OfficeSupplies	6	16	[0, 0, 0]	n/a	catFR1	1	R1192C
2192.395	1.6	1098631	WORD	n/a	wordpools/wordpool_categorized_EN.txt	IRON	Appliances	7	16	[0, 0, 0]	n/a	catFR1	1	R1192C
2194.997	1.6	1099932	WORD	n/a	wordpools/wordpool_categorized_EN.txt	VACUUM	Appliances	8	16	[0, 0, 0]	n/a	catFR1	1	R1192C
2197.496	1.6	1101181	WORD	n/a	wordpools/wordpool_categorized_EN.txt	PENCIL	OfficeSupplies	9	16	[0, 0, 0]	n/a	catFR1	1	R1192C
2200.031	1.6	1102449	WORD	n/a	wordpools/wordpool_categorized_EN.txt	PEN	OfficeSupplies	10	16	[0, 0, 0]	n/a	catFR1	1	R1192C
2202.547	1.6	1103707	WORD	n/a	wordpools/wordpool_categorized_EN.txt	TUBA	Instruments	11	16	[0, 0, 0]	n/a	catFR1	1	R1192C
2205.166	1.6	1105016	WORD	n/a	wordpools/wordpool_categorized_EN.txt	TRUMPET	Instruments	12	16	[0, 0, 0]	n/a	catFR1	1	R1192C
2206.781	0.001	1105823	DISTRACT_START	n/a	n/a	n/a	n/a	-999	16	[0, 0, 0]	n/a	catFR1	1	R1192C
2206.782	0.016	1105824	START	n/a	n/a	n/a	n/a	-999	16	[-999, -999, -999]	n/a	catFR1	1	R1192C
2206.798	9.619	1105832	PROB	9.594	n/a	n/a	n/a	-999	16	[9, 9, 6]	14.0	catFR1	1	R1192C
2216.417	29.287	1110641	PROB	29.287	n/a	n/a	n/a	-999	16	[5, 9, 9]	13.0	catFR1	1	R1192C
2245.704	0.018	1125283	STOP	n/a	n/a	n/a	n/a	-999	16	[-999, -999, -999]	n/a	catFR1	1	R1192C
2245.722	1.134	1125292	DISTRACT_END	n/a	n/a	n/a	n/a	-999	16	[0, 0, 0]	n/a	catFR1	1	R1192C
2246.856	4.846	1125859	REC_START	n/a	n/a	n/a	n/a	-999	16	[0, 0, 0]	n/a	catFR1	1	R1192C
2251.702	0.744	1128282	REC_WORD	4.846	n/a	TRUMPET	Instruments	12	16	[0, 0, 0]	n/a	catFR1	1	R1192C
2252.446	1.218	1128654	REC_WORD	5.59	n/a	TUBA	Instruments	11	16	[0, 0, 0]	n/a	catFR1	1	R1192C
2253.664	11.414	1129263	REC_WORD	6.808	n/a	VIOLIN	Instruments	3	16	[0, 0, 0]	n/a	catFR1	1	R1192C
2265.078	2.504	1134970	REC_WORD	18.222	n/a	GLUE	OfficeSupplies	6	16	[0, 0, 0]	n/a	catFR1	1	R1192C
2267.582	9.289	1136222	REC_WORD	20.726	n/a	IRON	Appliances	7	16	[0, 0, 0]	n/a	catFR1	1	R1192C
2276.871	9.976	1140866	REC_END	n/a	n/a	n/a	n/a	-999	16	[0, 0, 0]	n/a	catFR1	1	R1192C
2286.847	0.0	1145853	TRIAL	n/a	n/a	n/a	n/a	-999	17	[0, 0, 0]	n/a	catFR1	1	R1192C
2286.847	10.0	1145853	COUNTDOWN_START	n/a	n/a	n/a	n/a	-999	17	[0, 0, 0]	n/a	catFR1	1	R1192C
2297.275	0.008	1151067	COUNTDOWN_END	n/a	n/a	n/a	n/a	-999	17	[0, 0, 0]	n/a	catFR1	1	R1192C
2297.283	1.6	1151071	ORIENT	n/a	n/a	n/a	n/a	-999	17	[0, 0, 0]	n/a	catFR1	1	R1192C
2300.816	1.6	1152837	WORD	n/a	wordpools/wordpool_categorized_EN.txt	GNAT	Insects	1	17	[0, 0, 0]	n/a	catFR1	1	R1192C
2303.433	1.6	1154146	WORD	n/a	wordpools/wordpool_categorized_EN.txt	ROACH	Insects	2	17	[0, 0, 0]	n/a	catFR1	1	R1192C
2305.951	1.6	1155405	WORD	n/a	wordpools/wordpool_categorized_EN.txt	WATER	Beverages	3	17	[0, 0, 0]	n/a	catFR1	1	R1192C
2308.384	1.6	1156621	WORD	n/a	wordpools/wordpool_categorized_EN.txt	CIDER	Beverages	4	17	[0, 0, 0]	n/a	catFR1	1	R1192C
2310.851	1.6	1157854	WORD	n/a	wordpools/wordpool_categorized_EN.txt	STEREO	Electronics	5	17	[0, 0, 0]	n/a	catFR1	1	R1192C
2313.252	1.6	1159055	WORD	n/a	wordpools/wordpool_categorized_EN.txt	TABLET	Electronics	6	17	[0, 0, 0]	n/a	catFR1	1	R1192C
2315.669	1.6	1160263	WORD	n/a	wordpools/wordpool_categorized_EN.txt	BEER	Beverages	7	17	[0, 0, 0]	n/a	catFR1	1	R1192C
2318.287	1.6	1161572	WORD	n/a	wordpools/wordpool_categorized_EN.txt	COLA	Beverages	8	17	[0, 0, 0]	n/a	catFR1	1	R1192C
2320.786	1.6	1162821	WORD	n/a	wordpools/wordpool_categorized_EN.txt	FLY	Insects	9	17	[0, 0, 0]	n/a	catFR1	1	R1192C
2323.271	1.6	1164064	WORD	n/a	wordpools/wordpool_categorized_EN.txt	BEETLE	Insects	10	17	[0, 0, 0]	n/a	catFR1	1	R1192C
2325.671	1.6	1165264	WORD	n/a	wordpools/wordpool_categorized_EN.txt	HEADPHONES	Electronics	11	17	[0, 0, 0]	n/a	catFR1	1	R1192C
2328.205	1.6	1166531	WORD	n/a	wordpools/wordpool_categorized_EN.txt	COMPUTER	Electronics	12	17	[0, 0, 0]	n/a	catFR1	1	R1192C
2329.821	0.001	1167339	DISTRACT_START	n/a	n/a	n/a	n/a	-999	17	[0, 0, 0]	n/a	catFR1	1	R1192C
2329.822	0.016	1167339	START	n/a	n/a	n/a	n/a	-999	17	[-999, -999, -999]	n/a	catFR1	1	R1192C
2329.838	17.92	1167347	PROB	17.89	n/a	n/a	n/a	-999	17	[3, 6, 6]	15.0	catFR1	1	R1192C
2347.758	11.147	1176306	PROB	11.147	n/a	n/a	n/a	-999	17	[2, 9, 8]	19.0	catFR1	1	R1192C
2358.905	0.006	1181879	STOP	n/a	n/a	n/a	n/a	-999	17	[-999, -999, -999]	n/a	catFR1	1	R1192C
2358.911	1.109	1181882	DISTRACT_END	n/a	n/a	n/a	n/a	-999	17	[0, 0, 0]	n/a	catFR1	1	R1192C
2360.02	1.617	1182437	REC_START	n/a	n/a	n/a	n/a	-999	17	[0, 0, 0]	n/a	catFR1	1	R1192C
2361.637	0.7	1183245	REC_WORD	1.617	n/a	GNAT	Insects	1	17	[0, 0, 0]	n/a	catFR1	1	R1192C
2362.337	1.0	1183595	REC_WORD	2.317	n/a	ROACH	Insects	2	17	[0, 0, 0]	n/a	catFR1	1	R1192C
2363.337	0.25	1184095	REC_WORD_VV	3.317	n/a	<>	n/a	-999	17	[0, 0, 0]	n/a	catFR1	1	R1192C
2363.587	1.932	1184220	REC_WORD	3.567	n/a	CIDER	Beverages	4	17	[0, 0, 0]	n/a	catFR1	1	R1192C
2365.519	6.577	1185186	REC_WORD	5.499	n/a	BEETLE	Insects	10	17	[0, 0, 0]	n/a	catFR1	1	R1192C
2372.096	1.392	1188474	REC_WORD	12.076	n/a	STEREO	Electronics	5	17	[0, 0, 0]	n/a	catFR1	1	R1192C
2373.488	1.0	1189170	REC_WORD	13.468	n/a	HEADPHONES	Electronics	11	17	[0, 0, 0]	n/a	catFR1	1	R1192C
2374.488	7.333	1189670	REC_WORD_VV	14.468	n/a	<>	n/a	-999	17	[0, 0, 0]	n/a	catFR1	1	R1192C
2381.821	6.144	1193337	REC_WORD	21.801	n/a	MOSQUITO	n/a	-999	17	[0, 0, 0]	n/a	catFR1	1	R1192C
2387.965	2.058	1196408	REC_WORD_VV	27.945	n/a	<>	n/a	-999	17	[0, 0, 0]	n/a	catFR1	1	R1192C
2390.023	23.581	1197437	REC_END	n/a	n/a	n/a	n/a	-999	17	[0, 0, 0]	n/a	catFR1	1	R1192C
2413.604	0.0	1209227	TRIAL	n/a	n/a	n/a	n/a	-999	18	[0, 0, 0]	n/a	catFR1	1	R1192C
2413.604	10.0	1209227	COUNTDOWN_START	n/a	n/a	n/a	n/a	-999	18	[0, 0, 0]	n/a	catFR1	1	R1192C
2424.032	0.008	1214440	COUNTDOWN_END	n/a	n/a	n/a	n/a	-999	18	[0, 0, 0]	n/a	catFR1	1	R1192C
2424.04	1.6	1214444	ORIENT	n/a	n/a	n/a	n/a	-999	18	[0, 0, 0]	n/a	catFR1	1	R1192C
2427.856	1.6	1216352	WORD	n/a	wordpools/wordpool_categorized_EN.txt	RIVER	Landscapes	1	18	[0, 0, 0]	n/a	catFR1	1	R1192C
2430.34	1.6	1217594	WORD	n/a	wordpools/wordpool_categorized_EN.txt	VALLEY	Landscapes	2	18	[0, 0, 0]	n/a	catFR1	1	R1192C
2432.908	1.6	1218878	WORD	n/a	wordpools/wordpool_categorized_EN.txt	FISH	OceanAnimals	3	18	[0, 0, 0]	n/a	catFR1	1	R1192C
2435.326	1.6	1220087	WORD	n/a	wordpools/wordpool_categorized_EN.txt	DOLPHIN	OceanAnimals	4	18	[0, 0, 0]	n/a	catFR1	1	R1192C
2437.926	1.6	1221387	WORD	n/a	wordpools/wordpool_categorized_EN.txt	ELBOW	BodyParts	5	18	[0, 0, 0]	n/a	catFR1	1	R1192C
2440.326	1.6	1222587	WORD	n/a	wordpools/wordpool_categorized_EN.txt	NOSE	BodyParts	6	18	[0, 0, 0]	n/a	catFR1	1	R1192C
2442.709	1.6	1223778	WORD	n/a	wordpools/wordpool_categorized_EN.txt	WOODS	Landscapes	7	18	[0, 0, 0]	n/a	catFR1	1	R1192C
2445.127	1.6	1224987	WORD	n/a	wordpools/wordpool_categorized_EN.txt	BEACH	Landscapes	8	18	[0, 0, 0]	n/a	catFR1	1	R1192C
2447.643	1.6	1226245	WORD	n/a	wordpools/wordpool_categorized_EN.txt	HAND	BodyParts	9	18	[0, 0, 0]	n/a	catFR1	1	R1192C
2450.228	1.6	1227537	WORD	n/a	wordpools/wordpool_categorized_EN.txt	FINGERS	BodyParts	10	18	[0, 0, 0]	n/a	catFR1	1	R1192C
2452.628	1.6	1228737	WORD	n/a	wordpools/wordpool_categorized_EN.txt	CRAB	OceanAnimals	11	18	[0, 0, 0]	n/a	catFR1	1	R1192C
2455.046	1.6	1229946	WORD	n/a	wordpools/wordpool_categorized_EN.txt	JELLYFISH	OceanAnimals	12	18	[0, 0, 0]	n/a	catFR1	1	R1192C
2456.662	0.001	1230754	DISTRACT_START	n/a	n/a	n/a	n/a	-999	18	[0, 0, 0]	n/a	catFR1	1	R1192C
2456.663	0.016	1230755	START	n/a	n/a	n/a	n/a	-999	18	[-999, -999, -999]	n/a	catFR1	1	R1192C
2456.679	30.833	1230763	PROB	30.833	n/a	n/a	n/a	-999	18	[8, 5, 9]	22.0	catFR1	1	R1192C
2487.512	0.006	1246178	STOP	n/a	n/a	n/a	n/a	-999	18	[-999, -999, -999]	n/a	catFR1	1	R1192C
2487.518	1.217	1246181	DISTRACT_END	n/a	n/a	n/a	n/a	-999	18	[0, 0, 0]	n/a	catFR1	1	R1192C
2488.735	2.983	1246789	REC_START	n/a	n/a	n/a	n/a	-999	18	[0, 0, 0]	n/a	catFR1	1	R1192C
2491.718	0.823	1248281	REC_WORD	2.983	n/a	VALLEY	Landscapes	2	18	[0, 0, 0]	n/a	catFR1	1	R1192C
2492.541	3.092	1248692	REC_WORD	3.806	n/a	RIVER	Landscapes	1	18	[0, 0, 0]	n/a	catFR1	1	R1192C
2495.633	1.769	1250238	REC_WORD	6.898	n/a	CRAB	OceanAnimals	11	18	[0, 0, 0]	n/a	catFR1	1	R1192C
2497.402	0.911	1251123	REC_WORD	8.667	n/a	HAND	BodyParts	9	18	[0, 0, 0]	n/a	catFR1	1	R1192C
2498.313	4.994	1251578	REC_WORD	9.578	n/a	FINGERS	BodyParts	10	18	[0, 0, 0]	n/a	catFR1	1	R1192C
2503.307	0.748	1254075	REC_WORD	14.572	n/a	OCEAN	n/a	-999	18	[0, 0, 0]	n/a	catFR1	1	R1192C
2504.055	14.692	1254449	REC_WORD	15.32	n/a	BEACH	Landscapes	8	18	[0, 0, 0]	n/a	catFR1	1	R1192C
2518.747	41.884	1261794	REC_END	n/a	n/a	n/a	n/a	-999	18	[0, 0, 0]	n/a	catFR1	1	R1192C
2560.631	10.0	1282735	COUNTDOWN_START	n/a	n/a	n/a	n/a	-999	19	[0, 0, 0]	n/a	catFR1	1	R1192C
2560.632	10.427	1282735	TRIAL	n/a	n/a	n/a	n/a	-999	19	[0, 0, 0]	n/a	catFR1	1	R1192C
2571.059	0.009	1287948	COUNTDOWN_END	n/a	n/a	n/a	n/a	-999	19	[0, 0, 0]	n/a	catFR1	1	R1192C
2571.068	1.6	1287953	ORIENT	n/a	n/a	n/a	n/a	-999	19	[0, 0, 0]	n/a	catFR1	1	R1192C
2574.851	1.6	1289844	WORD	n/a	wordpools/wordpool_categorized_EN.txt	OAK	Trees	1	19	[0, 0, 0]	n/a	catFR1	1	R1192C
2577.451	1.6	1291144	WORD	n/a	wordpools/wordpool_categorized_EN.txt	CYPRESS	Trees	2	19	[0, 0, 0]	n/a	catFR1	1	R1192C
2579.835	1.6	1292336	WORD	n/a	wordpools/wordpool_categorized_EN.txt	DAFFODIL	Flowers	3	19	[0, 0, 0]	n/a	catFR1	1	R1192C
2582.237	1.6	1293537	WORD	n/a	wordpools/wordpool_categorized_EN.txt	LILY	Flowers	4	19	[0, 0, 0]	n/a	catFR1	1	R1192C
2584.619	1.6	1294728	WORD	n/a	wordpools/wordpool_categorized_EN.txt	MOTH	Insects	5	19	[0, 0, 0]	n/a	catFR1	1	R1192C
2586.987	1.6	1295912	WORD	n/a	wordpools/wordpool_categorized_EN.txt	LADYBUG	Insects	6	19	[0, 0, 0]	n/a	catFR1	1	R1192C
2589.52	1.6	1297178	WORD	n/a	wordpools/wordpool_categorized_EN.txt	VIOLET	Flowers	7	19	[0, 0, 0]	n/a	catFR1	1	R1192C
2592.021	1.6	1298428	WORD	n/a	wordpools/wordpool_categorized_EN.txt	DAISY	Flowers	8	19	[0, 0, 0]	n/a	catFR1	1	R1192C
2594.488	1.6	1299662	WORD	n/a	wordpools/wordpool_categorized_EN.txt	CEDAR	Trees	9	19	[0, 0, 0]	n/a	catFR1	1	R1192C
2596.871	1.6	1300853	WORD	n/a	wordpools/wordpool_categorized_EN.txt	PINE	Trees	10	19	[0, 0, 0]	n/a	catFR1	1	R1192C
2599.472	1.6	1302154	WORD	n/a	wordpools/wordpool_categorized_EN.txt	ANT	Insects	11	19	[0, 0, 0]	n/a	catFR1	1	R1192C
2601.973	1.6	1303404	WORD	n/a	wordpools/wordpool_categorized_EN.txt	CRICKET	Insects	12	19	[0, 0, 0]	n/a	catFR1	1	R1192C
2603.589	0.001	1304212	DISTRACT_START	n/a	n/a	n/a	n/a	-999	19	[0, 0, 0]	n/a	catFR1	1	R1192C
2603.59	0.016	1304212	START	n/a	n/a	n/a	n/a	-999	19	[-999, -999, -999]	n/a	catFR1	1	R1192C
2603.606	13.036	1304220	PROB	13.002	n/a	n/a	n/a	-999	19	[7, 7, 3]	17.0	catFR1	1	R1192C
2616.642	10.279	1310738	PROB	10.279	n/a	n/a	n/a	-999	19	[7, 4, 2]	13.0	catFR1	1	R1192C
2626.921	0.007	1315877	STOP	n/a	n/a	n/a	n/a	-999	19	[-999, -999, -999]	n/a	catFR1	1	R1192C
2626.928	1.218	1315880	DISTRACT_END	n/a	n/a	n/a	n/a	-999	19	[0, 0, 0]	n/a	catFR1	1	R1192C
2628.146	3.173	1316489	REC_START	n/a	n/a	n/a	n/a	-999	19	[0, 0, 0]	n/a	catFR1	1	R1192C
2631.319	1.0	1318076	REC_WORD	3.173	n/a	OAK	Trees	1	19	[0, 0, 0]	n/a	catFR1	1	R1192C
2632.319	1.746	1318576	REC_WORD_VV	4.173	n/a	<>	n/a	-999	19	[0, 0, 0]	n/a	catFR1	1	R1192C
2634.065	1.694	1319449	REC_WORD	5.919	n/a	DAFFODIL	Flowers	3	19	[0, 0, 0]	n/a	catFR1	1	R1192C
2635.759	1.0	1320296	REC_WORD	7.613	n/a	CEDAR	Trees	9	19	[0, 0, 0]	n/a	catFR1	1	R1192C
2636.759	2.647	1320796	REC_WORD_VV	8.613	n/a	<>	n/a	-999	19	[0, 0, 0]	n/a	catFR1	1	R1192C
2639.406	15.261	1322119	REC_WORD	11.26	n/a	CEDAR	Trees	9	19	[0, 0, 0]	n/a	catFR1	1	R1192C
2654.667	3.49	1329749	REC_WORD_VV	26.521	n/a	<>	n/a	-999	19	[0, 0, 0]	n/a	catFR1	1	R1192C
2658.157	12.729	1331494	REC_END	n/a	n/a	n/a	n/a	-999	19	[0, 0, 0]	n/a	catFR1	1	R1192C
2670.886	0.0	1337858	TRIAL	n/a	n/a	n/a	n/a	-999	20	[0, 0, 0]	n/a	catFR1	1	R1192C
2670.886	10.0	1337858	COUNTDOWN_START	n/a	n/a	n/a	n/a	-999	20	[0, 0, 0]	n/a	catFR1	1	R1192C
2681.314	0.008	1343071	COUNTDOWN_END	n/a	n/a	n/a	n/a	-999	20	[0, 0, 0]	n/a	catFR1	1	R1192C
2681.322	1.6	1343075	ORIENT	n/a	n/a	n/a	n/a	-999	20	[0, 0, 0]	n/a	catFR1	1	R1192C
2684.906	1.6	1344867	WORD	n/a	wordpools/wordpool_categorized_EN.txt	BASS	Instruments	1	20	[0, 0, 0]	n/a	catFR1	1	R1192C
2687.323	1.6	1346076	WORD	n/a	wordpools/wordpool_categorized_EN.txt	DRUM	Instruments	2	20	[0, 0, 0]	n/a	catFR1	1	R1192C
2689.805	1.6	1347317	WORD	n/a	wordpools/wordpool_categorized_EN.txt	JACKET	Clothing	3	20	[0, 0, 0]	n/a	catFR1	1	R1192C
2692.257	1.6	1348542	WORD	n/a	wordpools/wordpool_categorized_EN.txt	JEANS	Clothing	4	20	[0, 0, 0]	n/a	catFR1	1	R1192C
2694.857	1.6	1349842	WORD	n/a	wordpools/wordpool_categorized_EN.txt	GORILLA	Zoo	5	20	[0, 0, 0]	n/a	catFR1	1	R1192C
2697.308	1.6	1351068	WORD	n/a	wordpools/wordpool_categorized_EN.txt	ZEBRA	Zoo	6	20	[0, 0, 0]	n/a	catFR1	1	R1192C
2699.724	1.6	1352276	WORD	n/a	wordpools/wordpool_categorized_EN.txt	SOCKS	Clothing	7	20	[0, 0, 0]	n/a	catFR1	1	R1192C
2702.276	1.6	1353552	WORD	n/a	wordpools/wordpool_categorized_EN.txt	DRESS	Clothing	8	20	[0, 0, 0]	n/a	catFR1	1	R1192C
2704.842	1.6	1354834	WORD	n/a	wordpools/wordpool_categorized_EN.txt	ORGAN	Instruments	9	20	[0, 0, 0]	n/a	catFR1	1	R1192C
2707.459	1.6	1356143	WORD	n/a	wordpools/wordpool_categorized_EN.txt	CELLO	Instruments	10	20	[0, 0, 0]	n/a	catFR1	1	R1192C
2709.944	1.6	1357385	WORD	n/a	wordpools/wordpool_categorized_EN.txt	TIGER	Zoo	11	20	[0, 0, 0]	n/a	catFR1	1	R1192C
2712.46	1.6	1358643	WORD	n/a	wordpools/wordpool_categorized_EN.txt	CHIMPANZEE	Zoo	12	20	[0, 0, 0]	n/a	catFR1	1	R1192C
2714.061	0.001	1359444	DISTRACT_START	n/a	n/a	n/a	n/a	-999	20	[0, 0, 0]	n/a	catFR1	1	R1192C
2714.062	0.016	1359444	START	n/a	n/a	n/a	n/a	-999	20	[-999, -999, -999]	n/a	catFR1	1	R1192C
2714.078	8.534	1359452	PROB	8.514	n/a	n/a	n/a	-999	20	[2, 9, 9]	20.0	catFR1	1	R1192C
2722.612	8.935	1363719	PROB	8.908	n/a	n/a	n/a	-999	20	[8, 9, 1]	18.0	catFR1	1	R1192C
2731.547	16.549	1368186	PROB	16.549	n/a	n/a	n/a	-999	20	[8, 9, 2]	19.0	catFR1	1	R1192C
2748.096	0.005	1376460	STOP	n/a	n/a	n/a	n/a	-999	20	[-999, -999, -999]	n/a	catFR1	1	R1192C
2748.101	1.068	1376462	DISTRACT_END	n/a	n/a	n/a	n/a	-999	20	[0, 0, 0]	n/a	catFR1	1	R1192C
2749.169	3.353	1376996	REC_START	n/a	n/a	n/a	n/a	-999	20	[0, 0, 0]	n/a	catFR1	1	R1192C
2752.522	1.0	1378673	REC_WORD	3.353	n/a	CHIMPANZEE	Zoo	12	20	[0, 0, 0]	n/a	catFR1	1	R1192C
2753.522	0.947	1379173	REC_WORD_VV	4.353	n/a	<>	n/a	-999	20	[0, 0, 0]	n/a	catFR1	1	R1192C
2754.469	3.355	1379646	REC_WORD	5.3	n/a	GORILLA	Zoo	5	20	[0, 0, 0]	n/a	catFR1	1	R1192C
2757.824	2.266	1381323	REC_WORD	8.655	n/a	PANTS	n/a	-999	20	[0, 0, 0]	n/a	catFR1	1	R1192C
2760.09	7.919	1382456	REC_WORD	10.921	n/a	TIGER	Zoo	11	20	[0, 0, 0]	n/a	catFR1	1	R1192C
2768.009	11.17	1386415	REC_WORD	18.84	n/a	BASS	Instruments	1	20	[0, 0, 0]	n/a	catFR1	1	R1192C
2779.179	28.983	1392000	REC_END	n/a	n/a	n/a	n/a	-999	20	[0, 0, 0]	n/a	catFR1	1	R1192C
2808.162	10.0	1406490	COUNTDOWN_START	n/a	n/a	n/a	n/a	-999	21	[0, 0, 0]	n/a	catFR1	1	R1192C
2808.162	10.428	1406490	TRIAL	n/a	n/a	n/a	n/a	-999	21	[0, 0, 0]	n/a	catFR1	1	R1192C
2818.59	0.007	1411704	COUNTDOWN_END	n/a	n/a	n/a	n/a	-999	21	[0, 0, 0]	n/a	catFR1	1	R1192C
2818.597	1.6	1411708	ORIENT	n/a	n/a	n/a	n/a	-999	21	[0, 0, 0]	n/a	catFR1	1	R1192C
2822.332	1.6	1413575	WORD	n/a	wordpools/wordpool_categorized_EN.txt	EVERGREEN	Trees	1	21	[0, 0, 0]	n/a	catFR1	1	R1192C
2824.966	1.6	1414892	WORD	n/a	wordpools/wordpool_categorized_EN.txt	WILLOW	Trees	2	21	[0, 0, 0]	n/a	catFR1	1	R1192C
2827.515	1.6	1416166	WORD	n/a	wordpools/wordpool_categorized_EN.txt	SAW	Tools	3	21	[0, 0, 0]	n/a	catFR1	1	R1192C
2830.083	1.6	1417450	WORD	n/a	wordpools/wordpool_categorized_EN.txt	AXE	Tools	4	21	[0, 0, 0]	n/a	catFR1	1	R1192C
2832.532	1.6	1418674	WORD	n/a	wordpools/wordpool_categorized_EN.txt	GIRAFFE	Zoo	5	21	[0, 0, 0]	n/a	catFR1	1	R1192C
2834.967	1.6	1419892	WORD	n/a	wordpools/wordpool_categorized_EN.txt	ELEPHANT	Zoo	6	21	[0, 0, 0]	n/a	catFR1	1	R1192C
2837.367	1.6	1421092	WORD	n/a	wordpools/wordpool_categorized_EN.txt	HICKORY	Trees	7	21	[0, 0, 0]	n/a	catFR1	1	R1192C
2839.952	1.6	1422384	WORD	n/a	wordpools/wordpool_categorized_EN.txt	WALNUT	Trees	8	21	[0, 0, 0]	n/a	catFR1	1	R1192C
2842.484	1.6	1423650	WORD	n/a	wordpools/wordpool_categorized_EN.txt	LION	Zoo	9	21	[0, 0, 0]	n/a	catFR1	1	R1192C
2844.919	1.6	1424867	WORD	n/a	wordpools/wordpool_categorized_EN.txt	PANDA	Zoo	10	21	[0, 0, 0]	n/a	catFR1	1	R1192C
2847.502	1.6	1426159	WORD	n/a	wordpools/wordpool_categorized_EN.txt	CROWBAR	Tools	11	21	[0, 0, 0]	n/a	catFR1	1	R1192C
2849.904	1.6	1427360	WORD	n/a	wordpools/wordpool_categorized_EN.txt	SHOVEL	Tools	12	21	[0, 0, 0]	n/a	catFR1	1	R1192C
2851.52	0.001	1428168	DISTRACT_START	n/a	n/a	n/a	n/a	-999	21	[0, 0, 0]	n/a	catFR1	1	R1192C
2851.521	0.015	1428168	START	n/a	n/a	n/a	n/a	-999	21	[-999, -999, -999]	n/a	catFR1	1	R1192C
2851.536	7.952	1428176	PROB	7.927	n/a	n/a	n/a	-999	21	[6, 2, 6]	14.0	catFR1	1	R1192C
2859.488	14.152	1432151	PROB	14.152	n/a	n/a	n/a	-999	21	[8, 3, 9]	20.0	catFR1	1	R1192C
2873.64	0.017	1439227	STOP	n/a	n/a	n/a	n/a	-999	21	[-999, -999, -999]	n/a	catFR1	1	R1192C
2873.657	1.184	1439235	DISTRACT_END	n/a	n/a	n/a	n/a	-999	21	[0, 0, 0]	n/a	catFR1	1	R1192C
2874.841	1.195	1439827	REC_START	n/a	n/a	n/a	n/a	-999	21	[0, 0, 0]	n/a	catFR1	1	R1192C
2876.036	0.572	1440425	REC_WORD	1.195	n/a	SHOVEL	Tools	12	21	[0, 0, 0]	n/a	catFR1	1	R1192C
2876.608	1.183	1440711	REC_WORD	1.767	n/a	LION	Zoo	9	21	[0, 0, 0]	n/a	catFR1	1	R1192C
2877.791	2.464	1441302	REC_WORD	2.95	n/a	HICKORY	Trees	7	21	[0, 0, 0]	n/a	catFR1	1	R1192C
2880.255	5.677	1442534	REC_WORD	5.414	n/a	GIRAFFE	Zoo	5	21	[0, 0, 0]	n/a	catFR1	1	R1192C
2885.932	1.0	1445372	REC_WORD	11.091	n/a	EVERGREEN	Trees	1	21	[0, 0, 0]	n/a	catFR1	1	R1192C
2886.932	2.861	1445872	REC_WORD_VV	12.091	n/a	<>	n/a	-999	21	[0, 0, 0]	n/a	catFR1	1	R1192C
2889.793	15.063	1447303	REC_WORD	14.952	n/a	WALNUT	Trees	8	21	[0, 0, 0]	n/a	catFR1	1	R1192C
2904.856	10.492	1454834	REC_END	n/a	n/a	n/a	n/a	-999	21	[0, 0, 0]	n/a	catFR1	1	R1192C
2915.348	10.0	1460079	COUNTDOWN_START	n/a	n/a	n/a	n/a	-999	22	[0, 0, 0]	n/a	catFR1	1	R1192C
2915.349	10.427	1460080	TRIAL	n/a	n/a	n/a	n/a	-999	22	[0, 0, 0]	n/a	catFR1	1	R1192C
2925.776	0.008	1465293	COUNTDOWN_END	n/a	n/a	n/a	n/a	-999	22	[0, 0, 0]	n/a	catFR1	1	R1192C
2925.784	1.6	1465297	ORIENT	n/a	n/a	n/a	n/a	-999	22	[0, 0, 0]	n/a	catFR1	1	R1192C
2929.418	1.6	1467114	WORD	n/a	wordpools/wordpool_categorized_EN.txt	ORANGE	Fruit	1	22	[0, 0, 0]	n/a	catFR1	1	R1192C
2931.835	1.6	1468322	WORD	n/a	wordpools/wordpool_categorized_EN.txt	PEAR	Fruit	2	22	[0, 0, 0]	n/a	catFR1	1	R1192C
2934.369	1.6	1469589	WORD	n/a	wordpools/wordpool_categorized_EN.txt	TRUCK	Vehicles	3	22	[0, 0, 0]	n/a	catFR1	1	R1192C
2936.936	1.6	1470872	WORD	n/a	wordpools/wordpool_categorized_EN.txt	VAN	Vehicles	4	22	[0, 0, 0]	n/a	catFR1	1	R1192C
2939.486	1.6	1472147	WORD	n/a	wordpools/wordpool_categorized_EN.txt	MARBLES	Toys	5	22	[0, 0, 0]	n/a	catFR1	1	R1192C
2941.971	1.6	1473390	WORD	n/a	wordpools/wordpool_categorized_EN.txt	DOLLHOUSE	Toys	6	22	[0, 0, 0]	n/a	catFR1	1	R1192C
2944.437	1.6	1474623	WORD	n/a	wordpools/wordpool_categorized_EN.txt	TRAIN	Vehicles	7	22	[0, 0, 0]	n/a	catFR1	1	R1192C
2946.955	1.6	1475882	WORD	n/a	wordpools/wordpool_categorized_EN.txt	MOTORCYCLE	Vehicles	8	22	[0, 0, 0]	n/a	catFR1	1	R1192C
2949.405	1.6	1477106	WORD	n/a	wordpools/wordpool_categorized_EN.txt	PEACH	Fruit	9	22	[0, 0, 0]	n/a	catFR1	1	R1192C
2952.023	1.6	1478415	WORD	n/a	wordpools/wordpool_categorized_EN.txt	APPLE	Fruit	10	22	[0, 0, 0]	n/a	catFR1	1	R1192C
2954.439	1.6	1479623	WORD	n/a	wordpools/wordpool_categorized_EN.txt	FOOTBALL	Toys	11	22	[0, 0, 0]	n/a	catFR1	1	R1192C
2956.974	1.6	1480891	WORD	n/a	wordpools/wordpool_categorized_EN.txt	FRISBEE	Toys	12	22	[0, 0, 0]	n/a	catFR1	1	R1192C
2958.59	0.001	1481699	DISTRACT_START	n/a	n/a	n/a	n/a	-999	22	[0, 0, 0]	n/a	catFR1	1	R1192C
2958.591	0.015	1481699	START	n/a	n/a	n/a	n/a	-999	22	[-999, -999, -999]	n/a	catFR1	1	R1192C
2958.606	7.268	1481707	PROB	7.234	n/a	n/a	n/a	-999	22	[1, 7, 6]	14.0	catFR1	1	R1192C
2965.874	14.942	1485340	PROB	14.942	n/a	n/a	n/a	-999	22	[3, 3, 9]	14.0	catFR1	1	R1192C
2980.816	0.011	1492811	STOP	n/a	n/a	n/a	n/a	-999	22	[-999, -999, -999]	n/a	catFR1	1	R1192C
2980.827	1.152	1492816	DISTRACT_END	n/a	n/a	n/a	n/a	-999	22	[0, 0, 0]	n/a	catFR1	1	R1192C
2981.979	5.6	1493392	REC_START	n/a	n/a	n/a	n/a	-999	22	[0, 0, 0]	n/a	catFR1	1	R1192C
2987.579	0.554	1496192	REC_WORD	5.6	n/a	TRUCK	Vehicles	3	22	[0, 0, 0]	n/a	catFR1	1	R1192C
2988.133	0.678	1496469	REC_WORD	6.154	n/a	VAN	Vehicles	4	22	[0, 0, 0]	n/a	catFR1	1	R1192C
2988.811	4.065	1496808	REC_WORD	6.832	n/a	MOTORCYCLE	Vehicles	8	22	[0, 0, 0]	n/a	catFR1	1	R1192C
2992.876	2.8	1498840	REC_WORD	10.897	n/a	ORANGE	Fruit	1	22	[0, 0, 0]	n/a	catFR1	1	R1192C
2995.676	5.331	1500240	REC_WORD	13.697	n/a	PEAR	Fruit	2	22	[0, 0, 0]	n/a	catFR1	1	R1192C
3001.007	10.983	1502905	REC_WORD	19.028	n/a	VAN	Vehicles	4	22	[0, 0, 0]	n/a	catFR1	1	R1192C
3011.99	5.561	1508396	REC_END	n/a	n/a	n/a	n/a	-999	22	[0, 0, 0]	n/a	catFR1	1	R1192C
3017.551	10.0	1511177	COUNTDOWN_START	n/a	n/a	n/a	n/a	-999	23	[0, 0, 0]	n/a	catFR1	1	R1192C
3017.551	10.428	1511177	TRIAL	n/a	n/a	n/a	n/a	-999	23	[0, 0, 0]	n/a	catFR1	1	R1192C
3027.979	0.008	1516390	COUNTDOWN_END	n/a	n/a	n/a	n/a	-999	23	[0, 0, 0]	n/a	catFR1	1	R1192C
3027.987	1.6	1516394	ORIENT	n/a	n/a	n/a	n/a	-999	23	[0, 0, 0]	n/a	catFR1	1	R1192C
3031.854	1.6	1518328	WORD	n/a	wordpools/wordpool_categorized_EN.txt	SPINACH	Vegetables	1	23	[0, 0, 0]	n/a	catFR1	1	R1192C
3034.387	1.6	1519594	WORD	n/a	wordpools/wordpool_categorized_EN.txt	BROCCOLI	Vegetables	2	23	[0, 0, 0]	n/a	catFR1	1	R1192C
3036.955	1.6	1520878	WORD	n/a	wordpools/wordpool_categorized_EN.txt	ARM	BodyParts	3	23	[0, 0, 0]	n/a	catFR1	1	R1192C
3039.572	1.6	1522186	WORD	n/a	wordpools/wordpool_categorized_EN.txt	FOOT	BodyParts	4	23	[0, 0, 0]	n/a	catFR1	1	R1192C
3041.956	1.6	1523378	WORD	n/a	wordpools/wordpool_categorized_EN.txt	PLANE	Vehicles	5	23	[0, 0, 0]	n/a	catFR1	1	R1192C
3044.489	1.6	1524645	WORD	n/a	wordpools/wordpool_categorized_EN.txt	SCOOTER	Vehicles	6	23	[0, 0, 0]	n/a	catFR1	1	R1192C
3046.941	1.6	1525871	WORD	n/a	wordpools/wordpool_categorized_EN.txt	CABBAGE	Vegetables	7	23	[0, 0, 0]	n/a	catFR1	1	R1192C
3049.54	1.6	1527170	WORD	n/a	wordpools/wordpool_categorized_EN.txt	POTATO	Vegetables	8	23	[0, 0, 0]	n/a	catFR1	1	R1192C
3052.058	1.6	1528429	WORD	n/a	wordpools/wordpool_categorized_EN.txt	JEEP	Vehicles	9	23	[0, 0, 0]	n/a	catFR1	1	R1192C
3054.658	1.6	1529729	WORD	n/a	wordpools/wordpool_categorized_EN.txt	MOPED	Vehicles	10	23	[0, 0, 0]	n/a	catFR1	1	R1192C
3057.226	1.6	1531013	WORD	n/a	wordpools/wordpool_categorized_EN.txt	HEAD	BodyParts	11	23	[0, 0, 0]	n/a	catFR1	1	R1192C
3059.692	1.6	1532246	WORD	n/a	wordpools/wordpool_categorized_EN.txt	LEG	BodyParts	12	23	[0, 0, 0]	n/a	catFR1	1	R1192C
3061.31	0.001	1533055	DISTRACT_START	n/a	n/a	n/a	n/a	-999	23	[0, 0, 0]	n/a	catFR1	1	R1192C
3061.311	0.016	1533055	START	n/a	n/a	n/a	n/a	-999	23	[-999, -999, -999]	n/a	catFR1	1	R1192C
3061.327	8.317	1533063	PROB	8.281	n/a	n/a	n/a	-999	23	[2, 8, 3]	13.0	catFR1	1	R1192C
3069.644	10.47	1537221	PROB	10.445	n/a	n/a	n/a	-999	23	[8, 3, 1]	13.0	catFR1	1	R1192C
3080.114	8.606	1542456	PROB	8.606	n/a	n/a	n/a	-999	23	[5, 1, 2]	8.0	catFR1	1	R1192C
3088.72	0.011	1546758	STOP	n/a	n/a	n/a	n/a	-999	23	[-999, -999, -999]	n/a	catFR1	1	R1192C
3088.731	1.202	1546764	DISTRACT_END	n/a	n/a	n/a	n/a	-999	23	[0, 0, 0]	n/a	catFR1	1	R1192C
3089.933	4.488	1547365	REC_START	n/a	n/a	n/a	n/a	-999	23	[0, 0, 0]	n/a	catFR1	1	R1192C
3094.421	0.909	1549609	REC_WORD	4.488	n/a	SPINACH	Vegetables	1	23	[0, 0, 0]	n/a	catFR1	1	R1192C
3095.33	1.962	1550063	REC_WORD	5.397	n/a	BROCCOLI	Vegetables	2	23	[0, 0, 0]	n/a	catFR1	1	R1192C
3097.292	1.145	1551044	REC_WORD	7.359	n/a	POTATO	Vegetables	8	23	[0, 0, 0]	n/a	catFR1	1	R1192C
3098.437	8.579	1551617	REC_WORD	8.504	n/a	CABBAGE	Vegetables	7	23	[0, 0, 0]	n/a	catFR1	1	R1192C
3107.016	4.262	1555906	REC_WORD	17.083	n/a	HEAD	BodyParts	11	23	[0, 0, 0]	n/a	catFR1	1	R1192C
3111.278	1.969	1558037	REC_WORD	21.345	n/a	ARM	BodyParts	3	23	[0, 0, 0]	n/a	catFR1	1	R1192C
3113.247	6.697	1559021	REC_WORD	23.314	n/a	FOOT	BodyParts	4	23	[0, 0, 0]	n/a	catFR1	1	R1192C
3119.944	29.532	1562369	REC_END	n/a	n/a	n/a	n/a	-999	23	[0, 0, 0]	n/a	catFR1	1	R1192C
3149.476	0.0	1577134	TRIAL	n/a	n/a	n/a	n/a	-999	24	[0, 0, 0]	n/a	catFR1	1	R1192C
3149.476	10.0	1577134	COUNTDOWN_START	n/a	n/a	n/a	n/a	-999	24	[0, 0, 0]	n/a	catFR1	1	R1192C
3159.904	0.008	1582348	COUNTDOWN_END	n/a	n/a	n/a	n/a	-999	24	[0, 0, 0]	n/a	catFR1	1	R1192C
3159.912	1.6	1582352	ORIENT	n/a	n/a	n/a	n/a	-999	24	[0, 0, 0]	n/a	catFR1	1	R1192C
3163.528	1.6	1584160	WORD	n/a	wordpools/wordpool_categorized_EN.txt	FOG	Weather	1	24	[0, 0, 0]	n/a	catFR1	1	R1192C
3165.913	1.6	1585352	WORD	n/a	wordpools/wordpool_categorized_EN.txt	THUNDERSTORM	Weather	2	24	[0, 0, 0]	n/a	catFR1	1	R1192C
3168.462	1.6	1586626	WORD	n/a	wordpools/wordpool_categorized_EN.txt	TOASTER	Appliances	3	24	[0, 0, 0]	n/a	catFR1	1	R1192C
3170.896	1.6	1587843	WORD	n/a	wordpools/wordpool_categorized_EN.txt	BLENDER	Appliances	4	24	[0, 0, 0]	n/a	catFR1	1	R1192C
3173.397	1.6	1589094	WORD	n/a	wordpools/wordpool_categorized_EN.txt	TONGS	KitchenTools	5	24	[0, 0, 0]	n/a	catFR1	1	R1192C
3175.881	1.6	1590336	WORD	n/a	wordpools/wordpool_categorized_EN.txt	PEELER	KitchenTools	6	24	[0, 0, 0]	n/a	catFR1	1	R1192C
3178.415	1.6	1591602	WORD	n/a	wordpools/wordpool_categorized_EN.txt	WASHER	Appliances	7	24	[0, 0, 0]	n/a	catFR1	1	R1192C
3180.999	1.6	1592894	WORD	n/a	wordpools/wordpool_categorized_EN.txt	DISHWASHER	Appliances	8	24	[0, 0, 0]	n/a	catFR1	1	R1192C
3183.465	1.6	1594127	WORD	n/a	wordpools/wordpool_categorized_EN.txt	HURRICANE	Weather	9	24	[0, 0, 0]	n/a	catFR1	1	R1192C
3186.017	1.6	1595403	WORD	n/a	wordpools/wordpool_categorized_EN.txt	CLOUD	Weather	10	24	[0, 0, 0]	n/a	catFR1	1	R1192C
3188.616	1.6	1596703	WORD	n/a	wordpools/wordpool_categorized_EN.txt	STRAINER	KitchenTools	11	24	[0, 0, 0]	n/a	catFR1	1	R1192C
3191.235	1.6	1598012	WORD	n/a	wordpools/wordpool_categorized_EN.txt	COLANDER	KitchenTools	12	24	[0, 0, 0]	n/a	catFR1	1	R1192C
3192.851	0.001	1598820	DISTRACT_START	n/a	n/a	n/a	n/a	-999	24	[0, 0, 0]	n/a	catFR1	1	R1192C
3192.852	0.015	1598820	START	n/a	n/a	n/a	n/a	-999	24	[-999, -999, -999]	n/a	catFR1	1	R1192C
3192.867	12.569	1598828	PROB	12.548	n/a	n/a	n/a	-999	24	[9, 8, 3]	20.0	catFR1	1	R1192C
3205.436	12.836	1605112	PROB	12.836	n/a	n/a	n/a	-999	24	[1, 3, 6]	10.0	catFR1	1	R1192C
3218.272	0.018	1611529	STOP	n/a	n/a	n/a	n/a	-999	24	[-999, -999, -999]	n/a	catFR1	1	R1192C
3218.29	1.166	1611538	DISTRACT_END	n/a	n/a	n/a	n/a	-999	24	[0, 0, 0]	n/a	catFR1	1	R1192C
3219.456	0.767	1612121	REC_START	n/a	n/a	n/a	n/a	-999	24	[0, 0, 0]	n/a	catFR1	1	R1192C
3220.223	0.534	1612505	REC_WORD	0.767	n/a	FOG	Weather	1	24	[0, 0, 0]	n/a	catFR1	1	R1192C
3220.757	2.282	1612772	REC_WORD	1.301	n/a	BLENDER	Appliances	4	24	[0, 0, 0]	n/a	catFR1	1	R1192C
3223.039	12.981	1613913	REC_WORD	3.583	n/a	DISHWASHER	Appliances	8	24	[0, 0, 0]	n/a	catFR1	1	R1192C
3236.02	1.0	1620403	REC_WORD_VV	16.564	n/a	<>	n/a	-999	24	[0, 0, 0]	n/a	catFR1	1	R1192C
3237.02	12.447	1620903	REC_WORD_VV	17.564	n/a	<>	n/a	-999	24	[0, 0, 0]	n/a	catFR1	1	R1192C
3249.467	21.098	1627126	REC_END	n/a	n/a	n/a	n/a	-999	24	[0, 0, 0]	n/a	catFR1	1	R1192C
3270.565	0.0	1637674	TRIAL	n/a	n/a	n/a	n/a	-999	25	[0, 0, 0]	n/a	catFR1	1	R1192C
3270.565	10.0	1637674	COUNTDOWN_START	n/a	n/a	n/a	n/a	-999	25	[0, 0, 0]	n/a	catFR1	1	R1192C
3280.993	0.008	1642887	COUNTDOWN_END	n/a	n/a	n/a	n/a	-999	25	[0, 0, 0]	n/a	catFR1	1	R1192C
3281.001	1.6	1642891	ORIENT	n/a	n/a	n/a	n/a	-999	25	[0, 0, 0]	n/a	catFR1	1	R1192C
3284.634	1.6	1644708	WORD	n/a	wordpools/wordpool_categorized_EN.txt	BANANA	Fruit	1	25	[0, 0, 0]	n/a	catFR1	1	R1192C
3287.086	1.6	1645934	WORD	n/a	wordpools/wordpool_categorized_EN.txt	PLUM	Fruit	2	25	[0, 0, 0]	n/a	catFR1	1	R1192C
3289.635	1.6	1647208	WORD	n/a	wordpools/wordpool_categorized_EN.txt	HEN	FarmAnimals	3	25	[0, 0, 0]	n/a	catFR1	1	R1192C
3292.154	1.6	1648468	WORD	n/a	wordpools/wordpool_categorized_EN.txt	HORSE	FarmAnimals	4	25	[0, 0, 0]	n/a	catFR1	1	R1192C
3294.686	1.6	1649733	WORD	n/a	wordpools/wordpool_categorized_EN.txt	COUCH	Furniture	5	25	[0, 0, 0]	n/a	catFR1	1	R1192C
3297.271	1.6	1651026	WORD	n/a	wordpools/wordpool_categorized_EN.txt	CHAIR	Furniture	6	25	[0, 0, 0]	n/a	catFR1	1	R1192C
3299.771	1.6	1652276	WORD	n/a	wordpools/wordpool_categorized_EN.txt	BLUEBERRY	Fruit	7	25	[0, 0, 0]	n/a	catFR1	1	R1192C
3302.338	1.6	1653559	WORD	n/a	wordpools/wordpool_categorized_EN.txt	CHERRY	Fruit	8	25	[0, 0, 0]	n/a	catFR1	1	R1192C
3304.939	1.6	1654860	WORD	n/a	wordpools/wordpool_categorized_EN.txt	SOFA	Furniture	9	25	[0, 0, 0]	n/a	catFR1	1	R1192C
3307.472	1.6	1656126	WORD	n/a	wordpools/wordpool_categorized_EN.txt	DESK	Furniture	10	25	[0, 0, 0]	n/a	catFR1	1	R1192C
3309.957	1.6	1657368	WORD	n/a	wordpools/wordpool_categorized_EN.txt	SHEEP	FarmAnimals	11	25	[0, 0, 0]	n/a	catFR1	1	R1192C
3312.406	1.6	1658593	WORD	n/a	wordpools/wordpool_categorized_EN.txt	PIG	FarmAnimals	12	25	[0, 0, 0]	n/a	catFR1	1	R1192C
3314.007	0.001	1659393	DISTRACT_START	n/a	n/a	n/a	n/a	-999	25	[0, 0, 0]	n/a	catFR1	1	R1192C
3314.008	0.016	1659394	START	n/a	n/a	n/a	n/a	-999	25	[-999, -999, -999]	n/a	catFR1	1	R1192C
3314.024	37.528	1659402	PROB	37.528	n/a	n/a	n/a	-999	25	[8, 6, 9]	23.0	catFR1	1	R1192C
3351.552	0.012	1678164	STOP	n/a	n/a	n/a	n/a	-999	25	[-999, -999, -999]	n/a	catFR1	1	R1192C
3351.564	1.217	1678170	DISTRACT_END	n/a	n/a	n/a	n/a	-999	25	[0, 0, 0]	n/a	catFR1	1	R1192C
3352.781	5.303	1678779	REC_START	n/a	n/a	n/a	n/a	-999	25	[0, 0, 0]	n/a	catFR1	1	R1192C
3358.084	0.945	1681430	REC_WORD	5.303	n/a	COUCH	Furniture	5	25	[0, 0, 0]	n/a	catFR1	1	R1192C
3359.029	8.894	1681902	REC_WORD	6.248	n/a	CHAIR	Furniture	6	25	[0, 0, 0]	n/a	catFR1	1	R1192C
3367.923	8.062	1686349	REC_WORD	15.142	n/a	DESK	Furniture	10	25	[0, 0, 0]	n/a	catFR1	1	R1192C
3375.985	6.812	1690380	REC_WORD	23.204	n/a	CHERRY	Fruit	8	25	[0, 0, 0]	n/a	catFR1	1	R1192C
3382.797	8.958	1693786	REC_END	n/a	n/a	n/a	n/a	-999	25	[0, 0, 0]	n/a	catFR1	1	R1192C
3391.755	0.0	1698264	SESS_END	n/a	n/a	n/a	n/a	-999	25	[0, 0, 0]	n/a	catFR1	1	R1192C
