onset	duration	sample	trial_type	response_time	stim_file	item_name	category	serialpos	list	test	answer	experiment	session	subject
0.0	0.0	7491	INSTRUCT_START	n/a	n/a	n/a	n/a	-999	-999	[0, 0, 0]	n/a	catFR1	0	R1174T
0.0	10.949	7491	INSTRUCT_END	n/a	n/a	n/a	n/a	-999	-999	[0, 0, 0]	n/a	catFR1	0	R1174T
10.949	0.0	18439	SESS_START	n/a	n/a	n/a	n/a	-999	-999	[0, 0, 0]	n/a	catFR1	0	R1174T
10.949	28.5	18439	MIC_TEST	n/a	n/a	n/a	n/a	-999	-999	[0, 0, 0]	n/a	catFR1	0	R1174T
39.449	48.567	46938	PRACTICE_TRIAL	n/a	n/a	n/a	n/a	-999	-1	[0, 0, 0]	n/a	catFR1	0	R1174T
88.016	10.428	95502	COUNTDOWN_START	n/a	n/a	n/a	n/a	-999	-1	[0, 0, 0]	n/a	catFR1	0	R1174T
98.444	0.007	105929	COUNTDOWN_END	n/a	n/a	n/a	n/a	-999	-1	[0, 0, 0]	n/a	catFR1	0	R1174T
98.451	1.617	105936	PRACTICE_ORIENT	n/a	n/a	n/a	n/a	-999	-1	[0, 0, 0]	n/a	catFR1	0	R1174T
100.068	1.967	107553	PRACTICE_ORIENT_OFF	n/a	n/a	n/a	n/a	-999	-1	[0, 0, 0]	n/a	catFR1	0	R1174T
102.035	1.617	109520	PRACTICE_WORD	n/a	n/a	CAMEL	n/a	-1	-1	[0, 0, 0]	n/a	catFR1	0	R1174T
103.652	0.884	111137	PRACTICE_WORD_OFF	n/a	n/a	CAMEL	n/a	-999	-1	[0, 0, 0]	n/a	catFR1	0	R1174T
104.536	1.617	112021	PRACTICE_WORD	n/a	n/a	WATCH	n/a	-1	-1	[0, 0, 0]	n/a	catFR1	0	R1174T
106.153	0.917	113638	PRACTICE_WORD_OFF	n/a	n/a	WATCH	n/a	-999	-1	[0, 0, 0]	n/a	catFR1	0	R1174T
107.07	1.616	114555	PRACTICE_WORD	n/a	n/a	RING	n/a	-1	-1	[0, 0, 0]	n/a	catFR1	0	R1174T
108.686	0.984	116171	PRACTICE_WORD_OFF	n/a	n/a	RING	n/a	-999	-1	[0, 0, 0]	n/a	catFR1	0	R1174T
109.67	1.616	117155	PRACTICE_WORD	n/a	n/a	CHEST	n/a	-1	-1	[0, 0, 0]	n/a	catFR1	0	R1174T
111.286	0.951	118770	PRACTICE_WORD_OFF	n/a	n/a	CHEST	n/a	-999	-1	[0, 0, 0]	n/a	catFR1	0	R1174T
112.237	1.617	119721	PRACTICE_WORD	n/a	n/a	TONGUE	n/a	-1	-1	[0, 0, 0]	n/a	catFR1	0	R1174T
113.854	0.834	121338	PRACTICE_WORD_OFF	n/a	n/a	TONGUE	n/a	-999	-1	[0, 0, 0]	n/a	catFR1	0	R1174T
114.688	1.616	122172	PRACTICE_WORD	n/a	n/a	WAGON	n/a	-1	-1	[0, 0, 0]	n/a	catFR1	0	R1174T
116.304	0.934	123788	PRACTICE_WORD_OFF	n/a	n/a	WAGON	n/a	-999	-1	[0, 0, 0]	n/a	catFR1	0	R1174T
117.238	1.617	124722	PRACTICE_WORD	n/a	n/a	COTTON	n/a	-1	-1	[0, 0, 0]	n/a	catFR1	0	R1174T
118.855	0.95	126339	PRACTICE_WORD_OFF	n/a	n/a	COTTON	n/a	-999	-1	[0, 0, 0]	n/a	catFR1	0	R1174T
119.805	1.616	127289	PRACTICE_WORD	n/a	n/a	RHINO	n/a	-1	-1	[0, 0, 0]	n/a	catFR1	0	R1174T
121.421	0.917	128905	PRACTICE_WORD_OFF	n/a	n/a	RHINO	n/a	-999	-1	[0, 0, 0]	n/a	catFR1	0	R1174T
122.338	1.618	129822	PRACTICE_WORD	n/a	n/a	IRON	n/a	-1	-1	[0, 0, 0]	n/a	catFR1	0	R1174T
123.956	0.917	131440	PRACTICE_WORD_OFF	n/a	n/a	IRON	n/a	-999	-1	[0, 0, 0]	n/a	catFR1	0	R1174T
124.873	1.617	132357	PRACTICE_WORD	n/a	n/a	BEAM	n/a	-1	-1	[0, 0, 0]	n/a	catFR1	0	R1174T
126.49	0.767	133974	PRACTICE_WORD_OFF	n/a	n/a	BEAM	n/a	-999	-1	[0, 0, 0]	n/a	catFR1	0	R1174T
127.257	1.616	134741	PRACTICE_WORD	n/a	n/a	ATTIC	n/a	-1	-1	[0, 0, 0]	n/a	catFR1	0	R1174T
128.873	0.917	136356	PRACTICE_WORD_OFF	n/a	n/a	ATTIC	n/a	-999	-1	[0, 0, 0]	n/a	catFR1	0	R1174T
129.79	1.616	137273	PRACTICE_WORD	n/a	n/a	FLOOD	n/a	-1	-1	[0, 0, 0]	n/a	catFR1	0	R1174T
131.406	0.0	138889	ENCODING_END	n/a	n/a	n/a	n/a	-999	-1	[0, 0, 0]	n/a	catFR1	0	R1174T
131.406	0.001	138889	PRACTICE_WORD_OFF	n/a	n/a	FLOOD	n/a	-999	-1	[0, 0, 0]	n/a	catFR1	0	R1174T
131.407	0.0	138890	DISTRACT_START	n/a	n/a	n/a	n/a	-999	-1	[0, 0, 0]	n/a	catFR1	0	R1174T
131.407	0.016	138890	START	n/a	n/a	n/a	n/a	-999	-1	[-999, -999, -999]	n/a	catFR1	0	R1174T
131.423	6.585	138906	PROB	6.558	n/a	n/a	n/a	-999	-1	[5, 6, 8]	19.0	catFR1	0	R1174T
138.008	6.334	145491	PROB	6.309	n/a	n/a	n/a	-999	-1	[8, 1, 1]	10.0	catFR1	0	R1174T
144.342	6.452	151825	PROB	6.415	n/a	n/a	n/a	-999	-1	[9, 7, 6]	22.0	catFR1	0	R1174T
150.794	3.49	158276	PROB	3.49	n/a	n/a	n/a	-999	-1	[1, 4, 3]	8.0	catFR1	0	R1174T
154.284	0.01	161766	STOP	n/a	n/a	n/a	n/a	-999	-1	[-999, -999, -999]	n/a	catFR1	0	R1174T
154.294	0.668	161776	DISTRACT_END	n/a	n/a	n/a	n/a	-999	-1	[0, 0, 0]	n/a	catFR1	0	R1174T
154.962	0.52	162444	RETRIEVAL_ORIENT	n/a	n/a	n/a	n/a	-999	-1	[0, 0, 0]	n/a	catFR1	0	R1174T
155.482	30.009	162964	PRACTICE_REC_START	n/a	n/a	n/a	n/a	-999	-1	[0, 0, 0]	n/a	catFR1	0	R1174T
185.491	47.685	192971	PRACTICE_REC_END	n/a	n/a	n/a	n/a	-999	-1	[0, 0, 0]	n/a	catFR1	0	R1174T
233.176	0.5	240653	TRIAL	n/a	n/a	n/a	n/a	-999	1	[0, 0, 0]	n/a	catFR1	0	R1174T
233.676	10.428	241153	COUNTDOWN_START	n/a	n/a	n/a	n/a	-999	1	[0, 0, 0]	n/a	catFR1	0	R1174T
244.104	0.007	251581	COUNTDOWN_END	n/a	n/a	n/a	n/a	-999	1	[0, 0, 0]	n/a	catFR1	0	R1174T
244.111	1.617	251588	ORIENT	n/a	n/a	n/a	n/a	-999	1	[0, 0, 0]	n/a	catFR1	0	R1174T
245.728	2.117	253205	ORIENT_OFF	n/a	n/a	n/a	n/a	-999	1	[0, 0, 0]	n/a	catFR1	0	R1174T
247.845	1.617	255321	WORD	n/a	wordpools/wordpool_categorized_EN.txt	SHELF	Furniture	1	1	[0, 0, 0]	n/a	catFR1	0	R1174T
249.462	0.866	256938	WORD_OFF	n/a	n/a	SHELF	n/a	1	1	[0, 0, 0]	n/a	catFR1	0	R1174T
250.328	1.618	257804	WORD	n/a	wordpools/wordpool_categorized_EN.txt	BED	Furniture	2	1	[0, 0, 0]	n/a	catFR1	0	R1174T
251.946	0.833	259422	WORD_OFF	n/a	n/a	BED	n/a	2	1	[0, 0, 0]	n/a	catFR1	0	R1174T
252.779	1.616	260255	WORD	n/a	wordpools/wordpool_categorized_EN.txt	WIND	Weather	3	1	[0, 0, 0]	n/a	catFR1	0	R1174T
254.395	0.835	261871	WORD_OFF	n/a	n/a	WIND	n/a	3	1	[0, 0, 0]	n/a	catFR1	0	R1174T
255.23	1.617	262706	WORD	n/a	wordpools/wordpool_categorized_EN.txt	RAIN	Weather	4	1	[0, 0, 0]	n/a	catFR1	0	R1174T
256.847	0.766	264323	WORD_OFF	n/a	n/a	RAIN	n/a	4	1	[0, 0, 0]	n/a	catFR1	0	R1174T
257.613	1.617	265089	WORD	n/a	wordpools/wordpool_categorized_EN.txt	TUBA	Instruments	5	1	[0, 0, 0]	n/a	catFR1	0	R1174T
259.23	0.984	266706	WORD_OFF	n/a	n/a	TUBA	n/a	5	1	[0, 0, 0]	n/a	catFR1	0	R1174T
260.214	1.617	267690	WORD	n/a	wordpools/wordpool_categorized_EN.txt	BASS	Instruments	6	1	[0, 0, 0]	n/a	catFR1	0	R1174T
261.831	0.867	269307	WORD_OFF	n/a	n/a	BASS	n/a	6	1	[0, 0, 0]	n/a	catFR1	0	R1174T
262.698	1.616	270174	WORD	n/a	wordpools/wordpool_categorized_EN.txt	THUNDER	Weather	7	1	[0, 0, 0]	n/a	catFR1	0	R1174T
264.314	0.918	271789	WORD_OFF	n/a	n/a	THUNDER	n/a	7	1	[0, 0, 0]	n/a	catFR1	0	R1174T
265.232	1.617	272707	WORD	n/a	wordpools/wordpool_categorized_EN.txt	CLOUD	Weather	8	1	[0, 0, 0]	n/a	catFR1	0	R1174T
266.849	0.983	274324	WORD_OFF	n/a	n/a	CLOUD	n/a	8	1	[0, 0, 0]	n/a	catFR1	0	R1174T
267.832	1.617	275307	WORD	n/a	wordpools/wordpool_categorized_EN.txt	BOOKCASE	Furniture	9	1	[0, 0, 0]	n/a	catFR1	0	R1174T
269.449	0.899	276924	WORD_OFF	n/a	n/a	BOOKCASE	n/a	9	1	[0, 0, 0]	n/a	catFR1	0	R1174T
270.348	1.601	277823	WORD	n/a	wordpools/wordpool_categorized_EN.txt	COUCH	Furniture	10	1	[0, 0, 0]	n/a	catFR1	0	R1174T
271.949	0.867	279424	WORD_OFF	n/a	n/a	COUCH	n/a	10	1	[0, 0, 0]	n/a	catFR1	0	R1174T
272.816	1.616	280291	WORD	n/a	wordpools/wordpool_categorized_EN.txt	TRUMPET	Instruments	11	1	[0, 0, 0]	n/a	catFR1	0	R1174T
274.432	0.934	281907	WORD_OFF	n/a	n/a	TRUMPET	n/a	11	1	[0, 0, 0]	n/a	catFR1	0	R1174T
275.366	1.618	282841	WORD	n/a	wordpools/wordpool_categorized_EN.txt	DRUM	Instruments	12	1	[0, 0, 0]	n/a	catFR1	0	R1174T
276.984	0.0	284459	ENCODING_END	n/a	n/a	n/a	n/a	-999	1	[0, 0, 0]	n/a	catFR1	0	R1174T
276.984	0.136	284459	WORD_OFF	n/a	n/a	DRUM	n/a	12	1	[0, 0, 0]	n/a	catFR1	0	R1174T
277.12	0.001	284595	DISTRACT_START	n/a	n/a	n/a	n/a	-999	1	[0, 0, 0]	n/a	catFR1	0	R1174T
277.121	0.013	284596	START	n/a	n/a	n/a	n/a	-999	1	[-999, -999, -999]	n/a	catFR1	0	R1174T
277.134	8.068	284609	PROB	8.031	n/a	n/a	n/a	-999	1	[5, 9, 8]	23.0	catFR1	0	R1174T
285.202	6.167	292676	PROB	6.131	n/a	n/a	n/a	-999	1	[7, 3, 7]	17.0	catFR1	0	R1174T
291.369	5.318	298843	PROB	5.284	n/a	n/a	n/a	-999	1	[4, 5, 8]	16.0	catFR1	0	R1174T
296.687	6.086	304160	PROB	6.086	n/a	n/a	n/a	-999	1	[3, 4, 4]	11.0	catFR1	0	R1174T
302.773	0.016	310246	STOP	n/a	n/a	n/a	n/a	-999	1	[-999, -999, -999]	n/a	catFR1	0	R1174T
302.789	0.565	310262	DISTRACT_END	n/a	n/a	n/a	n/a	-999	1	[0, 0, 0]	n/a	catFR1	0	R1174T
303.354	0.518	310827	RETRIEVAL_ORIENT	n/a	n/a	n/a	n/a	-999	1	[0, 0, 0]	n/a	catFR1	0	R1174T
303.872	4.644	311345	REC_START	n/a	n/a	n/a	n/a	-999	1	[0, 0, 0]	n/a	catFR1	0	R1174T
308.516	2.217	315989	REC_WORD	4.644	n/a	SHELF	Furniture	1	1	[0, 0, 0]	n/a	catFR1	0	R1174T
310.733	1.842	318206	REC_WORD	6.861	n/a	BED	Furniture	2	1	[0, 0, 0]	n/a	catFR1	0	R1174T
312.575	0.693	320048	REC_WORD	8.703	n/a	THUNDER	Weather	7	1	[0, 0, 0]	n/a	catFR1	0	R1174T
313.268	0.787	320741	REC_WORD	9.396	n/a	RAIN	Weather	4	1	[0, 0, 0]	n/a	catFR1	0	R1174T
314.055	2.098	321527	REC_WORD	10.183	n/a	CLOUD	Weather	8	1	[0, 0, 0]	n/a	catFR1	0	R1174T
316.153	2.843	323625	REC_WORD	12.281	n/a	TRUMPET	Instruments	11	1	[0, 0, 0]	n/a	catFR1	0	R1174T
318.996	14.887	326468	REC_WORD	15.124	n/a	BASS	Instruments	6	1	[0, 0, 0]	n/a	catFR1	0	R1174T
333.883	9.296	341354	REC_END	n/a	n/a	n/a	n/a	-999	1	[0, 0, 0]	n/a	catFR1	0	R1174T
343.179	0.5	350650	TRIAL	n/a	n/a	n/a	n/a	-999	2	[0, 0, 0]	n/a	catFR1	0	R1174T
343.679	10.428	351150	COUNTDOWN_START	n/a	n/a	n/a	n/a	-999	2	[0, 0, 0]	n/a	catFR1	0	R1174T
354.107	0.007	361577	COUNTDOWN_END	n/a	n/a	n/a	n/a	-999	2	[0, 0, 0]	n/a	catFR1	0	R1174T
354.114	1.617	361584	ORIENT	n/a	n/a	n/a	n/a	-999	2	[0, 0, 0]	n/a	catFR1	0	R1174T
355.731	1.951	363201	ORIENT_OFF	n/a	n/a	n/a	n/a	-999	2	[0, 0, 0]	n/a	catFR1	0	R1174T
357.682	1.616	365152	WORD	n/a	wordpools/wordpool_categorized_EN.txt	WRENCH	Tools	1	2	[0, 0, 0]	n/a	catFR1	0	R1174T
359.298	0.817	366768	WORD_OFF	n/a	n/a	WRENCH	n/a	1	2	[0, 0, 0]	n/a	catFR1	0	R1174T
360.115	1.617	367585	WORD	n/a	wordpools/wordpool_categorized_EN.txt	HAMMER	Tools	2	2	[0, 0, 0]	n/a	catFR1	0	R1174T
361.732	1.001	369202	WORD_OFF	n/a	n/a	HAMMER	n/a	2	2	[0, 0, 0]	n/a	catFR1	0	R1174T
362.733	1.616	370203	WORD	n/a	wordpools/wordpool_categorized_EN.txt	APPLE	Fruit	3	2	[0, 0, 0]	n/a	catFR1	0	R1174T
364.349	0.901	371818	WORD_OFF	n/a	n/a	APPLE	n/a	3	2	[0, 0, 0]	n/a	catFR1	0	R1174T
365.25	1.617	372719	WORD	n/a	wordpools/wordpool_categorized_EN.txt	LIME	Fruit	4	2	[0, 0, 0]	n/a	catFR1	0	R1174T
366.867	0.933	374336	WORD_OFF	n/a	n/a	LIME	n/a	4	2	[0, 0, 0]	n/a	catFR1	0	R1174T
367.8	1.616	375269	WORD	n/a	wordpools/wordpool_categorized_EN.txt	BEER	Beverages	5	2	[0, 0, 0]	n/a	catFR1	0	R1174T
369.416	0.95	376885	WORD_OFF	n/a	n/a	BEER	n/a	5	2	[0, 0, 0]	n/a	catFR1	0	R1174T
370.366	1.618	377835	WORD	n/a	wordpools/wordpool_categorized_EN.txt	LEMONADE	Beverages	6	2	[0, 0, 0]	n/a	catFR1	0	R1174T
371.984	0.95	379453	WORD_OFF	n/a	n/a	LEMONADE	n/a	6	2	[0, 0, 0]	n/a	catFR1	0	R1174T
372.934	1.617	380403	WORD	n/a	wordpools/wordpool_categorized_EN.txt	STRAWBERRY	Fruit	7	2	[0, 0, 0]	n/a	catFR1	0	R1174T
374.551	0.783	382020	WORD_OFF	n/a	n/a	STRAWBERRY	n/a	7	2	[0, 0, 0]	n/a	catFR1	0	R1174T
375.334	1.618	382803	WORD	n/a	wordpools/wordpool_categorized_EN.txt	CHERRY	Fruit	8	2	[0, 0, 0]	n/a	catFR1	0	R1174T
376.952	0.883	384421	WORD_OFF	n/a	n/a	CHERRY	n/a	8	2	[0, 0, 0]	n/a	catFR1	0	R1174T
377.835	1.617	385304	WORD	n/a	wordpools/wordpool_categorized_EN.txt	SCREWDRIVER	Tools	9	2	[0, 0, 0]	n/a	catFR1	0	R1174T
379.452	0.966	386921	WORD_OFF	n/a	n/a	SCREWDRIVER	n/a	9	2	[0, 0, 0]	n/a	catFR1	0	R1174T
380.418	1.618	387887	WORD	n/a	wordpools/wordpool_categorized_EN.txt	CROWBAR	Tools	10	2	[0, 0, 0]	n/a	catFR1	0	R1174T
382.036	0.917	389504	WORD_OFF	n/a	n/a	CROWBAR	n/a	10	2	[0, 0, 0]	n/a	catFR1	0	R1174T
382.953	1.617	390421	WORD	n/a	wordpools/wordpool_categorized_EN.txt	TEA	Beverages	11	2	[0, 0, 0]	n/a	catFR1	0	R1174T
384.57	0.967	392038	WORD_OFF	n/a	n/a	TEA	n/a	11	2	[0, 0, 0]	n/a	catFR1	0	R1174T
385.537	1.617	393005	WORD	n/a	wordpools/wordpool_categorized_EN.txt	WINE	Beverages	12	2	[0, 0, 0]	n/a	catFR1	0	R1174T
387.154	0.0	394622	WORD_OFF	n/a	n/a	WINE	n/a	12	2	[0, 0, 0]	n/a	catFR1	0	R1174T
387.154	0.103	394622	ENCODING_END	n/a	n/a	n/a	n/a	-999	2	[0, 0, 0]	n/a	catFR1	0	R1174T
387.257	0.0	394725	DISTRACT_START	n/a	n/a	n/a	n/a	-999	2	[0, 0, 0]	n/a	catFR1	0	R1174T
387.257	0.012	394725	START	n/a	n/a	n/a	n/a	-999	2	[-999, -999, -999]	n/a	catFR1	0	R1174T
387.269	14.737	394737	PROB	14.713	n/a	n/a	n/a	-999	2	[6, 7, 9]	22.0	catFR1	0	R1174T
402.006	14.008	409473	PROB	14.008	n/a	n/a	n/a	-999	2	[7, 8, 5]	2.0	catFR1	0	R1174T
416.014	0.012	423480	STOP	n/a	n/a	n/a	n/a	-999	2	[-999, -999, -999]	n/a	catFR1	0	R1174T
416.026	0.55	423492	DISTRACT_END	n/a	n/a	n/a	n/a	-999	2	[0, 0, 0]	n/a	catFR1	0	R1174T
416.576	0.517	424042	RETRIEVAL_ORIENT	n/a	n/a	n/a	n/a	-999	2	[0, 0, 0]	n/a	catFR1	0	R1174T
417.093	6.821	424559	REC_START	n/a	n/a	n/a	n/a	-999	2	[0, 0, 0]	n/a	catFR1	0	R1174T
423.914	2.429	431380	REC_WORD	6.821	n/a	SCREWDRIVER	Tools	9	2	[0, 0, 0]	n/a	catFR1	0	R1174T
426.343	2.812	433809	REC_WORD	9.25	n/a	WRENCH	Tools	1	2	[0, 0, 0]	n/a	catFR1	0	R1174T
429.155	2.842	436621	REC_WORD	12.062	n/a	STRAWBERRY	Fruit	7	2	[0, 0, 0]	n/a	catFR1	0	R1174T
431.997	0.956	439462	REC_WORD	14.904	n/a	LEMONADE	Beverages	6	2	[0, 0, 0]	n/a	catFR1	0	R1174T
432.953	0.387	440418	REC_WORD	15.86	n/a	BEER	Beverages	5	2	[0, 0, 0]	n/a	catFR1	0	R1174T
433.34	9.535	440805	REC_WORD	16.247	n/a	WINE	Beverages	12	2	[0, 0, 0]	n/a	catFR1	0	R1174T
442.875	4.227	450340	REC_WORD	25.782	n/a	TEA	Beverages	11	2	[0, 0, 0]	n/a	catFR1	0	R1174T
447.102	237.556	454567	REC_END	n/a	n/a	n/a	n/a	-999	2	[0, 0, 0]	n/a	catFR1	0	R1174T
684.658	0.5	692109	TRIAL	n/a	n/a	n/a	n/a	-999	3	[0, 0, 0]	n/a	catFR1	0	R1174T
685.158	10.428	692608	COUNTDOWN_START	n/a	n/a	n/a	n/a	-999	3	[0, 0, 0]	n/a	catFR1	0	R1174T
695.586	0.007	703036	COUNTDOWN_END	n/a	n/a	n/a	n/a	-999	3	[0, 0, 0]	n/a	catFR1	0	R1174T
695.593	1.617	703043	ORIENT	n/a	n/a	n/a	n/a	-999	3	[0, 0, 0]	n/a	catFR1	0	R1174T
697.21	1.883	704660	ORIENT_OFF	n/a	n/a	n/a	n/a	-999	3	[0, 0, 0]	n/a	catFR1	0	R1174T
699.093	1.618	706543	WORD	n/a	wordpools/wordpool_categorized_EN.txt	CREEK	Landscapes	1	3	[0, 0, 0]	n/a	catFR1	0	R1174T
700.711	0.983	708161	WORD_OFF	n/a	n/a	CREEK	n/a	1	3	[0, 0, 0]	n/a	catFR1	0	R1174T
701.694	1.616	709144	WORD	n/a	wordpools/wordpool_categorized_EN.txt	WOODS	Landscapes	2	3	[0, 0, 0]	n/a	catFR1	0	R1174T
703.31	1.017	710759	WORD_OFF	n/a	n/a	WOODS	n/a	2	3	[0, 0, 0]	n/a	catFR1	0	R1174T
704.327	1.618	711776	WORD	n/a	wordpools/wordpool_categorized_EN.txt	FOUNDATION	Building	3	3	[0, 0, 0]	n/a	catFR1	0	R1174T
705.945	0.967	713394	WORD_OFF	n/a	n/a	FOUNDATION	n/a	3	3	[0, 0, 0]	n/a	catFR1	0	R1174T
706.912	1.617	714361	WORD	n/a	wordpools/wordpool_categorized_EN.txt	WALL	Building	4	3	[0, 0, 0]	n/a	catFR1	0	R1174T
708.529	0.899	715978	WORD_OFF	n/a	n/a	WALL	n/a	4	3	[0, 0, 0]	n/a	catFR1	0	R1174T
709.428	1.601	716877	WORD	n/a	wordpools/wordpool_categorized_EN.txt	ELEPHANT	Zoo	5	3	[0, 0, 0]	n/a	catFR1	0	R1174T
711.029	1.0	718478	WORD_OFF	n/a	n/a	ELEPHANT	n/a	5	3	[0, 0, 0]	n/a	catFR1	0	R1174T
712.029	1.617	719478	WORD	n/a	wordpools/wordpool_categorized_EN.txt	CHIMPANZEE	Zoo	6	3	[0, 0, 0]	n/a	catFR1	0	R1174T
713.646	0.951	721095	WORD_OFF	n/a	n/a	CHIMPANZEE	n/a	6	3	[0, 0, 0]	n/a	catFR1	0	R1174T
714.597	1.617	722046	WORD	n/a	wordpools/wordpool_categorized_EN.txt	CEILING	Building	7	3	[0, 0, 0]	n/a	catFR1	0	R1174T
716.214	0.8	723663	WORD_OFF	n/a	n/a	CEILING	n/a	7	3	[0, 0, 0]	n/a	catFR1	0	R1174T
717.014	1.617	724463	WORD	n/a	wordpools/wordpool_categorized_EN.txt	BATHROOM	Building	8	3	[0, 0, 0]	n/a	catFR1	0	R1174T
718.631	0.933	726079	WORD_OFF	n/a	n/a	BATHROOM	n/a	8	3	[0, 0, 0]	n/a	catFR1	0	R1174T
719.564	1.617	727012	WORD	n/a	wordpools/wordpool_categorized_EN.txt	LAKE	Landscapes	9	3	[0, 0, 0]	n/a	catFR1	0	R1174T
721.181	1.0	728629	WORD_OFF	n/a	n/a	LAKE	n/a	9	3	[0, 0, 0]	n/a	catFR1	0	R1174T
722.181	1.617	729629	WORD	n/a	wordpools/wordpool_categorized_EN.txt	HILLS	Landscapes	10	3	[0, 0, 0]	n/a	catFR1	0	R1174T
723.798	0.967	731246	WORD_OFF	n/a	n/a	HILLS	n/a	10	3	[0, 0, 0]	n/a	catFR1	0	R1174T
724.765	1.616	732213	WORD	n/a	wordpools/wordpool_categorized_EN.txt	ZEBRA	Zoo	11	3	[0, 0, 0]	n/a	catFR1	0	R1174T
726.381	0.967	733829	WORD_OFF	n/a	n/a	ZEBRA	n/a	11	3	[0, 0, 0]	n/a	catFR1	0	R1174T
727.348	1.618	734796	WORD	n/a	wordpools/wordpool_categorized_EN.txt	GIRAFFE	Zoo	12	3	[0, 0, 0]	n/a	catFR1	0	R1174T
728.966	0.0	736414	ENCODING_END	n/a	n/a	n/a	n/a	-999	3	[0, 0, 0]	n/a	catFR1	0	R1174T
728.966	0.102	736414	WORD_OFF	n/a	n/a	GIRAFFE	n/a	12	3	[0, 0, 0]	n/a	catFR1	0	R1174T
729.068	0.0	736516	DISTRACT_START	n/a	n/a	n/a	n/a	-999	3	[0, 0, 0]	n/a	catFR1	0	R1174T
729.068	0.015	736516	START	n/a	n/a	n/a	n/a	-999	3	[-999, -999, -999]	n/a	catFR1	0	R1174T
729.083	6.801	736531	PROB	6.763	n/a	n/a	n/a	-999	3	[5, 1, 8]	14.0	catFR1	0	R1174T
735.884	4.466	743331	PROB	4.441	n/a	n/a	n/a	-999	3	[5, 3, 1]	9.0	catFR1	0	R1174T
740.35	5.169	747797	PROB	5.143	n/a	n/a	n/a	-999	3	[8, 2, 9]	9.0	catFR1	0	R1174T
745.519	4.398	752966	PROB	4.398	n/a	n/a	n/a	-999	3	[3, 1, 9]	13.0	catFR1	0	R1174T
749.917	0.02	757364	STOP	n/a	n/a	n/a	n/a	-999	3	[-999, -999, -999]	n/a	catFR1	0	R1174T
749.937	0.583	757384	DISTRACT_END	n/a	n/a	n/a	n/a	-999	3	[0, 0, 0]	n/a	catFR1	0	R1174T
750.52	0.517	757967	RETRIEVAL_ORIENT	n/a	n/a	n/a	n/a	-999	3	[0, 0, 0]	n/a	catFR1	0	R1174T
751.037	5.039	758484	REC_START	n/a	n/a	n/a	n/a	-999	3	[0, 0, 0]	n/a	catFR1	0	R1174T
756.076	3.075	763522	REC_WORD	5.039	n/a	CHIMPANZEE	Zoo	6	3	[0, 0, 0]	n/a	catFR1	0	R1174T
759.151	1.869	766597	REC_WORD	8.114	n/a	ZEBRA	Zoo	11	3	[0, 0, 0]	n/a	catFR1	0	R1174T
761.02	3.729	768466	REC_WORD	9.983	n/a	GIRAFFE	Zoo	12	3	[0, 0, 0]	n/a	catFR1	0	R1174T
764.749	2.943	772195	REC_WORD	13.712	n/a	LAKE	Landscapes	9	3	[0, 0, 0]	n/a	catFR1	0	R1174T
767.692	1.966	775138	REC_WORD	16.655	n/a	TREE	n/a	-999	3	[0, 0, 0]	n/a	catFR1	0	R1174T
769.658	2.964	777103	REC_WORD	18.621	n/a	CREEK	Landscapes	1	3	[0, 0, 0]	n/a	catFR1	0	R1174T
772.622	8.426	780067	REC_WORD	21.585	n/a	HILLS	Landscapes	10	3	[0, 0, 0]	n/a	catFR1	0	R1174T
781.048	7.862	788493	REC_END	n/a	n/a	n/a	n/a	-999	3	[0, 0, 0]	n/a	catFR1	0	R1174T
788.91	0.5	796354	TRIAL	n/a	n/a	n/a	n/a	-999	4	[0, 0, 0]	n/a	catFR1	0	R1174T
789.41	10.428	796854	COUNTDOWN_START	n/a	n/a	n/a	n/a	-999	4	[0, 0, 0]	n/a	catFR1	0	R1174T
799.838	0.007	807282	COUNTDOWN_END	n/a	n/a	n/a	n/a	-999	4	[0, 0, 0]	n/a	catFR1	0	R1174T
799.845	1.618	807289	ORIENT	n/a	n/a	n/a	n/a	-999	4	[0, 0, 0]	n/a	catFR1	0	R1174T
801.463	2.183	808907	ORIENT_OFF	n/a	n/a	n/a	n/a	-999	4	[0, 0, 0]	n/a	catFR1	0	R1174T
803.646	1.616	811089	WORD	n/a	wordpools/wordpool_categorized_EN.txt	LIGHTNING	Weather	1	4	[0, 0, 0]	n/a	catFR1	0	R1174T
805.262	0.785	812705	WORD_OFF	n/a	n/a	LIGHTNING	n/a	1	4	[0, 0, 0]	n/a	catFR1	0	R1174T
806.047	1.617	813490	WORD	n/a	wordpools/wordpool_categorized_EN.txt	DRIZZLE	Weather	2	4	[0, 0, 0]	n/a	catFR1	0	R1174T
807.664	0.933	815107	WORD_OFF	n/a	n/a	DRIZZLE	n/a	2	4	[0, 0, 0]	n/a	catFR1	0	R1174T
808.597	1.617	816040	WORD	n/a	wordpools/wordpool_categorized_EN.txt	SUNFLOWER	Flowers	3	4	[0, 0, 0]	n/a	catFR1	0	R1174T
810.214	0.967	817657	WORD_OFF	n/a	n/a	SUNFLOWER	n/a	3	4	[0, 0, 0]	n/a	catFR1	0	R1174T
811.181	1.617	818624	WORD	n/a	wordpools/wordpool_categorized_EN.txt	LILAC	Flowers	4	4	[0, 0, 0]	n/a	catFR1	0	R1174T
812.798	0.9	820241	WORD_OFF	n/a	n/a	LILAC	n/a	4	4	[0, 0, 0]	n/a	catFR1	0	R1174T
813.698	1.616	821141	WORD	n/a	wordpools/wordpool_categorized_EN.txt	PHONE	Electronics	5	4	[0, 0, 0]	n/a	catFR1	0	R1174T
815.314	0.884	822757	WORD_OFF	n/a	n/a	PHONE	n/a	5	4	[0, 0, 0]	n/a	catFR1	0	R1174T
816.198	1.617	823641	WORD	n/a	wordpools/wordpool_categorized_EN.txt	SCANNER	Electronics	6	4	[0, 0, 0]	n/a	catFR1	0	R1174T
817.815	0.917	825258	WORD_OFF	n/a	n/a	SCANNER	n/a	6	4	[0, 0, 0]	n/a	catFR1	0	R1174T
818.732	1.616	826175	WORD	n/a	wordpools/wordpool_categorized_EN.txt	THUNDERSTORM	Weather	7	4	[0, 0, 0]	n/a	catFR1	0	R1174T
820.348	0.967	827790	WORD_OFF	n/a	n/a	THUNDERSTORM	n/a	7	4	[0, 0, 0]	n/a	catFR1	0	R1174T
821.315	1.618	828757	WORD	n/a	wordpools/wordpool_categorized_EN.txt	HUMIDITY	Weather	8	4	[0, 0, 0]	n/a	catFR1	0	R1174T
822.933	0.85	830375	WORD_OFF	n/a	n/a	HUMIDITY	n/a	8	4	[0, 0, 0]	n/a	catFR1	0	R1174T
823.783	1.616	831225	WORD	n/a	wordpools/wordpool_categorized_EN.txt	LILY	Flowers	9	4	[0, 0, 0]	n/a	catFR1	0	R1174T
825.399	0.984	832841	WORD_OFF	n/a	n/a	LILY	n/a	9	4	[0, 0, 0]	n/a	catFR1	0	R1174T
826.383	1.618	833825	WORD	n/a	wordpools/wordpool_categorized_EN.txt	PETUNIA	Flowers	10	4	[0, 0, 0]	n/a	catFR1	0	R1174T
828.001	0.983	835443	WORD_OFF	n/a	n/a	PETUNIA	n/a	10	4	[0, 0, 0]	n/a	catFR1	0	R1174T
828.984	1.617	836426	WORD	n/a	wordpools/wordpool_categorized_EN.txt	TELEVISION	Electronics	11	4	[0, 0, 0]	n/a	catFR1	0	R1174T
830.601	0.85	838043	WORD_OFF	n/a	n/a	TELEVISION	n/a	11	4	[0, 0, 0]	n/a	catFR1	0	R1174T
831.451	1.617	838893	WORD	n/a	wordpools/wordpool_categorized_EN.txt	MICROWAVE	Electronics	12	4	[0, 0, 0]	n/a	catFR1	0	R1174T
833.068	0.0	840510	ENCODING_END	n/a	n/a	n/a	n/a	-999	4	[0, 0, 0]	n/a	catFR1	0	R1174T
833.068	0.136	840510	WORD_OFF	n/a	n/a	MICROWAVE	n/a	12	4	[0, 0, 0]	n/a	catFR1	0	R1174T
833.204	0.0	840646	DISTRACT_START	n/a	n/a	n/a	n/a	-999	4	[0, 0, 0]	n/a	catFR1	0	R1174T
833.204	0.014	840646	START	n/a	n/a	n/a	n/a	-999	4	[-999, -999, -999]	n/a	catFR1	0	R1174T
833.218	4.418	840660	PROB	4.387	n/a	n/a	n/a	-999	4	[3, 1, 1]	5.0	catFR1	0	R1174T
837.636	6.001	845077	PROB	5.969	n/a	n/a	n/a	-999	4	[8, 3, 4]	15.0	catFR1	0	R1174T
843.637	5.951	851078	PROB	5.921	n/a	n/a	n/a	-999	4	[3, 9, 4]	16.0	catFR1	0	R1174T
849.588	5.481	857029	PROB	5.481	n/a	n/a	n/a	-999	4	[3, 1, 6]	10.0	catFR1	0	R1174T
855.069	0.02	862509	STOP	n/a	n/a	n/a	n/a	-999	4	[-999, -999, -999]	n/a	catFR1	0	R1174T
855.089	0.65	862529	DISTRACT_END	n/a	n/a	n/a	n/a	-999	4	[0, 0, 0]	n/a	catFR1	0	R1174T
855.739	0.517	863179	RETRIEVAL_ORIENT	n/a	n/a	n/a	n/a	-999	4	[0, 0, 0]	n/a	catFR1	0	R1174T
856.256	3.098	863696	REC_START	n/a	n/a	n/a	n/a	-999	4	[0, 0, 0]	n/a	catFR1	0	R1174T
859.354	2.493	866794	REC_WORD	3.098	n/a	DRIZZLE	Weather	2	4	[0, 0, 0]	n/a	catFR1	0	R1174T
861.847	2.785	869287	REC_WORD	5.591	n/a	THUNDERSTORM	Weather	7	4	[0, 0, 0]	n/a	catFR1	0	R1174T
864.632	8.08	872072	REC_WORD	8.376	n/a	LIGHTNING	Weather	1	4	[0, 0, 0]	n/a	catFR1	0	R1174T
872.712	2.172	880151	REC_WORD	16.456	n/a	TELEVISION	Electronics	11	4	[0, 0, 0]	n/a	catFR1	0	R1174T
874.884	3.007	882323	REC_WORD	18.628	n/a	MICROWAVE	Electronics	12	4	[0, 0, 0]	n/a	catFR1	0	R1174T
877.891	6.592	885330	REC_WORD	21.635	n/a	SUNFLOWER	Flowers	3	4	[0, 0, 0]	n/a	catFR1	0	R1174T
884.483	1.784	891922	REC_WORD	28.227	n/a	LILY	Flowers	9	4	[0, 0, 0]	n/a	catFR1	0	R1174T
886.267	10.63	893706	REC_END	n/a	n/a	n/a	n/a	-999	4	[0, 0, 0]	n/a	catFR1	0	R1174T
896.897	0.5	904335	TRIAL	n/a	n/a	n/a	n/a	-999	5	[0, 0, 0]	n/a	catFR1	0	R1174T
897.397	10.428	904835	COUNTDOWN_START	n/a	n/a	n/a	n/a	-999	5	[0, 0, 0]	n/a	catFR1	0	R1174T
907.825	0.007	915262	COUNTDOWN_END	n/a	n/a	n/a	n/a	-999	5	[0, 0, 0]	n/a	catFR1	0	R1174T
907.832	1.617	915269	ORIENT	n/a	n/a	n/a	n/a	-999	5	[0, 0, 0]	n/a	catFR1	0	R1174T
909.449	2.133	916886	ORIENT_OFF	n/a	n/a	n/a	n/a	-999	5	[0, 0, 0]	n/a	catFR1	0	R1174T
911.582	1.617	919019	WORD	n/a	wordpools/wordpool_categorized_EN.txt	ANT	Insects	1	5	[0, 0, 0]	n/a	catFR1	0	R1174T
913.199	0.984	920636	WORD_OFF	n/a	n/a	ANT	n/a	1	5	[0, 0, 0]	n/a	catFR1	0	R1174T
914.183	1.617	921620	WORD	n/a	wordpools/wordpool_categorized_EN.txt	MOSQUITO	Insects	2	5	[0, 0, 0]	n/a	catFR1	0	R1174T
915.8	0.917	923237	WORD_OFF	n/a	n/a	MOSQUITO	n/a	2	5	[0, 0, 0]	n/a	catFR1	0	R1174T
916.717	1.616	924154	WORD	n/a	wordpools/wordpool_categorized_EN.txt	NIGHTSTAND	Furniture	3	5	[0, 0, 0]	n/a	catFR1	0	R1174T
918.333	0.901	925770	WORD_OFF	n/a	n/a	NIGHTSTAND	n/a	3	5	[0, 0, 0]	n/a	catFR1	0	R1174T
919.234	1.617	926671	WORD	n/a	wordpools/wordpool_categorized_EN.txt	DRESSER	Furniture	4	5	[0, 0, 0]	n/a	catFR1	0	R1174T
920.851	0.817	928288	WORD_OFF	n/a	n/a	DRESSER	n/a	4	5	[0, 0, 0]	n/a	catFR1	0	R1174T
921.668	1.616	929104	WORD	n/a	wordpools/wordpool_categorized_EN.txt	ROBIN	Birds	5	5	[0, 0, 0]	n/a	catFR1	0	R1174T
923.284	0.884	930720	WORD_OFF	n/a	n/a	ROBIN	n/a	5	5	[0, 0, 0]	n/a	catFR1	0	R1174T
924.168	1.617	931604	WORD	n/a	wordpools/wordpool_categorized_EN.txt	HAWK	Birds	6	5	[0, 0, 0]	n/a	catFR1	0	R1174T
925.785	0.917	933221	WORD_OFF	n/a	n/a	HAWK	n/a	6	5	[0, 0, 0]	n/a	catFR1	0	R1174T
926.702	1.616	934138	WORD	n/a	wordpools/wordpool_categorized_EN.txt	SOFA	Furniture	7	5	[0, 0, 0]	n/a	catFR1	0	R1174T
928.318	0.801	935754	WORD_OFF	n/a	n/a	SOFA	n/a	7	5	[0, 0, 0]	n/a	catFR1	0	R1174T
929.119	1.617	936555	WORD	n/a	wordpools/wordpool_categorized_EN.txt	CABINET	Furniture	8	5	[0, 0, 0]	n/a	catFR1	0	R1174T
930.736	0.967	938172	WORD_OFF	n/a	n/a	CABINET	n/a	8	5	[0, 0, 0]	n/a	catFR1	0	R1174T
931.703	1.616	939139	WORD	n/a	wordpools/wordpool_categorized_EN.txt	CRICKET	Insects	9	5	[0, 0, 0]	n/a	catFR1	0	R1174T
933.319	0.884	940755	WORD_OFF	n/a	n/a	CRICKET	n/a	9	5	[0, 0, 0]	n/a	catFR1	0	R1174T
934.203	1.617	941639	WORD	n/a	wordpools/wordpool_categorized_EN.txt	ROACH	Insects	10	5	[0, 0, 0]	n/a	catFR1	0	R1174T
935.82	0.884	943256	WORD_OFF	n/a	n/a	ROACH	n/a	10	5	[0, 0, 0]	n/a	catFR1	0	R1174T
936.704	1.616	944140	WORD	n/a	wordpools/wordpool_categorized_EN.txt	CARDINAL	Birds	11	5	[0, 0, 0]	n/a	catFR1	0	R1174T
938.32	0.967	945755	WORD_OFF	n/a	n/a	CARDINAL	n/a	11	5	[0, 0, 0]	n/a	catFR1	0	R1174T
939.287	1.618	946722	WORD	n/a	wordpools/wordpool_categorized_EN.txt	CROW	Birds	12	5	[0, 0, 0]	n/a	catFR1	0	R1174T
940.905	0.0	948340	WORD_OFF	n/a	n/a	CROW	n/a	12	5	[0, 0, 0]	n/a	catFR1	0	R1174T
940.905	0.103	948340	ENCODING_END	n/a	n/a	n/a	n/a	-999	5	[0, 0, 0]	n/a	catFR1	0	R1174T
941.008	0.001	948443	DISTRACT_START	n/a	n/a	n/a	n/a	-999	5	[0, 0, 0]	n/a	catFR1	0	R1174T
941.009	0.012	948444	START	n/a	n/a	n/a	n/a	-999	5	[-999, -999, -999]	n/a	catFR1	0	R1174T
941.021	7.668	948456	PROB	7.633	n/a	n/a	n/a	-999	5	[3, 4, 8]	15.0	catFR1	0	R1174T
948.689	11.502	956124	PROB	11.476	n/a	n/a	n/a	-999	5	[6, 6, 5]	17.0	catFR1	0	R1174T
960.191	6.415	967625	PROB	6.415	n/a	n/a	n/a	-999	5	[5, 9, 7]	21.0	catFR1	0	R1174T
966.606	0.02	974040	STOP	n/a	n/a	n/a	n/a	-999	5	[-999, -999, -999]	n/a	catFR1	0	R1174T
966.626	0.517	974060	DISTRACT_END	n/a	n/a	n/a	n/a	-999	5	[0, 0, 0]	n/a	catFR1	0	R1174T
967.143	0.517	974577	RETRIEVAL_ORIENT	n/a	n/a	n/a	n/a	-999	5	[0, 0, 0]	n/a	catFR1	0	R1174T
967.66	4.835	975094	REC_START	n/a	n/a	n/a	n/a	-999	5	[0, 0, 0]	n/a	catFR1	0	R1174T
972.495	1.623	979928	REC_WORD	4.835	n/a	SOFA	Furniture	7	5	[0, 0, 0]	n/a	catFR1	0	R1174T
974.118	3.902	981551	REC_WORD	6.458	n/a	NIGHTSTAND	Furniture	3	5	[0, 0, 0]	n/a	catFR1	0	R1174T
978.02	19.65	985453	REC_WORD	10.36	n/a	ANT	Insects	1	5	[0, 0, 0]	n/a	catFR1	0	R1174T
997.67	7.013	1005102	REC_END	n/a	n/a	n/a	n/a	-999	5	[0, 0, 0]	n/a	catFR1	0	R1174T
1004.683	0.5	1012115	TRIAL	n/a	n/a	n/a	n/a	-999	6	[0, 0, 0]	n/a	catFR1	0	R1174T
1005.183	10.428	1012615	COUNTDOWN_START	n/a	n/a	n/a	n/a	-999	6	[0, 0, 0]	n/a	catFR1	0	R1174T
1015.611	0.007	1023042	COUNTDOWN_END	n/a	n/a	n/a	n/a	-999	6	[0, 0, 0]	n/a	catFR1	0	R1174T
1015.618	1.617	1023049	ORIENT	n/a	n/a	n/a	n/a	-999	6	[0, 0, 0]	n/a	catFR1	0	R1174T
1017.235	1.967	1024666	ORIENT_OFF	n/a	n/a	n/a	n/a	-999	6	[0, 0, 0]	n/a	catFR1	0	R1174T
1019.202	1.617	1026633	WORD	n/a	wordpools/wordpool_categorized_EN.txt	MOPED	Vehicles	1	6	[0, 0, 0]	n/a	catFR1	0	R1174T
1020.819	0.867	1028250	WORD_OFF	n/a	n/a	MOPED	n/a	1	6	[0, 0, 0]	n/a	catFR1	0	R1174T
1021.686	1.616	1029117	WORD	n/a	wordpools/wordpool_categorized_EN.txt	TRAIN	Vehicles	2	6	[0, 0, 0]	n/a	catFR1	0	R1174T
1023.302	0.918	1030732	WORD_OFF	n/a	n/a	TRAIN	n/a	2	6	[0, 0, 0]	n/a	catFR1	0	R1174T
1024.22	1.617	1031650	WORD	n/a	wordpools/wordpool_categorized_EN.txt	TABLE	Furniture	3	6	[0, 0, 0]	n/a	catFR1	0	R1174T
1025.837	0.766	1033267	WORD_OFF	n/a	n/a	TABLE	n/a	3	6	[0, 0, 0]	n/a	catFR1	0	R1174T
1026.603	1.617	1034033	WORD	n/a	wordpools/wordpool_categorized_EN.txt	CHAIR	Furniture	4	6	[0, 0, 0]	n/a	catFR1	0	R1174T
1028.22	0.867	1035650	WORD_OFF	n/a	n/a	CHAIR	n/a	4	6	[0, 0, 0]	n/a	catFR1	0	R1174T
1029.087	1.617	1036517	WORD	n/a	wordpools/wordpool_categorized_EN.txt	PANTS	Clothing	5	6	[0, 0, 0]	n/a	catFR1	0	R1174T
1030.704	0.984	1038134	WORD_OFF	n/a	n/a	PANTS	n/a	5	6	[0, 0, 0]	n/a	catFR1	0	R1174T
1031.688	1.616	1039118	WORD	n/a	wordpools/wordpool_categorized_EN.txt	DRESS	Clothing	6	6	[0, 0, 0]	n/a	catFR1	0	R1174T
1033.304	0.951	1040734	WORD_OFF	n/a	n/a	DRESS	n/a	6	6	[0, 0, 0]	n/a	catFR1	0	R1174T
1034.255	1.617	1041685	WORD	n/a	wordpools/wordpool_categorized_EN.txt	SCOOTER	Vehicles	7	6	[0, 0, 0]	n/a	catFR1	0	R1174T
1035.872	0.983	1043302	WORD_OFF	n/a	n/a	SCOOTER	n/a	7	6	[0, 0, 0]	n/a	catFR1	0	R1174T
1036.855	1.617	1044285	WORD	n/a	wordpools/wordpool_categorized_EN.txt	TRUCK	Vehicles	8	6	[0, 0, 0]	n/a	catFR1	0	R1174T
1038.472	0.866	1045902	WORD_OFF	n/a	n/a	TRUCK	n/a	8	6	[0, 0, 0]	n/a	catFR1	0	R1174T
1039.338	1.601	1046768	WORD	n/a	wordpools/wordpool_categorized_EN.txt	RECLINER	Furniture	9	6	[0, 0, 0]	n/a	catFR1	0	R1174T
1040.939	0.801	1048368	WORD_OFF	n/a	n/a	RECLINER	n/a	9	6	[0, 0, 0]	n/a	catFR1	0	R1174T
1041.74	1.616	1049169	WORD	n/a	wordpools/wordpool_categorized_EN.txt	DESK	Furniture	10	6	[0, 0, 0]	n/a	catFR1	0	R1174T
1043.356	0.817	1050785	WORD_OFF	n/a	n/a	DESK	n/a	10	6	[0, 0, 0]	n/a	catFR1	0	R1174T
1044.173	1.617	1051602	WORD	n/a	wordpools/wordpool_categorized_EN.txt	JACKET	Clothing	11	6	[0, 0, 0]	n/a	catFR1	0	R1174T
1045.79	0.784	1053219	WORD_OFF	n/a	n/a	JACKET	n/a	11	6	[0, 0, 0]	n/a	catFR1	0	R1174T
1046.574	1.617	1054003	WORD	n/a	wordpools/wordpool_categorized_EN.txt	SKIRT	Clothing	12	6	[0, 0, 0]	n/a	catFR1	0	R1174T
1048.191	0.0	1055620	ENCODING_END	n/a	n/a	n/a	n/a	-999	6	[0, 0, 0]	n/a	catFR1	0	R1174T
1048.191	0.1	1055620	WORD_OFF	n/a	n/a	SKIRT	n/a	12	6	[0, 0, 0]	n/a	catFR1	0	R1174T
1048.291	0.0	1055720	DISTRACT_START	n/a	n/a	n/a	n/a	-999	6	[0, 0, 0]	n/a	catFR1	0	R1174T
1048.291	0.015	1055720	START	n/a	n/a	n/a	n/a	-999	6	[-999, -999, -999]	n/a	catFR1	0	R1174T
1048.306	5.802	1055735	PROB	5.78	n/a	n/a	n/a	-999	6	[7, 8, 2]	17.0	catFR1	0	R1174T
1054.108	4.335	1061537	PROB	4.296	n/a	n/a	n/a	-999	6	[9, 1, 6]	16.0	catFR1	0	R1174T
1058.443	3.65	1065871	PROB	3.626	n/a	n/a	n/a	-999	6	[2, 9, 1]	12.0	catFR1	0	R1174T
1062.093	7.361	1069521	PROB	7.361	n/a	n/a	n/a	-999	6	[2, 8, 9]	19.0	catFR1	0	R1174T
1069.454	0.008	1076882	STOP	n/a	n/a	n/a	n/a	-999	6	[-999, -999, -999]	n/a	catFR1	0	R1174T
1069.462	0.583	1076890	DISTRACT_END	n/a	n/a	n/a	n/a	-999	6	[0, 0, 0]	n/a	catFR1	0	R1174T
1070.045	0.517	1077473	RETRIEVAL_ORIENT	n/a	n/a	n/a	n/a	-999	6	[0, 0, 0]	n/a	catFR1	0	R1174T
1070.562	5.155	1077990	REC_START	n/a	n/a	n/a	n/a	-999	6	[0, 0, 0]	n/a	catFR1	0	R1174T
1075.717	1.685	1083144	REC_WORD	5.155	n/a	DRESS	Clothing	6	6	[0, 0, 0]	n/a	catFR1	0	R1174T
1077.402	0.733	1084829	REC_WORD	6.84	n/a	PANTS	Clothing	5	6	[0, 0, 0]	n/a	catFR1	0	R1174T
1078.135	18.698	1085562	REC_WORD	7.573	n/a	SKIRT	Clothing	12	6	[0, 0, 0]	n/a	catFR1	0	R1174T
1096.833	3.74	1104259	REC_WORD	26.271	n/a	DESK	Furniture	10	6	[0, 0, 0]	n/a	catFR1	0	R1174T
1100.573	6.811	1107999	REC_END	n/a	n/a	n/a	n/a	-999	6	[0, 0, 0]	n/a	catFR1	0	R1174T
1107.384	0.5	1114809	TRIAL	n/a	n/a	n/a	n/a	-999	7	[0, 0, 0]	n/a	catFR1	0	R1174T
1107.884	10.428	1115309	COUNTDOWN_START	n/a	n/a	n/a	n/a	-999	7	[0, 0, 0]	n/a	catFR1	0	R1174T
1118.312	0.007	1125737	COUNTDOWN_END	n/a	n/a	n/a	n/a	-999	7	[0, 0, 0]	n/a	catFR1	0	R1174T
1118.319	1.601	1125744	ORIENT	n/a	n/a	n/a	n/a	-999	7	[0, 0, 0]	n/a	catFR1	0	R1174T
1119.92	1.918	1127345	ORIENT_OFF	n/a	n/a	n/a	n/a	-999	7	[0, 0, 0]	n/a	catFR1	0	R1174T
1121.838	1.617	1129263	WORD	n/a	wordpools/wordpool_categorized_EN.txt	DOLL	Toys	1	7	[0, 0, 0]	n/a	catFR1	0	R1174T
1123.455	0.832	1130880	WORD_OFF	n/a	n/a	DOLL	n/a	1	7	[0, 0, 0]	n/a	catFR1	0	R1174T
1124.287	1.618	1131711	WORD	n/a	wordpools/wordpool_categorized_EN.txt	BALL	Toys	2	7	[0, 0, 0]	n/a	catFR1	0	R1174T
1125.905	0.867	1133329	WORD_OFF	n/a	n/a	BALL	n/a	2	7	[0, 0, 0]	n/a	catFR1	0	R1174T
1126.772	1.616	1134196	WORD	n/a	wordpools/wordpool_categorized_EN.txt	REFRIGERATOR	Appliances	3	7	[0, 0, 0]	n/a	catFR1	0	R1174T
1128.388	0.868	1135812	WORD_OFF	n/a	n/a	REFRIGERATOR	n/a	3	7	[0, 0, 0]	n/a	catFR1	0	R1174T
1129.256	1.617	1136680	WORD	n/a	wordpools/wordpool_categorized_EN.txt	STOVE	Appliances	4	7	[0, 0, 0]	n/a	catFR1	0	R1174T
1130.873	0.833	1138297	WORD_OFF	n/a	n/a	STOVE	n/a	4	7	[0, 0, 0]	n/a	catFR1	0	R1174T
1131.706	1.616	1139130	WORD	n/a	wordpools/wordpool_categorized_EN.txt	DAISY	Flowers	5	7	[0, 0, 0]	n/a	catFR1	0	R1174T
1133.322	0.95	1140746	WORD_OFF	n/a	n/a	DAISY	n/a	5	7	[0, 0, 0]	n/a	catFR1	0	R1174T
1134.272	1.618	1141696	WORD	n/a	wordpools/wordpool_categorized_EN.txt	DAFFODIL	Flowers	6	7	[0, 0, 0]	n/a	catFR1	0	R1174T
1135.89	0.95	1143314	WORD_OFF	n/a	n/a	DAFFODIL	n/a	6	7	[0, 0, 0]	n/a	catFR1	0	R1174T
1136.84	1.617	1144264	WORD	n/a	wordpools/wordpool_categorized_EN.txt	DOLLHOUSE	Toys	7	7	[0, 0, 0]	n/a	catFR1	0	R1174T
1138.457	0.883	1145881	WORD_OFF	n/a	n/a	DOLLHOUSE	n/a	7	7	[0, 0, 0]	n/a	catFR1	0	R1174T
1139.34	1.618	1146764	WORD	n/a	wordpools/wordpool_categorized_EN.txt	SLINKY	Toys	8	7	[0, 0, 0]	n/a	catFR1	0	R1174T
1140.958	0.9	1148381	WORD_OFF	n/a	n/a	SLINKY	n/a	8	7	[0, 0, 0]	n/a	catFR1	0	R1174T
1141.858	1.617	1149281	WORD	n/a	wordpools/wordpool_categorized_EN.txt	WASHER	Appliances	9	7	[0, 0, 0]	n/a	catFR1	0	R1174T
1143.475	0.932	1150898	WORD_OFF	n/a	n/a	WASHER	n/a	9	7	[0, 0, 0]	n/a	catFR1	0	R1174T
1144.407	1.618	1151830	WORD	n/a	wordpools/wordpool_categorized_EN.txt	TOASTER	Appliances	10	7	[0, 0, 0]	n/a	catFR1	0	R1174T
1146.025	0.867	1153448	WORD_OFF	n/a	n/a	TOASTER	n/a	10	7	[0, 0, 0]	n/a	catFR1	0	R1174T
1146.892	1.617	1154315	WORD	n/a	wordpools/wordpool_categorized_EN.txt	CARNATION	Flowers	11	7	[0, 0, 0]	n/a	catFR1	0	R1174T
1148.509	1.0	1155932	WORD_OFF	n/a	n/a	CARNATION	n/a	11	7	[0, 0, 0]	n/a	catFR1	0	R1174T
1149.509	1.617	1156932	WORD	n/a	wordpools/wordpool_categorized_EN.txt	ROSE	Flowers	12	7	[0, 0, 0]	n/a	catFR1	0	R1174T
1151.126	0.0	1158549	WORD_OFF	n/a	n/a	ROSE	n/a	12	7	[0, 0, 0]	n/a	catFR1	0	R1174T
1151.126	0.13	1158549	ENCODING_END	n/a	n/a	n/a	n/a	-999	7	[0, 0, 0]	n/a	catFR1	0	R1174T
1151.256	0.0	1158679	DISTRACT_START	n/a	n/a	n/a	n/a	-999	7	[0, 0, 0]	n/a	catFR1	0	R1174T
1151.256	0.019	1158679	START	n/a	n/a	n/a	n/a	-999	7	[-999, -999, -999]	n/a	catFR1	0	R1174T
1151.275	6.886	1158698	PROB	6.859	n/a	n/a	n/a	-999	7	[6, 2, 5]	13.0	catFR1	0	R1174T
1158.161	6.668	1165583	PROB	6.645	n/a	n/a	n/a	-999	7	[6, 6, 5]	17.0	catFR1	0	R1174T
1164.829	6.034	1172251	PROB	6.008	n/a	n/a	n/a	-999	7	[5, 3, 2]	10.0	catFR1	0	R1174T
1170.863	5.183	1178285	PROB	5.183	n/a	n/a	n/a	-999	7	[2, 2, 3]	7.0	catFR1	0	R1174T
1176.046	0.018	1183467	STOP	n/a	n/a	n/a	n/a	-999	7	[-999, -999, -999]	n/a	catFR1	0	R1174T
1176.064	0.667	1183485	DISTRACT_END	n/a	n/a	n/a	n/a	-999	7	[0, 0, 0]	n/a	catFR1	0	R1174T
1176.731	0.519	1184152	RETRIEVAL_ORIENT	n/a	n/a	n/a	n/a	-999	7	[0, 0, 0]	n/a	catFR1	0	R1174T
1177.25	4.472	1184671	REC_START	n/a	n/a	n/a	n/a	-999	7	[0, 0, 0]	n/a	catFR1	0	R1174T
1181.722	1.982	1189143	REC_WORD	4.472	n/a	HOUSE	n/a	-999	7	[0, 0, 0]	n/a	catFR1	0	R1174T
1183.704	2.855	1191125	REC_WORD	6.454	n/a	DOLL	Toys	1	7	[0, 0, 0]	n/a	catFR1	0	R1174T
1186.559	6.444	1193980	REC_WORD	9.309	n/a	REFRIGERATOR	Appliances	3	7	[0, 0, 0]	n/a	catFR1	0	R1174T
1193.003	14.257	1200423	REC_WORD	15.753	n/a	TOASTER	Appliances	10	7	[0, 0, 0]	n/a	catFR1	0	R1174T
1207.26	11.011	1214680	REC_END	n/a	n/a	n/a	n/a	-999	7	[0, 0, 0]	n/a	catFR1	0	R1174T
1218.271	0.5	1225690	TRIAL	n/a	n/a	n/a	n/a	-999	8	[0, 0, 0]	n/a	catFR1	0	R1174T
1218.771	10.428	1226190	COUNTDOWN_START	n/a	n/a	n/a	n/a	-999	8	[0, 0, 0]	n/a	catFR1	0	R1174T
1229.199	0.008	1236617	COUNTDOWN_END	n/a	n/a	n/a	n/a	-999	8	[0, 0, 0]	n/a	catFR1	0	R1174T
1229.207	1.617	1236625	ORIENT	n/a	n/a	n/a	n/a	-999	8	[0, 0, 0]	n/a	catFR1	0	R1174T
1230.824	2.05	1238242	ORIENT_OFF	n/a	n/a	n/a	n/a	-999	8	[0, 0, 0]	n/a	catFR1	0	R1174T
1232.874	1.617	1240292	WORD	n/a	wordpools/wordpool_categorized_EN.txt	SHEEP	FarmAnimals	1	8	[0, 0, 0]	n/a	catFR1	0	R1174T
1234.491	0.883	1241909	WORD_OFF	n/a	n/a	SHEEP	n/a	1	8	[0, 0, 0]	n/a	catFR1	0	R1174T
1235.374	1.618	1242792	WORD	n/a	wordpools/wordpool_categorized_EN.txt	CALF	FarmAnimals	2	8	[0, 0, 0]	n/a	catFR1	0	R1174T
1236.992	0.983	1244410	WORD_OFF	n/a	n/a	CALF	n/a	2	8	[0, 0, 0]	n/a	catFR1	0	R1174T
1237.975	1.617	1245393	WORD	n/a	wordpools/wordpool_categorized_EN.txt	HURRICANE	Weather	3	8	[0, 0, 0]	n/a	catFR1	0	R1174T
1239.592	0.884	1247010	WORD_OFF	n/a	n/a	HURRICANE	n/a	3	8	[0, 0, 0]	n/a	catFR1	0	R1174T
1240.476	1.617	1247894	WORD	n/a	wordpools/wordpool_categorized_EN.txt	TORNADO	Weather	4	8	[0, 0, 0]	n/a	catFR1	0	R1174T
1242.093	1.0	1249510	WORD_OFF	n/a	n/a	TORNADO	n/a	4	8	[0, 0, 0]	n/a	catFR1	0	R1174T
1243.093	1.617	1250510	WORD	n/a	wordpools/wordpool_categorized_EN.txt	COLANDER	KitchenTools	5	8	[0, 0, 0]	n/a	catFR1	0	R1174T
1244.71	0.833	1252127	WORD_OFF	n/a	n/a	COLANDER	n/a	5	8	[0, 0, 0]	n/a	catFR1	0	R1174T
1245.543	1.617	1252960	WORD	n/a	wordpools/wordpool_categorized_EN.txt	KNIFE	KitchenTools	6	8	[0, 0, 0]	n/a	catFR1	0	R1174T
1247.16	0.834	1254577	WORD_OFF	n/a	n/a	KNIFE	n/a	6	8	[0, 0, 0]	n/a	catFR1	0	R1174T
1247.994	1.617	1255411	WORD	n/a	wordpools/wordpool_categorized_EN.txt	GOAT	FarmAnimals	7	8	[0, 0, 0]	n/a	catFR1	0	R1174T
1249.611	0.782	1257028	WORD_OFF	n/a	n/a	GOAT	n/a	7	8	[0, 0, 0]	n/a	catFR1	0	R1174T
1250.393	1.618	1257810	WORD	n/a	wordpools/wordpool_categorized_EN.txt	BULL	FarmAnimals	8	8	[0, 0, 0]	n/a	catFR1	0	R1174T
1252.011	0.934	1259428	WORD_OFF	n/a	n/a	BULL	n/a	8	8	[0, 0, 0]	n/a	catFR1	0	R1174T
1252.945	1.617	1260362	WORD	n/a	wordpools/wordpool_categorized_EN.txt	SNOW	Weather	9	8	[0, 0, 0]	n/a	catFR1	0	R1174T
1254.562	0.967	1261979	WORD_OFF	n/a	n/a	SNOW	n/a	9	8	[0, 0, 0]	n/a	catFR1	0	R1174T
1255.529	1.617	1262946	WORD	n/a	wordpools/wordpool_categorized_EN.txt	FOG	Weather	10	8	[0, 0, 0]	n/a	catFR1	0	R1174T
1257.146	0.866	1264563	WORD_OFF	n/a	n/a	FOG	n/a	10	8	[0, 0, 0]	n/a	catFR1	0	R1174T
1258.012	1.617	1265429	WORD	n/a	wordpools/wordpool_categorized_EN.txt	STRAINER	KitchenTools	11	8	[0, 0, 0]	n/a	catFR1	0	R1174T
1259.629	0.9	1267045	WORD_OFF	n/a	n/a	STRAINER	n/a	11	8	[0, 0, 0]	n/a	catFR1	0	R1174T
1260.529	1.617	1267945	WORD	n/a	wordpools/wordpool_categorized_EN.txt	GRATER	KitchenTools	12	8	[0, 0, 0]	n/a	catFR1	0	R1174T
1262.146	0.001	1269562	WORD_OFF	n/a	n/a	GRATER	n/a	12	8	[0, 0, 0]	n/a	catFR1	0	R1174T
1262.147	0.102	1269563	ENCODING_END	n/a	n/a	n/a	n/a	-999	8	[0, 0, 0]	n/a	catFR1	0	R1174T
1262.249	0.001	1269665	DISTRACT_START	n/a	n/a	n/a	n/a	-999	8	[0, 0, 0]	n/a	catFR1	0	R1174T
1262.25	0.012	1269666	START	n/a	n/a	n/a	n/a	-999	8	[-999, -999, -999]	n/a	catFR1	0	R1174T
1262.262	5.719	1269678	PROB	5.68	n/a	n/a	n/a	-999	8	[3, 3, 6]	12.0	catFR1	0	R1174T
1267.981	7.601	1275397	PROB	7.568	n/a	n/a	n/a	-999	8	[9, 5, 7]	16.0	catFR1	0	R1174T
1275.582	9.559	1282998	PROB	9.559	n/a	n/a	n/a	-999	8	[9, 6, 3]	18.0	catFR1	0	R1174T
1285.141	0.01	1292556	STOP	n/a	n/a	n/a	n/a	-999	8	[-999, -999, -999]	n/a	catFR1	0	R1174T
1285.151	0.616	1292566	DISTRACT_END	n/a	n/a	n/a	n/a	-999	8	[0, 0, 0]	n/a	catFR1	0	R1174T
1285.767	0.518	1293182	RETRIEVAL_ORIENT	n/a	n/a	n/a	n/a	-999	8	[0, 0, 0]	n/a	catFR1	0	R1174T
1286.285	29.994	1293700	REC_START	n/a	n/a	n/a	n/a	-999	8	[0, 0, 0]	n/a	catFR1	0	R1174T
1316.279	0.015	1323692	REC_WORD_VV	29.994	n/a	<>	n/a	-999	8	[0, 0, 0]	n/a	catFR1	0	R1174T
1316.294	24.267	1323707	REC_END	n/a	n/a	n/a	n/a	-999	8	[0, 0, 0]	n/a	catFR1	0	R1174T
1340.561	0.5	1347973	TRIAL	n/a	n/a	n/a	n/a	-999	9	[0, 0, 0]	n/a	catFR1	0	R1174T
1341.061	10.428	1348473	COUNTDOWN_START	n/a	n/a	n/a	n/a	-999	9	[0, 0, 0]	n/a	catFR1	0	R1174T
1351.489	0.007	1358900	COUNTDOWN_END	n/a	n/a	n/a	n/a	-999	9	[0, 0, 0]	n/a	catFR1	0	R1174T
1351.496	1.617	1358907	ORIENT	n/a	n/a	n/a	n/a	-999	9	[0, 0, 0]	n/a	catFR1	0	R1174T
1353.113	2.166	1360524	ORIENT_OFF	n/a	n/a	n/a	n/a	-999	9	[0, 0, 0]	n/a	catFR1	0	R1174T
1355.279	1.618	1362690	WORD	n/a	wordpools/wordpool_categorized_EN.txt	HORSE	FarmAnimals	1	9	[0, 0, 0]	n/a	catFR1	0	R1174T
1356.897	0.8	1364308	WORD_OFF	n/a	n/a	HORSE	n/a	1	9	[0, 0, 0]	n/a	catFR1	0	R1174T
1357.697	1.616	1365108	WORD	n/a	wordpools/wordpool_categorized_EN.txt	PIG	FarmAnimals	2	9	[0, 0, 0]	n/a	catFR1	0	R1174T
1359.313	0.868	1366724	WORD_OFF	n/a	n/a	PIG	n/a	2	9	[0, 0, 0]	n/a	catFR1	0	R1174T
1360.181	1.617	1367591	WORD	n/a	wordpools/wordpool_categorized_EN.txt	SPARROW	Birds	3	9	[0, 0, 0]	n/a	catFR1	0	R1174T
1361.798	0.867	1369208	WORD_OFF	n/a	n/a	SPARROW	n/a	3	9	[0, 0, 0]	n/a	catFR1	0	R1174T
1362.665	1.616	1370075	WORD	n/a	wordpools/wordpool_categorized_EN.txt	SEAGULL	Birds	4	9	[0, 0, 0]	n/a	catFR1	0	R1174T
1364.281	1.0	1371691	WORD_OFF	n/a	n/a	SEAGULL	n/a	4	9	[0, 0, 0]	n/a	catFR1	0	R1174T
1365.281	1.618	1372691	WORD	n/a	wordpools/wordpool_categorized_EN.txt	VIOLET	Flowers	5	9	[0, 0, 0]	n/a	catFR1	0	R1174T
1366.899	0.8	1374309	WORD_OFF	n/a	n/a	VIOLET	n/a	5	9	[0, 0, 0]	n/a	catFR1	0	R1174T
1367.699	1.616	1375109	WORD	n/a	wordpools/wordpool_categorized_EN.txt	TULIP	Flowers	6	9	[0, 0, 0]	n/a	catFR1	0	R1174T
1369.315	0.967	1376725	WORD_OFF	n/a	n/a	TULIP	n/a	6	9	[0, 0, 0]	n/a	catFR1	0	R1174T
1370.282	1.618	1377692	WORD	n/a	wordpools/wordpool_categorized_EN.txt	ROOSTER	FarmAnimals	7	9	[0, 0, 0]	n/a	catFR1	0	R1174T
1371.9	0.767	1379310	WORD_OFF	n/a	n/a	ROOSTER	n/a	7	9	[0, 0, 0]	n/a	catFR1	0	R1174T
1372.667	1.616	1380077	WORD	n/a	wordpools/wordpool_categorized_EN.txt	HEN	FarmAnimals	8	9	[0, 0, 0]	n/a	catFR1	0	R1174T
1374.283	0.917	1381693	WORD_OFF	n/a	n/a	HEN	n/a	8	9	[0, 0, 0]	n/a	catFR1	0	R1174T
1375.2	1.617	1382610	WORD	n/a	wordpools/wordpool_categorized_EN.txt	DUCK	Birds	9	9	[0, 0, 0]	n/a	catFR1	0	R1174T
1376.817	0.784	1384227	WORD_OFF	n/a	n/a	DUCK	n/a	9	9	[0, 0, 0]	n/a	catFR1	0	R1174T
1377.601	1.617	1385010	WORD	n/a	wordpools/wordpool_categorized_EN.txt	FINCH	Birds	10	9	[0, 0, 0]	n/a	catFR1	0	R1174T
1379.218	0.933	1386627	WORD_OFF	n/a	n/a	FINCH	n/a	10	9	[0, 0, 0]	n/a	catFR1	0	R1174T
1380.151	1.617	1387560	WORD	n/a	wordpools/wordpool_categorized_EN.txt	MARIGOLD	Flowers	11	9	[0, 0, 0]	n/a	catFR1	0	R1174T
1381.768	0.767	1389177	WORD_OFF	n/a	n/a	MARIGOLD	n/a	11	9	[0, 0, 0]	n/a	catFR1	0	R1174T
1382.535	1.617	1389944	WORD	n/a	wordpools/wordpool_categorized_EN.txt	ORCHID	Flowers	12	9	[0, 0, 0]	n/a	catFR1	0	R1174T
1384.152	0.0	1391561	ENCODING_END	n/a	n/a	n/a	n/a	-999	9	[0, 0, 0]	n/a	catFR1	0	R1174T
1384.152	0.107	1391561	WORD_OFF	n/a	n/a	ORCHID	n/a	12	9	[0, 0, 0]	n/a	catFR1	0	R1174T
1384.259	0.0	1391668	DISTRACT_START	n/a	n/a	n/a	n/a	-999	9	[0, 0, 0]	n/a	catFR1	0	R1174T
1384.259	0.009	1391668	START	n/a	n/a	n/a	n/a	-999	9	[-999, -999, -999]	n/a	catFR1	0	R1174T
1384.268	15.153	1391677	PROB	15.128	n/a	n/a	n/a	-999	9	[7, 7, 8]	23.0	catFR1	0	R1174T
1399.421	6.073	1406829	PROB	6.073	n/a	n/a	n/a	-999	9	[5, 6, 3]	14.0	catFR1	0	R1174T
1405.494	0.012	1412902	STOP	n/a	n/a	n/a	n/a	-999	9	[-999, -999, -999]	n/a	catFR1	0	R1174T
1405.506	0.55	1412914	DISTRACT_END	n/a	n/a	n/a	n/a	-999	9	[0, 0, 0]	n/a	catFR1	0	R1174T
1406.056	0.517	1413464	RETRIEVAL_ORIENT	n/a	n/a	n/a	n/a	-999	9	[0, 0, 0]	n/a	catFR1	0	R1174T
1406.573	11.933	1413981	REC_START	n/a	n/a	n/a	n/a	-999	9	[0, 0, 0]	n/a	catFR1	0	R1174T
1418.506	18.079	1425913	REC_WORD	11.933	n/a	SEAGULL	Birds	4	9	[0, 0, 0]	n/a	catFR1	0	R1174T
1436.585	11.462	1443991	REC_END	n/a	n/a	n/a	n/a	-999	9	[0, 0, 0]	n/a	catFR1	0	R1174T
1448.047	0.5	1455452	TRIAL	n/a	n/a	n/a	n/a	-999	10	[0, 0, 0]	n/a	catFR1	0	R1174T
1448.547	10.428	1455952	COUNTDOWN_START	n/a	n/a	n/a	n/a	-999	10	[0, 0, 0]	n/a	catFR1	0	R1174T
1458.975	0.007	1466380	COUNTDOWN_END	n/a	n/a	n/a	n/a	-999	10	[0, 0, 0]	n/a	catFR1	0	R1174T
1458.982	1.617	1466387	ORIENT	n/a	n/a	n/a	n/a	-999	10	[0, 0, 0]	n/a	catFR1	0	R1174T
1460.599	1.951	1468004	ORIENT_OFF	n/a	n/a	n/a	n/a	-999	10	[0, 0, 0]	n/a	catFR1	0	R1174T
1462.55	1.617	1469954	WORD	n/a	wordpools/wordpool_categorized_EN.txt	LEMON	Fruit	1	10	[0, 0, 0]	n/a	catFR1	0	R1174T
1464.167	1.016	1471571	WORD_OFF	n/a	n/a	LEMON	n/a	1	10	[0, 0, 0]	n/a	catFR1	0	R1174T
1465.183	1.617	1472587	WORD	n/a	wordpools/wordpool_categorized_EN.txt	PEAR	Fruit	2	10	[0, 0, 0]	n/a	catFR1	0	R1174T
1466.8	0.817	1474204	WORD_OFF	n/a	n/a	PEAR	n/a	2	10	[0, 0, 0]	n/a	catFR1	0	R1174T
1467.617	1.617	1475021	WORD	n/a	wordpools/wordpool_categorized_EN.txt	LAMB	FarmAnimals	3	10	[0, 0, 0]	n/a	catFR1	0	R1174T
1469.234	0.784	1476638	WORD_OFF	n/a	n/a	LAMB	n/a	3	10	[0, 0, 0]	n/a	catFR1	0	R1174T
1470.018	1.617	1477422	WORD	n/a	wordpools/wordpool_categorized_EN.txt	TURKEY	FarmAnimals	4	10	[0, 0, 0]	n/a	catFR1	0	R1174T
1471.635	0.867	1479039	WORD_OFF	n/a	n/a	TURKEY	n/a	4	10	[0, 0, 0]	n/a	catFR1	0	R1174T
1472.502	1.616	1479906	WORD	n/a	wordpools/wordpool_categorized_EN.txt	FOOT	BodyParts	5	10	[0, 0, 0]	n/a	catFR1	0	R1174T
1474.118	0.867	1481522	WORD_OFF	n/a	n/a	FOOT	n/a	5	10	[0, 0, 0]	n/a	catFR1	0	R1174T
1474.985	1.617	1482389	WORD	n/a	wordpools/wordpool_categorized_EN.txt	TOE	BodyParts	6	10	[0, 0, 0]	n/a	catFR1	0	R1174T
1476.602	1.0	1484006	WORD_OFF	n/a	n/a	TOE	n/a	6	10	[0, 0, 0]	n/a	catFR1	0	R1174T
1477.602	1.617	1485006	WORD	n/a	wordpools/wordpool_categorized_EN.txt	GRAPE	Fruit	7	10	[0, 0, 0]	n/a	catFR1	0	R1174T
1479.219	0.784	1486622	WORD_OFF	n/a	n/a	GRAPE	n/a	7	10	[0, 0, 0]	n/a	catFR1	0	R1174T
1480.003	1.617	1487406	WORD	n/a	wordpools/wordpool_categorized_EN.txt	PEACH	Fruit	8	10	[0, 0, 0]	n/a	catFR1	0	R1174T
1481.62	0.917	1489023	WORD_OFF	n/a	n/a	PEACH	n/a	8	10	[0, 0, 0]	n/a	catFR1	0	R1174T
1482.537	1.617	1489940	WORD	n/a	wordpools/wordpool_categorized_EN.txt	COW	FarmAnimals	9	10	[0, 0, 0]	n/a	catFR1	0	R1174T
1484.154	0.9	1491557	WORD_OFF	n/a	n/a	COW	n/a	9	10	[0, 0, 0]	n/a	catFR1	0	R1174T
1485.054	1.617	1492457	WORD	n/a	wordpools/wordpool_categorized_EN.txt	CHICKEN	FarmAnimals	10	10	[0, 0, 0]	n/a	catFR1	0	R1174T
1486.671	0.983	1494074	WORD_OFF	n/a	n/a	CHICKEN	n/a	10	10	[0, 0, 0]	n/a	catFR1	0	R1174T
1487.654	1.616	1495057	WORD	n/a	wordpools/wordpool_categorized_EN.txt	EAR	BodyParts	11	10	[0, 0, 0]	n/a	catFR1	0	R1174T
1489.27	0.918	1496673	WORD_OFF	n/a	n/a	EAR	n/a	11	10	[0, 0, 0]	n/a	catFR1	0	R1174T
1490.188	1.617	1497591	WORD	n/a	wordpools/wordpool_categorized_EN.txt	EYE	BodyParts	12	10	[0, 0, 0]	n/a	catFR1	0	R1174T
1491.805	0.0	1499208	WORD_OFF	n/a	n/a	EYE	n/a	12	10	[0, 0, 0]	n/a	catFR1	0	R1174T
1491.805	0.13	1499208	ENCODING_END	n/a	n/a	n/a	n/a	-999	10	[0, 0, 0]	n/a	catFR1	0	R1174T
1491.935	0.0	1499338	DISTRACT_START	n/a	n/a	n/a	n/a	-999	10	[0, 0, 0]	n/a	catFR1	0	R1174T
1491.935	0.02	1499338	START	n/a	n/a	n/a	n/a	-999	10	[-999, -999, -999]	n/a	catFR1	0	R1174T
1491.955	6.151	1499358	PROB	6.123	n/a	n/a	n/a	-999	10	[2, 7, 3]	21.0	catFR1	0	R1174T
1498.106	10.952	1505508	PROB	10.916	n/a	n/a	n/a	-999	10	[3, 5, 7]	15.0	catFR1	0	R1174T
1509.058	7.58	1516460	PROB	7.58	n/a	n/a	n/a	-999	10	[7, 2, 8]	17.0	catFR1	0	R1174T
1516.638	0.022	1524039	STOP	n/a	n/a	n/a	n/a	-999	10	[-999, -999, -999]	n/a	catFR1	0	R1174T
1516.66	0.632	1524061	DISTRACT_END	n/a	n/a	n/a	n/a	-999	10	[0, 0, 0]	n/a	catFR1	0	R1174T
1517.292	0.519	1524693	RETRIEVAL_ORIENT	n/a	n/a	n/a	n/a	-999	10	[0, 0, 0]	n/a	catFR1	0	R1174T
1517.811	2.865	1525212	REC_START	n/a	n/a	n/a	n/a	-999	10	[0, 0, 0]	n/a	catFR1	0	R1174T
1520.676	3.349	1528077	REC_WORD	2.865	n/a	EYE	BodyParts	12	10	[0, 0, 0]	n/a	catFR1	0	R1174T
1524.025	0.56	1531426	REC_WORD	6.214	n/a	TOE	BodyParts	6	10	[0, 0, 0]	n/a	catFR1	0	R1174T
1524.585	12.811	1531986	REC_WORD	6.774	n/a	FOOT	BodyParts	5	10	[0, 0, 0]	n/a	catFR1	0	R1174T
1537.396	10.424	1544796	REC_WORD	19.585	n/a	COW	FarmAnimals	9	10	[0, 0, 0]	n/a	catFR1	0	R1174T
1547.82	16.698	1555219	REC_END	n/a	n/a	n/a	n/a	-999	10	[0, 0, 0]	n/a	catFR1	0	R1174T
1564.518	0.5	1571916	TRIAL	n/a	n/a	n/a	n/a	-999	11	[0, 0, 0]	n/a	catFR1	0	R1174T
1565.018	10.428	1572416	COUNTDOWN_START	n/a	n/a	n/a	n/a	-999	11	[0, 0, 0]	n/a	catFR1	0	R1174T
1575.446	0.008	1582844	COUNTDOWN_END	n/a	n/a	n/a	n/a	-999	11	[0, 0, 0]	n/a	catFR1	0	R1174T
1575.454	1.617	1582852	ORIENT	n/a	n/a	n/a	n/a	-999	11	[0, 0, 0]	n/a	catFR1	0	R1174T
1577.071	2.199	1584469	ORIENT_OFF	n/a	n/a	n/a	n/a	-999	11	[0, 0, 0]	n/a	catFR1	0	R1174T
1579.27	1.618	1586668	WORD	n/a	wordpools/wordpool_categorized_EN.txt	MIXER	Appliances	1	11	[0, 0, 0]	n/a	catFR1	0	R1174T
1580.888	0.85	1588285	WORD_OFF	n/a	n/a	MIXER	n/a	1	11	[0, 0, 0]	n/a	catFR1	0	R1174T
1581.738	1.616	1589135	WORD	n/a	wordpools/wordpool_categorized_EN.txt	DRYER	Appliances	2	11	[0, 0, 0]	n/a	catFR1	0	R1174T
1583.354	0.95	1590751	WORD_OFF	n/a	n/a	DRYER	n/a	2	11	[0, 0, 0]	n/a	catFR1	0	R1174T
1584.304	1.618	1591701	WORD	n/a	wordpools/wordpool_categorized_EN.txt	MOUSSE	Desserts	3	11	[0, 0, 0]	n/a	catFR1	0	R1174T
1585.922	0.934	1593319	WORD_OFF	n/a	n/a	MOUSSE	n/a	3	11	[0, 0, 0]	n/a	catFR1	0	R1174T
1586.856	1.617	1594253	WORD	n/a	wordpools/wordpool_categorized_EN.txt	PASTRY	Desserts	4	11	[0, 0, 0]	n/a	catFR1	0	R1174T
1588.473	0.966	1595870	WORD_OFF	n/a	n/a	PASTRY	n/a	4	11	[0, 0, 0]	n/a	catFR1	0	R1174T
1589.439	1.617	1596836	WORD	n/a	wordpools/wordpool_categorized_EN.txt	CORN	Vegetables	5	11	[0, 0, 0]	n/a	catFR1	0	R1174T
1591.056	0.917	1598453	WORD_OFF	n/a	n/a	CORN	n/a	5	11	[0, 0, 0]	n/a	catFR1	0	R1174T
1591.973	1.617	1599370	WORD	n/a	wordpools/wordpool_categorized_EN.txt	CELERY	Vegetables	6	11	[0, 0, 0]	n/a	catFR1	0	R1174T
1593.59	0.799	1600987	WORD_OFF	n/a	n/a	CELERY	n/a	6	11	[0, 0, 0]	n/a	catFR1	0	R1174T
1594.389	1.618	1601786	WORD	n/a	wordpools/wordpool_categorized_EN.txt	VACUUM	Appliances	7	11	[0, 0, 0]	n/a	catFR1	0	R1174T
1596.007	0.784	1603404	WORD_OFF	n/a	n/a	VACUUM	n/a	7	11	[0, 0, 0]	n/a	catFR1	0	R1174T
1596.791	1.616	1604187	WORD	n/a	wordpools/wordpool_categorized_EN.txt	FREEZER	Appliances	8	11	[0, 0, 0]	n/a	catFR1	0	R1174T
1598.407	0.933	1605803	WORD_OFF	n/a	n/a	FREEZER	n/a	8	11	[0, 0, 0]	n/a	catFR1	0	R1174T
1599.34	1.618	1606736	WORD	n/a	wordpools/wordpool_categorized_EN.txt	PUDDING	Desserts	9	11	[0, 0, 0]	n/a	catFR1	0	R1174T
1600.958	0.934	1608354	WORD_OFF	n/a	n/a	PUDDING	n/a	9	11	[0, 0, 0]	n/a	catFR1	0	R1174T
1601.892	1.617	1609288	WORD	n/a	wordpools/wordpool_categorized_EN.txt	PIE	Desserts	10	11	[0, 0, 0]	n/a	catFR1	0	R1174T
1603.509	0.815	1610905	WORD_OFF	n/a	n/a	PIE	n/a	10	11	[0, 0, 0]	n/a	catFR1	0	R1174T
1604.324	1.618	1611720	WORD	n/a	wordpools/wordpool_categorized_EN.txt	CAULIFLOWER	Vegetables	11	11	[0, 0, 0]	n/a	catFR1	0	R1174T
1605.942	0.951	1613338	WORD_OFF	n/a	n/a	CAULIFLOWER	n/a	11	11	[0, 0, 0]	n/a	catFR1	0	R1174T
1606.893	1.617	1614289	WORD	n/a	wordpools/wordpool_categorized_EN.txt	ONION	Vegetables	12	11	[0, 0, 0]	n/a	catFR1	0	R1174T
1608.51	0.0	1615906	ENCODING_END	n/a	n/a	n/a	n/a	-999	11	[0, 0, 0]	n/a	catFR1	0	R1174T
1608.51	0.1	1615906	WORD_OFF	n/a	n/a	ONION	n/a	12	11	[0, 0, 0]	n/a	catFR1	0	R1174T
1608.61	0.0	1616006	DISTRACT_START	n/a	n/a	n/a	n/a	-999	11	[0, 0, 0]	n/a	catFR1	0	R1174T
1608.61	0.016	1616006	START	n/a	n/a	n/a	n/a	-999	11	[-999, -999, -999]	n/a	catFR1	0	R1174T
1608.626	9.369	1616022	PROB	9.331	n/a	n/a	n/a	-999	11	[3, 8, 6]	17.0	catFR1	0	R1174T
1617.995	10.135	1625390	PROB	10.099	n/a	n/a	n/a	-999	11	[5, 4, 7]	16.0	catFR1	0	R1174T
1628.13	5.675	1635525	PROB	5.675	n/a	n/a	n/a	-999	11	[4, 3, 5]	12.0	catFR1	0	R1174T
1633.805	0.009	1641199	STOP	n/a	n/a	n/a	n/a	-999	11	[-999, -999, -999]	n/a	catFR1	0	R1174T
1633.814	0.616	1641208	DISTRACT_END	n/a	n/a	n/a	n/a	-999	11	[0, 0, 0]	n/a	catFR1	0	R1174T
1634.43	0.519	1641824	RETRIEVAL_ORIENT	n/a	n/a	n/a	n/a	-999	11	[0, 0, 0]	n/a	catFR1	0	R1174T
1634.949	8.058	1642343	REC_START	n/a	n/a	n/a	n/a	-999	11	[0, 0, 0]	n/a	catFR1	0	R1174T
1643.007	2.18	1650401	REC_WORD	8.058	n/a	CAULIFLOWER	Vegetables	11	11	[0, 0, 0]	n/a	catFR1	0	R1174T
1645.187	19.77	1652581	REC_WORD	10.238	n/a	VACUUM	Appliances	7	11	[0, 0, 0]	n/a	catFR1	0	R1174T
1664.957	24.934	1672349	REC_END	n/a	n/a	n/a	n/a	-999	11	[0, 0, 0]	n/a	catFR1	0	R1174T
1689.891	0.5	1697282	TRIAL	n/a	n/a	n/a	n/a	-999	12	[0, 0, 0]	n/a	catFR1	0	R1174T
1690.391	10.428	1697782	COUNTDOWN_START	n/a	n/a	n/a	n/a	-999	12	[0, 0, 0]	n/a	catFR1	0	R1174T
1700.819	0.007	1708209	COUNTDOWN_END	n/a	n/a	n/a	n/a	-999	12	[0, 0, 0]	n/a	catFR1	0	R1174T
1700.826	1.617	1708216	ORIENT	n/a	n/a	n/a	n/a	-999	12	[0, 0, 0]	n/a	catFR1	0	R1174T
1702.443	1.983	1709833	ORIENT_OFF	n/a	n/a	n/a	n/a	-999	12	[0, 0, 0]	n/a	catFR1	0	R1174T
1704.426	1.618	1711816	WORD	n/a	wordpools/wordpool_categorized_EN.txt	ROOM	Building	1	12	[0, 0, 0]	n/a	catFR1	0	R1174T
1706.044	0.934	1713434	WORD_OFF	n/a	n/a	ROOM	n/a	1	12	[0, 0, 0]	n/a	catFR1	0	R1174T
1706.978	1.617	1714368	WORD	n/a	wordpools/wordpool_categorized_EN.txt	ROOF	Building	2	12	[0, 0, 0]	n/a	catFR1	0	R1174T
1708.595	0.765	1715985	WORD_OFF	n/a	n/a	ROOF	n/a	2	12	[0, 0, 0]	n/a	catFR1	0	R1174T
1709.36	1.601	1716750	WORD	n/a	wordpools/wordpool_categorized_EN.txt	BIKE	Vehicles	3	12	[0, 0, 0]	n/a	catFR1	0	R1174T
1710.961	0.784	1718351	WORD_OFF	n/a	n/a	BIKE	n/a	3	12	[0, 0, 0]	n/a	catFR1	0	R1174T
1711.745	1.616	1719135	WORD	n/a	wordpools/wordpool_categorized_EN.txt	PLANE	Vehicles	4	12	[0, 0, 0]	n/a	catFR1	0	R1174T
1713.361	0.9	1720751	WORD_OFF	n/a	n/a	PLANE	n/a	4	12	[0, 0, 0]	n/a	catFR1	0	R1174T
1714.261	1.618	1721651	WORD	n/a	wordpools/wordpool_categorized_EN.txt	TONGS	KitchenTools	5	12	[0, 0, 0]	n/a	catFR1	0	R1174T
1715.879	1.0	1723268	WORD_OFF	n/a	n/a	TONGS	n/a	5	12	[0, 0, 0]	n/a	catFR1	0	R1174T
1716.879	1.617	1724268	WORD	n/a	wordpools/wordpool_categorized_EN.txt	WHISK	KitchenTools	6	12	[0, 0, 0]	n/a	catFR1	0	R1174T
1718.496	0.816	1725885	WORD_OFF	n/a	n/a	WHISK	n/a	6	12	[0, 0, 0]	n/a	catFR1	0	R1174T
1719.312	1.618	1726701	WORD	n/a	wordpools/wordpool_categorized_EN.txt	DOOR	Building	7	12	[0, 0, 0]	n/a	catFR1	0	R1174T
1720.93	0.984	1728319	WORD_OFF	n/a	n/a	DOOR	n/a	7	12	[0, 0, 0]	n/a	catFR1	0	R1174T
1721.914	1.617	1729303	WORD	n/a	wordpools/wordpool_categorized_EN.txt	ATTIC	Building	8	12	[0, 0, 0]	n/a	catFR1	0	R1174T
1723.531	0.782	1730920	WORD_OFF	n/a	n/a	ATTIC	n/a	8	12	[0, 0, 0]	n/a	catFR1	0	R1174T
1724.313	1.618	1731702	WORD	n/a	wordpools/wordpool_categorized_EN.txt	JEEP	Vehicles	9	12	[0, 0, 0]	n/a	catFR1	0	R1174T
1725.931	0.95	1733320	WORD_OFF	n/a	n/a	JEEP	n/a	9	12	[0, 0, 0]	n/a	catFR1	0	R1174T
1726.881	1.617	1734270	WORD	n/a	wordpools/wordpool_categorized_EN.txt	VAN	Vehicles	10	12	[0, 0, 0]	n/a	catFR1	0	R1174T
1728.498	0.799	1735887	WORD_OFF	n/a	n/a	VAN	n/a	10	12	[0, 0, 0]	n/a	catFR1	0	R1174T
1729.297	1.618	1736686	WORD	n/a	wordpools/wordpool_categorized_EN.txt	SPATULA	KitchenTools	11	12	[0, 0, 0]	n/a	catFR1	0	R1174T
1730.915	1.0	1738304	WORD_OFF	n/a	n/a	SPATULA	n/a	11	12	[0, 0, 0]	n/a	catFR1	0	R1174T
1731.915	1.617	1739303	WORD	n/a	wordpools/wordpool_categorized_EN.txt	FORK	KitchenTools	12	12	[0, 0, 0]	n/a	catFR1	0	R1174T
1733.532	0.001	1740920	WORD_OFF	n/a	n/a	FORK	n/a	12	12	[0, 0, 0]	n/a	catFR1	0	R1174T
1733.533	0.147	1740921	ENCODING_END	n/a	n/a	n/a	n/a	-999	12	[0, 0, 0]	n/a	catFR1	0	R1174T
1733.68	0.0	1741068	DISTRACT_START	n/a	n/a	n/a	n/a	-999	12	[0, 0, 0]	n/a	catFR1	0	R1174T
1733.68	0.019	1741068	START	n/a	n/a	n/a	n/a	-999	12	[-999, -999, -999]	n/a	catFR1	0	R1174T
1733.699	5.451	1741087	PROB	5.418	n/a	n/a	n/a	-999	12	[3, 2, 6]	11.0	catFR1	0	R1174T
1739.15	4.701	1746538	PROB	4.672	n/a	n/a	n/a	-999	12	[8, 2, 1]	11.0	catFR1	0	R1174T
1743.851	5.517	1751239	PROB	5.49	n/a	n/a	n/a	-999	12	[2, 6, 1]	9.0	catFR1	0	R1174T
1749.368	6.044	1756755	PROB	6.044	n/a	n/a	n/a	-999	12	[4, 1, 6]	11.0	catFR1	0	R1174T
1755.412	0.007	1762799	STOP	n/a	n/a	n/a	n/a	-999	12	[-999, -999, -999]	n/a	catFR1	0	R1174T
1755.419	0.668	1762806	DISTRACT_END	n/a	n/a	n/a	n/a	-999	12	[0, 0, 0]	n/a	catFR1	0	R1174T
1756.087	0.517	1763474	RETRIEVAL_ORIENT	n/a	n/a	n/a	n/a	-999	12	[0, 0, 0]	n/a	catFR1	0	R1174T
1756.604	3.533	1763991	REC_START	n/a	n/a	n/a	n/a	-999	12	[0, 0, 0]	n/a	catFR1	0	R1174T
1760.137	1.286	1767524	REC_WORD	3.533	n/a	ATTIC	Building	8	12	[0, 0, 0]	n/a	catFR1	0	R1174T
1761.423	0.984	1768810	REC_WORD	4.819	n/a	ROOF	Building	2	12	[0, 0, 0]	n/a	catFR1	0	R1174T
1762.407	0.79	1769794	REC_WORD	5.803	n/a	DOOR	Building	7	12	[0, 0, 0]	n/a	catFR1	0	R1174T
1763.197	0.928	1770584	REC_WORD	6.593	n/a	ROOM	Building	1	12	[0, 0, 0]	n/a	catFR1	0	R1174T
1764.125	0.972	1771512	REC_WORD	7.521	n/a	PLANE	Vehicles	4	12	[0, 0, 0]	n/a	catFR1	0	R1174T
1765.097	5.358	1772484	REC_WORD	8.493	n/a	JEEP	Vehicles	9	12	[0, 0, 0]	n/a	catFR1	0	R1174T
1770.455	16.158	1777841	REC_WORD	13.851	n/a	TONGS	KitchenTools	5	12	[0, 0, 0]	n/a	catFR1	0	R1174T
1786.613	7.247	1793998	REC_END	n/a	n/a	n/a	n/a	-999	12	[0, 0, 0]	n/a	catFR1	0	R1174T
1793.86	0.5	1801245	TRIAL	n/a	n/a	n/a	n/a	-999	13	[0, 0, 0]	n/a	catFR1	0	R1174T
1794.36	10.428	1801745	COUNTDOWN_START	n/a	n/a	n/a	n/a	-999	13	[0, 0, 0]	n/a	catFR1	0	R1174T
1804.788	0.007	1812172	COUNTDOWN_END	n/a	n/a	n/a	n/a	-999	13	[0, 0, 0]	n/a	catFR1	0	R1174T
1804.795	1.616	1812179	ORIENT	n/a	n/a	n/a	n/a	-999	13	[0, 0, 0]	n/a	catFR1	0	R1174T
1806.411	2.285	1813795	ORIENT_OFF	n/a	n/a	n/a	n/a	-999	13	[0, 0, 0]	n/a	catFR1	0	R1174T
1808.696	1.616	1816080	WORD	n/a	wordpools/wordpool_categorized_EN.txt	BLUEBIRD	Birds	1	13	[0, 0, 0]	n/a	catFR1	0	R1174T
1810.312	0.785	1817696	WORD_OFF	n/a	n/a	BLUEBIRD	n/a	1	13	[0, 0, 0]	n/a	catFR1	0	R1174T
1811.097	1.616	1818481	WORD	n/a	wordpools/wordpool_categorized_EN.txt	PIGEON	Birds	2	13	[0, 0, 0]	n/a	catFR1	0	R1174T
1812.713	0.917	1820097	WORD_OFF	n/a	n/a	PIGEON	n/a	2	13	[0, 0, 0]	n/a	catFR1	0	R1174T
1813.63	1.617	1821014	WORD	n/a	wordpools/wordpool_categorized_EN.txt	ORANGUTAN	Zoo	3	13	[0, 0, 0]	n/a	catFR1	0	R1174T
1815.247	0.967	1822631	WORD_OFF	n/a	n/a	ORANGUTAN	n/a	3	13	[0, 0, 0]	n/a	catFR1	0	R1174T
1816.214	1.617	1823597	WORD	n/a	wordpools/wordpool_categorized_EN.txt	CHEETAH	Zoo	4	13	[0, 0, 0]	n/a	catFR1	0	R1174T
1817.831	0.984	1825214	WORD_OFF	n/a	n/a	CHEETAH	n/a	4	13	[0, 0, 0]	n/a	catFR1	0	R1174T
1818.815	1.616	1826198	WORD	n/a	wordpools/wordpool_categorized_EN.txt	RATCHET	Tools	5	13	[0, 0, 0]	n/a	catFR1	0	R1174T
1820.431	0.801	1827814	WORD_OFF	n/a	n/a	RATCHET	n/a	5	13	[0, 0, 0]	n/a	catFR1	0	R1174T
1821.232	1.617	1828615	WORD	n/a	wordpools/wordpool_categorized_EN.txt	PLIERS	Tools	6	13	[0, 0, 0]	n/a	catFR1	0	R1174T
1822.849	0.933	1830232	WORD_OFF	n/a	n/a	PLIERS	n/a	6	13	[0, 0, 0]	n/a	catFR1	0	R1174T
1823.782	1.616	1831165	WORD	n/a	wordpools/wordpool_categorized_EN.txt	DOVE	Birds	7	13	[0, 0, 0]	n/a	catFR1	0	R1174T
1825.398	0.801	1832781	WORD_OFF	n/a	n/a	DOVE	n/a	7	13	[0, 0, 0]	n/a	catFR1	0	R1174T
1826.199	1.617	1833582	WORD	n/a	wordpools/wordpool_categorized_EN.txt	GOOSE	Birds	8	13	[0, 0, 0]	n/a	catFR1	0	R1174T
1827.816	0.9	1835199	WORD_OFF	n/a	n/a	GOOSE	n/a	8	13	[0, 0, 0]	n/a	catFR1	0	R1174T
1828.716	1.616	1836099	WORD	n/a	wordpools/wordpool_categorized_EN.txt	PANDA	Zoo	9	13	[0, 0, 0]	n/a	catFR1	0	R1174T
1830.332	0.934	1837715	WORD_OFF	n/a	n/a	PANDA	n/a	9	13	[0, 0, 0]	n/a	catFR1	0	R1174T
1831.266	1.618	1838649	WORD	n/a	wordpools/wordpool_categorized_EN.txt	MONKEY	Zoo	10	13	[0, 0, 0]	n/a	catFR1	0	R1174T
1832.884	0.783	1840266	WORD_OFF	n/a	n/a	MONKEY	n/a	10	13	[0, 0, 0]	n/a	catFR1	0	R1174T
1833.667	1.616	1841049	WORD	n/a	wordpools/wordpool_categorized_EN.txt	SHOVEL	Tools	11	13	[0, 0, 0]	n/a	catFR1	0	R1174T
1835.283	0.968	1842665	WORD_OFF	n/a	n/a	SHOVEL	n/a	11	13	[0, 0, 0]	n/a	catFR1	0	R1174T
1836.251	1.617	1843633	WORD	n/a	wordpools/wordpool_categorized_EN.txt	SAW	Tools	12	13	[0, 0, 0]	n/a	catFR1	0	R1174T
1837.868	0.0	1845250	ENCODING_END	n/a	n/a	n/a	n/a	-999	13	[0, 0, 0]	n/a	catFR1	0	R1174T
1837.868	0.127	1845250	WORD_OFF	n/a	n/a	SAW	n/a	12	13	[0, 0, 0]	n/a	catFR1	0	R1174T
1837.995	0.0	1845377	DISTRACT_START	n/a	n/a	n/a	n/a	-999	13	[0, 0, 0]	n/a	catFR1	0	R1174T
1837.995	0.023	1845377	START	n/a	n/a	n/a	n/a	-999	13	[-999, -999, -999]	n/a	catFR1	0	R1174T
1838.018	5.485	1845400	PROB	5.45	n/a	n/a	n/a	-999	13	[9, 1, 4]	14.0	catFR1	0	R1174T
1843.503	6.101	1850885	PROB	6.078	n/a	n/a	n/a	-999	13	[4, 8, 7]	18.0	catFR1	0	R1174T
1849.604	7.418	1856986	PROB	7.386	n/a	n/a	n/a	-999	13	[6, 1, 4]	11.0	catFR1	0	R1174T
1857.022	8.808	1864403	PROB	8.808	n/a	n/a	n/a	-999	13	[9, 6, 5]	20.0	catFR1	0	R1174T
1865.83	0.01	1873211	STOP	n/a	n/a	n/a	n/a	-999	13	[-999, -999, -999]	n/a	catFR1	0	R1174T
1865.84	0.532	1873221	DISTRACT_END	n/a	n/a	n/a	n/a	-999	13	[0, 0, 0]	n/a	catFR1	0	R1174T
1866.372	0.52	1873753	RETRIEVAL_ORIENT	n/a	n/a	n/a	n/a	-999	13	[0, 0, 0]	n/a	catFR1	0	R1174T
1866.892	3.521	1874272	REC_START	n/a	n/a	n/a	n/a	-999	13	[0, 0, 0]	n/a	catFR1	0	R1174T
1870.413	3.774	1877793	REC_WORD	3.521	n/a	GOOSE	Birds	8	13	[0, 0, 0]	n/a	catFR1	0	R1174T
1874.187	22.714	1881567	REC_WORD	7.295	n/a	BLUEBIRD	Birds	1	13	[0, 0, 0]	n/a	catFR1	0	R1174T
1896.901	6.679	1904280	REC_END	n/a	n/a	n/a	n/a	-999	13	[0, 0, 0]	n/a	catFR1	0	R1174T
1903.58	0.5	1910958	TRIAL	n/a	n/a	n/a	n/a	-999	14	[0, 0, 0]	n/a	catFR1	0	R1174T
1904.08	10.428	1911458	COUNTDOWN_START	n/a	n/a	n/a	n/a	-999	14	[0, 0, 0]	n/a	catFR1	0	R1174T
1914.508	0.007	1921886	COUNTDOWN_END	n/a	n/a	n/a	n/a	-999	14	[0, 0, 0]	n/a	catFR1	0	R1174T
1914.515	1.617	1921893	ORIENT	n/a	n/a	n/a	n/a	-999	14	[0, 0, 0]	n/a	catFR1	0	R1174T
1916.132	2.183	1923510	ORIENT_OFF	n/a	n/a	n/a	n/a	-999	14	[0, 0, 0]	n/a	catFR1	0	R1174T
1918.315	1.618	1925692	WORD	n/a	wordpools/wordpool_categorized_EN.txt	TURTLE	OceanAnimals	1	14	[0, 0, 0]	n/a	catFR1	0	R1174T
1919.933	0.884	1927310	WORD_OFF	n/a	n/a	TURTLE	n/a	1	14	[0, 0, 0]	n/a	catFR1	0	R1174T
1920.817	1.615	1928194	WORD	n/a	wordpools/wordpool_categorized_EN.txt	SQUID	OceanAnimals	2	14	[0, 0, 0]	n/a	catFR1	0	R1174T
1922.432	0.884	1929809	WORD_OFF	n/a	n/a	SQUID	n/a	2	14	[0, 0, 0]	n/a	catFR1	0	R1174T
1923.316	1.618	1930693	WORD	n/a	wordpools/wordpool_categorized_EN.txt	PIANO	Instruments	3	14	[0, 0, 0]	n/a	catFR1	0	R1174T
1924.934	0.85	1932311	WORD_OFF	n/a	n/a	PIANO	n/a	3	14	[0, 0, 0]	n/a	catFR1	0	R1174T
1925.784	1.616	1933161	WORD	n/a	wordpools/wordpool_categorized_EN.txt	ORGAN	Instruments	4	14	[0, 0, 0]	n/a	catFR1	0	R1174T
1927.4	0.801	1934777	WORD_OFF	n/a	n/a	ORGAN	n/a	4	14	[0, 0, 0]	n/a	catFR1	0	R1174T
1928.201	1.617	1935578	WORD	n/a	wordpools/wordpool_categorized_EN.txt	COMPUTER	Electronics	5	14	[0, 0, 0]	n/a	catFR1	0	R1174T
1929.818	0.784	1937195	WORD_OFF	n/a	n/a	COMPUTER	n/a	5	14	[0, 0, 0]	n/a	catFR1	0	R1174T
1930.602	1.617	1937979	WORD	n/a	wordpools/wordpool_categorized_EN.txt	TABLET	Electronics	6	14	[0, 0, 0]	n/a	catFR1	0	R1174T
1932.219	0.85	1939596	WORD_OFF	n/a	n/a	TABLET	n/a	6	14	[0, 0, 0]	n/a	catFR1	0	R1174T
1933.069	1.617	1940446	WORD	n/a	wordpools/wordpool_categorized_EN.txt	FLUTE	Instruments	7	14	[0, 0, 0]	n/a	catFR1	0	R1174T
1934.686	0.833	1942062	WORD_OFF	n/a	n/a	FLUTE	n/a	7	14	[0, 0, 0]	n/a	catFR1	0	R1174T
1935.519	1.617	1942895	WORD	n/a	wordpools/wordpool_categorized_EN.txt	VIOLIN	Instruments	8	14	[0, 0, 0]	n/a	catFR1	0	R1174T
1937.136	0.784	1944512	WORD_OFF	n/a	n/a	VIOLIN	n/a	8	14	[0, 0, 0]	n/a	catFR1	0	R1174T
1937.92	1.617	1945296	WORD	n/a	wordpools/wordpool_categorized_EN.txt	WHALE	OceanAnimals	9	14	[0, 0, 0]	n/a	catFR1	0	R1174T
1939.537	0.916	1946913	WORD_OFF	n/a	n/a	WHALE	n/a	9	14	[0, 0, 0]	n/a	catFR1	0	R1174T
1940.453	1.617	1947829	WORD	n/a	wordpools/wordpool_categorized_EN.txt	PLANKTON	OceanAnimals	10	14	[0, 0, 0]	n/a	catFR1	0	R1174T
1942.07	0.867	1949446	WORD_OFF	n/a	n/a	PLANKTON	n/a	10	14	[0, 0, 0]	n/a	catFR1	0	R1174T
1942.937	1.617	1950313	WORD	n/a	wordpools/wordpool_categorized_EN.txt	SPEAKER	Electronics	11	14	[0, 0, 0]	n/a	catFR1	0	R1174T
1944.554	0.984	1951930	WORD_OFF	n/a	n/a	SPEAKER	n/a	11	14	[0, 0, 0]	n/a	catFR1	0	R1174T
1945.538	1.617	1952914	WORD	n/a	wordpools/wordpool_categorized_EN.txt	PRINTER	Electronics	12	14	[0, 0, 0]	n/a	catFR1	0	R1174T
1947.155	0.0	1954531	WORD_OFF	n/a	n/a	PRINTER	n/a	12	14	[0, 0, 0]	n/a	catFR1	0	R1174T
1947.155	0.103	1954531	ENCODING_END	n/a	n/a	n/a	n/a	-999	14	[0, 0, 0]	n/a	catFR1	0	R1174T
1947.258	0.0	1954634	DISTRACT_START	n/a	n/a	n/a	n/a	-999	14	[0, 0, 0]	n/a	catFR1	0	R1174T
1947.258	0.012	1954634	START	n/a	n/a	n/a	n/a	-999	14	[-999, -999, -999]	n/a	catFR1	0	R1174T
1947.27	7.436	1954646	PROB	7.399	n/a	n/a	n/a	-999	14	[6, 4, 2]	12.0	catFR1	0	R1174T
1954.706	6.285	1962081	PROB	6.251	n/a	n/a	n/a	-999	14	[2, 4, 9]	15.0	catFR1	0	R1174T
1960.991	11.206	1968366	PROB	11.206	n/a	n/a	n/a	-999	14	[5, 6, 6]	17.0	catFR1	0	R1174T
1972.197	0.013	1979571	STOP	n/a	n/a	n/a	n/a	-999	14	[-999, -999, -999]	n/a	catFR1	0	R1174T
1972.21	0.566	1979584	DISTRACT_END	n/a	n/a	n/a	n/a	-999	14	[0, 0, 0]	n/a	catFR1	0	R1174T
1972.776	0.516	1980150	RETRIEVAL_ORIENT	n/a	n/a	n/a	n/a	-999	14	[0, 0, 0]	n/a	catFR1	0	R1174T
1973.292	2.896	1980666	REC_START	n/a	n/a	n/a	n/a	-999	14	[0, 0, 0]	n/a	catFR1	0	R1174T
1976.188	1.242	1983562	REC_WORD	2.896	n/a	SPEAKER	Electronics	11	14	[0, 0, 0]	n/a	catFR1	0	R1174T
1977.43	1.013	1984804	REC_WORD	4.138	n/a	COMPUTER	Electronics	5	14	[0, 0, 0]	n/a	catFR1	0	R1174T
1978.443	0.996	1985817	REC_WORD	5.151	n/a	TABLE	n/a	-999	14	[0, 0, 0]	n/a	catFR1	0	R1174T
1979.439	23.865	1986813	REC_WORD	6.147	n/a	ORGAN	Instruments	4	14	[0, 0, 0]	n/a	catFR1	0	R1174T
2003.304	7.429	2010676	REC_END	n/a	n/a	n/a	n/a	-999	14	[0, 0, 0]	n/a	catFR1	0	R1174T
2010.733	0.5	2018105	TRIAL	n/a	n/a	n/a	n/a	-999	15	[0, 0, 0]	n/a	catFR1	0	R1174T
2011.233	10.428	2018605	COUNTDOWN_START	n/a	n/a	n/a	n/a	-999	15	[0, 0, 0]	n/a	catFR1	0	R1174T
2021.661	0.007	2029032	COUNTDOWN_END	n/a	n/a	n/a	n/a	-999	15	[0, 0, 0]	n/a	catFR1	0	R1174T
2021.668	1.616	2029039	ORIENT	n/a	n/a	n/a	n/a	-999	15	[0, 0, 0]	n/a	catFR1	0	R1174T
2023.284	2.017	2030655	ORIENT_OFF	n/a	n/a	n/a	n/a	-999	15	[0, 0, 0]	n/a	catFR1	0	R1174T
2025.301	1.618	2032672	WORD	n/a	wordpools/wordpool_categorized_EN.txt	FLY	Insects	1	15	[0, 0, 0]	n/a	catFR1	0	R1174T
2026.919	0.934	2034290	WORD_OFF	n/a	n/a	FLY	n/a	1	15	[0, 0, 0]	n/a	catFR1	0	R1174T
2027.853	1.617	2035224	WORD	n/a	wordpools/wordpool_categorized_EN.txt	GNAT	Insects	2	15	[0, 0, 0]	n/a	catFR1	0	R1174T
2029.47	1.017	2036841	WORD_OFF	n/a	n/a	GNAT	n/a	2	15	[0, 0, 0]	n/a	catFR1	0	R1174T
2030.487	1.616	2037858	WORD	n/a	wordpools/wordpool_categorized_EN.txt	AXE	Tools	3	15	[0, 0, 0]	n/a	catFR1	0	R1174T
2032.103	0.867	2039474	WORD_OFF	n/a	n/a	AXE	n/a	3	15	[0, 0, 0]	n/a	catFR1	0	R1174T
2032.97	1.617	2040341	WORD	n/a	wordpools/wordpool_categorized_EN.txt	SANDER	Tools	4	15	[0, 0, 0]	n/a	catFR1	0	R1174T
2034.587	0.934	2041958	WORD_OFF	n/a	n/a	SANDER	n/a	4	15	[0, 0, 0]	n/a	catFR1	0	R1174T
2035.521	1.617	2042891	WORD	n/a	wordpools/wordpool_categorized_EN.txt	BINDER	OfficeSupplies	5	15	[0, 0, 0]	n/a	catFR1	0	R1174T
2037.138	0.783	2044508	WORD_OFF	n/a	n/a	BINDER	n/a	5	15	[0, 0, 0]	n/a	catFR1	0	R1174T
2037.921	1.617	2045291	WORD	n/a	wordpools/wordpool_categorized_EN.txt	ERASER	OfficeSupplies	6	15	[0, 0, 0]	n/a	catFR1	0	R1174T
2039.538	0.9	2046908	WORD_OFF	n/a	n/a	ERASER	n/a	6	15	[0, 0, 0]	n/a	catFR1	0	R1174T
2040.438	1.617	2047808	WORD	n/a	wordpools/wordpool_categorized_EN.txt	DRILL	Tools	7	15	[0, 0, 0]	n/a	catFR1	0	R1174T
2042.055	0.767	2049425	WORD_OFF	n/a	n/a	DRILL	n/a	7	15	[0, 0, 0]	n/a	catFR1	0	R1174T
2042.822	1.617	2050192	WORD	n/a	wordpools/wordpool_categorized_EN.txt	LEVEL	Tools	8	15	[0, 0, 0]	n/a	catFR1	0	R1174T
2044.439	0.817	2051809	WORD_OFF	n/a	n/a	LEVEL	n/a	8	15	[0, 0, 0]	n/a	catFR1	0	R1174T
2045.256	1.617	2052626	WORD	n/a	wordpools/wordpool_categorized_EN.txt	SPIDER	Insects	9	15	[0, 0, 0]	n/a	catFR1	0	R1174T
2046.873	0.967	2054243	WORD_OFF	n/a	n/a	SPIDER	n/a	9	15	[0, 0, 0]	n/a	catFR1	0	R1174T
2047.84	1.617	2055210	WORD	n/a	wordpools/wordpool_categorized_EN.txt	BEETLE	Insects	10	15	[0, 0, 0]	n/a	catFR1	0	R1174T
2049.457	0.966	2056827	WORD_OFF	n/a	n/a	BEETLE	n/a	10	15	[0, 0, 0]	n/a	catFR1	0	R1174T
2050.423	1.617	2057793	WORD	n/a	wordpools/wordpool_categorized_EN.txt	FOLDER	OfficeSupplies	11	15	[0, 0, 0]	n/a	catFR1	0	R1174T
2052.04	0.984	2059410	WORD_OFF	n/a	n/a	FOLDER	n/a	11	15	[0, 0, 0]	n/a	catFR1	0	R1174T
2053.024	1.617	2060393	WORD	n/a	wordpools/wordpool_categorized_EN.txt	TAPE	OfficeSupplies	12	15	[0, 0, 0]	n/a	catFR1	0	R1174T
2054.641	0.0	2062010	ENCODING_END	n/a	n/a	n/a	n/a	-999	15	[0, 0, 0]	n/a	catFR1	0	R1174T
2054.641	0.145	2062010	WORD_OFF	n/a	n/a	TAPE	n/a	12	15	[0, 0, 0]	n/a	catFR1	0	R1174T
2054.786	0.0	2062155	DISTRACT_START	n/a	n/a	n/a	n/a	-999	15	[0, 0, 0]	n/a	catFR1	0	R1174T
2054.786	0.022	2062155	START	n/a	n/a	n/a	n/a	-999	15	[-999, -999, -999]	n/a	catFR1	0	R1174T
2054.808	7.251	2062177	PROB	7.214	n/a	n/a	n/a	-999	15	[1, 1, 4]	6.0	catFR1	0	R1174T
2062.059	6.451	2069428	PROB	6.427	n/a	n/a	n/a	-999	15	[4, 3, 7]	14.0	catFR1	0	R1174T
2068.51	3.951	2075879	PROB	3.927	n/a	n/a	n/a	-999	15	[5, 9, 2]	16.0	catFR1	0	R1174T
2072.461	3.896	2079829	PROB	3.896	n/a	n/a	n/a	-999	15	[8, 2, 6]	16.0	catFR1	0	R1174T
2076.357	0.02	2083725	STOP	n/a	n/a	n/a	n/a	-999	15	[-999, -999, -999]	n/a	catFR1	0	R1174T
2076.377	0.685	2083745	DISTRACT_END	n/a	n/a	n/a	n/a	-999	15	[0, 0, 0]	n/a	catFR1	0	R1174T
2077.062	0.517	2084430	RETRIEVAL_ORIENT	n/a	n/a	n/a	n/a	-999	15	[0, 0, 0]	n/a	catFR1	0	R1174T
2077.579	3.081	2084947	REC_START	n/a	n/a	n/a	n/a	-999	15	[0, 0, 0]	n/a	catFR1	0	R1174T
2080.66	1.255	2088028	REC_WORD	3.081	n/a	FLY	Insects	1	15	[0, 0, 0]	n/a	catFR1	0	R1174T
2081.915	1.138	2089283	REC_WORD	4.336	n/a	GNAT	Insects	2	15	[0, 0, 0]	n/a	catFR1	0	R1174T
2083.053	24.536	2090421	REC_WORD	5.474	n/a	SPIDER	Insects	9	15	[0, 0, 0]	n/a	catFR1	0	R1174T
2107.589	10.497	2114955	REC_END	n/a	n/a	n/a	n/a	-999	15	[0, 0, 0]	n/a	catFR1	0	R1174T
2118.086	0.5	2125452	TRIAL	n/a	n/a	n/a	n/a	-999	16	[0, 0, 0]	n/a	catFR1	0	R1174T
2118.586	10.428	2125952	COUNTDOWN_START	n/a	n/a	n/a	n/a	-999	16	[0, 0, 0]	n/a	catFR1	0	R1174T
2129.014	0.007	2136379	COUNTDOWN_END	n/a	n/a	n/a	n/a	-999	16	[0, 0, 0]	n/a	catFR1	0	R1174T
2129.021	1.617	2136386	ORIENT	n/a	n/a	n/a	n/a	-999	16	[0, 0, 0]	n/a	catFR1	0	R1174T
2130.638	1.917	2138003	ORIENT_OFF	n/a	n/a	n/a	n/a	-999	16	[0, 0, 0]	n/a	catFR1	0	R1174T
2132.555	1.617	2139920	WORD	n/a	wordpools/wordpool_categorized_EN.txt	BUS	Vehicles	1	16	[0, 0, 0]	n/a	catFR1	0	R1174T
2134.172	0.9	2141537	WORD_OFF	n/a	n/a	BUS	n/a	1	16	[0, 0, 0]	n/a	catFR1	0	R1174T
2135.072	1.617	2142437	WORD	n/a	wordpools/wordpool_categorized_EN.txt	CAR	Vehicles	2	16	[0, 0, 0]	n/a	catFR1	0	R1174T
2136.689	0.784	2144053	WORD_OFF	n/a	n/a	CAR	n/a	2	16	[0, 0, 0]	n/a	catFR1	0	R1174T
2137.473	1.617	2144837	WORD	n/a	wordpools/wordpool_categorized_EN.txt	MOTH	Insects	3	16	[0, 0, 0]	n/a	catFR1	0	R1174T
2139.09	0.916	2146454	WORD_OFF	n/a	n/a	MOTH	n/a	3	16	[0, 0, 0]	n/a	catFR1	0	R1174T
2140.006	1.617	2147370	WORD	n/a	wordpools/wordpool_categorized_EN.txt	LADYBUG	Insects	4	16	[0, 0, 0]	n/a	catFR1	0	R1174T
2141.623	1.001	2148987	WORD_OFF	n/a	n/a	LADYBUG	n/a	4	16	[0, 0, 0]	n/a	catFR1	0	R1174T
2142.624	1.616	2149988	WORD	n/a	wordpools/wordpool_categorized_EN.txt	GORILLA	Zoo	5	16	[0, 0, 0]	n/a	catFR1	0	R1174T
2144.24	0.967	2151604	WORD_OFF	n/a	n/a	GORILLA	n/a	5	16	[0, 0, 0]	n/a	catFR1	0	R1174T
2145.207	1.617	2152571	WORD	n/a	wordpools/wordpool_categorized_EN.txt	TIGER	Zoo	6	16	[0, 0, 0]	n/a	catFR1	0	R1174T
2146.824	0.867	2154188	WORD_OFF	n/a	n/a	TIGER	n/a	6	16	[0, 0, 0]	n/a	catFR1	0	R1174T
2147.691	1.616	2155055	WORD	n/a	wordpools/wordpool_categorized_EN.txt	BUTTERFLY	Insects	7	16	[0, 0, 0]	n/a	catFR1	0	R1174T
2149.307	0.851	2156671	WORD_OFF	n/a	n/a	BUTTERFLY	n/a	7	16	[0, 0, 0]	n/a	catFR1	0	R1174T
2150.158	1.617	2157522	WORD	n/a	wordpools/wordpool_categorized_EN.txt	BEE	Insects	8	16	[0, 0, 0]	n/a	catFR1	0	R1174T
2151.775	0.95	2159139	WORD_OFF	n/a	n/a	BEE	n/a	8	16	[0, 0, 0]	n/a	catFR1	0	R1174T
2152.725	1.616	2160089	WORD	n/a	wordpools/wordpool_categorized_EN.txt	BOAT	Vehicles	9	16	[0, 0, 0]	n/a	catFR1	0	R1174T
2154.341	0.918	2161704	WORD_OFF	n/a	n/a	BOAT	n/a	9	16	[0, 0, 0]	n/a	catFR1	0	R1174T
2155.259	1.617	2162622	WORD	n/a	wordpools/wordpool_categorized_EN.txt	MOTORCYCLE	Vehicles	10	16	[0, 0, 0]	n/a	catFR1	0	R1174T
2156.876	0.817	2164239	WORD_OFF	n/a	n/a	MOTORCYCLE	n/a	10	16	[0, 0, 0]	n/a	catFR1	0	R1174T
2157.693	1.616	2165056	WORD	n/a	wordpools/wordpool_categorized_EN.txt	LION	Zoo	11	16	[0, 0, 0]	n/a	catFR1	0	R1174T
2159.309	0.818	2166672	WORD_OFF	n/a	n/a	LION	n/a	11	16	[0, 0, 0]	n/a	catFR1	0	R1174T
2160.127	1.617	2167490	WORD	n/a	wordpools/wordpool_categorized_EN.txt	BEAR	Zoo	12	16	[0, 0, 0]	n/a	catFR1	0	R1174T
2161.744	0.0	2169107	ENCODING_END	n/a	n/a	n/a	n/a	-999	16	[0, 0, 0]	n/a	catFR1	0	R1174T
2161.744	0.102	2169107	WORD_OFF	n/a	n/a	BEAR	n/a	12	16	[0, 0, 0]	n/a	catFR1	0	R1174T
2161.846	0.001	2169209	DISTRACT_START	n/a	n/a	n/a	n/a	-999	16	[0, 0, 0]	n/a	catFR1	0	R1174T
2161.847	0.013	2169210	START	n/a	n/a	n/a	n/a	-999	16	[-999, -999, -999]	n/a	catFR1	0	R1174T
2161.86	8.635	2169223	PROB	8.601	n/a	n/a	n/a	-999	16	[3, 4, 4]	11.0	catFR1	0	R1174T
2170.495	11.169	2177857	PROB	11.142	n/a	n/a	n/a	-999	16	[8, 5, 4]	17.0	catFR1	0	R1174T
2181.664	11.661	2189026	PROB	11.661	n/a	n/a	n/a	-999	16	[6, 7, 5]	18.0	catFR1	0	R1174T
2193.325	0.007	2200686	STOP	n/a	n/a	n/a	n/a	-999	16	[-999, -999, -999]	n/a	catFR1	0	R1174T
2193.332	0.534	2200693	DISTRACT_END	n/a	n/a	n/a	n/a	-999	16	[0, 0, 0]	n/a	catFR1	0	R1174T
2193.866	0.518	2201227	RETRIEVAL_ORIENT	n/a	n/a	n/a	n/a	-999	16	[0, 0, 0]	n/a	catFR1	0	R1174T
2194.384	6.01	2201745	REC_START	n/a	n/a	n/a	n/a	-999	16	[0, 0, 0]	n/a	catFR1	0	R1174T
2200.394	1.61	2207755	REC_WORD	6.01	n/a	GORILLA	Zoo	5	16	[0, 0, 0]	n/a	catFR1	0	R1174T
2202.004	22.388	2209365	REC_WORD	7.62	n/a	LION	Zoo	11	16	[0, 0, 0]	n/a	catFR1	0	R1174T
2224.392	6.798	2231751	REC_END	n/a	n/a	n/a	n/a	-999	16	[0, 0, 0]	n/a	catFR1	0	R1174T
2231.19	0.5	2238549	TRIAL	n/a	n/a	n/a	n/a	-999	17	[0, 0, 0]	n/a	catFR1	0	R1174T
2231.69	10.428	2239049	COUNTDOWN_START	n/a	n/a	n/a	n/a	-999	17	[0, 0, 0]	n/a	catFR1	0	R1174T
2242.118	0.007	2249476	COUNTDOWN_END	n/a	n/a	n/a	n/a	-999	17	[0, 0, 0]	n/a	catFR1	0	R1174T
2242.125	1.617	2249483	ORIENT	n/a	n/a	n/a	n/a	-999	17	[0, 0, 0]	n/a	catFR1	0	R1174T
2243.742	2.167	2251100	ORIENT_OFF	n/a	n/a	n/a	n/a	-999	17	[0, 0, 0]	n/a	catFR1	0	R1174T
2245.909	1.617	2253267	WORD	n/a	wordpools/wordpool_categorized_EN.txt	COFFEE	Beverages	1	17	[0, 0, 0]	n/a	catFR1	0	R1174T
2247.526	0.833	2254884	WORD_OFF	n/a	n/a	COFFEE	n/a	1	17	[0, 0, 0]	n/a	catFR1	0	R1174T
2248.359	1.617	2255717	WORD	n/a	wordpools/wordpool_categorized_EN.txt	WATER	Beverages	2	17	[0, 0, 0]	n/a	catFR1	0	R1174T
2249.976	0.801	2257334	WORD_OFF	n/a	n/a	WATER	n/a	2	17	[0, 0, 0]	n/a	catFR1	0	R1174T
2250.777	1.616	2258135	WORD	n/a	wordpools/wordpool_categorized_EN.txt	GLUE	OfficeSupplies	3	17	[0, 0, 0]	n/a	catFR1	0	R1174T
2252.393	0.95	2259751	WORD_OFF	n/a	n/a	GLUE	n/a	3	17	[0, 0, 0]	n/a	catFR1	0	R1174T
2253.343	1.618	2260701	WORD	n/a	wordpools/wordpool_categorized_EN.txt	STAPLER	OfficeSupplies	4	17	[0, 0, 0]	n/a	catFR1	0	R1174T
2254.961	0.8	2262318	WORD_OFF	n/a	n/a	STAPLER	n/a	4	17	[0, 0, 0]	n/a	catFR1	0	R1174T
2255.761	1.616	2263118	WORD	n/a	wordpools/wordpool_categorized_EN.txt	CUPCAKE	Desserts	5	17	[0, 0, 0]	n/a	catFR1	0	R1174T
2257.377	0.966	2264734	WORD_OFF	n/a	n/a	CUPCAKE	n/a	5	17	[0, 0, 0]	n/a	catFR1	0	R1174T
2258.343	1.602	2265700	WORD	n/a	wordpools/wordpool_categorized_EN.txt	COOKIE	Desserts	6	17	[0, 0, 0]	n/a	catFR1	0	R1174T
2259.945	0.867	2267302	WORD_OFF	n/a	n/a	COOKIE	n/a	6	17	[0, 0, 0]	n/a	catFR1	0	R1174T
2260.812	1.616	2268169	WORD	n/a	wordpools/wordpool_categorized_EN.txt	PENCIL	OfficeSupplies	7	17	[0, 0, 0]	n/a	catFR1	0	R1174T
2262.428	0.867	2269785	WORD_OFF	n/a	n/a	PENCIL	n/a	7	17	[0, 0, 0]	n/a	catFR1	0	R1174T
2263.295	1.618	2270652	WORD	n/a	wordpools/wordpool_categorized_EN.txt	PEN	OfficeSupplies	8	17	[0, 0, 0]	n/a	catFR1	0	R1174T
2264.913	0.866	2272270	WORD_OFF	n/a	n/a	PEN	n/a	8	17	[0, 0, 0]	n/a	catFR1	0	R1174T
2265.779	1.616	2273136	WORD	n/a	wordpools/wordpool_categorized_EN.txt	COLA	Beverages	9	17	[0, 0, 0]	n/a	catFR1	0	R1174T
2267.395	0.951	2274752	WORD_OFF	n/a	n/a	COLA	n/a	9	17	[0, 0, 0]	n/a	catFR1	0	R1174T
2268.346	1.617	2275703	WORD	n/a	wordpools/wordpool_categorized_EN.txt	MILK	Beverages	10	17	[0, 0, 0]	n/a	catFR1	0	R1174T
2269.963	1.001	2277320	WORD_OFF	n/a	n/a	MILK	n/a	10	17	[0, 0, 0]	n/a	catFR1	0	R1174T
2270.964	1.617	2278321	WORD	n/a	wordpools/wordpool_categorized_EN.txt	JELLO	Desserts	11	17	[0, 0, 0]	n/a	catFR1	0	R1174T
2272.581	0.933	2279937	WORD_OFF	n/a	n/a	JELLO	n/a	11	17	[0, 0, 0]	n/a	catFR1	0	R1174T
2273.514	1.617	2280870	WORD	n/a	wordpools/wordpool_categorized_EN.txt	CHEESECAKE	Desserts	12	17	[0, 0, 0]	n/a	catFR1	0	R1174T
2275.131	0.0	2282487	ENCODING_END	n/a	n/a	n/a	n/a	-999	17	[0, 0, 0]	n/a	catFR1	0	R1174T
2275.131	0.102	2282487	WORD_OFF	n/a	n/a	CHEESECAKE	n/a	12	17	[0, 0, 0]	n/a	catFR1	0	R1174T
2275.233	0.001	2282589	DISTRACT_START	n/a	n/a	n/a	n/a	-999	17	[0, 0, 0]	n/a	catFR1	0	R1174T
2275.234	0.014	2282590	START	n/a	n/a	n/a	n/a	-999	17	[-999, -999, -999]	n/a	catFR1	0	R1174T
2275.248	3.867	2282604	PROB	3.838	n/a	n/a	n/a	-999	17	[3, 3, 1]	7.0	catFR1	0	R1174T
2279.115	20.082	2286471	PROB	20.082	n/a	n/a	n/a	-999	17	[6, 6, 9]	21.0	catFR1	0	R1174T
2299.197	0.022	2306552	STOP	n/a	n/a	n/a	n/a	-999	17	[-999, -999, -999]	n/a	catFR1	0	R1174T
2299.219	0.633	2306574	DISTRACT_END	n/a	n/a	n/a	n/a	-999	17	[0, 0, 0]	n/a	catFR1	0	R1174T
2299.852	0.517	2307207	RETRIEVAL_ORIENT	n/a	n/a	n/a	n/a	-999	17	[0, 0, 0]	n/a	catFR1	0	R1174T
2300.369	3.527	2307724	REC_START	n/a	n/a	n/a	n/a	-999	17	[0, 0, 0]	n/a	catFR1	0	R1174T
2303.896	3.606	2311251	REC_WORD	3.527	n/a	COFFEE	Beverages	1	17	[0, 0, 0]	n/a	catFR1	0	R1174T
2307.502	2.024	2314856	REC_WORD	7.133	n/a	WATER	Beverages	2	17	[0, 0, 0]	n/a	catFR1	0	R1174T
2309.526	20.853	2316880	REC_WORD	9.157	n/a	COLA	Beverages	9	17	[0, 0, 0]	n/a	catFR1	0	R1174T
2330.379	7.88	2337732	REC_END	n/a	n/a	n/a	n/a	-999	17	[0, 0, 0]	n/a	catFR1	0	R1174T
2338.259	0.5	2345612	TRIAL	n/a	n/a	n/a	n/a	-999	18	[0, 0, 0]	n/a	catFR1	0	R1174T
2338.759	10.428	2346112	COUNTDOWN_START	n/a	n/a	n/a	n/a	-999	18	[0, 0, 0]	n/a	catFR1	0	R1174T
2349.187	0.008	2356539	COUNTDOWN_END	n/a	n/a	n/a	n/a	-999	18	[0, 0, 0]	n/a	catFR1	0	R1174T
2349.195	1.616	2356547	ORIENT	n/a	n/a	n/a	n/a	-999	18	[0, 0, 0]	n/a	catFR1	0	R1174T
2350.811	2.268	2358163	ORIENT_OFF	n/a	n/a	n/a	n/a	-999	18	[0, 0, 0]	n/a	catFR1	0	R1174T
2353.079	1.617	2360431	WORD	n/a	wordpools/wordpool_categorized_EN.txt	BIRCH	Trees	1	18	[0, 0, 0]	n/a	catFR1	0	R1174T
2354.696	0.916	2362048	WORD_OFF	n/a	n/a	BIRCH	n/a	1	18	[0, 0, 0]	n/a	catFR1	0	R1174T
2355.612	1.617	2362964	WORD	n/a	wordpools/wordpool_categorized_EN.txt	CEDAR	Trees	2	18	[0, 0, 0]	n/a	catFR1	0	R1174T
2357.229	0.967	2364580	WORD_OFF	n/a	n/a	CEDAR	n/a	2	18	[0, 0, 0]	n/a	catFR1	0	R1174T
2358.196	1.617	2365547	WORD	n/a	wordpools/wordpool_categorized_EN.txt	DOLPHIN	OceanAnimals	3	18	[0, 0, 0]	n/a	catFR1	0	R1174T
2359.813	0.867	2367164	WORD_OFF	n/a	n/a	DOLPHIN	n/a	3	18	[0, 0, 0]	n/a	catFR1	0	R1174T
2360.68	1.616	2368031	WORD	n/a	wordpools/wordpool_categorized_EN.txt	LOBSTER	OceanAnimals	4	18	[0, 0, 0]	n/a	catFR1	0	R1174T
2362.296	0.983	2369647	WORD_OFF	n/a	n/a	LOBSTER	n/a	4	18	[0, 0, 0]	n/a	catFR1	0	R1174T
2363.279	1.618	2370630	WORD	n/a	wordpools/wordpool_categorized_EN.txt	PAPER	OfficeSupplies	5	18	[0, 0, 0]	n/a	catFR1	0	R1174T
2364.897	0.9	2372248	WORD_OFF	n/a	n/a	PAPER	n/a	5	18	[0, 0, 0]	n/a	catFR1	0	R1174T
2365.797	1.616	2373148	WORD	n/a	wordpools/wordpool_categorized_EN.txt	MARKER	OfficeSupplies	6	18	[0, 0, 0]	n/a	catFR1	0	R1174T
2367.413	0.768	2374764	WORD_OFF	n/a	n/a	MARKER	n/a	6	18	[0, 0, 0]	n/a	catFR1	0	R1174T
2368.181	1.617	2375532	WORD	n/a	wordpools/wordpool_categorized_EN.txt	PINE	Trees	7	18	[0, 0, 0]	n/a	catFR1	0	R1174T
2369.798	0.934	2377149	WORD_OFF	n/a	n/a	PINE	n/a	7	18	[0, 0, 0]	n/a	catFR1	0	R1174T
2370.732	1.616	2378083	WORD	n/a	wordpools/wordpool_categorized_EN.txt	OAK	Trees	8	18	[0, 0, 0]	n/a	catFR1	0	R1174T
2372.348	0.901	2379699	WORD_OFF	n/a	n/a	OAK	n/a	8	18	[0, 0, 0]	n/a	catFR1	0	R1174T
2373.249	1.617	2380599	WORD	n/a	wordpools/wordpool_categorized_EN.txt	OCTOPUS	OceanAnimals	9	18	[0, 0, 0]	n/a	catFR1	0	R1174T
2374.866	0.85	2382216	WORD_OFF	n/a	n/a	OCTOPUS	n/a	9	18	[0, 0, 0]	n/a	catFR1	0	R1174T
2375.716	1.616	2383066	WORD	n/a	wordpools/wordpool_categorized_EN.txt	CRAB	OceanAnimals	10	18	[0, 0, 0]	n/a	catFR1	0	R1174T
2377.332	0.851	2384682	WORD_OFF	n/a	n/a	CRAB	n/a	10	18	[0, 0, 0]	n/a	catFR1	0	R1174T
2378.183	1.617	2385533	WORD	n/a	wordpools/wordpool_categorized_EN.txt	NOTEBOOK	OfficeSupplies	11	18	[0, 0, 0]	n/a	catFR1	0	R1174T
2379.8	0.884	2387150	WORD_OFF	n/a	n/a	NOTEBOOK	n/a	11	18	[0, 0, 0]	n/a	catFR1	0	R1174T
2380.684	1.615	2388034	WORD	n/a	wordpools/wordpool_categorized_EN.txt	RULER	OfficeSupplies	12	18	[0, 0, 0]	n/a	catFR1	0	R1174T
2382.299	0.001	2389649	WORD_OFF	n/a	n/a	RULER	n/a	12	18	[0, 0, 0]	n/a	catFR1	0	R1174T
2382.3	0.138	2389650	ENCODING_END	n/a	n/a	n/a	n/a	-999	18	[0, 0, 0]	n/a	catFR1	0	R1174T
2382.438	0.0	2389788	DISTRACT_START	n/a	n/a	n/a	n/a	-999	18	[0, 0, 0]	n/a	catFR1	0	R1174T
2382.438	0.013	2389788	START	n/a	n/a	n/a	n/a	-999	18	[-999, -999, -999]	n/a	catFR1	0	R1174T
2382.451	12.135	2389801	PROB	12.099	n/a	n/a	n/a	-999	18	[6, 8, 5]	19.0	catFR1	0	R1174T
2394.586	3.201	2401935	PROB	3.163	n/a	n/a	n/a	-999	18	[4, 1, 3]	8.0	catFR1	0	R1174T
2397.787	3.217	2405136	PROB	3.179	n/a	n/a	n/a	-999	18	[2, 9, 1]	12.0	catFR1	0	R1174T
2401.004	2.433	2408353	PROB	2.433	n/a	n/a	n/a	-999	18	[1, 1, 5]	7.0	catFR1	0	R1174T
2403.437	0.018	2410786	STOP	n/a	n/a	n/a	n/a	-999	18	[-999, -999, -999]	n/a	catFR1	0	R1174T
2403.455	0.649	2410804	DISTRACT_END	n/a	n/a	n/a	n/a	-999	18	[0, 0, 0]	n/a	catFR1	0	R1174T
2404.104	0.518	2411453	RETRIEVAL_ORIENT	n/a	n/a	n/a	n/a	-999	18	[0, 0, 0]	n/a	catFR1	0	R1174T
2404.622	5.405	2411971	REC_START	n/a	n/a	n/a	n/a	-999	18	[0, 0, 0]	n/a	catFR1	0	R1174T
2410.027	24.605	2417375	REC_WORD	5.405	n/a	NOTEBOOK	OfficeSupplies	11	18	[0, 0, 0]	n/a	catFR1	0	R1174T
2434.632	8.58	2441979	REC_END	n/a	n/a	n/a	n/a	-999	18	[0, 0, 0]	n/a	catFR1	0	R1174T
2443.212	0.5	2450558	TRIAL	n/a	n/a	n/a	n/a	-999	19	[0, 0, 0]	n/a	catFR1	0	R1174T
2443.712	10.428	2451058	COUNTDOWN_START	n/a	n/a	n/a	n/a	-999	19	[0, 0, 0]	n/a	catFR1	0	R1174T
2454.14	0.007	2461486	COUNTDOWN_END	n/a	n/a	n/a	n/a	-999	19	[0, 0, 0]	n/a	catFR1	0	R1174T
2454.147	1.617	2461493	ORIENT	n/a	n/a	n/a	n/a	-999	19	[0, 0, 0]	n/a	catFR1	0	R1174T
2455.764	2.034	2463110	ORIENT_OFF	n/a	n/a	n/a	n/a	-999	19	[0, 0, 0]	n/a	catFR1	0	R1174T
2457.798	1.616	2465143	WORD	n/a	wordpools/wordpool_categorized_EN.txt	POTATO	Vegetables	1	19	[0, 0, 0]	n/a	catFR1	0	R1174T
2459.414	0.9	2466759	WORD_OFF	n/a	n/a	POTATO	n/a	1	19	[0, 0, 0]	n/a	catFR1	0	R1174T
2460.314	1.618	2467659	WORD	n/a	wordpools/wordpool_categorized_EN.txt	LETTUCE	Vegetables	2	19	[0, 0, 0]	n/a	catFR1	0	R1174T
2461.932	0.95	2469277	WORD_OFF	n/a	n/a	LETTUCE	n/a	2	19	[0, 0, 0]	n/a	catFR1	0	R1174T
2462.882	1.617	2470227	WORD	n/a	wordpools/wordpool_categorized_EN.txt	JUICE	Beverages	3	19	[0, 0, 0]	n/a	catFR1	0	R1174T
2464.499	0.832	2471844	WORD_OFF	n/a	n/a	JUICE	n/a	3	19	[0, 0, 0]	n/a	catFR1	0	R1174T
2465.331	1.618	2472676	WORD	n/a	wordpools/wordpool_categorized_EN.txt	RUM	Beverages	4	19	[0, 0, 0]	n/a	catFR1	0	R1174T
2466.949	0.967	2474294	WORD_OFF	n/a	n/a	RUM	n/a	4	19	[0, 0, 0]	n/a	catFR1	0	R1174T
2467.916	1.617	2475261	WORD	n/a	wordpools/wordpool_categorized_EN.txt	HALLWAY	Building	5	19	[0, 0, 0]	n/a	catFR1	0	R1174T
2469.533	0.899	2476878	WORD_OFF	n/a	n/a	HALLWAY	n/a	5	19	[0, 0, 0]	n/a	catFR1	0	R1174T
2470.432	1.618	2477777	WORD	n/a	wordpools/wordpool_categorized_EN.txt	FLOOR	Building	6	19	[0, 0, 0]	n/a	catFR1	0	R1174T
2472.05	0.967	2479395	WORD_OFF	n/a	n/a	FLOOR	n/a	6	19	[0, 0, 0]	n/a	catFR1	0	R1174T
2473.017	1.617	2480362	WORD	n/a	wordpools/wordpool_categorized_EN.txt	BROCCOLI	Vegetables	7	19	[0, 0, 0]	n/a	catFR1	0	R1174T
2474.634	0.984	2481978	WORD_OFF	n/a	n/a	BROCCOLI	n/a	7	19	[0, 0, 0]	n/a	catFR1	0	R1174T
2475.618	1.616	2482962	WORD	n/a	wordpools/wordpool_categorized_EN.txt	SPINACH	Vegetables	8	19	[0, 0, 0]	n/a	catFR1	0	R1174T
2477.234	0.951	2484578	WORD_OFF	n/a	n/a	SPINACH	n/a	8	19	[0, 0, 0]	n/a	catFR1	0	R1174T
2478.185	1.617	2485529	WORD	n/a	wordpools/wordpool_categorized_EN.txt	CIDER	Beverages	9	19	[0, 0, 0]	n/a	catFR1	0	R1174T
2479.802	0.983	2487146	WORD_OFF	n/a	n/a	CIDER	n/a	9	19	[0, 0, 0]	n/a	catFR1	0	R1174T
2480.785	1.616	2488129	WORD	n/a	wordpools/wordpool_categorized_EN.txt	SODA	Beverages	10	19	[0, 0, 0]	n/a	catFR1	0	R1174T
2482.401	0.9	2489745	WORD_OFF	n/a	n/a	SODA	n/a	10	19	[0, 0, 0]	n/a	catFR1	0	R1174T
2483.301	1.618	2490645	WORD	n/a	wordpools/wordpool_categorized_EN.txt	WINDOW	Building	11	19	[0, 0, 0]	n/a	catFR1	0	R1174T
2484.919	0.817	2492263	WORD_OFF	n/a	n/a	WINDOW	n/a	11	19	[0, 0, 0]	n/a	catFR1	0	R1174T
2485.736	1.616	2493080	WORD	n/a	wordpools/wordpool_categorized_EN.txt	STAIRS	Building	12	19	[0, 0, 0]	n/a	catFR1	0	R1174T
2487.352	0.0	2494696	ENCODING_END	n/a	n/a	n/a	n/a	-999	19	[0, 0, 0]	n/a	catFR1	0	R1174T
2487.352	0.104	2494696	WORD_OFF	n/a	n/a	STAIRS	n/a	12	19	[0, 0, 0]	n/a	catFR1	0	R1174T
2487.456	0.0	2494800	DISTRACT_START	n/a	n/a	n/a	n/a	-999	19	[0, 0, 0]	n/a	catFR1	0	R1174T
2487.456	0.014	2494800	START	n/a	n/a	n/a	n/a	-999	19	[-999, -999, -999]	n/a	catFR1	0	R1174T
2487.47	5.251	2494814	PROB	5.215	n/a	n/a	n/a	-999	19	[3, 7, 1]	11.0	catFR1	0	R1174T
2492.721	5.917	2500064	PROB	5.885	n/a	n/a	n/a	-999	19	[7, 8, 5]	20.0	catFR1	0	R1174T
2498.638	4.418	2505981	PROB	4.383	n/a	n/a	n/a	-999	19	[6, 2, 7]	15.0	catFR1	0	R1174T
2503.056	18.229	2510399	PROB	18.229	n/a	n/a	n/a	-999	19	[6, 7, 8]	21.0	catFR1	0	R1174T
2521.285	0.006	2528627	STOP	n/a	n/a	n/a	n/a	-999	19	[-999, -999, -999]	n/a	catFR1	0	R1174T
2521.291	0.618	2528633	DISTRACT_END	n/a	n/a	n/a	n/a	-999	19	[0, 0, 0]	n/a	catFR1	0	R1174T
2521.909	0.517	2529251	RETRIEVAL_ORIENT	n/a	n/a	n/a	n/a	-999	19	[0, 0, 0]	n/a	catFR1	0	R1174T
2522.426	28.615	2529768	REC_START	n/a	n/a	n/a	n/a	-999	19	[0, 0, 0]	n/a	catFR1	0	R1174T
2551.041	1.397	2558381	REC_WORD	28.615	n/a	PINE	n/a	-999	19	[0, 0, 0]	n/a	catFR1	0	R1174T
2552.438	24.315	2559778	REC_END	n/a	n/a	n/a	n/a	-999	19	[0, 0, 0]	n/a	catFR1	0	R1174T
2576.753	0.5	2584091	TRIAL	n/a	n/a	n/a	n/a	-999	20	[0, 0, 0]	n/a	catFR1	0	R1174T
2577.253	10.428	2584591	COUNTDOWN_START	n/a	n/a	n/a	n/a	-999	20	[0, 0, 0]	n/a	catFR1	0	R1174T
2587.681	0.007	2595019	COUNTDOWN_END	n/a	n/a	n/a	n/a	-999	20	[0, 0, 0]	n/a	catFR1	0	R1174T
2587.688	1.616	2595026	ORIENT	n/a	n/a	n/a	n/a	-999	20	[0, 0, 0]	n/a	catFR1	0	R1174T
2589.304	2.0	2596642	ORIENT_OFF	n/a	n/a	n/a	n/a	-999	20	[0, 0, 0]	n/a	catFR1	0	R1174T
2591.304	1.601	2598642	WORD	n/a	wordpools/wordpool_categorized_EN.txt	SHRIMP	OceanAnimals	1	20	[0, 0, 0]	n/a	catFR1	0	R1174T
2592.905	0.817	2600242	WORD_OFF	n/a	n/a	SHRIMP	n/a	1	20	[0, 0, 0]	n/a	catFR1	0	R1174T
2593.722	1.616	2601059	WORD	n/a	wordpools/wordpool_categorized_EN.txt	OYSTER	OceanAnimals	2	20	[0, 0, 0]	n/a	catFR1	0	R1174T
2595.338	1.001	2602675	WORD_OFF	n/a	n/a	OYSTER	n/a	2	20	[0, 0, 0]	n/a	catFR1	0	R1174T
2596.339	1.617	2603676	WORD	n/a	wordpools/wordpool_categorized_EN.txt	ORANGE	Fruit	3	20	[0, 0, 0]	n/a	catFR1	0	R1174T
2597.956	0.917	2605293	WORD_OFF	n/a	n/a	ORANGE	n/a	3	20	[0, 0, 0]	n/a	catFR1	0	R1174T
2598.873	1.617	2606210	WORD	n/a	wordpools/wordpool_categorized_EN.txt	BLUEBERRY	Fruit	4	20	[0, 0, 0]	n/a	catFR1	0	R1174T
2600.49	0.933	2607827	WORD_OFF	n/a	n/a	BLUEBERRY	n/a	4	20	[0, 0, 0]	n/a	catFR1	0	R1174T
2601.423	1.617	2608760	WORD	n/a	wordpools/wordpool_categorized_EN.txt	IRON	Appliances	5	20	[0, 0, 0]	n/a	catFR1	0	R1174T
2603.04	0.801	2610377	WORD_OFF	n/a	n/a	IRON	n/a	5	20	[0, 0, 0]	n/a	catFR1	0	R1174T
2603.841	1.617	2611178	WORD	n/a	wordpools/wordpool_categorized_EN.txt	BLENDER	Appliances	6	20	[0, 0, 0]	n/a	catFR1	0	R1174T
2605.458	0.866	2612795	WORD_OFF	n/a	n/a	BLENDER	n/a	6	20	[0, 0, 0]	n/a	catFR1	0	R1174T
2606.324	1.618	2613661	WORD	n/a	wordpools/wordpool_categorized_EN.txt	BANANA	Fruit	7	20	[0, 0, 0]	n/a	catFR1	0	R1174T
2607.942	0.866	2615279	WORD_OFF	n/a	n/a	BANANA	n/a	7	20	[0, 0, 0]	n/a	catFR1	0	R1174T
2608.808	1.616	2616145	WORD	n/a	wordpools/wordpool_categorized_EN.txt	PLUM	Fruit	8	20	[0, 0, 0]	n/a	catFR1	0	R1174T
2610.424	0.802	2617760	WORD_OFF	n/a	n/a	PLUM	n/a	8	20	[0, 0, 0]	n/a	catFR1	0	R1174T
2611.226	1.616	2618562	WORD	n/a	wordpools/wordpool_categorized_EN.txt	FISH	OceanAnimals	9	20	[0, 0, 0]	n/a	catFR1	0	R1174T
2612.842	0.767	2620178	WORD_OFF	n/a	n/a	FISH	n/a	9	20	[0, 0, 0]	n/a	catFR1	0	R1174T
2613.609	1.617	2620945	WORD	n/a	wordpools/wordpool_categorized_EN.txt	JELLYFISH	OceanAnimals	10	20	[0, 0, 0]	n/a	catFR1	0	R1174T
2615.226	0.984	2622562	WORD_OFF	n/a	n/a	JELLYFISH	n/a	10	20	[0, 0, 0]	n/a	catFR1	0	R1174T
2616.21	1.617	2623546	WORD	n/a	wordpools/wordpool_categorized_EN.txt	OVEN	Appliances	11	20	[0, 0, 0]	n/a	catFR1	0	R1174T
2617.827	0.867	2625163	WORD_OFF	n/a	n/a	OVEN	n/a	11	20	[0, 0, 0]	n/a	catFR1	0	R1174T
2618.694	1.615	2626030	WORD	n/a	wordpools/wordpool_categorized_EN.txt	DISHWASHER	Appliances	12	20	[0, 0, 0]	n/a	catFR1	0	R1174T
2620.309	0.001	2627645	WORD_OFF	n/a	n/a	DISHWASHER	n/a	12	20	[0, 0, 0]	n/a	catFR1	0	R1174T
2620.31	0.102	2627646	ENCODING_END	n/a	n/a	n/a	n/a	-999	20	[0, 0, 0]	n/a	catFR1	0	R1174T
2620.412	0.001	2627748	DISTRACT_START	n/a	n/a	n/a	n/a	-999	20	[0, 0, 0]	n/a	catFR1	0	R1174T
2620.413	0.013	2627749	START	n/a	n/a	n/a	n/a	-999	20	[-999, -999, -999]	n/a	catFR1	0	R1174T
2620.426	11.27	2627762	PROB	11.235	n/a	n/a	n/a	-999	20	[7, 2, 4]	13.0	catFR1	0	R1174T
2631.696	2.45	2639031	PROB	2.421	n/a	n/a	n/a	-999	20	[3, 5, 5]	13.0	catFR1	0	R1174T
2634.146	8.155	2641481	PROB	8.155	n/a	n/a	n/a	-999	20	[5, 8, 7]	20.0	catFR1	0	R1174T
2642.301	0.013	2649636	STOP	n/a	n/a	n/a	n/a	-999	20	[-999, -999, -999]	n/a	catFR1	0	R1174T
2642.314	0.684	2649649	DISTRACT_END	n/a	n/a	n/a	n/a	-999	20	[0, 0, 0]	n/a	catFR1	0	R1174T
2642.998	0.518	2650333	RETRIEVAL_ORIENT	n/a	n/a	n/a	n/a	-999	20	[0, 0, 0]	n/a	catFR1	0	R1174T
2643.516	4.632	2650850	REC_START	n/a	n/a	n/a	n/a	-999	20	[0, 0, 0]	n/a	catFR1	0	R1174T
2648.148	0.793	2655482	REC_WORD	4.632	n/a	BLUEBERRY	Fruit	4	20	[0, 0, 0]	n/a	catFR1	0	R1174T
2648.941	0.917	2656275	REC_WORD	5.425	n/a	SHRIMP	OceanAnimals	1	20	[0, 0, 0]	n/a	catFR1	0	R1174T
2649.858	23.667	2657192	REC_WORD	6.342	n/a	OVEN	Appliances	11	20	[0, 0, 0]	n/a	catFR1	0	R1174T
2673.525	6.33	2680858	REC_END	n/a	n/a	n/a	n/a	-999	20	[0, 0, 0]	n/a	catFR1	0	R1174T
2679.855	0.5	2687187	TRIAL	n/a	n/a	n/a	n/a	-999	21	[0, 0, 0]	n/a	catFR1	0	R1174T
2680.355	10.428	2687687	COUNTDOWN_START	n/a	n/a	n/a	n/a	-999	21	[0, 0, 0]	n/a	catFR1	0	R1174T
2690.783	0.007	2698115	COUNTDOWN_END	n/a	n/a	n/a	n/a	-999	21	[0, 0, 0]	n/a	catFR1	0	R1174T
2690.79	1.616	2698122	ORIENT	n/a	n/a	n/a	n/a	-999	21	[0, 0, 0]	n/a	catFR1	0	R1174T
2692.406	2.035	2699738	ORIENT_OFF	n/a	n/a	n/a	n/a	-999	21	[0, 0, 0]	n/a	catFR1	0	R1174T
2694.441	1.616	2701772	WORD	n/a	wordpools/wordpool_categorized_EN.txt	ISLAND	Landscapes	1	21	[0, 0, 0]	n/a	catFR1	0	R1174T
2696.057	0.767	2703388	WORD_OFF	n/a	n/a	ISLAND	n/a	1	21	[0, 0, 0]	n/a	catFR1	0	R1174T
2696.824	1.617	2704155	WORD	n/a	wordpools/wordpool_categorized_EN.txt	FOREST	Landscapes	2	21	[0, 0, 0]	n/a	catFR1	0	R1174T
2698.441	0.916	2705772	WORD_OFF	n/a	n/a	FOREST	n/a	2	21	[0, 0, 0]	n/a	catFR1	0	R1174T
2699.357	1.618	2706688	WORD	n/a	wordpools/wordpool_categorized_EN.txt	SOCKS	Clothing	3	21	[0, 0, 0]	n/a	catFR1	0	R1174T
2700.975	0.934	2708306	WORD_OFF	n/a	n/a	SOCKS	n/a	3	21	[0, 0, 0]	n/a	catFR1	0	R1174T
2701.909	1.617	2709240	WORD	n/a	wordpools/wordpool_categorized_EN.txt	UNDERWEAR	Clothing	4	21	[0, 0, 0]	n/a	catFR1	0	R1174T
2703.526	0.882	2710857	WORD_OFF	n/a	n/a	UNDERWEAR	n/a	4	21	[0, 0, 0]	n/a	catFR1	0	R1174T
2704.408	1.618	2711739	WORD	n/a	wordpools/wordpool_categorized_EN.txt	CAKE	Desserts	5	21	[0, 0, 0]	n/a	catFR1	0	R1174T
2706.026	0.934	2713357	WORD_OFF	n/a	n/a	CAKE	n/a	5	21	[0, 0, 0]	n/a	catFR1	0	R1174T
2706.96	1.616	2714291	WORD	n/a	wordpools/wordpool_categorized_EN.txt	FUDGE	Desserts	6	21	[0, 0, 0]	n/a	catFR1	0	R1174T
2708.576	0.85	2715907	WORD_OFF	n/a	n/a	FUDGE	n/a	6	21	[0, 0, 0]	n/a	catFR1	0	R1174T
2709.426	1.618	2716757	WORD	n/a	wordpools/wordpool_categorized_EN.txt	VALLEY	Landscapes	7	21	[0, 0, 0]	n/a	catFR1	0	R1174T
2711.044	0.983	2718374	WORD_OFF	n/a	n/a	VALLEY	n/a	7	21	[0, 0, 0]	n/a	catFR1	0	R1174T
2712.027	1.617	2719357	WORD	n/a	wordpools/wordpool_categorized_EN.txt	STREAM	Landscapes	8	21	[0, 0, 0]	n/a	catFR1	0	R1174T
2713.644	1.0	2720974	WORD_OFF	n/a	n/a	STREAM	n/a	8	21	[0, 0, 0]	n/a	catFR1	0	R1174T
2714.644	1.616	2721974	WORD	n/a	wordpools/wordpool_categorized_EN.txt	SHORTS	Clothing	9	21	[0, 0, 0]	n/a	catFR1	0	R1174T
2716.26	0.951	2723590	WORD_OFF	n/a	n/a	SHORTS	n/a	9	21	[0, 0, 0]	n/a	catFR1	0	R1174T
2717.211	1.617	2724541	WORD	n/a	wordpools/wordpool_categorized_EN.txt	COAT	Clothing	10	21	[0, 0, 0]	n/a	catFR1	0	R1174T
2718.828	0.967	2726158	WORD_OFF	n/a	n/a	COAT	n/a	10	21	[0, 0, 0]	n/a	catFR1	0	R1174T
2719.795	1.616	2727125	WORD	n/a	wordpools/wordpool_categorized_EN.txt	BROWNIES	Desserts	11	21	[0, 0, 0]	n/a	catFR1	0	R1174T
2721.411	0.95	2728741	WORD_OFF	n/a	n/a	BROWNIES	n/a	11	21	[0, 0, 0]	n/a	catFR1	0	R1174T
2722.361	1.618	2729691	WORD	n/a	wordpools/wordpool_categorized_EN.txt	COBBLER	Desserts	12	21	[0, 0, 0]	n/a	catFR1	0	R1174T
2723.979	0.001	2731309	WORD_OFF	n/a	n/a	COBBLER	n/a	12	21	[0, 0, 0]	n/a	catFR1	0	R1174T
2723.98	0.139	2731310	ENCODING_END	n/a	n/a	n/a	n/a	-999	21	[0, 0, 0]	n/a	catFR1	0	R1174T
2724.119	0.0	2731449	DISTRACT_START	n/a	n/a	n/a	n/a	-999	21	[0, 0, 0]	n/a	catFR1	0	R1174T
2724.119	0.01	2731449	START	n/a	n/a	n/a	n/a	-999	21	[-999, -999, -999]	n/a	catFR1	0	R1174T
2724.129	6.051	2731459	PROB	6.02	n/a	n/a	n/a	-999	21	[2, 4, 2]	8.0	catFR1	0	R1174T
2730.18	11.553	2737509	PROB	11.521	n/a	n/a	n/a	-999	21	[8, 6, 7]	21.0	catFR1	0	R1174T
2741.733	6.616	2749062	PROB	6.616	n/a	n/a	n/a	-999	21	[8, 1, 3]	12.0	catFR1	0	R1174T
2748.349	0.017	2755677	STOP	n/a	n/a	n/a	n/a	-999	21	[-999, -999, -999]	n/a	catFR1	0	R1174T
2748.366	0.534	2755694	DISTRACT_END	n/a	n/a	n/a	n/a	-999	21	[0, 0, 0]	n/a	catFR1	0	R1174T
2748.9	0.517	2756228	RETRIEVAL_ORIENT	n/a	n/a	n/a	n/a	-999	21	[0, 0, 0]	n/a	catFR1	0	R1174T
2749.417	3.86	2756745	REC_START	n/a	n/a	n/a	n/a	-999	21	[0, 0, 0]	n/a	catFR1	0	R1174T
2753.277	1.986	2760605	REC_WORD	3.86	n/a	UNDERWEAR	Clothing	4	21	[0, 0, 0]	n/a	catFR1	0	R1174T
2755.263	3.775	2762591	REC_WORD	5.846	n/a	SOCKS	Clothing	3	21	[0, 0, 0]	n/a	catFR1	0	R1174T
2759.038	11.308	2766366	REC_WORD	9.621	n/a	COAT	Clothing	10	21	[0, 0, 0]	n/a	catFR1	0	R1174T
2770.346	9.08	2777673	REC_WORD	20.929	n/a	COBBLER	Desserts	12	21	[0, 0, 0]	n/a	catFR1	0	R1174T
2779.426	8.598	2786752	REC_END	n/a	n/a	n/a	n/a	-999	21	[0, 0, 0]	n/a	catFR1	0	R1174T
2788.024	0.5	2795350	TRIAL	n/a	n/a	n/a	n/a	-999	22	[0, 0, 0]	n/a	catFR1	0	R1174T
2788.524	10.428	2795850	COUNTDOWN_START	n/a	n/a	n/a	n/a	-999	22	[0, 0, 0]	n/a	catFR1	0	R1174T
2798.952	0.008	2806277	COUNTDOWN_END	n/a	n/a	n/a	n/a	-999	22	[0, 0, 0]	n/a	catFR1	0	R1174T
2798.96	1.617	2806285	ORIENT	n/a	n/a	n/a	n/a	-999	22	[0, 0, 0]	n/a	catFR1	0	R1174T
2800.577	2.25	2807902	ORIENT_OFF	n/a	n/a	n/a	n/a	-999	22	[0, 0, 0]	n/a	catFR1	0	R1174T
2802.827	1.617	2810152	WORD	n/a	wordpools/wordpool_categorized_EN.txt	PUZZLE	Toys	1	22	[0, 0, 0]	n/a	catFR1	0	R1174T
2804.444	1.017	2811769	WORD_OFF	n/a	n/a	PUZZLE	n/a	1	22	[0, 0, 0]	n/a	catFR1	0	R1174T
2805.461	1.617	2812786	WORD	n/a	wordpools/wordpool_categorized_EN.txt	MARBLES	Toys	2	22	[0, 0, 0]	n/a	catFR1	0	R1174T
2807.078	0.767	2814403	WORD_OFF	n/a	n/a	MARBLES	n/a	2	22	[0, 0, 0]	n/a	catFR1	0	R1174T
2807.845	1.617	2815170	WORD	n/a	wordpools/wordpool_categorized_EN.txt	GUITAR	Instruments	3	22	[0, 0, 0]	n/a	catFR1	0	R1174T
2809.462	0.882	2816787	WORD_OFF	n/a	n/a	GUITAR	n/a	3	22	[0, 0, 0]	n/a	catFR1	0	R1174T
2810.344	1.618	2817669	WORD	n/a	wordpools/wordpool_categorized_EN.txt	BANJO	Instruments	4	22	[0, 0, 0]	n/a	catFR1	0	R1174T
2811.962	0.967	2819286	WORD_OFF	n/a	n/a	BANJO	n/a	4	22	[0, 0, 0]	n/a	catFR1	0	R1174T
2812.929	1.617	2820253	WORD	n/a	wordpools/wordpool_categorized_EN.txt	OCEAN	Landscapes	5	22	[0, 0, 0]	n/a	catFR1	0	R1174T
2814.546	0.866	2821870	WORD_OFF	n/a	n/a	OCEAN	n/a	5	22	[0, 0, 0]	n/a	catFR1	0	R1174T
2815.412	1.618	2822736	WORD	n/a	wordpools/wordpool_categorized_EN.txt	MOUNTAIN	Landscapes	6	22	[0, 0, 0]	n/a	catFR1	0	R1174T
2817.03	0.95	2824354	WORD_OFF	n/a	n/a	MOUNTAIN	n/a	6	22	[0, 0, 0]	n/a	catFR1	0	R1174T
2817.98	1.617	2825304	WORD	n/a	wordpools/wordpool_categorized_EN.txt	CELLO	Instruments	7	22	[0, 0, 0]	n/a	catFR1	0	R1174T
2819.597	0.766	2826921	WORD_OFF	n/a	n/a	CELLO	n/a	7	22	[0, 0, 0]	n/a	catFR1	0	R1174T
2820.363	1.617	2827687	WORD	n/a	wordpools/wordpool_categorized_EN.txt	TROMBONE	Instruments	8	22	[0, 0, 0]	n/a	catFR1	0	R1174T
2821.98	0.951	2829304	WORD_OFF	n/a	n/a	TROMBONE	n/a	8	22	[0, 0, 0]	n/a	catFR1	0	R1174T
2822.931	1.617	2830255	WORD	n/a	wordpools/wordpool_categorized_EN.txt	FOOTBALL	Toys	9	22	[0, 0, 0]	n/a	catFR1	0	R1174T
2824.548	1.0	2831872	WORD_OFF	n/a	n/a	FOOTBALL	n/a	9	22	[0, 0, 0]	n/a	catFR1	0	R1174T
2825.548	1.617	2832872	WORD	n/a	wordpools/wordpool_categorized_EN.txt	BLOCKS	Toys	10	22	[0, 0, 0]	n/a	catFR1	0	R1174T
2827.165	0.783	2834489	WORD_OFF	n/a	n/a	BLOCKS	n/a	10	22	[0, 0, 0]	n/a	catFR1	0	R1174T
2827.948	1.617	2835272	WORD	n/a	wordpools/wordpool_categorized_EN.txt	BEACH	Landscapes	11	22	[0, 0, 0]	n/a	catFR1	0	R1174T
2829.565	1.0	2836888	WORD_OFF	n/a	n/a	BEACH	n/a	11	22	[0, 0, 0]	n/a	catFR1	0	R1174T
2830.565	1.617	2837888	WORD	n/a	wordpools/wordpool_categorized_EN.txt	RIVER	Landscapes	12	22	[0, 0, 0]	n/a	catFR1	0	R1174T
2832.182	0.001	2839505	WORD_OFF	n/a	n/a	RIVER	n/a	12	22	[0, 0, 0]	n/a	catFR1	0	R1174T
2832.183	0.104	2839506	ENCODING_END	n/a	n/a	n/a	n/a	-999	22	[0, 0, 0]	n/a	catFR1	0	R1174T
2832.287	0.0	2839610	DISTRACT_START	n/a	n/a	n/a	n/a	-999	22	[0, 0, 0]	n/a	catFR1	0	R1174T
2832.287	0.011	2839610	START	n/a	n/a	n/a	n/a	-999	22	[-999, -999, -999]	n/a	catFR1	0	R1174T
2832.298	19.288	2839621	PROB	19.251	n/a	n/a	n/a	-999	22	[9, 8, 6]	23.0	catFR1	0	R1174T
2851.586	3.267	2858908	PROB	3.267	n/a	n/a	n/a	-999	22	[1, 7, 3]	11.0	catFR1	0	R1174T
2854.853	0.017	2862175	STOP	n/a	n/a	n/a	n/a	-999	22	[-999, -999, -999]	n/a	catFR1	0	R1174T
2854.87	0.65	2862192	DISTRACT_END	n/a	n/a	n/a	n/a	-999	22	[0, 0, 0]	n/a	catFR1	0	R1174T
2855.52	0.518	2862842	RETRIEVAL_ORIENT	n/a	n/a	n/a	n/a	-999	22	[0, 0, 0]	n/a	catFR1	0	R1174T
2856.038	8.075	2863360	REC_START	n/a	n/a	n/a	n/a	-999	22	[0, 0, 0]	n/a	catFR1	0	R1174T
2864.113	1.95	2871434	REC_WORD	8.075	n/a	GUITAR	Instruments	3	22	[0, 0, 0]	n/a	catFR1	0	R1174T
2866.063	8.225	2873384	REC_WORD	10.025	n/a	BANJO	Instruments	4	22	[0, 0, 0]	n/a	catFR1	0	R1174T
2874.288	11.761	2881609	REC_WORD	18.25	n/a	MOUNTAIN	Landscapes	6	22	[0, 0, 0]	n/a	catFR1	0	R1174T
2886.049	9.145	2893369	REC_END	n/a	n/a	n/a	n/a	-999	22	[0, 0, 0]	n/a	catFR1	0	R1174T
2895.194	0.5	2902514	TRIAL	n/a	n/a	n/a	n/a	-999	23	[0, 0, 0]	n/a	catFR1	0	R1174T
2895.694	10.428	2903014	COUNTDOWN_START	n/a	n/a	n/a	n/a	-999	23	[0, 0, 0]	n/a	catFR1	0	R1174T
2906.122	0.007	2913441	COUNTDOWN_END	n/a	n/a	n/a	n/a	-999	23	[0, 0, 0]	n/a	catFR1	0	R1174T
2906.129	1.617	2913448	ORIENT	n/a	n/a	n/a	n/a	-999	23	[0, 0, 0]	n/a	catFR1	0	R1174T
2907.746	1.95	2915065	ORIENT_OFF	n/a	n/a	n/a	n/a	-999	23	[0, 0, 0]	n/a	catFR1	0	R1174T
2909.696	1.616	2917015	WORD	n/a	wordpools/wordpool_categorized_EN.txt	CABBAGE	Vegetables	1	23	[0, 0, 0]	n/a	catFR1	0	R1174T
2911.312	1.017	2918631	WORD_OFF	n/a	n/a	CABBAGE	n/a	1	23	[0, 0, 0]	n/a	catFR1	0	R1174T
2912.329	1.618	2919648	WORD	n/a	wordpools/wordpool_categorized_EN.txt	PEAS	Vegetables	2	23	[0, 0, 0]	n/a	catFR1	0	R1174T
2913.947	0.85	2921265	WORD_OFF	n/a	n/a	PEAS	n/a	2	23	[0, 0, 0]	n/a	catFR1	0	R1174T
2914.797	1.616	2922115	WORD	n/a	wordpools/wordpool_categorized_EN.txt	ARM	BodyParts	3	23	[0, 0, 0]	n/a	catFR1	0	R1174T
2916.413	0.984	2923731	WORD_OFF	n/a	n/a	ARM	n/a	3	23	[0, 0, 0]	n/a	catFR1	0	R1174T
2917.397	1.601	2924715	WORD	n/a	wordpools/wordpool_categorized_EN.txt	LEG	BodyParts	4	23	[0, 0, 0]	n/a	catFR1	0	R1174T
2918.998	0.984	2926316	WORD_OFF	n/a	n/a	LEG	n/a	4	23	[0, 0, 0]	n/a	catFR1	0	R1174T
2919.982	1.617	2927300	WORD	n/a	wordpools/wordpool_categorized_EN.txt	PEELER	KitchenTools	5	23	[0, 0, 0]	n/a	catFR1	0	R1174T
2921.599	0.782	2928917	WORD_OFF	n/a	n/a	PEELER	n/a	5	23	[0, 0, 0]	n/a	catFR1	0	R1174T
2922.381	1.618	2929699	WORD	n/a	wordpools/wordpool_categorized_EN.txt	LADLE	KitchenTools	6	23	[0, 0, 0]	n/a	catFR1	0	R1174T
2923.999	1.0	2931317	WORD_OFF	n/a	n/a	LADLE	n/a	6	23	[0, 0, 0]	n/a	catFR1	0	R1174T
2924.999	1.617	2932317	WORD	n/a	wordpools/wordpool_categorized_EN.txt	CARROT	Vegetables	7	23	[0, 0, 0]	n/a	catFR1	0	R1174T
2926.616	0.9	2933934	WORD_OFF	n/a	n/a	CARROT	n/a	7	23	[0, 0, 0]	n/a	catFR1	0	R1174T
2927.516	1.617	2934834	WORD	n/a	wordpools/wordpool_categorized_EN.txt	CUCUMBER	Vegetables	8	23	[0, 0, 0]	n/a	catFR1	0	R1174T
2929.133	0.95	2936451	WORD_OFF	n/a	n/a	CUCUMBER	n/a	8	23	[0, 0, 0]	n/a	catFR1	0	R1174T
2930.083	1.601	2937401	WORD	n/a	wordpools/wordpool_categorized_EN.txt	HEAD	BodyParts	9	23	[0, 0, 0]	n/a	catFR1	0	R1174T
2931.684	0.783	2939001	WORD_OFF	n/a	n/a	HEAD	n/a	9	23	[0, 0, 0]	n/a	catFR1	0	R1174T
2932.467	1.617	2939784	WORD	n/a	wordpools/wordpool_categorized_EN.txt	HAND	BodyParts	10	23	[0, 0, 0]	n/a	catFR1	0	R1174T
2934.084	0.917	2941401	WORD_OFF	n/a	n/a	HAND	n/a	10	23	[0, 0, 0]	n/a	catFR1	0	R1174T
2935.001	1.617	2942318	WORD	n/a	wordpools/wordpool_categorized_EN.txt	CORKSCREW	KitchenTools	11	23	[0, 0, 0]	n/a	catFR1	0	R1174T
2936.618	0.917	2943935	WORD_OFF	n/a	n/a	CORKSCREW	n/a	11	23	[0, 0, 0]	n/a	catFR1	0	R1174T
2937.535	1.617	2944852	WORD	n/a	wordpools/wordpool_categorized_EN.txt	SPOON	KitchenTools	12	23	[0, 0, 0]	n/a	catFR1	0	R1174T
2939.152	0.0	2946469	ENCODING_END	n/a	n/a	n/a	n/a	-999	23	[0, 0, 0]	n/a	catFR1	0	R1174T
2939.152	0.102	2946469	WORD_OFF	n/a	n/a	SPOON	n/a	12	23	[0, 0, 0]	n/a	catFR1	0	R1174T
