onset	duration	sample	trial_type	response_time	stim_file	item_name	category	serialpos	list	test	answer	experiment	session	subject
0.0	0.008	60745	SESS_START	n/a	n/a	n/a	n/a	-999	0	[0, 0, 0]	n/a	catFR1	0	R1672T
0.008	45.74	60753	TRIAL	n/a	n/a	n/a	n/a	-999	-1	[0, 0, 0]	n/a	catFR1	0	R1672T
45.748	10.0	106493	COUNTDOWN	n/a	n/a	n/a	n/a	-999	-1	[0, 0, 0]	n/a	catFR1	0	R1672T
56.198	1.967	116943	ENCODING_START	n/a	n/a	n/a	n/a	-999	-1	[0, 0, 0]	n/a	catFR1	0	R1672T
58.165	1.6	118910	WORD	n/a	n/a	DOLPHIN	OceanAnimals	1	-1	[0, 0, 0]	n/a	catFR1	0	R1672T
60.597	1.6	121342	WORD	n/a	n/a	SQUID	OceanAnimals	2	-1	[0, 0, 0]	n/a	catFR1	0	R1672T
63.013	1.6	123758	WORD	n/a	n/a	TABLE	Furniture	3	-1	[0, 0, 0]	n/a	catFR1	0	R1672T
65.48	1.6	126225	WORD	n/a	n/a	DESK	Furniture	4	-1	[0, 0, 0]	n/a	catFR1	0	R1672T
67.88	1.6	128625	WORD	n/a	n/a	GOAT	FarmAnimals	5	-1	[0, 0, 0]	n/a	catFR1	0	R1672T
70.447	1.6	131192	WORD	n/a	n/a	PIG	FarmAnimals	6	-1	[0, 0, 0]	n/a	catFR1	0	R1672T
72.963	1.6	133708	WORD	n/a	n/a	PLANKTON	OceanAnimals	7	-1	[0, 0, 0]	n/a	catFR1	0	R1672T
75.562	1.6	136307	WORD	n/a	n/a	TURTLE	OceanAnimals	8	-1	[0, 0, 0]	n/a	catFR1	0	R1672T
77.996	1.6	138741	WORD	n/a	n/a	CALF	FarmAnimals	9	-1	[0, 0, 0]	n/a	catFR1	0	R1672T
80.579	1.6	141324	WORD	n/a	n/a	COW	FarmAnimals	10	-1	[0, 0, 0]	n/a	catFR1	0	R1672T
82.979	1.6	143724	WORD	n/a	n/a	CABINET	Furniture	11	-1	[0, 0, 0]	n/a	catFR1	0	R1672T
85.512	1.6	146257	WORD	n/a	n/a	RECLINER	Furniture	12	-1	[0, 0, 0]	n/a	catFR1	0	R1672T
87.114	0.0	147859	DISTRACT_START	n/a	n/a	n/a	n/a	-999	0	[0, 0, 0]	n/a	catFR1	0	R1672T
87.114	9.233	147859	PROB	9.216	n/a	n/a	n/a	-999	0	[1, 8, 2]	11.0	catFR1	0	R1672T
96.347	7.014	157092	PROB	6.998	n/a	n/a	n/a	-999	0	[6, 8, 4]	18.0	catFR1	0	R1672T
103.361	12.129	164106	PROB	9.866	n/a	n/a	n/a	-999	0	[7, 1, 3]	11.0	catFR1	0	R1672T
115.49	1.411	176235	REC_START	n/a	n/a	n/a	n/a	-999	-1	[0, 0, 0]	n/a	catFR1	0	R1672T
116.901	1.0	177646	REC_WORD_VV	1.411	n/a	<>	n/a	-999	-1	[0, 0, 0]	n/a	catFR1	0	R1672T
117.901	1.0	178646	REC_WORD_VV	2.411	n/a	<>	n/a	-999	-1	[0, 0, 0]	n/a	catFR1	0	R1672T
118.901	1.0	179646	REC_WORD_VV	3.411	n/a	<>	n/a	-999	-1	[0, 0, 0]	n/a	catFR1	0	R1672T
119.901	1.256	180646	REC_WORD_VV	4.411	n/a	<>	n/a	-999	-1	[0, 0, 0]	n/a	catFR1	0	R1672T
121.157	1.0	181902	REC_WORD_VV	5.667	n/a	<>	n/a	-999	-1	[0, 0, 0]	n/a	catFR1	0	R1672T
122.157	1.0	182902	REC_WORD_VV	6.667	n/a	<>	n/a	-999	-1	[0, 0, 0]	n/a	catFR1	0	R1672T
123.157	1.0	183902	REC_WORD_VV	7.667	n/a	<>	n/a	-999	-1	[0, 0, 0]	n/a	catFR1	0	R1672T
124.157	1.0	184902	REC_WORD_VV	8.667	n/a	<>	n/a	-999	-1	[0, 0, 0]	n/a	catFR1	0	R1672T
125.157	1.0	185902	REC_WORD_VV	9.667	n/a	<>	n/a	-999	-1	[0, 0, 0]	n/a	catFR1	0	R1672T
126.157	1.0	186902	REC_WORD_VV	10.667	n/a	<>	n/a	-999	-1	[0, 0, 0]	n/a	catFR1	0	R1672T
127.157	0.94	187902	REC_WORD_VV	11.667	n/a	<>	n/a	-999	-1	[0, 0, 0]	n/a	catFR1	0	R1672T
128.097	0.541	188842	REC_WORD	12.607	n/a	CALF	FarmAnimals	9	-1	[0, 0, 0]	n/a	catFR1	0	R1672T
128.638	2.359	189383	REC_WORD	13.148	n/a	CABINET	Furniture	11	-1	[0, 0, 0]	n/a	catFR1	0	R1672T
130.997	1.0	191742	REC_WORD	15.507	n/a	RECLINER	Furniture	12	-1	[0, 0, 0]	n/a	catFR1	0	R1672T
131.997	0.893	192742	REC_WORD_VV	16.507	n/a	<>	n/a	-999	-1	[0, 0, 0]	n/a	catFR1	0	R1672T
132.89	2.137	193635	REC_WORD_VV	17.4	n/a	<>	n/a	-999	-1	[0, 0, 0]	n/a	catFR1	0	R1672T
135.027	1.0	195772	REC_WORD_VV	19.537	n/a	<>	n/a	-999	-1	[0, 0, 0]	n/a	catFR1	0	R1672T
136.027	2.857	196772	REC_WORD_VV	20.537	n/a	<>	n/a	-999	-1	[0, 0, 0]	n/a	catFR1	0	R1672T
138.884	1.806	199629	REC_WORD	23.394	n/a	COW	FarmAnimals	10	-1	[0, 0, 0]	n/a	catFR1	0	R1672T
140.69	2.839	201435	REC_WORD	25.2	n/a	REMOTE	n/a	-999	-1	[0, 0, 0]	n/a	catFR1	0	R1672T
143.529	2.121	204274	REC_WORD_VV	28.039	n/a	<>	n/a	-999	-1	[0, 0, 0]	n/a	catFR1	0	R1672T
145.65	51.573	206395	TRIAL	n/a	n/a	n/a	n/a	-999	1	[0, 0, 0]	n/a	catFR1	0	R1672T
197.223	10.0	257968	COUNTDOWN	n/a	n/a	n/a	n/a	-999	1	[0, 0, 0]	n/a	catFR1	0	R1672T
207.572	2.25	268317	ENCODING_START	n/a	n/a	n/a	n/a	-999	1	[0, 0, 0]	n/a	catFR1	0	R1672T
209.822	1.6	270567	WORD	n/a	wordpools/wordpool_categorized_EN.txt	LETTUCE	Vegetables	1	1	[0, 0, 0]	n/a	catFR1	0	R1672T
212.389	1.6	273134	WORD	n/a	wordpools/wordpool_categorized_EN.txt	POTATO	Vegetables	2	1	[0, 0, 0]	n/a	catFR1	0	R1672T
214.822	1.6	275567	WORD	n/a	wordpools/wordpool_categorized_EN.txt	TURKEY	FarmAnimals	3	1	[0, 0, 0]	n/a	catFR1	0	R1672T
217.206	1.6	277951	WORD	n/a	wordpools/wordpool_categorized_EN.txt	CHICKEN	FarmAnimals	4	1	[0, 0, 0]	n/a	catFR1	0	R1672T
219.604	1.6	280349	WORD	n/a	wordpools/wordpool_categorized_EN.txt	WATER	Beverages	5	1	[0, 0, 0]	n/a	catFR1	0	R1672T
222.088	1.6	282833	WORD	n/a	wordpools/wordpool_categorized_EN.txt	LEMONADE	Beverages	6	1	[0, 0, 0]	n/a	catFR1	0	R1672T
224.622	1.6	285367	WORD	n/a	wordpools/wordpool_categorized_EN.txt	BULL	FarmAnimals	7	1	[0, 0, 0]	n/a	catFR1	0	R1672T
227.189	1.6	287934	WORD	n/a	wordpools/wordpool_categorized_EN.txt	SHEEP	FarmAnimals	8	1	[0, 0, 0]	n/a	catFR1	0	R1672T
229.638	1.6	290383	WORD	n/a	wordpools/wordpool_categorized_EN.txt	CUCUMBER	Vegetables	9	1	[0, 0, 0]	n/a	catFR1	0	R1672T
232.121	1.6	292866	WORD	n/a	wordpools/wordpool_categorized_EN.txt	CARROT	Vegetables	10	1	[0, 0, 0]	n/a	catFR1	0	R1672T
234.721	1.6	295466	WORD	n/a	wordpools/wordpool_categorized_EN.txt	CIDER	Beverages	11	1	[0, 0, 0]	n/a	catFR1	0	R1672T
237.222	1.6	297967	WORD	n/a	wordpools/wordpool_categorized_EN.txt	WINE	Beverages	12	1	[0, 0, 0]	n/a	catFR1	0	R1672T
238.822	0.001	299567	PROB	5.649	n/a	n/a	n/a	-999	1	[2, 6, 4]	12.0	catFR1	0	R1672T
238.823	5.666	299568	DISTRACT_START	n/a	n/a	n/a	n/a	-999	1	[0, 0, 0]	n/a	catFR1	0	R1672T
244.489	4.165	305234	PROB	4.149	n/a	n/a	n/a	-999	1	[1, 5, 2]	8.0	catFR1	0	R1672T
248.654	5.801	309399	PROB	5.783	n/a	n/a	n/a	-999	1	[7, 6, 8]	21.0	catFR1	0	R1672T
254.455	9.085	315200	PROB	6.8	n/a	n/a	n/a	-999	1	[7, 8, 2]	17.0	catFR1	0	R1672T
263.54	2.168	324285	REC_START	n/a	n/a	n/a	n/a	-999	1	[0, 0, 0]	n/a	catFR1	0	R1672T
265.708	0.829	326453	REC_WORD	2.168	n/a	COW	FarmAnimals	-999	1	[0, 0, 0]	n/a	catFR1	0	R1672T
266.537	0.775	327282	REC_WORD	2.997	n/a	BULL	FarmAnimals	7	1	[0, 0, 0]	n/a	catFR1	0	R1672T
267.312	1.147	328057	REC_WORD	3.772	n/a	SHEEP	FarmAnimals	8	1	[0, 0, 0]	n/a	catFR1	0	R1672T
268.459	2.007	329204	REC_WORD	4.919	n/a	CHICKEN	FarmAnimals	4	1	[0, 0, 0]	n/a	catFR1	0	R1672T
270.466	1.0	331211	REC_WORD_VV	6.926	n/a	<>	n/a	-999	1	[0, 0, 0]	n/a	catFR1	0	R1672T
271.466	0.652	332211	REC_WORD_VV	7.926	n/a	<>	n/a	-999	1	[0, 0, 0]	n/a	catFR1	0	R1672T
272.118	1.751	332863	REC_WORD	8.578	n/a	CUCUMBER	Vegetables	9	1	[0, 0, 0]	n/a	catFR1	0	R1672T
273.869	1.609	334614	REC_WORD	10.329	n/a	WINE	Beverages	12	1	[0, 0, 0]	n/a	catFR1	0	R1672T
275.478	2.818	336223	REC_WORD	11.938	n/a	CIDER	Beverages	11	1	[0, 0, 0]	n/a	catFR1	0	R1672T
278.296	1.0	339041	REC_WORD_VV	14.756	n/a	<>	n/a	-999	1	[0, 0, 0]	n/a	catFR1	0	R1672T
279.296	1.0	340041	REC_WORD_VV	15.756	n/a	<>	n/a	-999	1	[0, 0, 0]	n/a	catFR1	0	R1672T
280.296	1.086	341041	REC_WORD_VV	16.756	n/a	<>	n/a	-999	1	[0, 0, 0]	n/a	catFR1	0	R1672T
281.382	0.401	342127	REC_WORD_VV	17.842	n/a	<>	n/a	-999	1	[0, 0, 0]	n/a	catFR1	0	R1672T
281.783	1.02	342528	REC_WORD	18.243	n/a	PICKLE	n/a	-999	1	[0, 0, 0]	n/a	catFR1	0	R1672T
282.803	3.066	343548	REC_WORD	19.263	n/a	LETTUCE	Vegetables	1	1	[0, 0, 0]	n/a	catFR1	0	R1672T
285.869	5.596	346614	REC_WORD_VV	22.329	n/a	<>	n/a	-999	1	[0, 0, 0]	n/a	catFR1	0	R1672T
291.465	1.0	352210	REC_WORD_VV	27.925	n/a	<>	n/a	-999	1	[0, 0, 0]	n/a	catFR1	0	R1672T
292.465	1.221	353210	REC_WORD_VV	28.925	n/a	<>	n/a	-999	1	[0, 0, 0]	n/a	catFR1	0	R1672T
293.686	3.732	354431	TRIAL	n/a	n/a	n/a	n/a	-999	2	[0, 0, 0]	n/a	catFR1	0	R1672T
297.418	10.0	358163	COUNTDOWN	n/a	n/a	n/a	n/a	-999	2	[0, 0, 0]	n/a	catFR1	0	R1672T
307.768	2.133	368513	ENCODING_START	n/a	n/a	n/a	n/a	-999	2	[0, 0, 0]	n/a	catFR1	0	R1672T
309.901	1.6	370646	WORD	n/a	wordpools/wordpool_categorized_EN.txt	KNEE	BodyParts	1	2	[0, 0, 0]	n/a	catFR1	0	R1672T
312.484	1.6	373229	WORD	n/a	wordpools/wordpool_categorized_EN.txt	FINGERS	BodyParts	2	2	[0, 0, 0]	n/a	catFR1	0	R1672T
314.85	1.6	375595	WORD	n/a	wordpools/wordpool_categorized_EN.txt	LINEN	Fabric	3	2	[0, 0, 0]	n/a	catFR1	0	R1672T
317.467	1.6	378212	WORD	n/a	wordpools/wordpool_categorized_EN.txt	SUEDE	Fabric	4	2	[0, 0, 0]	n/a	catFR1	0	R1672T
320.0	1.6	380745	WORD	n/a	wordpools/wordpool_categorized_EN.txt	ELM	Trees	5	2	[0, 0, 0]	n/a	catFR1	0	R1672T
322.567	1.6	383312	WORD	n/a	wordpools/wordpool_categorized_EN.txt	WILLOW	Trees	6	2	[0, 0, 0]	n/a	catFR1	0	R1672T
325.098	1.6	385843	WORD	n/a	wordpools/wordpool_categorized_EN.txt	LEG	BodyParts	7	2	[0, 0, 0]	n/a	catFR1	0	R1672T
327.683	1.6	388428	WORD	n/a	wordpools/wordpool_categorized_EN.txt	ARM	BodyParts	8	2	[0, 0, 0]	n/a	catFR1	0	R1672T
330.116	1.6	390861	WORD	n/a	wordpools/wordpool_categorized_EN.txt	COTTON	Fabric	9	2	[0, 0, 0]	n/a	catFR1	0	R1672T
332.567	1.6	393312	WORD	n/a	wordpools/wordpool_categorized_EN.txt	LEATHER	Fabric	10	2	[0, 0, 0]	n/a	catFR1	0	R1672T
334.999	1.6	395744	WORD	n/a	wordpools/wordpool_categorized_EN.txt	HICKORY	Trees	11	2	[0, 0, 0]	n/a	catFR1	0	R1672T
337.532	1.6	398277	WORD	n/a	wordpools/wordpool_categorized_EN.txt	PINE	Trees	12	2	[0, 0, 0]	n/a	catFR1	0	R1672T
339.15	0.005	399895	PROB	5.749	n/a	n/a	n/a	-999	2	[2, 6, 6]	14.0	catFR1	0	R1672T
339.155	5.761	399900	DISTRACT_START	n/a	n/a	n/a	n/a	-999	2	[0, 0, 0]	n/a	catFR1	0	R1672T
344.916	4.832	405661	PROB	4.816	n/a	n/a	n/a	-999	2	[1, 2, 3]	6.0	catFR1	0	R1672T
349.748	4.951	410493	PROB	4.933	n/a	n/a	n/a	-999	2	[2, 7, 5]	14.0	catFR1	0	R1672T
354.699	8.311	415444	PROB	5.85	n/a	n/a	n/a	-999	2	[5, 6, 7]	18.0	catFR1	0	R1672T
363.01	0.315	423755	REC_START	n/a	n/a	n/a	n/a	-999	2	[0, 0, 0]	n/a	catFR1	0	R1672T
363.325	0.969	424070	REC_WORD_VV	0.315	n/a	<>	n/a	-999	2	[0, 0, 0]	n/a	catFR1	0	R1672T
364.294	1.051	425039	REC_WORD	1.284	n/a	COTTON	Fabric	9	2	[0, 0, 0]	n/a	catFR1	0	R1672T
365.345	1.831	426090	REC_WORD	2.335	n/a	SUEDE	Fabric	4	2	[0, 0, 0]	n/a	catFR1	0	R1672T
367.176	0.91	427921	REC_WORD	4.166	n/a	WILLOW	Trees	6	2	[0, 0, 0]	n/a	catFR1	0	R1672T
368.086	0.768	428831	REC_WORD	5.076	n/a	ELM	Trees	5	2	[0, 0, 0]	n/a	catFR1	0	R1672T
368.854	1.587	429599	REC_WORD	5.844	n/a	OAK	n/a	-999	2	[0, 0, 0]	n/a	catFR1	0	R1672T
370.441	1.869	431186	REC_WORD	7.431	n/a	KNEE	BodyParts	1	2	[0, 0, 0]	n/a	catFR1	0	R1672T
372.31	0.834	433055	REC_WORD	9.3	n/a	LEG	BodyParts	7	2	[0, 0, 0]	n/a	catFR1	0	R1672T
373.144	0.84	433889	REC_WORD	10.134	n/a	ARM	BodyParts	8	2	[0, 0, 0]	n/a	catFR1	0	R1672T
373.984	1.8	434729	REC_WORD	10.974	n/a	FINGERS	BodyParts	2	2	[0, 0, 0]	n/a	catFR1	0	R1672T
375.784	1.9	436529	REC_WORD	12.774	n/a	HEAD	n/a	-999	2	[0, 0, 0]	n/a	catFR1	0	R1672T
377.684	2.14	438429	REC_WORD_VV	14.674	n/a	<>	n/a	-999	2	[0, 0, 0]	n/a	catFR1	0	R1672T
379.824	1.055	440569	REC_WORD_VV	16.814	n/a	<>	n/a	-999	2	[0, 0, 0]	n/a	catFR1	0	R1672T
380.879	2.348	441624	REC_WORD	17.869	n/a	COTTON	Fabric	9	2	[0, 0, 0]	n/a	catFR1	0	R1672T
383.227	1.0	443972	REC_WORD_VV	20.217	n/a	<>	n/a	-999	2	[0, 0, 0]	n/a	catFR1	0	R1672T
384.227	0.716	444972	REC_WORD_VV	21.217	n/a	<>	n/a	-999	2	[0, 0, 0]	n/a	catFR1	0	R1672T
384.943	0.262	445688	REC_WORD_VV	21.933	n/a	<>	n/a	-999	2	[0, 0, 0]	n/a	catFR1	0	R1672T
385.205	2.076	445950	REC_WORD	22.195	n/a	ELM	Trees	5	2	[0, 0, 0]	n/a	catFR1	0	R1672T
387.281	2.672	448026	REC_WORD	24.271	n/a	WILLOW	Trees	6	2	[0, 0, 0]	n/a	catFR1	0	R1672T
389.953	3.213	450698	REC_WORD_VV	26.943	n/a	<>	n/a	-999	2	[0, 0, 0]	n/a	catFR1	0	R1672T
393.166	32.912	453911	TRIAL	n/a	n/a	n/a	n/a	-999	3	[0, 0, 0]	n/a	catFR1	0	R1672T
426.078	10.0	486823	COUNTDOWN	n/a	n/a	n/a	n/a	-999	3	[0, 0, 0]	n/a	catFR1	0	R1672T
436.445	2.083	497190	ENCODING_START	n/a	n/a	n/a	n/a	-999	3	[0, 0, 0]	n/a	catFR1	0	R1672T
438.528	1.6	499273	WORD	n/a	wordpools/wordpool_categorized_EN.txt	LION	Zoo	1	3	[0, 0, 0]	n/a	catFR1	0	R1672T
440.978	1.6	501723	WORD	n/a	wordpools/wordpool_categorized_EN.txt	CHEETAH	Zoo	2	3	[0, 0, 0]	n/a	catFR1	0	R1672T
443.577	1.6	504322	WORD	n/a	wordpools/wordpool_categorized_EN.txt	PIE	Desserts	3	3	[0, 0, 0]	n/a	catFR1	0	R1672T
446.111	1.6	506856	WORD	n/a	wordpools/wordpool_categorized_EN.txt	COBBLER	Desserts	4	3	[0, 0, 0]	n/a	catFR1	0	R1672T
448.578	1.6	509323	WORD	n/a	wordpools/wordpool_categorized_EN.txt	EAR	BodyParts	5	3	[0, 0, 0]	n/a	catFR1	0	R1672T
451.044	1.6	511789	WORD	n/a	wordpools/wordpool_categorized_EN.txt	NOSE	BodyParts	6	3	[0, 0, 0]	n/a	catFR1	0	R1672T
453.66	1.6	514405	WORD	n/a	wordpools/wordpool_categorized_EN.txt	FUDGE	Desserts	7	3	[0, 0, 0]	n/a	catFR1	0	R1672T
456.277	1.6	517022	WORD	n/a	wordpools/wordpool_categorized_EN.txt	PUDDING	Desserts	8	3	[0, 0, 0]	n/a	catFR1	0	R1672T
458.843	1.6	519588	WORD	n/a	wordpools/wordpool_categorized_EN.txt	ELBOW	BodyParts	9	3	[0, 0, 0]	n/a	catFR1	0	R1672T
461.277	1.6	522022	WORD	n/a	wordpools/wordpool_categorized_EN.txt	HAND	BodyParts	10	3	[0, 0, 0]	n/a	catFR1	0	R1672T
463.727	1.6	524472	WORD	n/a	wordpools/wordpool_categorized_EN.txt	MONKEY	Zoo	11	3	[0, 0, 0]	n/a	catFR1	0	R1672T
466.327	1.6	527072	WORD	n/a	wordpools/wordpool_categorized_EN.txt	CHIMPANZEE	Zoo	12	3	[0, 0, 0]	n/a	catFR1	0	R1672T
467.943	0.0	528688	DISTRACT_START	n/a	n/a	n/a	n/a	-999	3	[0, 0, 0]	n/a	catFR1	0	R1672T
467.943	5.9	528688	PROB	5.883	n/a	n/a	n/a	-999	3	[3, 7, 8]	18.0	catFR1	0	R1672T
473.843	5.4	534588	PROB	5.383	n/a	n/a	n/a	-999	3	[5, 3, 8]	16.0	catFR1	0	R1672T
479.243	3.948	539988	PROB	3.933	n/a	n/a	n/a	-999	3	[4, 4, 1]	9.0	catFR1	0	R1672T
483.191	3.383	543936	PROB	3.366	n/a	n/a	n/a	-999	3	[3, 4, 2]	9.0	catFR1	0	R1672T
486.574	6.236	547319	PROB	4.1	n/a	n/a	n/a	-999	3	[1, 4, 6]	11.0	catFR1	0	R1672T
492.81	0.962	553555	REC_START	n/a	n/a	n/a	n/a	-999	3	[0, 0, 0]	n/a	catFR1	0	R1672T
493.772	0.502	554517	REC_WORD_VV	0.962	n/a	<>	n/a	-999	3	[0, 0, 0]	n/a	catFR1	0	R1672T
494.274	1.163	555019	REC_WORD	1.464	n/a	LION	Zoo	1	3	[0, 0, 0]	n/a	catFR1	0	R1672T
495.437	0.785	556182	REC_WORD	2.627	n/a	CHEETAH	Zoo	2	3	[0, 0, 0]	n/a	catFR1	0	R1672T
496.222	1.0	556967	REC_WORD	3.412	n/a	CHIMPANZEE	Zoo	12	3	[0, 0, 0]	n/a	catFR1	0	R1672T
497.222	1.453	557967	REC_WORD_VV	4.412	n/a	<>	n/a	-999	3	[0, 0, 0]	n/a	catFR1	0	R1672T
498.675	0.536	559420	REC_WORD_VV	5.865	n/a	<>	n/a	-999	3	[0, 0, 0]	n/a	catFR1	0	R1672T
499.211	1.06	559956	REC_WORD	6.401	n/a	EAR	BodyParts	5	3	[0, 0, 0]	n/a	catFR1	0	R1672T
500.271	2.045	561016	REC_WORD	7.461	n/a	NOSE	BodyParts	6	3	[0, 0, 0]	n/a	catFR1	0	R1672T
502.316	1.719	563061	REC_WORD	9.506	n/a	PIE	Desserts	3	3	[0, 0, 0]	n/a	catFR1	0	R1672T
504.035	2.424	564780	REC_WORD	11.225	n/a	COBBLER	Desserts	4	3	[0, 0, 0]	n/a	catFR1	0	R1672T
506.459	0.231	567204	REC_WORD_VV	13.649	n/a	<>	n/a	-999	3	[0, 0, 0]	n/a	catFR1	0	R1672T
506.69	2.166	567435	REC_WORD	13.88	n/a	CAKE	n/a	-999	3	[0, 0, 0]	n/a	catFR1	0	R1672T
508.856	3.231	569601	REC_WORD_VV	16.046	n/a	<>	n/a	-999	3	[0, 0, 0]	n/a	catFR1	0	R1672T
512.087	1.848	572832	REC_WORD	19.277	n/a	ORANGUTAN	n/a	-999	3	[0, 0, 0]	n/a	catFR1	0	R1672T
513.935	3.062	574680	REC_WORD	21.125	n/a	CHIMPANZEE	Zoo	12	3	[0, 0, 0]	n/a	catFR1	0	R1672T
516.997	4.518	577742	REC_WORD_VV	24.187	n/a	<>	n/a	-999	3	[0, 0, 0]	n/a	catFR1	0	R1672T
521.515	1.443	582260	REC_WORD	28.705	n/a	ELBOW	BodyParts	9	3	[0, 0, 0]	n/a	catFR1	0	R1672T
522.958	10.747	583703	TRIAL	n/a	n/a	n/a	n/a	-999	4	[0, 0, 0]	n/a	catFR1	0	R1672T
533.705	10.0	594450	COUNTDOWN	n/a	n/a	n/a	n/a	-999	4	[0, 0, 0]	n/a	catFR1	0	R1672T
544.056	2.116	604801	ENCODING_START	n/a	n/a	n/a	n/a	-999	4	[0, 0, 0]	n/a	catFR1	0	R1672T
546.172	1.6	606917	WORD	n/a	wordpools/wordpool_categorized_EN.txt	SAW	Tools	1	4	[0, 0, 0]	n/a	catFR1	0	R1672T
548.555	1.6	609300	WORD	n/a	wordpools/wordpool_categorized_EN.txt	WRENCH	Tools	2	4	[0, 0, 0]	n/a	catFR1	0	R1672T
551.106	1.6	611851	WORD	n/a	wordpools/wordpool_categorized_EN.txt	MICROWAVE	Electronics	3	4	[0, 0, 0]	n/a	catFR1	0	R1672T
553.689	1.6	614434	WORD	n/a	wordpools/wordpool_categorized_EN.txt	STEREO	Electronics	4	4	[0, 0, 0]	n/a	catFR1	0	R1672T
556.239	1.6	616984	WORD	n/a	wordpools/wordpool_categorized_EN.txt	ORANGUTAN	Zoo	5	4	[0, 0, 0]	n/a	catFR1	0	R1672T
558.605	1.6	619350	WORD	n/a	wordpools/wordpool_categorized_EN.txt	GORILLA	Zoo	6	4	[0, 0, 0]	n/a	catFR1	0	R1672T
560.971	1.6	621716	WORD	n/a	wordpools/wordpool_categorized_EN.txt	RADIO	Electronics	7	4	[0, 0, 0]	n/a	catFR1	0	R1672T
563.439	1.6	624184	WORD	n/a	wordpools/wordpool_categorized_EN.txt	CALCULATOR	Electronics	8	4	[0, 0, 0]	n/a	catFR1	0	R1672T
565.987	1.6	626732	WORD	n/a	wordpools/wordpool_categorized_EN.txt	SANDER	Tools	9	4	[0, 0, 0]	n/a	catFR1	0	R1672T
568.355	1.6	629100	WORD	n/a	wordpools/wordpool_categorized_EN.txt	PLIERS	Tools	10	4	[0, 0, 0]	n/a	catFR1	0	R1672T
570.821	1.6	631566	WORD	n/a	wordpools/wordpool_categorized_EN.txt	ELEPHANT	Zoo	11	4	[0, 0, 0]	n/a	catFR1	0	R1672T
573.287	1.6	634032	WORD	n/a	wordpools/wordpool_categorized_EN.txt	TIGER	Zoo	12	4	[0, 0, 0]	n/a	catFR1	0	R1672T
574.888	0.001	635633	PROB	4.749	n/a	n/a	n/a	-999	4	[6, 3, 2]	11.0	catFR1	0	R1672T
574.889	4.765	635634	DISTRACT_START	n/a	n/a	n/a	n/a	-999	4	[0, 0, 0]	n/a	catFR1	0	R1672T
579.654	5.347	640399	PROB	5.331	n/a	n/a	n/a	-999	4	[6, 5, 8]	19.0	catFR1	0	R1672T
585.001	4.452	645746	PROB	4.433	n/a	n/a	n/a	-999	4	[7, 8, 6]	21.0	catFR1	0	R1672T
589.453	3.983	650198	PROB	3.966	n/a	n/a	n/a	-999	4	[7, 2, 2]	11.0	catFR1	0	R1672T
593.436	6.806	654181	PROB	4.667	n/a	n/a	n/a	-999	4	[5, 3, 5]	13.0	catFR1	0	R1672T
600.242	0.0	660987	REC_START	n/a	n/a	n/a	n/a	-999	4	[0, 0, 0]	n/a	catFR1	0	R1672T
600.242	1.0	660987	REC_WORD_VV	0.0	n/a	<>	n/a	-999	4	[0, 0, 0]	n/a	catFR1	0	R1672T
601.242	1.626	661987	REC_WORD_VV	1.0	n/a	<>	n/a	-999	4	[0, 0, 0]	n/a	catFR1	0	R1672T
602.868	0.334	663613	REC_WORD	2.626	n/a	APE	n/a	-999	4	[0, 0, 0]	n/a	catFR1	0	R1672T
603.202	1.0	663947	REC_WORD	2.96	n/a	ORANGUTAN	Zoo	5	4	[0, 0, 0]	n/a	catFR1	0	R1672T
604.202	1.601	664947	REC_WORD_VV	3.96	n/a	<>	n/a	-999	4	[0, 0, 0]	n/a	catFR1	0	R1672T
605.803	1.064	666548	REC_WORD	5.561	n/a	SANDER	Tools	9	4	[0, 0, 0]	n/a	catFR1	0	R1672T
606.867	2.276	667612	REC_WORD	6.625	n/a	PLIERS	Tools	10	4	[0, 0, 0]	n/a	catFR1	0	R1672T
609.143	1.0	669888	REC_WORD_VV	8.901	n/a	<>	n/a	-999	4	[0, 0, 0]	n/a	catFR1	0	R1672T
610.143	1.0	670888	REC_WORD_VV	9.901	n/a	<>	n/a	-999	4	[0, 0, 0]	n/a	catFR1	0	R1672T
611.143	3.442	671888	REC_WORD_VV	10.901	n/a	<>	n/a	-999	4	[0, 0, 0]	n/a	catFR1	0	R1672T
614.585	3.527	675330	REC_WORD_VV	14.343	n/a	<>	n/a	-999	4	[0, 0, 0]	n/a	catFR1	0	R1672T
618.112	1.0	678857	REC_WORD_VV	17.87	n/a	<>	n/a	-999	4	[0, 0, 0]	n/a	catFR1	0	R1672T
619.112	5.975	679857	REC_WORD_VV	18.87	n/a	<>	n/a	-999	4	[0, 0, 0]	n/a	catFR1	0	R1672T
625.087	1.0	685832	REC_WORD_VV	24.845	n/a	<>	n/a	-999	4	[0, 0, 0]	n/a	catFR1	0	R1672T
626.087	3.501	686832	REC_WORD_VV	25.845	n/a	<>	n/a	-999	4	[0, 0, 0]	n/a	catFR1	0	R1672T
629.588	0.797	690333	REC_WORD_VV	29.346	n/a	<>	n/a	-999	4	[0, 0, 0]	n/a	catFR1	0	R1672T
630.385	8.916	691130	TRIAL	n/a	n/a	n/a	n/a	-999	5	[0, 0, 0]	n/a	catFR1	0	R1672T
639.301	10.0	700046	COUNTDOWN	n/a	n/a	n/a	n/a	-999	5	[0, 0, 0]	n/a	catFR1	0	R1672T
649.666	1.951	710411	ENCODING_START	n/a	n/a	n/a	n/a	-999	5	[0, 0, 0]	n/a	catFR1	0	R1672T
651.617	1.6	712362	WORD	n/a	wordpools/wordpool_categorized_EN.txt	DOVE	Birds	1	5	[0, 0, 0]	n/a	catFR1	0	R1672T
654.233	1.6	714978	WORD	n/a	wordpools/wordpool_categorized_EN.txt	PIGEON	Birds	2	5	[0, 0, 0]	n/a	catFR1	0	R1672T
656.784	1.6	717529	WORD	n/a	wordpools/wordpool_categorized_EN.txt	COOKIE	Desserts	3	5	[0, 0, 0]	n/a	catFR1	0	R1672T
659.217	1.6	719962	WORD	n/a	wordpools/wordpool_categorized_EN.txt	CHEESECAKE	Desserts	4	5	[0, 0, 0]	n/a	catFR1	0	R1672T
661.65	1.6	722395	WORD	n/a	wordpools/wordpool_categorized_EN.txt	FRISBEE	Toys	5	5	[0, 0, 0]	n/a	catFR1	0	R1672T
664.25	1.6	724995	WORD	n/a	wordpools/wordpool_categorized_EN.txt	BASEBALL	Toys	6	5	[0, 0, 0]	n/a	catFR1	0	R1672T
666.798	1.6	727543	WORD	n/a	wordpools/wordpool_categorized_EN.txt	SEAGULL	Birds	7	5	[0, 0, 0]	n/a	catFR1	0	R1672T
669.3	1.6	730045	WORD	n/a	wordpools/wordpool_categorized_EN.txt	HAWK	Birds	8	5	[0, 0, 0]	n/a	catFR1	0	R1672T
671.783	1.6	732528	WORD	n/a	wordpools/wordpool_categorized_EN.txt	MOUSSE	Desserts	9	5	[0, 0, 0]	n/a	catFR1	0	R1672T
674.166	1.6	734911	WORD	n/a	wordpools/wordpool_categorized_EN.txt	CAKE	Desserts	10	5	[0, 0, 0]	n/a	catFR1	0	R1672T
676.682	1.6	737427	WORD	n/a	wordpools/wordpool_categorized_EN.txt	BALL	Toys	11	5	[0, 0, 0]	n/a	catFR1	0	R1672T
679.182	1.6	739927	WORD	n/a	wordpools/wordpool_categorized_EN.txt	BLOCKS	Toys	12	5	[0, 0, 0]	n/a	catFR1	0	R1672T
680.799	0.001	741544	PROB	5.583	n/a	n/a	n/a	-999	5	[2, 7, 7]	16.0	catFR1	0	R1672T
680.8	5.598	741545	DISTRACT_START	n/a	n/a	n/a	n/a	-999	5	[0, 0, 0]	n/a	catFR1	0	R1672T
686.398	4.317	747143	PROB	4.3	n/a	n/a	n/a	-999	5	[6, 7, 1]	14.0	catFR1	0	R1672T
690.715	3.716	751460	PROB	3.699	n/a	n/a	n/a	-999	5	[4, 3, 4]	11.0	catFR1	0	R1672T
694.431	3.267	755176	PROB	3.249	n/a	n/a	n/a	-999	5	[1, 4, 1]	6.0	catFR1	0	R1672T
697.698	5.256	758443	PROB	3.115	n/a	n/a	n/a	-999	5	[2, 3, 3]	8.0	catFR1	0	R1672T
702.954	0.0	763699	REC_START	n/a	n/a	n/a	n/a	-999	5	[0, 0, 0]	n/a	catFR1	0	R1672T
702.954	0.645	763699	REC_WORD_VV	0.0	n/a	<>	n/a	-999	5	[0, 0, 0]	n/a	catFR1	0	R1672T
703.599	0.664	764344	REC_WORD	0.645	n/a	DOVE	Birds	1	5	[0, 0, 0]	n/a	catFR1	0	R1672T
704.263	0.984	765008	REC_WORD	1.309	n/a	PIGEON	Birds	2	5	[0, 0, 0]	n/a	catFR1	0	R1672T
705.247	2.503	765992	REC_WORD	2.293	n/a	SEAGULL	Birds	7	5	[0, 0, 0]	n/a	catFR1	0	R1672T
707.75	1.0	768495	REC_WORD_VV	4.796	n/a	<>	n/a	-999	5	[0, 0, 0]	n/a	catFR1	0	R1672T
708.75	1.682	769495	REC_WORD_VV	5.796	n/a	<>	n/a	-999	5	[0, 0, 0]	n/a	catFR1	0	R1672T
710.432	3.652	771177	REC_WORD_VV	7.478	n/a	<>	n/a	-999	5	[0, 0, 0]	n/a	catFR1	0	R1672T
714.084	1.0	774829	REC_WORD_VV	11.13	n/a	<>	n/a	-999	5	[0, 0, 0]	n/a	catFR1	0	R1672T
715.084	1.0	775829	REC_WORD_VV	12.13	n/a	<>	n/a	-999	5	[0, 0, 0]	n/a	catFR1	0	R1672T
716.084	1.416	776829	REC_WORD_VV	13.13	n/a	<>	n/a	-999	5	[0, 0, 0]	n/a	catFR1	0	R1672T
717.5	0.215	778245	REC_WORD_VV	14.546	n/a	<>	n/a	-999	5	[0, 0, 0]	n/a	catFR1	0	R1672T
717.715	2.41	778460	REC_WORD	14.761	n/a	COOKIE	Desserts	3	5	[0, 0, 0]	n/a	catFR1	0	R1672T
720.125	1.596	780870	REC_WORD_VV	17.171	n/a	<>	n/a	-999	5	[0, 0, 0]	n/a	catFR1	0	R1672T
721.721	0.354	782466	REC_WORD_VV	18.767	n/a	<>	n/a	-999	5	[0, 0, 0]	n/a	catFR1	0	R1672T
722.075	0.373	782820	REC_WORD	19.121	n/a	CAKE	Desserts	10	5	[0, 0, 0]	n/a	catFR1	0	R1672T
722.448	3.479	783193	REC_WORD_VV	19.494	n/a	<>	n/a	-999	5	[0, 0, 0]	n/a	catFR1	0	R1672T
725.927	3.374	786672	REC_WORD_VV	22.973	n/a	<>	n/a	-999	5	[0, 0, 0]	n/a	catFR1	0	R1672T
729.301	0.363	790046	REC_WORD	26.347	n/a	DOVE	Birds	1	5	[0, 0, 0]	n/a	catFR1	0	R1672T
729.664	0.357	790409	REC_WORD	26.71	n/a	PIGEON	Birds	2	5	[0, 0, 0]	n/a	catFR1	0	R1672T
730.021	1.995	790766	REC_WORD	27.067	n/a	SEAGULL	Birds	7	5	[0, 0, 0]	n/a	catFR1	0	R1672T
732.016	1.072	792761	REC_WORD	29.062	n/a	HAWK	Birds	8	5	[0, 0, 0]	n/a	catFR1	0	R1672T
733.088	10.607	793833	TRIAL	n/a	n/a	n/a	n/a	-999	6	[0, 0, 0]	n/a	catFR1	0	R1672T
743.695	10.0	804440	COUNTDOWN	n/a	n/a	n/a	n/a	-999	6	[0, 0, 0]	n/a	catFR1	0	R1672T
754.062	2.033	814807	ENCODING_START	n/a	n/a	n/a	n/a	-999	6	[0, 0, 0]	n/a	catFR1	0	R1672T
756.095	1.6	816840	WORD	n/a	wordpools/wordpool_categorized_EN.txt	BLENDER	Appliances	1	6	[0, 0, 0]	n/a	catFR1	0	R1672T
758.612	1.6	819357	WORD	n/a	wordpools/wordpool_categorized_EN.txt	VACUUM	Appliances	2	6	[0, 0, 0]	n/a	catFR1	0	R1672T
761.178	1.6	821923	WORD	n/a	wordpools/wordpool_categorized_EN.txt	OAK	Trees	3	6	[0, 0, 0]	n/a	catFR1	0	R1672T
763.595	1.6	824340	WORD	n/a	wordpools/wordpool_categorized_EN.txt	CYPRESS	Trees	4	6	[0, 0, 0]	n/a	catFR1	0	R1672T
766.178	1.6	826923	WORD	n/a	wordpools/wordpool_categorized_EN.txt	TOE	BodyParts	5	6	[0, 0, 0]	n/a	catFR1	0	R1672T
768.628	1.6	829373	WORD	n/a	wordpools/wordpool_categorized_EN.txt	HEAD	BodyParts	6	6	[0, 0, 0]	n/a	catFR1	0	R1672T
771.061	1.6	831806	WORD	n/a	wordpools/wordpool_categorized_EN.txt	WALNUT	Trees	7	6	[0, 0, 0]	n/a	catFR1	0	R1672T
773.477	1.6	834222	WORD	n/a	wordpools/wordpool_categorized_EN.txt	EVERGREEN	Trees	8	6	[0, 0, 0]	n/a	catFR1	0	R1672T
775.927	1.6	836672	WORD	n/a	wordpools/wordpool_categorized_EN.txt	WASHER	Appliances	9	6	[0, 0, 0]	n/a	catFR1	0	R1672T
778.311	1.6	839056	WORD	n/a	wordpools/wordpool_categorized_EN.txt	REFRIGERATOR	Appliances	10	6	[0, 0, 0]	n/a	catFR1	0	R1672T
780.728	1.6	841473	WORD	n/a	wordpools/wordpool_categorized_EN.txt	EYE	BodyParts	11	6	[0, 0, 0]	n/a	catFR1	0	R1672T
783.23	1.6	843975	WORD	n/a	wordpools/wordpool_categorized_EN.txt	FOOT	BodyParts	12	6	[0, 0, 0]	n/a	catFR1	0	R1672T
784.827	0.002	845572	PROB	5.015	n/a	n/a	n/a	-999	6	[6, 8, 2]	16.0	catFR1	0	R1672T
784.829	5.031	845574	DISTRACT_START	n/a	n/a	n/a	n/a	-999	6	[0, 0, 0]	n/a	catFR1	0	R1672T
789.86	5.133	850605	PROB	5.116	n/a	n/a	n/a	-999	6	[1, 7, 4]	12.0	catFR1	0	R1672T
794.993	3.284	855738	PROB	3.266	n/a	n/a	n/a	-999	6	[1, 1, 2]	4.0	catFR1	0	R1672T
798.277	5.466	859022	PROB	5.449	n/a	n/a	n/a	-999	6	[8, 5, 7]	20.0	catFR1	0	R1672T
803.743	8.331	864488	PROB	6.133	n/a	n/a	n/a	-999	6	[2, 2, 6]	10.0	catFR1	0	R1672T
812.074	0.166	872819	REC_START	n/a	n/a	n/a	n/a	-999	6	[0, 0, 0]	n/a	catFR1	0	R1672T
812.24	0.398	872985	REC_WORD_VV	0.166	n/a	<>	n/a	-999	6	[0, 0, 0]	n/a	catFR1	0	R1672T
812.638	1.271	873383	REC_WORD	0.564	n/a	CYPRESS	Trees	4	6	[0, 0, 0]	n/a	catFR1	0	R1672T
813.909	1.997	874654	REC_WORD	1.835	n/a	OAK	Trees	3	6	[0, 0, 0]	n/a	catFR1	0	R1672T
815.906	1.0	876651	REC_WORD_VV	3.832	n/a	<>	n/a	-999	6	[0, 0, 0]	n/a	catFR1	0	R1672T
816.906	0.291	877651	REC_WORD_VV	4.832	n/a	<>	n/a	-999	6	[0, 0, 0]	n/a	catFR1	0	R1672T
817.197	1.174	877942	REC_WORD	5.123	n/a	BLENDER	Appliances	1	6	[0, 0, 0]	n/a	catFR1	0	R1672T
818.371	1.0	879116	REC_WORD	6.297	n/a	REFRIGERATOR	Appliances	10	6	[0, 0, 0]	n/a	catFR1	0	R1672T
819.371	1.578	880116	REC_WORD_VV	7.297	n/a	<>	n/a	-999	6	[0, 0, 0]	n/a	catFR1	0	R1672T
820.949	0.503	881694	REC_WORD_VV	8.875	n/a	<>	n/a	-999	6	[0, 0, 0]	n/a	catFR1	0	R1672T
821.452	2.467	882197	REC_WORD	9.378	n/a	MICROWAVE	Electronics	-999	6	[0, 0, 0]	n/a	catFR1	0	R1672T
823.919	2.024	884664	REC_WORD_VV	11.845	n/a	<>	n/a	-999	6	[0, 0, 0]	n/a	catFR1	0	R1672T
825.943	1.0	886688	REC_WORD_VV	13.869	n/a	<>	n/a	-999	6	[0, 0, 0]	n/a	catFR1	0	R1672T
826.943	1.0	887688	REC_WORD_VV	14.869	n/a	<>	n/a	-999	6	[0, 0, 0]	n/a	catFR1	0	R1672T
827.943	1.826	888688	REC_WORD_VV	15.869	n/a	<>	n/a	-999	6	[0, 0, 0]	n/a	catFR1	0	R1672T
829.769	0.29	890514	REC_WORD_VV	17.695	n/a	<>	n/a	-999	6	[0, 0, 0]	n/a	catFR1	0	R1672T
830.059	0.389	890804	REC_WORD	17.985	n/a	WILLOW	Trees	-999	6	[0, 0, 0]	n/a	catFR1	0	R1672T
830.448	1.0	891193	REC_WORD_VV	18.374	n/a	<>	n/a	-999	6	[0, 0, 0]	n/a	catFR1	0	R1672T
831.448	1.047	892193	REC_WORD_VV	19.374	n/a	<>	n/a	-999	6	[0, 0, 0]	n/a	catFR1	0	R1672T
832.495	1.0	893240	REC_WORD_VV	20.421	n/a	<>	n/a	-999	6	[0, 0, 0]	n/a	catFR1	0	R1672T
833.495	1.0	894240	REC_WORD_VV	21.421	n/a	<>	n/a	-999	6	[0, 0, 0]	n/a	catFR1	0	R1672T
834.495	1.0	895240	REC_WORD_VV	22.421	n/a	<>	n/a	-999	6	[0, 0, 0]	n/a	catFR1	0	R1672T
835.495	1.0	896240	REC_WORD_VV	23.421	n/a	<>	n/a	-999	6	[0, 0, 0]	n/a	catFR1	0	R1672T
836.495	1.0	897240	REC_WORD_VV	24.421	n/a	<>	n/a	-999	6	[0, 0, 0]	n/a	catFR1	0	R1672T
837.495	1.0	898240	REC_WORD_VV	25.421	n/a	<>	n/a	-999	6	[0, 0, 0]	n/a	catFR1	0	R1672T
838.495	2.45	899240	REC_WORD_VV	26.421	n/a	<>	n/a	-999	6	[0, 0, 0]	n/a	catFR1	0	R1672T
840.945	0.718	901690	REC_WORD	28.871	n/a	WASHER	Appliances	9	6	[0, 0, 0]	n/a	catFR1	0	R1672T
841.663	0.552	902408	REC_WORD	29.589	n/a	DRYER	n/a	-999	6	[0, 0, 0]	n/a	catFR1	0	R1672T
842.215	7.992	902960	TRIAL	n/a	n/a	n/a	n/a	-999	7	[0, 0, 0]	n/a	catFR1	0	R1672T
850.207	10.0	910952	COUNTDOWN	n/a	n/a	n/a	n/a	-999	7	[0, 0, 0]	n/a	catFR1	0	R1672T
860.556	2.084	921301	ENCODING_START	n/a	n/a	n/a	n/a	-999	7	[0, 0, 0]	n/a	catFR1	0	R1672T
862.64	1.6	923385	WORD	n/a	wordpools/wordpool_categorized_EN.txt	ISLAND	Landscapes	1	7	[0, 0, 0]	n/a	catFR1	0	R1672T
865.074	1.6	925819	WORD	n/a	wordpools/wordpool_categorized_EN.txt	MOUNTAIN	Landscapes	2	7	[0, 0, 0]	n/a	catFR1	0	R1672T
867.573	1.6	928318	WORD	n/a	wordpools/wordpool_categorized_EN.txt	DOLLHOUSE	Toys	3	7	[0, 0, 0]	n/a	catFR1	0	R1672T
870.122	1.6	930867	WORD	n/a	wordpools/wordpool_categorized_EN.txt	SLINKY	Toys	4	7	[0, 0, 0]	n/a	catFR1	0	R1672T
872.639	1.6	933384	WORD	n/a	wordpools/wordpool_categorized_EN.txt	RAIN	Weather	5	7	[0, 0, 0]	n/a	catFR1	0	R1672T
875.172	1.6	935917	WORD	n/a	wordpools/wordpool_categorized_EN.txt	SNOW	Weather	6	7	[0, 0, 0]	n/a	catFR1	0	R1672T
877.672	1.6	938417	WORD	n/a	wordpools/wordpool_categorized_EN.txt	VALLEY	Landscapes	7	7	[0, 0, 0]	n/a	catFR1	0	R1672T
880.272	1.6	941017	WORD	n/a	wordpools/wordpool_categorized_EN.txt	FOREST	Landscapes	8	7	[0, 0, 0]	n/a	catFR1	0	R1672T
882.822	1.6	943567	WORD	n/a	wordpools/wordpool_categorized_EN.txt	CLOUD	Weather	9	7	[0, 0, 0]	n/a	catFR1	0	R1672T
885.389	1.6	946134	WORD	n/a	wordpools/wordpool_categorized_EN.txt	WIND	Weather	10	7	[0, 0, 0]	n/a	catFR1	0	R1672T
887.971	1.6	948716	WORD	n/a	wordpools/wordpool_categorized_EN.txt	DOLL	Toys	11	7	[0, 0, 0]	n/a	catFR1	0	R1672T
890.554	1.6	951299	WORD	n/a	wordpools/wordpool_categorized_EN.txt	FOOTBALL	Toys	12	7	[0, 0, 0]	n/a	catFR1	0	R1672T
892.155	0.002	952900	PROB	4.648	n/a	n/a	n/a	-999	7	[5, 3, 1]	9.0	catFR1	0	R1672T
892.157	4.665	952902	DISTRACT_START	n/a	n/a	n/a	n/a	-999	7	[0, 0, 0]	n/a	catFR1	0	R1672T
896.822	3.4	957567	PROB	3.382	n/a	n/a	n/a	-999	7	[1, 7, 1]	9.0	catFR1	0	R1672T
900.222	4.716	960967	PROB	4.7	n/a	n/a	n/a	-999	7	[6, 3, 4]	13.0	catFR1	0	R1672T
904.938	4.717	965683	PROB	4.699	n/a	n/a	n/a	-999	7	[5, 6, 3]	14.0	catFR1	0	R1672T
909.655	6.521	970400	PROB	4.333	n/a	n/a	n/a	-999	7	[1, 3, 5]	9.0	catFR1	0	R1672T
916.176	0.0	976921	REC_START	n/a	n/a	n/a	n/a	-999	7	[0, 0, 0]	n/a	catFR1	0	R1672T
916.176	4.402	976921	REC_WORD_VV	0.0	n/a	<>	n/a	-999	7	[0, 0, 0]	n/a	catFR1	0	R1672T
920.578	1.0	981323	REC_WORD_VV	4.402	n/a	<>	n/a	-999	7	[0, 0, 0]	n/a	catFR1	0	R1672T
921.578	1.0	982323	REC_WORD_VV	5.402	n/a	<>	n/a	-999	7	[0, 0, 0]	n/a	catFR1	0	R1672T
922.578	0.416	983323	REC_WORD_VV	6.402	n/a	<>	n/a	-999	7	[0, 0, 0]	n/a	catFR1	0	R1672T
922.994	1.372	983739	REC_WORD	6.818	n/a	VALLEY	Landscapes	7	7	[0, 0, 0]	n/a	catFR1	0	R1672T
924.366	2.083	985111	REC_WORD	8.19	n/a	ISLAND	Landscapes	1	7	[0, 0, 0]	n/a	catFR1	0	R1672T
926.449	2.533	987194	REC_WORD	10.273	n/a	MOUNTAIN	Landscapes	2	7	[0, 0, 0]	n/a	catFR1	0	R1672T
928.982	2.967	989727	REC_WORD_VV	12.806	n/a	<>	n/a	-999	7	[0, 0, 0]	n/a	catFR1	0	R1672T
931.949	1.0	992694	REC_WORD_VV	15.773	n/a	<>	n/a	-999	7	[0, 0, 0]	n/a	catFR1	0	R1672T
932.949	1.587	993694	REC_WORD_VV	16.773	n/a	<>	n/a	-999	7	[0, 0, 0]	n/a	catFR1	0	R1672T
934.536	1.0	995281	REC_WORD_VV	18.36	n/a	<>	n/a	-999	7	[0, 0, 0]	n/a	catFR1	0	R1672T
935.536	1.0	996281	REC_WORD_VV	19.36	n/a	<>	n/a	-999	7	[0, 0, 0]	n/a	catFR1	0	R1672T
936.536	2.739	997281	REC_WORD_VV	20.36	n/a	<>	n/a	-999	7	[0, 0, 0]	n/a	catFR1	0	R1672T
939.275	5.702	1000020	REC_WORD_VV	23.099	n/a	<>	n/a	-999	7	[0, 0, 0]	n/a	catFR1	0	R1672T
944.977	0.409	1005722	REC_WORD	28.801	n/a	VALLEY	Landscapes	7	7	[0, 0, 0]	n/a	catFR1	0	R1672T
945.386	0.284	1006131	REC_WORD	29.21	n/a	MOUNTAIN	Landscapes	2	7	[0, 0, 0]	n/a	catFR1	0	R1672T
945.67	0.643	1006415	REC_WORD	29.494	n/a	ISLAND	Landscapes	1	7	[0, 0, 0]	n/a	catFR1	0	R1672T
946.313	8.939	1007058	TRIAL	n/a	n/a	n/a	n/a	-999	8	[0, 0, 0]	n/a	catFR1	0	R1672T
955.252	10.0	1015997	COUNTDOWN	n/a	n/a	n/a	n/a	-999	8	[0, 0, 0]	n/a	catFR1	0	R1672T
965.618	2.05	1026363	ENCODING_START	n/a	n/a	n/a	n/a	-999	8	[0, 0, 0]	n/a	catFR1	0	R1672T
967.668	1.6	1028413	WORD	n/a	wordpools/wordpool_categorized_EN.txt	DRESSER	Furniture	1	8	[0, 0, 0]	n/a	catFR1	0	R1672T
970.235	1.6	1030980	WORD	n/a	wordpools/wordpool_categorized_EN.txt	NIGHTSTAND	Furniture	2	8	[0, 0, 0]	n/a	catFR1	0	R1672T
972.751	1.6	1033496	WORD	n/a	wordpools/wordpool_categorized_EN.txt	BEE	Insects	3	8	[0, 0, 0]	n/a	catFR1	0	R1672T
975.184	1.6	1035929	WORD	n/a	wordpools/wordpool_categorized_EN.txt	SPIDER	Insects	4	8	[0, 0, 0]	n/a	catFR1	0	R1672T
977.749	1.6	1038494	WORD	n/a	wordpools/wordpool_categorized_EN.txt	TUBA	Instruments	5	8	[0, 0, 0]	n/a	catFR1	0	R1672T
980.335	1.6	1041080	WORD	n/a	wordpools/wordpool_categorized_EN.txt	TROMBONE	Instruments	6	8	[0, 0, 0]	n/a	catFR1	0	R1672T
982.818	1.6	1043563	WORD	n/a	wordpools/wordpool_categorized_EN.txt	SHELF	Furniture	7	8	[0, 0, 0]	n/a	catFR1	0	R1672T
985.333	1.6	1046078	WORD	n/a	wordpools/wordpool_categorized_EN.txt	SOFA	Furniture	8	8	[0, 0, 0]	n/a	catFR1	0	R1672T
987.734	1.6	1048479	WORD	n/a	wordpools/wordpool_categorized_EN.txt	BEETLE	Insects	9	8	[0, 0, 0]	n/a	catFR1	0	R1672T
990.333	1.6	1051078	WORD	n/a	wordpools/wordpool_categorized_EN.txt	CRICKET	Insects	10	8	[0, 0, 0]	n/a	catFR1	0	R1672T
992.851	1.6	1053596	WORD	n/a	wordpools/wordpool_categorized_EN.txt	TRUMPET	Instruments	11	8	[0, 0, 0]	n/a	catFR1	0	R1672T
995.25	1.6	1055995	WORD	n/a	wordpools/wordpool_categorized_EN.txt	FLUTE	Instruments	12	8	[0, 0, 0]	n/a	catFR1	0	R1672T
996.866	0.0	1057611	PROB	5.1	n/a	n/a	n/a	-999	8	[6, 5, 1]	12.0	catFR1	0	R1672T
996.866	5.117	1057611	DISTRACT_START	n/a	n/a	n/a	n/a	-999	8	[0, 0, 0]	n/a	catFR1	0	R1672T
1001.983	3.249	1062728	PROB	3.234	n/a	n/a	n/a	-999	8	[3, 2, 4]	9.0	catFR1	0	R1672T
1005.232	3.817	1065977	PROB	3.8	n/a	n/a	n/a	-999	8	[5, 1, 2]	8.0	catFR1	0	R1672T
1009.049	3.701	1069794	PROB	3.683	n/a	n/a	n/a	-999	8	[7, 2, 2]	11.0	catFR1	0	R1672T
1012.75	6.46	1073495	PROB	4.249	n/a	n/a	n/a	-999	8	[8, 7, 2]	17.0	catFR1	0	R1672T
1019.21	0.447	1079955	REC_START	n/a	n/a	n/a	n/a	-999	8	[0, 0, 0]	n/a	catFR1	0	R1672T
1019.657	1.098	1080402	REC_WORD	0.447	n/a	DRESSER	Furniture	1	8	[0, 0, 0]	n/a	catFR1	0	R1672T
1020.755	1.0	1081500	REC_WORD	1.545	n/a	NIGHTSTAND	Furniture	2	8	[0, 0, 0]	n/a	catFR1	0	R1672T
1021.755	1.435	1082500	REC_WORD_VV	2.545	n/a	<>	n/a	-999	8	[0, 0, 0]	n/a	catFR1	0	R1672T
1023.19	1.0	1083935	REC_WORD	3.98	n/a	TROMBONE	Instruments	6	8	[0, 0, 0]	n/a	catFR1	0	R1672T
1024.19	0.436	1084935	REC_WORD_VV	4.98	n/a	<>	n/a	-999	8	[0, 0, 0]	n/a	catFR1	0	R1672T
1024.626	1.571	1085371	REC_WORD	5.416	n/a	TRUMPET	Instruments	11	8	[0, 0, 0]	n/a	catFR1	0	R1672T
1026.197	2.188	1086942	REC_WORD	6.987	n/a	TUBA	Instruments	5	8	[0, 0, 0]	n/a	catFR1	0	R1672T
1028.385	2.843	1089130	REC_WORD_VV	9.175	n/a	<>	n/a	-999	8	[0, 0, 0]	n/a	catFR1	0	R1672T
1031.228	0.415	1091973	REC_WORD_VV	12.018	n/a	<>	n/a	-999	8	[0, 0, 0]	n/a	catFR1	0	R1672T
1031.643	0.41	1092388	REC_WORD	12.433	n/a	DRESSER	Furniture	1	8	[0, 0, 0]	n/a	catFR1	0	R1672T
1032.053	1.752	1092798	REC_WORD	12.843	n/a	NIGHTSTAND	Furniture	2	8	[0, 0, 0]	n/a	catFR1	0	R1672T
1033.805	1.753	1094550	REC_WORD	14.595	n/a	COUNTER	n/a	-999	8	[0, 0, 0]	n/a	catFR1	0	R1672T
1035.558	2.0	1096303	REC_WORD	16.348	n/a	CLOSET	n/a	-999	8	[0, 0, 0]	n/a	catFR1	0	R1672T
1037.558	2.297	1098303	REC_WORD_VV	18.348	n/a	<>	n/a	-999	8	[0, 0, 0]	n/a	catFR1	0	R1672T
1039.855	1.0	1100600	REC_WORD_VV	20.645	n/a	<>	n/a	-999	8	[0, 0, 0]	n/a	catFR1	0	R1672T
1040.855	2.209	1101600	REC_WORD_VV	21.645	n/a	<>	n/a	-999	8	[0, 0, 0]	n/a	catFR1	0	R1672T
1043.064	1.309	1103809	REC_WORD	23.854	n/a	FLUTE	Instruments	12	8	[0, 0, 0]	n/a	catFR1	0	R1672T
1044.373	2.924	1105118	REC_WORD_VV	25.163	n/a	<>	n/a	-999	8	[0, 0, 0]	n/a	catFR1	0	R1672T
1047.297	1.0	1108042	REC_WORD_VV	28.087	n/a	<>	n/a	-999	8	[0, 0, 0]	n/a	catFR1	0	R1672T
1048.297	1.059	1109042	REC_WORD_VV	29.087	n/a	<>	n/a	-999	8	[0, 0, 0]	n/a	catFR1	0	R1672T
1049.356	8.057	1110101	TRIAL	n/a	n/a	n/a	n/a	-999	9	[0, 0, 0]	n/a	catFR1	0	R1672T
1057.413	10.0	1118158	COUNTDOWN	n/a	n/a	n/a	n/a	-999	9	[0, 0, 0]	n/a	catFR1	0	R1672T
1067.763	2.267	1128508	ENCODING_START	n/a	n/a	n/a	n/a	-999	9	[0, 0, 0]	n/a	catFR1	0	R1672T
1070.03	1.6	1130775	WORD	n/a	wordpools/wordpool_categorized_EN.txt	BED	Furniture	1	9	[0, 0, 0]	n/a	catFR1	0	R1672T
1072.63	1.6	1133375	WORD	n/a	wordpools/wordpool_categorized_EN.txt	COUCH	Furniture	2	9	[0, 0, 0]	n/a	catFR1	0	R1672T
1075.046	1.6	1135791	WORD	n/a	wordpools/wordpool_categorized_EN.txt	BLOUSE	Clothing	3	9	[0, 0, 0]	n/a	catFR1	0	R1672T
1077.445	1.6	1138190	WORD	n/a	wordpools/wordpool_categorized_EN.txt	COAT	Clothing	4	9	[0, 0, 0]	n/a	catFR1	0	R1672T
1079.895	1.6	1140640	WORD	n/a	wordpools/wordpool_categorized_EN.txt	LIGHTNING	Weather	5	9	[0, 0, 0]	n/a	catFR1	0	R1672T
1082.313	1.6	1143058	WORD	n/a	wordpools/wordpool_categorized_EN.txt	FOG	Weather	6	9	[0, 0, 0]	n/a	catFR1	0	R1672T
1084.729	1.6	1145474	WORD	n/a	wordpools/wordpool_categorized_EN.txt	CHAIR	Furniture	7	9	[0, 0, 0]	n/a	catFR1	0	R1672T
1087.244	1.6	1147989	WORD	n/a	wordpools/wordpool_categorized_EN.txt	BOOKCASE	Furniture	8	9	[0, 0, 0]	n/a	catFR1	0	R1672T
1089.695	1.6	1150440	WORD	n/a	wordpools/wordpool_categorized_EN.txt	THUNDERSTORM	Weather	9	9	[0, 0, 0]	n/a	catFR1	0	R1672T
1092.113	1.6	1152858	WORD	n/a	wordpools/wordpool_categorized_EN.txt	THUNDER	Weather	10	9	[0, 0, 0]	n/a	catFR1	0	R1672T
1094.628	1.6	1155373	WORD	n/a	wordpools/wordpool_categorized_EN.txt	SKIRT	Clothing	11	9	[0, 0, 0]	n/a	catFR1	0	R1672T
1097.145	1.6	1157890	WORD	n/a	wordpools/wordpool_categorized_EN.txt	SHORTS	Clothing	12	9	[0, 0, 0]	n/a	catFR1	0	R1672T
1098.762	0.0	1159507	DISTRACT_START	n/a	n/a	n/a	n/a	-999	9	[0, 0, 0]	n/a	catFR1	0	R1672T
1098.762	5.533	1159507	PROB	5.516	n/a	n/a	n/a	-999	9	[7, 2, 7]	16.0	catFR1	0	R1672T
1104.295	4.849	1165040	PROB	4.833	n/a	n/a	n/a	-999	9	[3, 1, 6]	10.0	catFR1	0	R1672T
1109.144	3.933	1169889	PROB	3.915	n/a	n/a	n/a	-999	9	[7, 2, 2]	11.0	catFR1	0	R1672T
1113.077	3.085	1173822	PROB	3.067	n/a	n/a	n/a	-999	9	[2, 2, 2]	6.0	catFR1	0	R1672T
1116.162	5.971	1176907	PROB	3.749	n/a	n/a	n/a	-999	9	[2, 4, 6]	12.0	catFR1	0	R1672T
1122.133	0.32	1182878	REC_START	n/a	n/a	n/a	n/a	-999	9	[0, 0, 0]	n/a	catFR1	0	R1672T
1122.453	0.667	1183198	REC_WORD_VV	0.32	n/a	<>	n/a	-999	9	[0, 0, 0]	n/a	catFR1	0	R1672T
1123.12	0.918	1183865	REC_WORD	0.987	n/a	SKIRT	Clothing	11	9	[0, 0, 0]	n/a	catFR1	0	R1672T
1124.038	1.511	1184783	REC_WORD	1.905	n/a	BLOUSE	Clothing	3	9	[0, 0, 0]	n/a	catFR1	0	R1672T
1125.549	1.914	1186294	REC_WORD	3.416	n/a	SHIRT	n/a	-999	9	[0, 0, 0]	n/a	catFR1	0	R1672T
1127.463	1.0	1188208	REC_WORD_VV	5.33	n/a	<>	n/a	-999	9	[0, 0, 0]	n/a	catFR1	0	R1672T
1128.463	1.0	1189208	REC_WORD_VV	6.33	n/a	<>	n/a	-999	9	[0, 0, 0]	n/a	catFR1	0	R1672T
1129.463	1.0	1190208	REC_WORD_VV	7.33	n/a	<>	n/a	-999	9	[0, 0, 0]	n/a	catFR1	0	R1672T
1130.463	1.0	1191208	REC_WORD_VV	8.33	n/a	<>	n/a	-999	9	[0, 0, 0]	n/a	catFR1	0	R1672T
1131.463	1.0	1192208	REC_WORD_VV	9.33	n/a	<>	n/a	-999	9	[0, 0, 0]	n/a	catFR1	0	R1672T
1132.463	1.0	1193208	REC_WORD_VV	10.33	n/a	<>	n/a	-999	9	[0, 0, 0]	n/a	catFR1	0	R1672T
1133.463	1.0	1194208	REC_WORD_VV	11.33	n/a	<>	n/a	-999	9	[0, 0, 0]	n/a	catFR1	0	R1672T
1134.463	2.505	1195208	REC_WORD_VV	12.33	n/a	<>	n/a	-999	9	[0, 0, 0]	n/a	catFR1	0	R1672T
1136.968	8.992	1197713	REC_WORD_VV	14.835	n/a	<>	n/a	-999	9	[0, 0, 0]	n/a	catFR1	0	R1672T
1145.96	1.0	1206705	REC_WORD_VV	23.827	n/a	<>	n/a	-999	9	[0, 0, 0]	n/a	catFR1	0	R1672T
1146.96	2.619	1207705	REC_WORD_VV	24.827	n/a	<>	n/a	-999	9	[0, 0, 0]	n/a	catFR1	0	R1672T
1149.579	1.0	1210324	REC_WORD_VV	27.446	n/a	<>	n/a	-999	9	[0, 0, 0]	n/a	catFR1	0	R1672T
1150.579	1.68	1211324	REC_WORD_VV	28.446	n/a	<>	n/a	-999	9	[0, 0, 0]	n/a	catFR1	0	R1672T
1152.259	17.116	1213004	TRIAL	n/a	n/a	n/a	n/a	-999	10	[0, 0, 0]	n/a	catFR1	0	R1672T
1169.375	10.0	1230120	COUNTDOWN	n/a	n/a	n/a	n/a	-999	10	[0, 0, 0]	n/a	catFR1	0	R1672T
1179.724	2.267	1240469	ENCODING_START	n/a	n/a	n/a	n/a	-999	10	[0, 0, 0]	n/a	catFR1	0	R1672T
1181.991	1.6	1242736	WORD	n/a	wordpools/wordpool_categorized_EN.txt	TABLET	Electronics	1	10	[0, 0, 0]	n/a	catFR1	0	R1672T
1184.441	1.6	1245186	WORD	n/a	wordpools/wordpool_categorized_EN.txt	PHONE	Electronics	2	10	[0, 0, 0]	n/a	catFR1	0	R1672T
1186.922	1.6	1247667	WORD	n/a	wordpools/wordpool_categorized_EN.txt	SOCKS	Clothing	3	10	[0, 0, 0]	n/a	catFR1	0	R1672T
1189.523	1.6	1250268	WORD	n/a	wordpools/wordpool_categorized_EN.txt	SHIRT	Clothing	4	10	[0, 0, 0]	n/a	catFR1	0	R1672T
1192.056	1.6	1252801	WORD	n/a	wordpools/wordpool_categorized_EN.txt	STREAM	Landscapes	5	10	[0, 0, 0]	n/a	catFR1	0	R1672T
1194.54	1.6	1255285	WORD	n/a	wordpools/wordpool_categorized_EN.txt	CREEK	Landscapes	6	10	[0, 0, 0]	n/a	catFR1	0	R1672T
1196.923	1.6	1257668	WORD	n/a	wordpools/wordpool_categorized_EN.txt	SPEAKER	Electronics	7	10	[0, 0, 0]	n/a	catFR1	0	R1672T
1199.305	1.6	1260050	WORD	n/a	wordpools/wordpool_categorized_EN.txt	COMPUTER	Electronics	8	10	[0, 0, 0]	n/a	catFR1	0	R1672T
1201.755	1.6	1262500	WORD	n/a	wordpools/wordpool_categorized_EN.txt	WOODS	Landscapes	9	10	[0, 0, 0]	n/a	catFR1	0	R1672T
1204.188	1.6	1264933	WORD	n/a	wordpools/wordpool_categorized_EN.txt	BEACH	Landscapes	10	10	[0, 0, 0]	n/a	catFR1	0	R1672T
1206.706	1.6	1267451	WORD	n/a	wordpools/wordpool_categorized_EN.txt	DRESS	Clothing	11	10	[0, 0, 0]	n/a	catFR1	0	R1672T
1209.255	1.6	1270000	WORD	n/a	wordpools/wordpool_categorized_EN.txt	PANTS	Clothing	12	10	[0, 0, 0]	n/a	catFR1	0	R1672T
1210.856	0.001	1271601	PROB	6.033	n/a	n/a	n/a	-999	10	[5, 2, 8]	15.0	catFR1	0	R1672T
1210.857	6.05	1271602	DISTRACT_START	n/a	n/a	n/a	n/a	-999	10	[0, 0, 0]	n/a	catFR1	0	R1672T
1216.907	4.432	1277652	PROB	4.416	n/a	n/a	n/a	-999	10	[5, 4, 4]	13.0	catFR1	0	R1672T
1221.339	4.816	1282084	PROB	4.799	n/a	n/a	n/a	-999	10	[1, 6, 8]	15.0	catFR1	0	R1672T
1226.155	3.584	1286900	PROB	3.565	n/a	n/a	n/a	-999	10	[2, 1, 4]	7.0	catFR1	0	R1672T
1229.739	6.098	1290484	PROB	3.883	n/a	n/a	n/a	-999	10	[5, 3, 3]	11.0	catFR1	0	R1672T
1235.837	0.0	1296582	REC_START	n/a	n/a	n/a	n/a	-999	10	[0, 0, 0]	n/a	catFR1	0	R1672T
1235.837	1.464	1296582	REC_WORD_VV	0.0	n/a	<>	n/a	-999	10	[0, 0, 0]	n/a	catFR1	0	R1672T
1237.301	0.235	1298046	REC_WORD_VV	1.464	n/a	<>	n/a	-999	10	[0, 0, 0]	n/a	catFR1	0	R1672T
1237.536	0.948	1298281	REC_WORD	1.699	n/a	TABLET	Electronics	1	10	[0, 0, 0]	n/a	catFR1	0	R1672T
1238.484	1.757	1299229	REC_WORD	2.647	n/a	PHONE	Electronics	2	10	[0, 0, 0]	n/a	catFR1	0	R1672T
1240.241	1.086	1300986	REC_WORD	4.404	n/a	STREAM	Landscapes	5	10	[0, 0, 0]	n/a	catFR1	0	R1672T
1241.327	3.104	1302072	REC_WORD	5.49	n/a	CREEK	Landscapes	6	10	[0, 0, 0]	n/a	catFR1	0	R1672T
1244.431	3.055	1305176	REC_WORD_VV	8.594	n/a	<>	n/a	-999	10	[0, 0, 0]	n/a	catFR1	0	R1672T
1247.486	3.747	1308231	REC_WORD_VV	11.649	n/a	<>	n/a	-999	10	[0, 0, 0]	n/a	catFR1	0	R1672T
1251.233	0.355	1311978	REC_WORD	15.396	n/a	TABLET	Electronics	1	10	[0, 0, 0]	n/a	catFR1	0	R1672T
1251.588	0.44	1312333	REC_WORD	15.751	n/a	PHONE	Electronics	2	10	[0, 0, 0]	n/a	catFR1	0	R1672T
1252.028	0.548	1312773	REC_WORD	16.191	n/a	STREAM	Landscapes	5	10	[0, 0, 0]	n/a	catFR1	0	R1672T
1252.576	5.769	1313321	REC_WORD	16.739	n/a	CREEK	Landscapes	6	10	[0, 0, 0]	n/a	catFR1	0	R1672T
1258.345	5.479	1319090	REC_WORD_VV	22.508	n/a	<>	n/a	-999	10	[0, 0, 0]	n/a	catFR1	0	R1672T
1263.824	0.562	1324569	REC_WORD_VV	27.987	n/a	<>	n/a	-999	10	[0, 0, 0]	n/a	catFR1	0	R1672T
1264.386	0.329	1325131	REC_WORD	28.549	n/a	LAKE	n/a	-999	10	[0, 0, 0]	n/a	catFR1	0	R1672T
1264.715	0.089	1325460	REC_WORD_VV	28.878	n/a	<>	n/a	-999	10	[0, 0, 0]	n/a	catFR1	0	R1672T
1264.804	0.363	1325549	REC_WORD	28.967	n/a	RIVER	n/a	-999	10	[0, 0, 0]	n/a	catFR1	0	R1672T
1265.167	0.811	1325912	REC_WORD_VV	29.33	n/a	<>	n/a	-999	10	[0, 0, 0]	n/a	catFR1	0	R1672T
1265.978	13.791	1326723	TRIAL	n/a	n/a	n/a	n/a	-999	11	[0, 0, 0]	n/a	catFR1	0	R1672T
1279.769	10.0	1340514	COUNTDOWN	n/a	n/a	n/a	n/a	-999	11	[0, 0, 0]	n/a	catFR1	0	R1672T
1290.136	1.916	1350881	ENCODING_START	n/a	n/a	n/a	n/a	-999	11	[0, 0, 0]	n/a	catFR1	0	R1672T
1292.052	1.6	1352797	WORD	n/a	wordpools/wordpool_categorized_EN.txt	DRIZZLE	Weather	1	11	[0, 0, 0]	n/a	catFR1	0	R1672T
1294.568	1.6	1355313	WORD	n/a	wordpools/wordpool_categorized_EN.txt	HURRICANE	Weather	2	11	[0, 0, 0]	n/a	catFR1	0	R1672T
1297.019	1.6	1357764	WORD	n/a	wordpools/wordpool_categorized_EN.txt	STRAINER	KitchenTools	3	11	[0, 0, 0]	n/a	catFR1	0	R1672T
1299.485	1.6	1360230	WORD	n/a	wordpools/wordpool_categorized_EN.txt	KNIFE	KitchenTools	4	11	[0, 0, 0]	n/a	catFR1	0	R1672T
1302.035	1.6	1362780	WORD	n/a	wordpools/wordpool_categorized_EN.txt	STOVE	Appliances	5	11	[0, 0, 0]	n/a	catFR1	0	R1672T
1304.584	1.6	1365329	WORD	n/a	wordpools/wordpool_categorized_EN.txt	TOASTER	Appliances	6	11	[0, 0, 0]	n/a	catFR1	0	R1672T
1307.15	1.6	1367895	WORD	n/a	wordpools/wordpool_categorized_EN.txt	TORNADO	Weather	7	11	[0, 0, 0]	n/a	catFR1	0	R1672T
1309.617	1.6	1370362	WORD	n/a	wordpools/wordpool_categorized_EN.txt	HUMIDITY	Weather	8	11	[0, 0, 0]	n/a	catFR1	0	R1672T
1312.084	1.6	1372829	WORD	n/a	wordpools/wordpool_categorized_EN.txt	LADLE	KitchenTools	9	11	[0, 0, 0]	n/a	catFR1	0	R1672T
1314.534	1.6	1375279	WORD	n/a	wordpools/wordpool_categorized_EN.txt	GRATER	KitchenTools	10	11	[0, 0, 0]	n/a	catFR1	0	R1672T
1317.051	1.6	1377796	WORD	n/a	wordpools/wordpool_categorized_EN.txt	DRYER	Appliances	11	11	[0, 0, 0]	n/a	catFR1	0	R1672T
1319.567	1.6	1380312	WORD	n/a	wordpools/wordpool_categorized_EN.txt	DISHWASHER	Appliances	12	11	[0, 0, 0]	n/a	catFR1	0	R1672T
1321.184	0.002	1381929	PROB	4.733	n/a	n/a	n/a	-999	11	[2, 4, 1]	7.0	catFR1	0	R1672T
1321.186	4.748	1381931	DISTRACT_START	n/a	n/a	n/a	n/a	-999	11	[0, 0, 0]	n/a	catFR1	0	R1672T
1325.934	4.382	1386679	PROB	4.365	n/a	n/a	n/a	-999	11	[3, 1, 7]	11.0	catFR1	0	R1672T
1330.316	3.0	1391061	PROB	2.984	n/a	n/a	n/a	-999	11	[4, 3, 2]	9.0	catFR1	0	R1672T
1333.316	5.317	1394061	PROB	5.3	n/a	n/a	n/a	-999	11	[6, 1, 3]	10.0	catFR1	0	R1672T
1338.633	6.966	1399378	PROB	4.666	n/a	n/a	n/a	-999	11	[5, 2, 7]	14.0	catFR1	0	R1672T
1345.599	0.636	1406344	REC_START	n/a	n/a	n/a	n/a	-999	11	[0, 0, 0]	n/a	catFR1	0	R1672T
1346.235	1.209	1406980	REC_WORD	0.636	n/a	DRYER	Appliances	11	11	[0, 0, 0]	n/a	catFR1	0	R1672T
1347.444	1.0	1408189	REC_WORD	1.845	n/a	DISHWASHER	Appliances	12	11	[0, 0, 0]	n/a	catFR1	0	R1672T
1348.444	1.103	1409189	REC_WORD_VV	2.845	n/a	<>	n/a	-999	11	[0, 0, 0]	n/a	catFR1	0	R1672T
1349.547	1.0	1410292	REC_WORD_VV	3.948	n/a	<>	n/a	-999	11	[0, 0, 0]	n/a	catFR1	0	R1672T
1350.547	1.0	1411292	REC_WORD_VV	4.948	n/a	<>	n/a	-999	11	[0, 0, 0]	n/a	catFR1	0	R1672T
1351.547	1.0	1412292	REC_WORD_VV	5.948	n/a	<>	n/a	-999	11	[0, 0, 0]	n/a	catFR1	0	R1672T
1352.547	3.536	1413292	REC_WORD_VV	6.948	n/a	<>	n/a	-999	11	[0, 0, 0]	n/a	catFR1	0	R1672T
1356.083	1.0	1416828	REC_WORD_VV	10.484	n/a	<>	n/a	-999	11	[0, 0, 0]	n/a	catFR1	0	R1672T
1357.083	1.0	1417828	REC_WORD_VV	11.484	n/a	<>	n/a	-999	11	[0, 0, 0]	n/a	catFR1	0	R1672T
1358.083	1.181	1418828	REC_WORD_VV	12.484	n/a	<>	n/a	-999	11	[0, 0, 0]	n/a	catFR1	0	R1672T
1359.264	12.557	1420009	REC_WORD_VV	13.665	n/a	<>	n/a	-999	11	[0, 0, 0]	n/a	catFR1	0	R1672T
1371.821	1.0	1432566	REC_WORD_VV	26.222	n/a	<>	n/a	-999	11	[0, 0, 0]	n/a	catFR1	0	R1672T
1372.821	1.0	1433566	REC_WORD_VV	27.222	n/a	<>	n/a	-999	11	[0, 0, 0]	n/a	catFR1	0	R1672T
1373.821	1.0	1434566	REC_WORD_VV	28.222	n/a	<>	n/a	-999	11	[0, 0, 0]	n/a	catFR1	0	R1672T
1374.821	0.914	1435566	REC_WORD_VV	29.222	n/a	<>	n/a	-999	11	[0, 0, 0]	n/a	catFR1	0	R1672T
1375.735	14.612	1436480	TRIAL	n/a	n/a	n/a	n/a	-999	12	[0, 0, 0]	n/a	catFR1	0	R1672T
1390.347	10.0	1451092	COUNTDOWN	n/a	n/a	n/a	n/a	-999	12	[0, 0, 0]	n/a	catFR1	0	R1672T
1400.695	2.302	1461440	ENCODING_START	n/a	n/a	n/a	n/a	-999	12	[0, 0, 0]	n/a	catFR1	0	R1672T
1402.997	1.6	1463742	WORD	n/a	wordpools/wordpool_categorized_EN.txt	CORKSCREW	KitchenTools	1	12	[0, 0, 0]	n/a	catFR1	0	R1672T
1405.563	1.6	1466308	WORD	n/a	wordpools/wordpool_categorized_EN.txt	PEELER	KitchenTools	2	12	[0, 0, 0]	n/a	catFR1	0	R1672T
1407.978	1.6	1468723	WORD	n/a	wordpools/wordpool_categorized_EN.txt	MIXER	Appliances	3	12	[0, 0, 0]	n/a	catFR1	0	R1672T
1410.429	1.6	1471174	WORD	n/a	wordpools/wordpool_categorized_EN.txt	IRON	Appliances	4	12	[0, 0, 0]	n/a	catFR1	0	R1672T
1412.962	1.6	1473707	WORD	n/a	wordpools/wordpool_categorized_EN.txt	STAIRS	Building	5	12	[0, 0, 0]	n/a	catFR1	0	R1672T
1415.545	1.6	1476290	WORD	n/a	wordpools/wordpool_categorized_EN.txt	WINDOW	Building	6	12	[0, 0, 0]	n/a	catFR1	0	R1672T
1418.145	1.6	1478890	WORD	n/a	wordpools/wordpool_categorized_EN.txt	WHISK	KitchenTools	7	12	[0, 0, 0]	n/a	catFR1	0	R1672T
1420.645	1.6	1481390	WORD	n/a	wordpools/wordpool_categorized_EN.txt	SPOON	KitchenTools	8	12	[0, 0, 0]	n/a	catFR1	0	R1672T
1423.194	1.6	1483939	WORD	n/a	wordpools/wordpool_categorized_EN.txt	FREEZER	Appliances	9	12	[0, 0, 0]	n/a	catFR1	0	R1672T
1425.728	1.6	1486473	WORD	n/a	wordpools/wordpool_categorized_EN.txt	OVEN	Appliances	10	12	[0, 0, 0]	n/a	catFR1	0	R1672T
1428.096	1.6	1488841	WORD	n/a	wordpools/wordpool_categorized_EN.txt	CEILING	Building	11	12	[0, 0, 0]	n/a	catFR1	0	R1672T
1430.694	1.6	1491439	WORD	n/a	wordpools/wordpool_categorized_EN.txt	ROOM	Building	12	12	[0, 0, 0]	n/a	catFR1	0	R1672T
1432.297	0.0	1493042	DISTRACT_START	n/a	n/a	n/a	n/a	-999	12	[0, 0, 0]	n/a	catFR1	0	R1672T
1432.297	5.765	1493042	PROB	5.747	n/a	n/a	n/a	-999	12	[8, 6, 4]	18.0	catFR1	0	R1672T
1438.062	4.316	1498807	PROB	4.299	n/a	n/a	n/a	-999	12	[3, 2, 8]	13.0	catFR1	0	R1672T
1442.378	3.316	1503123	PROB	3.3	n/a	n/a	n/a	-999	12	[4, 3, 1]	8.0	catFR1	0	R1672T
1445.694	4.483	1506439	PROB	4.467	n/a	n/a	n/a	-999	12	[5, 6, 6]	17.0	catFR1	0	R1672T
1450.177	6.979	1510922	PROB	4.733	n/a	n/a	n/a	-999	12	[4, 2, 8]	14.0	catFR1	0	R1672T
1457.156	0.954	1517901	REC_START	n/a	n/a	n/a	n/a	-999	12	[0, 0, 0]	n/a	catFR1	0	R1672T
1458.11	0.734	1518855	REC_WORD_VV	0.954	n/a	<>	n/a	-999	12	[0, 0, 0]	n/a	catFR1	0	R1672T
1458.844	1.43	1519589	REC_WORD	1.688	n/a	PEELER	KitchenTools	2	12	[0, 0, 0]	n/a	catFR1	0	R1672T
1460.274	1.752	1521019	REC_WORD	3.118	n/a	WHISK	KitchenTools	7	12	[0, 0, 0]	n/a	catFR1	0	R1672T
1462.026	1.0	1522771	REC_WORD	4.87	n/a	CORKSCREW	KitchenTools	1	12	[0, 0, 0]	n/a	catFR1	0	R1672T
1463.026	1.803	1523771	REC_WORD_VV	5.87	n/a	<>	n/a	-999	12	[0, 0, 0]	n/a	catFR1	0	R1672T
1464.829	3.335	1525574	REC_WORD_VV	7.673	n/a	<>	n/a	-999	12	[0, 0, 0]	n/a	catFR1	0	R1672T
1468.164	1.0	1528909	REC_WORD_VV	11.008	n/a	<>	n/a	-999	12	[0, 0, 0]	n/a	catFR1	0	R1672T
1469.164	1.0	1529909	REC_WORD_VV	12.008	n/a	<>	n/a	-999	12	[0, 0, 0]	n/a	catFR1	0	R1672T
1470.164	1.0	1530909	REC_WORD_VV	13.008	n/a	<>	n/a	-999	12	[0, 0, 0]	n/a	catFR1	0	R1672T
1471.164	3.238	1531909	REC_WORD_VV	14.008	n/a	<>	n/a	-999	12	[0, 0, 0]	n/a	catFR1	0	R1672T
1474.402	9.499	1535147	REC_WORD_VV	17.246	n/a	<>	n/a	-999	12	[0, 0, 0]	n/a	catFR1	0	R1672T
1483.901	1.0	1544646	REC_WORD_VV	26.745	n/a	<>	n/a	-999	12	[0, 0, 0]	n/a	catFR1	0	R1672T
1484.901	2.402	1545646	REC_WORD_VV	27.745	n/a	<>	n/a	-999	12	[0, 0, 0]	n/a	catFR1	0	R1672T
1487.303	0.0	1548048	SESS_END	n/a	n/a	n/a	n/a	-999	12	[0, 0, 0]	n/a	catFR1	0	R1672T
