onset	duration	sample	trial_type	response_time	stim_file	item_name	category	serialpos	list	test	answer	experiment	session	subject
0.0	0.011	209350	SESS_START	n/a	n/a	n/a	n/a	-999	0	[0, 0, 0]	n/a	catFR1	1	R1646T
0.011	80.866	209361	TRIAL	n/a	n/a	n/a	n/a	-999	-1	[0, 0, 0]	n/a	catFR1	1	R1646T
80.877	10.435	290227	COUNTDOWN	n/a	n/a	n/a	n/a	-999	-1	[0, 0, 0]	n/a	catFR1	1	R1646T
91.312	2.285	300662	ENCODING_START	n/a	n/a	n/a	n/a	-999	-1	[0, 0, 0]	n/a	catFR1	1	R1646T
93.597	2.381	302947	WORD	n/a	n/a	SATIN	Fabric	1	-1	[0, 0, 0]	n/a	catFR1	1	R1646T
95.978	2.534	305328	WORD	n/a	n/a	SPANDEX	Fabric	2	-1	[0, 0, 0]	n/a	catFR1	1	R1646T
98.512	2.533	307862	WORD	n/a	n/a	PEAS	Vegetables	3	-1	[0, 0, 0]	n/a	catFR1	1	R1646T
101.045	2.381	310395	WORD	n/a	n/a	LETTUCE	Vegetables	4	-1	[0, 0, 0]	n/a	catFR1	1	R1646T
103.426	2.419	312776	WORD	n/a	n/a	PENCIL	OfficeSupplies	5	-1	[0, 0, 0]	n/a	catFR1	1	R1646T
105.845	2.565	315195	WORD	n/a	n/a	RULER	OfficeSupplies	6	-1	[0, 0, 0]	n/a	catFR1	1	R1646T
108.41	2.616	317760	WORD	n/a	n/a	WOOL	Fabric	7	-1	[0, 0, 0]	n/a	catFR1	1	R1646T
111.026	2.368	320376	WORD	n/a	n/a	SILK	Fabric	8	-1	[0, 0, 0]	n/a	catFR1	1	R1646T
113.394	2.5	322744	WORD	n/a	n/a	BINDER	OfficeSupplies	9	-1	[0, 0, 0]	n/a	catFR1	1	R1646T
115.894	2.5	325244	WORD	n/a	n/a	STAPLER	OfficeSupplies	10	-1	[0, 0, 0]	n/a	catFR1	1	R1646T
118.394	2.566	327744	WORD	n/a	n/a	ONION	Vegetables	11	-1	[0, 0, 0]	n/a	catFR1	1	R1646T
120.96	1.618	330310	WORD	n/a	n/a	POTATO	Vegetables	12	-1	[0, 0, 0]	n/a	catFR1	1	R1646T
122.578	0.001	331928	DISTRACT_START	n/a	n/a	n/a	n/a	-999	0	[0, 0, 0]	n/a	catFR1	1	R1646T
122.579	6.082	331929	PROB	6.066	n/a	n/a	n/a	-999	0	[6, 6, 1]	13.0	catFR1	1	R1646T
128.661	4.466	338011	PROB	4.449	n/a	n/a	n/a	-999	0	[5, 5, 4]	14.0	catFR1	1	R1646T
133.127	18.914	342477	PROB	16.698	n/a	n/a	n/a	-999	0	[7, 7, 3]	17.0	catFR1	1	R1646T
152.041	0.963	361391	REC_START	n/a	n/a	n/a	n/a	-999	-1	[0, 0, 0]	n/a	catFR1	1	R1646T
153.004	1.023	362354	REC_WORD	0.963	n/a	SATIN	Fabric	1	-1	[0, 0, 0]	n/a	catFR1	1	R1646T
154.027	2.837	363377	REC_WORD	1.986	n/a	WOOL	Fabric	7	-1	[0, 0, 0]	n/a	catFR1	1	R1646T
156.864	2.274	366214	REC_WORD	4.823	n/a	SILK	Fabric	8	-1	[0, 0, 0]	n/a	catFR1	1	R1646T
159.138	6.479	368488	REC_WORD	7.097	n/a	LATEX	n/a	-999	-1	[0, 0, 0]	n/a	catFR1	1	R1646T
165.617	14.222	374967	REC_WORD_VV	13.576	n/a	<>	n/a	-999	-1	[0, 0, 0]	n/a	catFR1	1	R1646T
179.839	2.298	389189	REC_WORD_VV	27.798	n/a	<>	n/a	-999	-1	[0, 0, 0]	n/a	catFR1	1	R1646T
182.137	96.199	391487	TRIAL	n/a	n/a	n/a	n/a	-999	1	[0, 0, 0]	n/a	catFR1	1	R1646T
278.336	10.367	487686	COUNTDOWN	n/a	n/a	n/a	n/a	-999	1	[0, 0, 0]	n/a	catFR1	1	R1646T
288.703	2.384	498053	ENCODING_START	n/a	n/a	n/a	n/a	-999	1	[0, 0, 0]	n/a	catFR1	1	R1646T
291.087	2.6	500437	WORD	n/a	wordpools/wordpool_categorized_EN.txt	PASTRY	Desserts	1	1	[0, 0, 0]	n/a	catFR1	1	R1646T
293.687	2.599	503037	WORD	n/a	wordpools/wordpool_categorized_EN.txt	FUDGE	Desserts	2	1	[0, 0, 0]	n/a	catFR1	1	R1646T
296.286	2.566	505636	WORD	n/a	wordpools/wordpool_categorized_EN.txt	FOREST	Landscapes	3	1	[0, 0, 0]	n/a	catFR1	1	R1646T
298.852	2.6	508202	WORD	n/a	wordpools/wordpool_categorized_EN.txt	ISLAND	Landscapes	4	1	[0, 0, 0]	n/a	catFR1	1	R1646T
301.452	2.566	510802	WORD	n/a	wordpools/wordpool_categorized_EN.txt	SHOVEL	Tools	5	1	[0, 0, 0]	n/a	catFR1	1	R1646T
304.018	2.417	513368	WORD	n/a	wordpools/wordpool_categorized_EN.txt	RATCHET	Tools	6	1	[0, 0, 0]	n/a	catFR1	1	R1646T
306.435	2.618	515785	WORD	n/a	wordpools/wordpool_categorized_EN.txt	BEACH	Landscapes	7	1	[0, 0, 0]	n/a	catFR1	1	R1646T
309.053	2.399	518403	WORD	n/a	wordpools/wordpool_categorized_EN.txt	HILLS	Landscapes	8	1	[0, 0, 0]	n/a	catFR1	1	R1646T
311.452	2.533	520802	WORD	n/a	wordpools/wordpool_categorized_EN.txt	CHEESECAKE	Desserts	9	1	[0, 0, 0]	n/a	catFR1	1	R1646T
313.985	2.6	523335	WORD	n/a	wordpools/wordpool_categorized_EN.txt	COOKIE	Desserts	10	1	[0, 0, 0]	n/a	catFR1	1	R1646T
316.585	2.4	525935	WORD	n/a	wordpools/wordpool_categorized_EN.txt	SCREWDRIVER	Tools	11	1	[0, 0, 0]	n/a	catFR1	1	R1646T
318.985	1.616	528335	WORD	n/a	wordpools/wordpool_categorized_EN.txt	LEVEL	Tools	12	1	[0, 0, 0]	n/a	catFR1	1	R1646T
320.601	0.001	529951	PROB	6.065	n/a	n/a	n/a	-999	1	[2, 6, 8]	16.0	catFR1	1	R1646T
320.602	6.084	529952	DISTRACT_START	n/a	n/a	n/a	n/a	-999	1	[0, 0, 0]	n/a	catFR1	1	R1646T
326.686	10.982	536036	PROB	10.965	n/a	n/a	n/a	-999	1	[3, 4, 8]	15.0	catFR1	1	R1646T
337.668	12.881	547018	PROB	10.616	n/a	n/a	n/a	-999	1	[1, 5, 7]	13.0	catFR1	1	R1646T
350.549	0.819	559899	REC_START	n/a	n/a	n/a	n/a	-999	1	[0, 0, 0]	n/a	catFR1	1	R1646T
351.368	0.931	560718	REC_WORD	0.819	n/a	PASTRY	Desserts	1	1	[0, 0, 0]	n/a	catFR1	1	R1646T
352.299	2.048	561649	REC_WORD	1.75	n/a	FUDGE	Desserts	2	1	[0, 0, 0]	n/a	catFR1	1	R1646T
354.347	0.601	563697	REC_WORD	3.798	n/a	BEACH	Landscapes	7	1	[0, 0, 0]	n/a	catFR1	1	R1646T
354.948	4.774	564298	REC_WORD	4.399	n/a	ISLAND	Landscapes	4	1	[0, 0, 0]	n/a	catFR1	1	R1646T
359.722	7.47	569072	REC_WORD	9.173	n/a	HATCHET	n/a	-999	1	[0, 0, 0]	n/a	catFR1	1	R1646T
367.192	13.395	576542	REC_WORD	16.643	n/a	SHOVEL	Tools	5	1	[0, 0, 0]	n/a	catFR1	1	R1646T
380.587	15.495	589937	TRIAL	n/a	n/a	n/a	n/a	-999	2	[0, 0, 0]	n/a	catFR1	1	R1646T
396.082	10.35	605432	COUNTDOWN	n/a	n/a	n/a	n/a	-999	2	[0, 0, 0]	n/a	catFR1	1	R1646T
406.432	1.999	615782	ENCODING_START	n/a	n/a	n/a	n/a	-999	2	[0, 0, 0]	n/a	catFR1	1	R1646T
408.431	2.484	617781	WORD	n/a	wordpools/wordpool_categorized_EN.txt	PIG	FarmAnimals	1	2	[0, 0, 0]	n/a	catFR1	1	R1646T
410.915	2.598	620265	WORD	n/a	wordpools/wordpool_categorized_EN.txt	ROOSTER	FarmAnimals	2	2	[0, 0, 0]	n/a	catFR1	1	R1646T
413.513	2.568	622863	WORD	n/a	wordpools/wordpool_categorized_EN.txt	RUM	Beverages	3	2	[0, 0, 0]	n/a	catFR1	1	R1646T
416.081	2.448	625431	WORD	n/a	wordpools/wordpool_categorized_EN.txt	TEA	Beverages	4	2	[0, 0, 0]	n/a	catFR1	1	R1646T
418.529	2.401	627879	WORD	n/a	wordpools/wordpool_categorized_EN.txt	REFRIGERATOR	Appliances	5	2	[0, 0, 0]	n/a	catFR1	1	R1646T
420.93	2.568	630280	WORD	n/a	wordpools/wordpool_categorized_EN.txt	BLENDER	Appliances	6	2	[0, 0, 0]	n/a	catFR1	1	R1646T
423.498	2.517	632848	WORD	n/a	wordpools/wordpool_categorized_EN.txt	JUICE	Beverages	7	2	[0, 0, 0]	n/a	catFR1	1	R1646T
426.015	2.564	635365	WORD	n/a	wordpools/wordpool_categorized_EN.txt	COLA	Beverages	8	2	[0, 0, 0]	n/a	catFR1	1	R1646T
428.579	2.535	637929	WORD	n/a	wordpools/wordpool_categorized_EN.txt	LAMB	FarmAnimals	9	2	[0, 0, 0]	n/a	catFR1	1	R1646T
431.114	2.45	640464	WORD	n/a	wordpools/wordpool_categorized_EN.txt	CALF	FarmAnimals	10	2	[0, 0, 0]	n/a	catFR1	1	R1646T
433.564	2.499	642914	WORD	n/a	wordpools/wordpool_categorized_EN.txt	DISHWASHER	Appliances	11	2	[0, 0, 0]	n/a	catFR1	1	R1646T
436.063	1.617	645413	WORD	n/a	wordpools/wordpool_categorized_EN.txt	STOVE	Appliances	12	2	[0, 0, 0]	n/a	catFR1	1	R1646T
437.68	0.001	647030	DISTRACT_START	n/a	n/a	n/a	n/a	-999	2	[0, 0, 0]	n/a	catFR1	1	R1646T
437.681	12.349	647031	PROB	12.333	n/a	n/a	n/a	-999	2	[3, 5, 6]	17.0	catFR1	1	R1646T
450.03	4.833	659380	PROB	4.816	n/a	n/a	n/a	-999	2	[8, 3, 7]	18.0	catFR1	1	R1646T
454.863	8.484	664213	PROB	5.933	n/a	n/a	n/a	-999	2	[4, 3, 3]	10.0	catFR1	1	R1646T
463.347	0.589	672697	REC_START	n/a	n/a	n/a	n/a	-999	2	[0, 0, 0]	n/a	catFR1	1	R1646T
463.936	0.879	673286	REC_WORD	0.589	n/a	PIG	FarmAnimals	1	2	[0, 0, 0]	n/a	catFR1	1	R1646T
464.815	1.743	674165	REC_WORD	1.468	n/a	ROOSTER	FarmAnimals	2	2	[0, 0, 0]	n/a	catFR1	1	R1646T
466.558	4.385	675908	REC_WORD	3.211	n/a	RUM	Beverages	3	2	[0, 0, 0]	n/a	catFR1	1	R1646T
470.943	1.411	680293	REC_WORD	7.596	n/a	BLENDER	Appliances	6	2	[0, 0, 0]	n/a	catFR1	1	R1646T
472.354	1.417	681704	REC_WORD_VV	9.007	n/a	<>	n/a	-999	2	[0, 0, 0]	n/a	catFR1	1	R1646T
473.771	1.0	683121	REC_WORD	10.424	n/a	REFRIGERATOR	Appliances	5	2	[0, 0, 0]	n/a	catFR1	1	R1646T
474.771	1.005	684121	REC_WORD_VV	11.424	n/a	<>	n/a	-999	2	[0, 0, 0]	n/a	catFR1	1	R1646T
475.776	6.383	685126	REC_WORD_VV	12.429	n/a	<>	n/a	-999	2	[0, 0, 0]	n/a	catFR1	1	R1646T
482.159	1.0	691509	REC_WORD_VV	18.812	n/a	<>	n/a	-999	2	[0, 0, 0]	n/a	catFR1	1	R1646T
483.159	1.302	692509	REC_WORD_VV	19.812	n/a	<>	n/a	-999	2	[0, 0, 0]	n/a	catFR1	1	R1646T
484.461	8.884	693811	REC_WORD	21.114	n/a	CALF	FarmAnimals	10	2	[0, 0, 0]	n/a	catFR1	1	R1646T
493.345	24.098	702695	TRIAL	n/a	n/a	n/a	n/a	-999	3	[0, 0, 0]	n/a	catFR1	1	R1646T
517.443	10.35	726793	COUNTDOWN	n/a	n/a	n/a	n/a	-999	3	[0, 0, 0]	n/a	catFR1	1	R1646T
527.793	2.133	737143	ENCODING_START	n/a	n/a	n/a	n/a	-999	3	[0, 0, 0]	n/a	catFR1	1	R1646T
529.926	2.466	739276	WORD	n/a	wordpools/wordpool_categorized_EN.txt	TURKEY	FarmAnimals	1	3	[0, 0, 0]	n/a	catFR1	1	R1646T
532.392	2.4	741742	WORD	n/a	wordpools/wordpool_categorized_EN.txt	HEN	FarmAnimals	2	3	[0, 0, 0]	n/a	catFR1	1	R1646T
534.792	2.567	744142	WORD	n/a	wordpools/wordpool_categorized_EN.txt	CRAB	OceanAnimals	3	3	[0, 0, 0]	n/a	catFR1	1	R1646T
537.359	2.383	746709	WORD	n/a	wordpools/wordpool_categorized_EN.txt	LOBSTER	OceanAnimals	4	3	[0, 0, 0]	n/a	catFR1	1	R1646T
539.742	2.467	749092	WORD	n/a	wordpools/wordpool_categorized_EN.txt	PUDDING	Desserts	5	3	[0, 0, 0]	n/a	catFR1	1	R1646T
542.209	2.383	751559	WORD	n/a	wordpools/wordpool_categorized_EN.txt	JELLO	Desserts	6	3	[0, 0, 0]	n/a	catFR1	1	R1646T
544.592	2.601	753942	WORD	n/a	wordpools/wordpool_categorized_EN.txt	JELLYFISH	OceanAnimals	7	3	[0, 0, 0]	n/a	catFR1	1	R1646T
547.193	2.516	756543	WORD	n/a	wordpools/wordpool_categorized_EN.txt	WHALE	OceanAnimals	8	3	[0, 0, 0]	n/a	catFR1	1	R1646T
549.709	2.448	759059	WORD	n/a	wordpools/wordpool_categorized_EN.txt	HORSE	FarmAnimals	9	3	[0, 0, 0]	n/a	catFR1	1	R1646T
552.157	2.551	761507	WORD	n/a	wordpools/wordpool_categorized_EN.txt	GOAT	FarmAnimals	10	3	[0, 0, 0]	n/a	catFR1	1	R1646T
554.708	2.547	764058	WORD	n/a	wordpools/wordpool_categorized_EN.txt	PIE	Desserts	11	3	[0, 0, 0]	n/a	catFR1	1	R1646T
557.255	1.602	766605	WORD	n/a	wordpools/wordpool_categorized_EN.txt	MOUSSE	Desserts	12	3	[0, 0, 0]	n/a	catFR1	1	R1646T
558.857	0.001	768207	DISTRACT_START	n/a	n/a	n/a	n/a	-999	3	[0, 0, 0]	n/a	catFR1	1	R1646T
558.858	15.967	768208	PROB	15.95	n/a	n/a	n/a	-999	3	[7, 5, 1]	13.0	catFR1	1	R1646T
574.825	7.009	784175	PROB	4.749	n/a	n/a	n/a	-999	3	[2, 4, 2]	8.0	catFR1	1	R1646T
581.834	1.869	791184	REC_START	n/a	n/a	n/a	n/a	-999	3	[0, 0, 0]	n/a	catFR1	1	R1646T
583.703	1.03	793053	REC_WORD	1.869	n/a	WHALE	OceanAnimals	8	3	[0, 0, 0]	n/a	catFR1	1	R1646T
584.733	1.0	794083	REC_WORD	2.899	n/a	JELLYFISH	OceanAnimals	7	3	[0, 0, 0]	n/a	catFR1	1	R1646T
585.733	0.632	795083	REC_WORD_VV	3.899	n/a	<>	n/a	-999	3	[0, 0, 0]	n/a	catFR1	1	R1646T
586.365	4.602	795715	REC_WORD	4.531	n/a	PIE	Desserts	11	3	[0, 0, 0]	n/a	catFR1	1	R1646T
590.967	0.503	800317	REC_WORD	9.133	n/a	PIG	FarmAnimals	-999	3	[0, 0, 0]	n/a	catFR1	1	R1646T
591.47	2.051	800820	REC_WORD	9.636	n/a	SHEEP	n/a	-999	3	[0, 0, 0]	n/a	catFR1	1	R1646T
593.521	0.781	802871	REC_WORD_VV	11.687	n/a	<>	n/a	-999	3	[0, 0, 0]	n/a	catFR1	1	R1646T
594.302	0.238	803652	REC_WORD	12.468	n/a	PIG	FarmAnimals	-999	3	[0, 0, 0]	n/a	catFR1	1	R1646T
594.54	0.584	803890	REC_WORD	12.706	n/a	SHEEP	n/a	-999	3	[0, 0, 0]	n/a	catFR1	1	R1646T
595.124	0.621	804474	REC_WORD_VV	13.29	n/a	<>	n/a	-999	3	[0, 0, 0]	n/a	catFR1	1	R1646T
595.745	0.807	805095	REC_WORD	13.911	n/a	TURKEY	FarmAnimals	1	3	[0, 0, 0]	n/a	catFR1	1	R1646T
596.552	2.537	805902	REC_WORD	14.718	n/a	HEN	FarmAnimals	2	3	[0, 0, 0]	n/a	catFR1	1	R1646T
599.089	0.803	808439	REC_WORD_VV	17.255	n/a	<>	n/a	-999	3	[0, 0, 0]	n/a	catFR1	1	R1646T
599.892	0.518	809242	REC_WORD	18.058	n/a	PIG	FarmAnimals	-999	3	[0, 0, 0]	n/a	catFR1	1	R1646T
600.41	0.953	809760	REC_WORD_VV	18.576	n/a	<>	n/a	-999	3	[0, 0, 0]	n/a	catFR1	1	R1646T
601.363	0.45	810713	REC_WORD	19.529	n/a	TURKEY	FarmAnimals	1	3	[0, 0, 0]	n/a	catFR1	1	R1646T
601.813	2.411	811163	REC_WORD_VV	19.979	n/a	<>	n/a	-999	3	[0, 0, 0]	n/a	catFR1	1	R1646T
604.224	1.696	813574	REC_WORD_VV	22.39	n/a	<>	n/a	-999	3	[0, 0, 0]	n/a	catFR1	1	R1646T
605.92	0.54	815270	REC_WORD	24.086	n/a	PUDDING	Desserts	5	3	[0, 0, 0]	n/a	catFR1	1	R1646T
606.46	1.0	815810	REC_WORD	24.626	n/a	JELLYFISH	OceanAnimals	7	3	[0, 0, 0]	n/a	catFR1	1	R1646T
607.46	4.504	816810	REC_WORD_VV	25.626	n/a	<>	n/a	-999	3	[0, 0, 0]	n/a	catFR1	1	R1646T
611.964	10.291	821314	TRIAL	n/a	n/a	n/a	n/a	-999	4	[0, 0, 0]	n/a	catFR1	1	R1646T
622.255	10.35	831605	COUNTDOWN	n/a	n/a	n/a	n/a	-999	4	[0, 0, 0]	n/a	catFR1	1	R1646T
632.605	2.083	841955	ENCODING_START	n/a	n/a	n/a	n/a	-999	4	[0, 0, 0]	n/a	catFR1	1	R1646T
634.688	2.467	844038	WORD	n/a	wordpools/wordpool_categorized_EN.txt	PETUNIA	Flowers	1	4	[0, 0, 0]	n/a	catFR1	1	R1646T
637.155	2.481	846505	WORD	n/a	wordpools/wordpool_categorized_EN.txt	LILAC	Flowers	2	4	[0, 0, 0]	n/a	catFR1	1	R1646T
639.636	2.498	848986	WORD	n/a	wordpools/wordpool_categorized_EN.txt	WASHER	Appliances	3	4	[0, 0, 0]	n/a	catFR1	1	R1646T
642.134	2.485	851484	WORD	n/a	wordpools/wordpool_categorized_EN.txt	MIXER	Appliances	4	4	[0, 0, 0]	n/a	catFR1	1	R1646T
644.619	2.533	853969	WORD	n/a	wordpools/wordpool_categorized_EN.txt	HAWK	Birds	5	4	[0, 0, 0]	n/a	catFR1	1	R1646T
647.152	2.419	856502	WORD	n/a	wordpools/wordpool_categorized_EN.txt	CARDINAL	Birds	6	4	[0, 0, 0]	n/a	catFR1	1	R1646T
649.571	2.433	858921	WORD	n/a	wordpools/wordpool_categorized_EN.txt	DAFFODIL	Flowers	7	4	[0, 0, 0]	n/a	catFR1	1	R1646T
652.004	2.417	861354	WORD	n/a	wordpools/wordpool_categorized_EN.txt	CARNATION	Flowers	8	4	[0, 0, 0]	n/a	catFR1	1	R1646T
654.421	2.517	863771	WORD	n/a	wordpools/wordpool_categorized_EN.txt	CROW	Birds	9	4	[0, 0, 0]	n/a	catFR1	1	R1646T
656.938	2.599	866288	WORD	n/a	wordpools/wordpool_categorized_EN.txt	BLUEBIRD	Birds	10	4	[0, 0, 0]	n/a	catFR1	1	R1646T
659.537	2.583	868887	WORD	n/a	wordpools/wordpool_categorized_EN.txt	DRYER	Appliances	11	4	[0, 0, 0]	n/a	catFR1	1	R1646T
662.12	1.601	871470	WORD	n/a	wordpools/wordpool_categorized_EN.txt	OVEN	Appliances	12	4	[0, 0, 0]	n/a	catFR1	1	R1646T
663.721	0.0	873071	DISTRACT_START	n/a	n/a	n/a	n/a	-999	4	[0, 0, 0]	n/a	catFR1	1	R1646T
663.721	4.4	873071	PROB	4.382	n/a	n/a	n/a	-999	4	[6, 5, 5]	16.0	catFR1	1	R1646T
668.121	8.066	877471	PROB	8.049	n/a	n/a	n/a	-999	4	[2, 6, 5]	13.0	catFR1	1	R1646T
676.187	6.966	885537	PROB	6.949	n/a	n/a	n/a	-999	4	[3, 2, 8]	13.0	catFR1	1	R1646T
683.153	6.396	892503	PROB	4.265	n/a	n/a	n/a	-999	4	[7, 2, 1]	10.0	catFR1	1	R1646T
689.549	0.517	898899	REC_START	n/a	n/a	n/a	n/a	-999	4	[0, 0, 0]	n/a	catFR1	1	R1646T
690.066	0.537	899416	REC_WORD	0.517	n/a	HAWK	Birds	5	4	[0, 0, 0]	n/a	catFR1	1	R1646T
690.603	2.095	899953	REC_WORD	1.054	n/a	CROW	Birds	9	4	[0, 0, 0]	n/a	catFR1	1	R1646T
692.698	0.825	902048	REC_WORD_VV	3.149	n/a	<>	n/a	-999	4	[0, 0, 0]	n/a	catFR1	1	R1646T
693.523	1.795	902873	REC_WORD	3.974	n/a	OVEN	Appliances	12	4	[0, 0, 0]	n/a	catFR1	1	R1646T
695.318	0.357	904668	REC_WORD_VV	5.769	n/a	<>	n/a	-999	4	[0, 0, 0]	n/a	catFR1	1	R1646T
695.675	1.651	905025	REC_WORD	6.126	n/a	CAKE	n/a	-999	4	[0, 0, 0]	n/a	catFR1	1	R1646T
697.326	10.768	906676	REC_WORD	7.777	n/a	CARNATION	Flowers	8	4	[0, 0, 0]	n/a	catFR1	1	R1646T
708.094	1.037	917444	REC_WORD	18.545	n/a	BIRD	n/a	-999	4	[0, 0, 0]	n/a	catFR1	1	R1646T
709.131	10.526	918481	REC_WORD	19.582	n/a	CARDINAL	Birds	6	4	[0, 0, 0]	n/a	catFR1	1	R1646T
719.657	12.058	929007	TRIAL	n/a	n/a	n/a	n/a	-999	5	[0, 0, 0]	n/a	catFR1	1	R1646T
731.715	10.352	941065	COUNTDOWN	n/a	n/a	n/a	n/a	-999	5	[0, 0, 0]	n/a	catFR1	1	R1646T
742.067	2.1	951417	ENCODING_START	n/a	n/a	n/a	n/a	-999	5	[0, 0, 0]	n/a	catFR1	1	R1646T
744.167	2.4	953517	WORD	n/a	wordpools/wordpool_categorized_EN.txt	GUITAR	Instruments	1	5	[0, 0, 0]	n/a	catFR1	1	R1646T
746.567	2.45	955917	WORD	n/a	wordpools/wordpool_categorized_EN.txt	FLUTE	Instruments	2	5	[0, 0, 0]	n/a	catFR1	1	R1646T
749.017	2.466	958367	WORD	n/a	wordpools/wordpool_categorized_EN.txt	TOASTER	Appliances	3	5	[0, 0, 0]	n/a	catFR1	1	R1646T
751.483	2.367	960833	WORD	n/a	wordpools/wordpool_categorized_EN.txt	IRON	Appliances	4	5	[0, 0, 0]	n/a	catFR1	1	R1646T
753.85	2.4	963200	WORD	n/a	wordpools/wordpool_categorized_EN.txt	MOTH	Insects	5	5	[0, 0, 0]	n/a	catFR1	1	R1646T
756.25	2.582	965600	WORD	n/a	wordpools/wordpool_categorized_EN.txt	GNAT	Insects	6	5	[0, 0, 0]	n/a	catFR1	1	R1646T
758.832	2.384	968182	WORD	n/a	wordpools/wordpool_categorized_EN.txt	FREEZER	Appliances	7	5	[0, 0, 0]	n/a	catFR1	1	R1646T
761.216	2.601	970566	WORD	n/a	wordpools/wordpool_categorized_EN.txt	VACUUM	Appliances	8	5	[0, 0, 0]	n/a	catFR1	1	R1646T
763.817	2.6	973167	WORD	n/a	wordpools/wordpool_categorized_EN.txt	BANJO	Instruments	9	5	[0, 0, 0]	n/a	catFR1	1	R1646T
766.417	2.583	975767	WORD	n/a	wordpools/wordpool_categorized_EN.txt	PIANO	Instruments	10	5	[0, 0, 0]	n/a	catFR1	1	R1646T
769.0	2.599	978350	WORD	n/a	wordpools/wordpool_categorized_EN.txt	SPIDER	Insects	11	5	[0, 0, 0]	n/a	catFR1	1	R1646T
771.599	1.616	980949	WORD	n/a	wordpools/wordpool_categorized_EN.txt	FLY	Insects	12	5	[0, 0, 0]	n/a	catFR1	1	R1646T
773.215	0.0	982565	DISTRACT_START	n/a	n/a	n/a	n/a	-999	5	[0, 0, 0]	n/a	catFR1	1	R1646T
773.215	8.217	982565	PROB	8.2	n/a	n/a	n/a	-999	5	[1, 2, 5]	8.0	catFR1	1	R1646T
781.432	10.85	990782	PROB	10.833	n/a	n/a	n/a	-999	5	[6, 1, 3]	10.0	catFR1	1	R1646T
792.282	8.159	1001632	PROB	5.849	n/a	n/a	n/a	-999	5	[8, 4, 8]	20.0	catFR1	1	R1646T
800.441	0.005	1009791	REC_START	n/a	n/a	n/a	n/a	-999	5	[0, 0, 0]	n/a	catFR1	1	R1646T
800.446	1.338	1009796	REC_WORD_VV	0.005	n/a	<>	n/a	-999	5	[0, 0, 0]	n/a	catFR1	1	R1646T
801.784	3.971	1011134	REC_WORD	1.343	n/a	MOTH	Insects	5	5	[0, 0, 0]	n/a	catFR1	1	R1646T
805.755	1.0	1015105	REC_WORD_VV	5.314	n/a	<>	n/a	-999	5	[0, 0, 0]	n/a	catFR1	1	R1646T
806.755	1.0	1016105	REC_WORD_VV	6.314	n/a	<>	n/a	-999	5	[0, 0, 0]	n/a	catFR1	1	R1646T
807.755	2.082	1017105	REC_WORD_VV	7.314	n/a	<>	n/a	-999	5	[0, 0, 0]	n/a	catFR1	1	R1646T
809.837	2.088	1019187	REC_WORD	9.396	n/a	GUITAR	Instruments	1	5	[0, 0, 0]	n/a	catFR1	1	R1646T
811.925	1.926	1021275	REC_WORD	11.484	n/a	FLUTE	Instruments	2	5	[0, 0, 0]	n/a	catFR1	1	R1646T
813.851	3.025	1023201	REC_WORD	13.41	n/a	PIANO	Instruments	10	5	[0, 0, 0]	n/a	catFR1	1	R1646T
816.876	1.305	1026226	REC_WORD_VV	16.435	n/a	<>	n/a	-999	5	[0, 0, 0]	n/a	catFR1	1	R1646T
818.181	1.0	1027531	REC_WORD_VV	17.74	n/a	<>	n/a	-999	5	[0, 0, 0]	n/a	catFR1	1	R1646T
819.181	0.335	1028531	REC_WORD_VV	18.74	n/a	<>	n/a	-999	5	[0, 0, 0]	n/a	catFR1	1	R1646T
819.516	0.88	1028866	REC_WORD	19.075	n/a	COOKING	n/a	-999	5	[0, 0, 0]	n/a	catFR1	1	R1646T
820.396	3.106	1029746	REC_WORD_VV	19.955	n/a	<>	n/a	-999	5	[0, 0, 0]	n/a	catFR1	1	R1646T
823.502	3.975	1032852	REC_WORD	23.061	n/a	FREEZER	Appliances	7	5	[0, 0, 0]	n/a	catFR1	1	R1646T
827.477	1.131	1036827	REC_WORD_VV	27.036	n/a	<>	n/a	-999	5	[0, 0, 0]	n/a	catFR1	1	R1646T
828.608	1.891	1037958	REC_WORD	28.167	n/a	SPIDER	Insects	11	5	[0, 0, 0]	n/a	catFR1	1	R1646T
830.499	29.213	1039849	TRIAL	n/a	n/a	n/a	n/a	-999	6	[0, 0, 0]	n/a	catFR1	1	R1646T
859.712	10.349	1069062	COUNTDOWN	n/a	n/a	n/a	n/a	-999	6	[0, 0, 0]	n/a	catFR1	1	R1646T
870.061	2.033	1079411	ENCODING_START	n/a	n/a	n/a	n/a	-999	6	[0, 0, 0]	n/a	catFR1	1	R1646T
872.094	2.6	1081444	WORD	n/a	wordpools/wordpool_categorized_EN.txt	ROSE	Flowers	1	6	[0, 0, 0]	n/a	catFR1	1	R1646T
874.694	2.584	1084044	WORD	n/a	wordpools/wordpool_categorized_EN.txt	LILY	Flowers	2	6	[0, 0, 0]	n/a	catFR1	1	R1646T
877.278	2.55	1086628	WORD	n/a	wordpools/wordpool_categorized_EN.txt	SCOOTER	Vehicles	3	6	[0, 0, 0]	n/a	catFR1	1	R1646T
879.828	2.417	1089178	WORD	n/a	wordpools/wordpool_categorized_EN.txt	BUS	Vehicles	4	6	[0, 0, 0]	n/a	catFR1	1	R1646T
882.245	2.432	1091595	WORD	n/a	wordpools/wordpool_categorized_EN.txt	MOUNTAIN	Landscapes	5	6	[0, 0, 0]	n/a	catFR1	1	R1646T
884.677	2.417	1094027	WORD	n/a	wordpools/wordpool_categorized_EN.txt	LAKE	Landscapes	6	6	[0, 0, 0]	n/a	catFR1	1	R1646T
887.094	2.45	1096444	WORD	n/a	wordpools/wordpool_categorized_EN.txt	MARIGOLD	Flowers	7	6	[0, 0, 0]	n/a	catFR1	1	R1646T
889.544	2.416	1098894	WORD	n/a	wordpools/wordpool_categorized_EN.txt	ORCHID	Flowers	8	6	[0, 0, 0]	n/a	catFR1	1	R1646T
891.96	2.534	1101310	WORD	n/a	wordpools/wordpool_categorized_EN.txt	RIVER	Landscapes	9	6	[0, 0, 0]	n/a	catFR1	1	R1646T
894.494	2.599	1103844	WORD	n/a	wordpools/wordpool_categorized_EN.txt	OCEAN	Landscapes	10	6	[0, 0, 0]	n/a	catFR1	1	R1646T
897.093	2.501	1106443	WORD	n/a	wordpools/wordpool_categorized_EN.txt	BIKE	Vehicles	11	6	[0, 0, 0]	n/a	catFR1	1	R1646T
899.594	1.6	1108944	WORD	n/a	wordpools/wordpool_categorized_EN.txt	MOTORCYCLE	Vehicles	12	6	[0, 0, 0]	n/a	catFR1	1	R1646T
901.194	0.001	1110544	PROB	5.548	n/a	n/a	n/a	-999	6	[5, 7, 5]	17.0	catFR1	1	R1646T
901.195	5.565	1110545	DISTRACT_START	n/a	n/a	n/a	n/a	-999	6	[0, 0, 0]	n/a	catFR1	1	R1646T
906.76	6.834	1116110	PROB	6.816	n/a	n/a	n/a	-999	6	[4, 8, 1]	13.0	catFR1	1	R1646T
913.594	3.783	1122944	PROB	3.765	n/a	n/a	n/a	-999	6	[4, 3, 7]	14.0	catFR1	1	R1646T
917.377	10.656	1126727	PROB	8.099	n/a	n/a	n/a	-999	6	[5, 1, 5]	11.0	catFR1	1	R1646T
928.033	0.57	1137383	REC_START	n/a	n/a	n/a	n/a	-999	6	[0, 0, 0]	n/a	catFR1	1	R1646T
928.603	1.13	1137953	REC_WORD_VV	0.57	n/a	<>	n/a	-999	6	[0, 0, 0]	n/a	catFR1	1	R1646T
929.733	0.286	1139083	REC_WORD_VV	1.7	n/a	<>	n/a	-999	6	[0, 0, 0]	n/a	catFR1	1	R1646T
930.019	0.654	1139369	REC_WORD	1.986	n/a	FLOWERS	n/a	-999	6	[0, 0, 0]	n/a	catFR1	1	R1646T
930.673	1.04	1140023	REC_WORD_VV	2.64	n/a	<>	n/a	-999	6	[0, 0, 0]	n/a	catFR1	1	R1646T
931.713	1.337	1141063	REC_WORD	3.68	n/a	FLOWERS	n/a	-999	6	[0, 0, 0]	n/a	catFR1	1	R1646T
933.05	1.04	1142400	REC_WORD	5.017	n/a	DANDELION	n/a	-999	6	[0, 0, 0]	n/a	catFR1	1	R1646T
934.09	0.965	1143440	REC_WORD	6.057	n/a	ROSE	Flowers	1	6	[0, 0, 0]	n/a	catFR1	1	R1646T
935.055	2.593	1144405	REC_WORD	7.022	n/a	MARIGOLD	Flowers	7	6	[0, 0, 0]	n/a	catFR1	1	R1646T
937.648	1.0	1146998	REC_WORD_VV	9.615	n/a	<>	n/a	-999	6	[0, 0, 0]	n/a	catFR1	1	R1646T
938.648	1.657	1147998	REC_WORD_VV	10.615	n/a	<>	n/a	-999	6	[0, 0, 0]	n/a	catFR1	1	R1646T
940.305	0.352	1149655	REC_WORD_VV	12.272	n/a	<>	n/a	-999	6	[0, 0, 0]	n/a	catFR1	1	R1646T
940.657	1.064	1150007	REC_WORD	12.624	n/a	FLOWER	n/a	-999	6	[0, 0, 0]	n/a	catFR1	1	R1646T
941.721	1.438	1151071	REC_WORD	13.688	n/a	OCEAN	Landscapes	10	6	[0, 0, 0]	n/a	catFR1	1	R1646T
943.159	0.528	1152509	REC_WORD_VV	15.126	n/a	<>	n/a	-999	6	[0, 0, 0]	n/a	catFR1	1	R1646T
943.687	1.027	1153037	REC_WORD	15.654	n/a	BEACH	Landscapes	-999	6	[0, 0, 0]	n/a	catFR1	1	R1646T
944.714	3.59	1154064	REC_WORD	16.681	n/a	MOUNTAIN	Landscapes	5	6	[0, 0, 0]	n/a	catFR1	1	R1646T
948.304	1.102	1157654	REC_WORD	20.271	n/a	BIKE	Vehicles	11	6	[0, 0, 0]	n/a	catFR1	1	R1646T
949.406	1.405	1158756	REC_WORD	21.373	n/a	MOTORCYCLE	Vehicles	12	6	[0, 0, 0]	n/a	catFR1	1	R1646T
950.811	0.88	1160161	REC_WORD_VV	22.778	n/a	<>	n/a	-999	6	[0, 0, 0]	n/a	catFR1	1	R1646T
951.691	1.005	1161041	REC_WORD	23.658	n/a	SCOOTER	Vehicles	3	6	[0, 0, 0]	n/a	catFR1	1	R1646T
952.696	3.256	1162046	REC_WORD	24.663	n/a	BUS	Vehicles	4	6	[0, 0, 0]	n/a	catFR1	1	R1646T
955.952	1.258	1165302	REC_WORD_VV	27.919	n/a	<>	n/a	-999	6	[0, 0, 0]	n/a	catFR1	1	R1646T
957.21	0.796	1166560	REC_WORD	29.177	n/a	LILY	Flowers	2	6	[0, 0, 0]	n/a	catFR1	1	R1646T
958.006	12.951	1167356	TRIAL	n/a	n/a	n/a	n/a	-999	7	[0, 0, 0]	n/a	catFR1	1	R1646T
970.957	10.367	1180307	COUNTDOWN	n/a	n/a	n/a	n/a	-999	7	[0, 0, 0]	n/a	catFR1	1	R1646T
981.324	2.215	1190674	ENCODING_START	n/a	n/a	n/a	n/a	-999	7	[0, 0, 0]	n/a	catFR1	1	R1646T
983.539	2.601	1192889	WORD	n/a	wordpools/wordpool_categorized_EN.txt	FOG	Weather	1	7	[0, 0, 0]	n/a	catFR1	1	R1646T
986.14	2.549	1195490	WORD	n/a	wordpools/wordpool_categorized_EN.txt	CLOUD	Weather	2	7	[0, 0, 0]	n/a	catFR1	1	R1646T
988.689	2.434	1198039	WORD	n/a	wordpools/wordpool_categorized_EN.txt	PEN	OfficeSupplies	3	7	[0, 0, 0]	n/a	catFR1	1	R1646T
991.123	2.617	1200473	WORD	n/a	wordpools/wordpool_categorized_EN.txt	NOTEBOOK	OfficeSupplies	4	7	[0, 0, 0]	n/a	catFR1	1	R1646T
993.74	2.45	1203090	WORD	n/a	wordpools/wordpool_categorized_EN.txt	BEAR	Zoo	5	7	[0, 0, 0]	n/a	catFR1	1	R1646T
996.19	2.482	1205540	WORD	n/a	wordpools/wordpool_categorized_EN.txt	ORANGUTAN	Zoo	6	7	[0, 0, 0]	n/a	catFR1	1	R1646T
998.672	2.517	1208022	WORD	n/a	wordpools/wordpool_categorized_EN.txt	HURRICANE	Weather	7	7	[0, 0, 0]	n/a	catFR1	1	R1646T
1001.189	2.45	1210539	WORD	n/a	wordpools/wordpool_categorized_EN.txt	WIND	Weather	8	7	[0, 0, 0]	n/a	catFR1	1	R1646T
1003.639	2.549	1212989	WORD	n/a	wordpools/wordpool_categorized_EN.txt	PAPER	OfficeSupplies	9	7	[0, 0, 0]	n/a	catFR1	1	R1646T
1006.188	2.433	1215538	WORD	n/a	wordpools/wordpool_categorized_EN.txt	MARKER	OfficeSupplies	10	7	[0, 0, 0]	n/a	catFR1	1	R1646T
1008.621	2.434	1217971	WORD	n/a	wordpools/wordpool_categorized_EN.txt	LION	Zoo	11	7	[0, 0, 0]	n/a	catFR1	1	R1646T
1011.055	1.616	1220405	WORD	n/a	wordpools/wordpool_categorized_EN.txt	ZEBRA	Zoo	12	7	[0, 0, 0]	n/a	catFR1	1	R1646T
1012.671	0.001	1222021	DISTRACT_START	n/a	n/a	n/a	n/a	-999	7	[0, 0, 0]	n/a	catFR1	1	R1646T
1012.672	6.617	1222022	PROB	6.6	n/a	n/a	n/a	-999	7	[1, 5, 1]	7.0	catFR1	1	R1646T
1019.289	5.249	1228639	PROB	5.232	n/a	n/a	n/a	-999	7	[8, 3, 7]	18.0	catFR1	1	R1646T
1024.538	7.417	1233888	PROB	7.4	n/a	n/a	n/a	-999	7	[8, 4, 2]	14.0	catFR1	1	R1646T
1031.955	7.574	1241305	PROB	5.199	n/a	n/a	n/a	-999	7	[7, 2, 2]	11.0	catFR1	1	R1646T
1039.529	0.463	1248879	REC_START	n/a	n/a	n/a	n/a	-999	7	[0, 0, 0]	n/a	catFR1	1	R1646T
1039.992	0.802	1249342	REC_WORD	0.463	n/a	LION	Zoo	11	7	[0, 0, 0]	n/a	catFR1	1	R1646T
1040.794	0.751	1250144	REC_WORD	1.265	n/a	BEAR	Zoo	5	7	[0, 0, 0]	n/a	catFR1	1	R1646T
1041.545	0.907	1250895	REC_WORD	2.016	n/a	ZEBRA	Zoo	12	7	[0, 0, 0]	n/a	catFR1	1	R1646T
1042.452	1.841	1251802	REC_WORD	2.923	n/a	ORGAN	n/a	-999	7	[0, 0, 0]	n/a	catFR1	1	R1646T
1044.293	1.0	1253643	REC_WORD	4.764	n/a	STORM	n/a	-999	7	[0, 0, 0]	n/a	catFR1	1	R1646T
1045.293	0.42	1254643	REC_WORD_VV	5.764	n/a	<>	n/a	-999	7	[0, 0, 0]	n/a	catFR1	1	R1646T
1045.713	3.221	1255063	REC_WORD	6.184	n/a	HURRICANE	Weather	7	7	[0, 0, 0]	n/a	catFR1	1	R1646T
1048.934	3.136	1258284	REC_WORD_VV	9.405	n/a	<>	n/a	-999	7	[0, 0, 0]	n/a	catFR1	1	R1646T
1052.07	0.85	1261420	REC_WORD	12.541	n/a	PAPER	OfficeSupplies	9	7	[0, 0, 0]	n/a	catFR1	1	R1646T
1052.92	2.775	1262270	REC_WORD	13.391	n/a	NOTEBOOK	OfficeSupplies	4	7	[0, 0, 0]	n/a	catFR1	1	R1646T
1055.695	9.421	1265045	REC_WORD	16.166	n/a	PEN	OfficeSupplies	3	7	[0, 0, 0]	n/a	catFR1	1	R1646T
1065.116	0.355	1274466	REC_WORD_VV	25.587	n/a	<>	n/a	-999	7	[0, 0, 0]	n/a	catFR1	1	R1646T
1065.471	4.077	1274821	REC_WORD	25.942	n/a	FOG	Weather	1	7	[0, 0, 0]	n/a	catFR1	1	R1646T
1069.548	10.054	1278898	TRIAL	n/a	n/a	n/a	n/a	-999	8	[0, 0, 0]	n/a	catFR1	1	R1646T
1079.602	10.365	1288952	COUNTDOWN	n/a	n/a	n/a	n/a	-999	8	[0, 0, 0]	n/a	catFR1	1	R1646T
1089.967	2.102	1299317	ENCODING_START	n/a	n/a	n/a	n/a	-999	8	[0, 0, 0]	n/a	catFR1	1	R1646T
1092.069	2.4	1301419	WORD	n/a	wordpools/wordpool_categorized_EN.txt	FOOT	BodyParts	1	8	[0, 0, 0]	n/a	catFR1	1	R1646T
1094.469	2.516	1303819	WORD	n/a	wordpools/wordpool_categorized_EN.txt	NOSE	BodyParts	2	8	[0, 0, 0]	n/a	catFR1	1	R1646T
1096.985	2.582	1306335	WORD	n/a	wordpools/wordpool_categorized_EN.txt	BEE	Insects	3	8	[0, 0, 0]	n/a	catFR1	1	R1646T
1099.567	2.533	1308917	WORD	n/a	wordpools/wordpool_categorized_EN.txt	CRICKET	Insects	4	8	[0, 0, 0]	n/a	catFR1	1	R1646T
1102.1	2.517	1311450	WORD	n/a	wordpools/wordpool_categorized_EN.txt	COAT	Clothing	5	8	[0, 0, 0]	n/a	catFR1	1	R1646T
1104.617	2.498	1313967	WORD	n/a	wordpools/wordpool_categorized_EN.txt	PANTS	Clothing	6	8	[0, 0, 0]	n/a	catFR1	1	R1646T
1107.115	2.386	1316465	WORD	n/a	wordpools/wordpool_categorized_EN.txt	BUTTERFLY	Insects	7	8	[0, 0, 0]	n/a	catFR1	1	R1646T
1109.501	2.567	1318851	WORD	n/a	wordpools/wordpool_categorized_EN.txt	ROACH	Insects	8	8	[0, 0, 0]	n/a	catFR1	1	R1646T
1112.068	2.534	1321418	WORD	n/a	wordpools/wordpool_categorized_EN.txt	LEG	BodyParts	9	8	[0, 0, 0]	n/a	catFR1	1	R1646T
1114.602	2.449	1323952	WORD	n/a	wordpools/wordpool_categorized_EN.txt	KNEE	BodyParts	10	8	[0, 0, 0]	n/a	catFR1	1	R1646T
1117.051	2.584	1326401	WORD	n/a	wordpools/wordpool_categorized_EN.txt	JEANS	Clothing	11	8	[0, 0, 0]	n/a	catFR1	1	R1646T
1119.635	1.614	1328985	WORD	n/a	wordpools/wordpool_categorized_EN.txt	SHIRT	Clothing	12	8	[0, 0, 0]	n/a	catFR1	1	R1646T
1121.249	0.002	1330599	PROB	7.833	n/a	n/a	n/a	-999	8	[4, 3, 7]	14.0	catFR1	1	R1646T
1121.251	7.849	1330601	DISTRACT_START	n/a	n/a	n/a	n/a	-999	8	[0, 0, 0]	n/a	catFR1	1	R1646T
1129.1	11.184	1338450	PROB	11.166	n/a	n/a	n/a	-999	8	[3, 2, 1]	6.0	catFR1	1	R1646T
1140.284	8.047	1349634	PROB	5.848	n/a	n/a	n/a	-999	8	[3, 5, 8]	16.0	catFR1	1	R1646T
1148.331	1.653	1357681	REC_START	n/a	n/a	n/a	n/a	-999	8	[0, 0, 0]	n/a	catFR1	1	R1646T
1149.984	1.0	1359334	REC_WORD	1.653	n/a	ROACH	Insects	8	8	[0, 0, 0]	n/a	catFR1	1	R1646T
1150.984	0.405	1360334	REC_WORD_VV	2.653	n/a	<>	n/a	-999	8	[0, 0, 0]	n/a	catFR1	1	R1646T
1151.389	1.124	1360739	REC_WORD	3.058	n/a	JEANS	Clothing	11	8	[0, 0, 0]	n/a	catFR1	1	R1646T
1152.513	3.113	1361863	REC_WORD	4.182	n/a	SHIRT	Clothing	12	8	[0, 0, 0]	n/a	catFR1	1	R1646T
1155.626	1.0	1364976	REC_WORD_VV	7.295	n/a	<>	n/a	-999	8	[0, 0, 0]	n/a	catFR1	1	R1646T
1156.626	1.0	1365976	REC_WORD_VV	8.295	n/a	<>	n/a	-999	8	[0, 0, 0]	n/a	catFR1	1	R1646T
1157.626	1.12	1366976	REC_WORD_VV	9.295	n/a	<>	n/a	-999	8	[0, 0, 0]	n/a	catFR1	1	R1646T
1158.746	0.857	1368096	REC_WORD	10.415	n/a	FOREST	Landscapes	-999	8	[0, 0, 0]	n/a	catFR1	1	R1646T
1159.603	3.688	1368953	REC_WORD	11.272	n/a	BUTTERFLY	Insects	7	8	[0, 0, 0]	n/a	catFR1	1	R1646T
1163.291	14.319	1372641	REC_WORD_VV	14.96	n/a	<>	n/a	-999	8	[0, 0, 0]	n/a	catFR1	1	R1646T
1177.61	0.776	1386960	REC_WORD_VV	29.279	n/a	<>	n/a	-999	8	[0, 0, 0]	n/a	catFR1	1	R1646T
1178.386	15.228	1387736	TRIAL	n/a	n/a	n/a	n/a	-999	9	[0, 0, 0]	n/a	catFR1	1	R1646T
1193.614	10.35	1402964	COUNTDOWN	n/a	n/a	n/a	n/a	-999	9	[0, 0, 0]	n/a	catFR1	1	R1646T
1203.964	2.284	1413314	ENCODING_START	n/a	n/a	n/a	n/a	-999	9	[0, 0, 0]	n/a	catFR1	1	R1646T
1206.248	2.532	1415598	WORD	n/a	wordpools/wordpool_categorized_EN.txt	DRIZZLE	Weather	1	9	[0, 0, 0]	n/a	catFR1	1	R1646T
1208.78	2.484	1418130	WORD	n/a	wordpools/wordpool_categorized_EN.txt	SNOW	Weather	2	9	[0, 0, 0]	n/a	catFR1	1	R1646T
1211.264	2.45	1420614	WORD	n/a	wordpools/wordpool_categorized_EN.txt	GLUE	OfficeSupplies	3	9	[0, 0, 0]	n/a	catFR1	1	R1646T
1213.714	2.616	1423064	WORD	n/a	wordpools/wordpool_categorized_EN.txt	ERASER	OfficeSupplies	4	9	[0, 0, 0]	n/a	catFR1	1	R1646T
1216.33	2.551	1425680	WORD	n/a	wordpools/wordpool_categorized_EN.txt	ELM	Trees	5	9	[0, 0, 0]	n/a	catFR1	1	R1646T
1218.881	2.548	1428231	WORD	n/a	wordpools/wordpool_categorized_EN.txt	OAK	Trees	6	9	[0, 0, 0]	n/a	catFR1	1	R1646T
1221.429	2.384	1430779	WORD	n/a	wordpools/wordpool_categorized_EN.txt	TAPE	OfficeSupplies	7	9	[0, 0, 0]	n/a	catFR1	1	R1646T
1223.813	2.399	1433163	WORD	n/a	wordpools/wordpool_categorized_EN.txt	FOLDER	OfficeSupplies	8	9	[0, 0, 0]	n/a	catFR1	1	R1646T
1226.212	2.585	1435562	WORD	n/a	wordpools/wordpool_categorized_EN.txt	HICKORY	Trees	9	9	[0, 0, 0]	n/a	catFR1	1	R1646T
1228.797	2.432	1438147	WORD	n/a	wordpools/wordpool_categorized_EN.txt	EVERGREEN	Trees	10	9	[0, 0, 0]	n/a	catFR1	1	R1646T
1231.229	2.467	1440579	WORD	n/a	wordpools/wordpool_categorized_EN.txt	RAIN	Weather	11	9	[0, 0, 0]	n/a	catFR1	1	R1646T
1233.696	1.617	1443046	WORD	n/a	wordpools/wordpool_categorized_EN.txt	TORNADO	Weather	12	9	[0, 0, 0]	n/a	catFR1	1	R1646T
1235.313	0.001	1444663	DISTRACT_START	n/a	n/a	n/a	n/a	-999	9	[0, 0, 0]	n/a	catFR1	1	R1646T
1235.314	15.932	1444664	PROB	15.916	n/a	n/a	n/a	-999	9	[7, 8, 5]	23.0	catFR1	1	R1646T
1251.246	7.1	1460596	PROB	4.883	n/a	n/a	n/a	-999	9	[1, 1, 2]	4.0	catFR1	1	R1646T
1258.346	2.678	1467696	REC_START	n/a	n/a	n/a	n/a	-999	9	[0, 0, 0]	n/a	catFR1	1	R1646T
1261.024	0.983	1470374	REC_WORD	2.678	n/a	RAIN	Weather	11	9	[0, 0, 0]	n/a	catFR1	1	R1646T
1262.007	1.719	1471357	REC_WORD	3.661	n/a	TORNADO	Weather	12	9	[0, 0, 0]	n/a	catFR1	1	R1646T
1263.726	1.0	1473076	REC_WORD	5.38	n/a	SNOW	Weather	2	9	[0, 0, 0]	n/a	catFR1	1	R1646T
1264.726	1.364	1474076	REC_WORD_VV	6.38	n/a	<>	n/a	-999	9	[0, 0, 0]	n/a	catFR1	1	R1646T
1266.09	5.473	1475440	REC_WORD	7.744	n/a	FOG	Weather	-999	9	[0, 0, 0]	n/a	catFR1	1	R1646T
1271.563	1.0	1480913	REC_WORD_VV	13.217	n/a	<>	n/a	-999	9	[0, 0, 0]	n/a	catFR1	1	R1646T
1272.563	0.971	1481913	REC_WORD_VV	14.217	n/a	<>	n/a	-999	9	[0, 0, 0]	n/a	catFR1	1	R1646T
1273.534	2.236	1482884	REC_WORD	15.188	n/a	OAK	Trees	6	9	[0, 0, 0]	n/a	catFR1	1	R1646T
1275.77	1.0	1485120	REC_WORD_VV	17.424	n/a	<>	n/a	-999	9	[0, 0, 0]	n/a	catFR1	1	R1646T
1276.77	3.497	1486120	REC_WORD_VV	18.424	n/a	<>	n/a	-999	9	[0, 0, 0]	n/a	catFR1	1	R1646T
1280.267	4.703	1489617	REC_WORD	21.921	n/a	FOLDER	OfficeSupplies	8	9	[0, 0, 0]	n/a	catFR1	1	R1646T
1284.97	3.457	1494320	REC_WORD	26.624	n/a	TAPE	OfficeSupplies	7	9	[0, 0, 0]	n/a	catFR1	1	R1646T
1288.427	6.767	1497777	TRIAL	n/a	n/a	n/a	n/a	-999	10	[0, 0, 0]	n/a	catFR1	1	R1646T
1295.194	10.366	1504544	COUNTDOWN	n/a	n/a	n/a	n/a	-999	10	[0, 0, 0]	n/a	catFR1	1	R1646T
1305.56	2.166	1514910	ENCODING_START	n/a	n/a	n/a	n/a	-999	10	[0, 0, 0]	n/a	catFR1	1	R1646T
1307.726	2.55	1517076	WORD	n/a	wordpools/wordpool_categorized_EN.txt	DRUM	Instruments	1	10	[0, 0, 0]	n/a	catFR1	1	R1646T
1310.276	2.483	1519626	WORD	n/a	wordpools/wordpool_categorized_EN.txt	ORGAN	Instruments	2	10	[0, 0, 0]	n/a	catFR1	1	R1646T
1312.759	2.601	1522109	WORD	n/a	wordpools/wordpool_categorized_EN.txt	COUCH	Furniture	3	10	[0, 0, 0]	n/a	catFR1	1	R1646T
1315.36	2.547	1524710	WORD	n/a	wordpools/wordpool_categorized_EN.txt	SOFA	Furniture	4	10	[0, 0, 0]	n/a	catFR1	1	R1646T
1317.907	2.602	1527257	WORD	n/a	wordpools/wordpool_categorized_EN.txt	FINGERS	BodyParts	5	10	[0, 0, 0]	n/a	catFR1	1	R1646T
1320.509	2.415	1529859	WORD	n/a	wordpools/wordpool_categorized_EN.txt	ARM	BodyParts	6	10	[0, 0, 0]	n/a	catFR1	1	R1646T
1322.924	2.451	1532274	WORD	n/a	wordpools/wordpool_categorized_EN.txt	NIGHTSTAND	Furniture	7	10	[0, 0, 0]	n/a	catFR1	1	R1646T
1325.375	2.365	1534725	WORD	n/a	wordpools/wordpool_categorized_EN.txt	SHELF	Furniture	8	10	[0, 0, 0]	n/a	catFR1	1	R1646T
1327.74	2.385	1537090	WORD	n/a	wordpools/wordpool_categorized_EN.txt	TOE	BodyParts	9	10	[0, 0, 0]	n/a	catFR1	1	R1646T
1330.125	2.384	1539475	WORD	n/a	wordpools/wordpool_categorized_EN.txt	ELBOW	BodyParts	10	10	[0, 0, 0]	n/a	catFR1	1	R1646T
1332.509	2.616	1541859	WORD	n/a	wordpools/wordpool_categorized_EN.txt	VIOLIN	Instruments	11	10	[0, 0, 0]	n/a	catFR1	1	R1646T
1335.125	1.617	1544475	WORD	n/a	wordpools/wordpool_categorized_EN.txt	TROMBONE	Instruments	12	10	[0, 0, 0]	n/a	catFR1	1	R1646T
1336.742	0.001	1546092	PROB	5.732	n/a	n/a	n/a	-999	10	[7, 7, 5]	19.0	catFR1	1	R1646T
1336.743	5.748	1546093	DISTRACT_START	n/a	n/a	n/a	n/a	-999	10	[0, 0, 0]	n/a	catFR1	1	R1646T
1342.491	6.901	1551841	PROB	6.882	n/a	n/a	n/a	-999	10	[2, 5, 2]	9.0	catFR1	1	R1646T
1349.392	6.482	1558742	PROB	6.466	n/a	n/a	n/a	-999	10	[4, 8, 4]	12.0	catFR1	1	R1646T
1355.874	6.769	1565224	PROB	4.381	n/a	n/a	n/a	-999	10	[4, 7, 3]	12.0	catFR1	1	R1646T
1362.643	2.375	1571993	REC_START	n/a	n/a	n/a	n/a	-999	10	[0, 0, 0]	n/a	catFR1	1	R1646T
1365.018	1.0	1574368	REC_WORD_VV	2.375	n/a	<>	n/a	-999	10	[0, 0, 0]	n/a	catFR1	1	R1646T
1366.018	3.873	1575368	REC_WORD_VV	3.375	n/a	<>	n/a	-999	10	[0, 0, 0]	n/a	catFR1	1	R1646T
1369.891	1.626	1579241	REC_WORD	7.248	n/a	DRUM	Instruments	1	10	[0, 0, 0]	n/a	catFR1	1	R1646T
1371.517	1.378	1580867	REC_WORD	8.874	n/a	VIOLIN	Instruments	11	10	[0, 0, 0]	n/a	catFR1	1	R1646T
1372.895	1.0	1582245	REC_WORD_VV	10.252	n/a	<>	n/a	-999	10	[0, 0, 0]	n/a	catFR1	1	R1646T
1373.895	0.35	1583245	REC_WORD_VV	11.252	n/a	<>	n/a	-999	10	[0, 0, 0]	n/a	catFR1	1	R1646T
1374.245	0.478	1583595	REC_WORD	11.602	n/a	VIOLIN	Instruments	11	10	[0, 0, 0]	n/a	catFR1	1	R1646T
1374.723	1.138	1584073	REC_WORD_VV	12.08	n/a	<>	n/a	-999	10	[0, 0, 0]	n/a	catFR1	1	R1646T
1375.861	1.399	1585211	REC_WORD	13.218	n/a	VIOLIN	Instruments	11	10	[0, 0, 0]	n/a	catFR1	1	R1646T
1377.26	5.713	1586610	REC_WORD_VV	14.617	n/a	<>	n/a	-999	10	[0, 0, 0]	n/a	catFR1	1	R1646T
1382.973	1.0	1592323	REC_WORD_VV	20.33	n/a	<>	n/a	-999	10	[0, 0, 0]	n/a	catFR1	1	R1646T
1383.973	1.0	1593323	REC_WORD_VV	21.33	n/a	<>	n/a	-999	10	[0, 0, 0]	n/a	catFR1	1	R1646T
1384.973	5.528	1594323	REC_WORD_VV	22.33	n/a	<>	n/a	-999	10	[0, 0, 0]	n/a	catFR1	1	R1646T
1390.501	0.95	1599851	REC_WORD_VV	27.858	n/a	<>	n/a	-999	10	[0, 0, 0]	n/a	catFR1	1	R1646T
1391.451	0.773	1600801	REC_WORD	28.808	n/a	TOE	BodyParts	9	10	[0, 0, 0]	n/a	catFR1	1	R1646T
1392.224	0.434	1601574	REC_WORD	29.581	n/a	FINGERS	BodyParts	5	10	[0, 0, 0]	n/a	catFR1	1	R1646T
1392.658	0.084	1602008	REC_WORD	30.015	n/a	ARM	BodyParts	6	10	[0, 0, 0]	n/a	catFR1	1	R1646T
1392.742	30.38	1602092	TRIAL	n/a	n/a	n/a	n/a	-999	11	[0, 0, 0]	n/a	catFR1	1	R1646T
1423.122	10.365	1632472	COUNTDOWN	n/a	n/a	n/a	n/a	-999	11	[0, 0, 0]	n/a	catFR1	1	R1646T
1433.487	1.901	1642837	ENCODING_START	n/a	n/a	n/a	n/a	-999	11	[0, 0, 0]	n/a	catFR1	1	R1646T
1435.388	2.449	1644738	WORD	n/a	wordpools/wordpool_categorized_EN.txt	SKIRT	Clothing	1	11	[0, 0, 0]	n/a	catFR1	1	R1646T
1437.837	2.451	1647187	WORD	n/a	wordpools/wordpool_categorized_EN.txt	BLOUSE	Clothing	2	11	[0, 0, 0]	n/a	catFR1	1	R1646T
1440.288	2.432	1649638	WORD	n/a	wordpools/wordpool_categorized_EN.txt	CAR	Vehicles	3	11	[0, 0, 0]	n/a	catFR1	1	R1646T
1442.72	2.417	1652070	WORD	n/a	wordpools/wordpool_categorized_EN.txt	TRUCK	Vehicles	4	11	[0, 0, 0]	n/a	catFR1	1	R1646T
1445.137	2.601	1654487	WORD	n/a	wordpools/wordpool_categorized_EN.txt	HEAD	BodyParts	5	11	[0, 0, 0]	n/a	catFR1	1	R1646T
1447.738	2.548	1657088	WORD	n/a	wordpools/wordpool_categorized_EN.txt	HAND	BodyParts	6	11	[0, 0, 0]	n/a	catFR1	1	R1646T
1450.286	2.468	1659636	WORD	n/a	wordpools/wordpool_categorized_EN.txt	PLANE	Vehicles	7	11	[0, 0, 0]	n/a	catFR1	1	R1646T
1452.754	2.532	1662104	WORD	n/a	wordpools/wordpool_categorized_EN.txt	JEEP	Vehicles	8	11	[0, 0, 0]	n/a	catFR1	1	R1646T
1455.286	2.384	1664636	WORD	n/a	wordpools/wordpool_categorized_EN.txt	EAR	BodyParts	9	11	[0, 0, 0]	n/a	catFR1	1	R1646T
1457.67	2.4	1667020	WORD	n/a	wordpools/wordpool_categorized_EN.txt	EYE	BodyParts	10	11	[0, 0, 0]	n/a	catFR1	1	R1646T
1460.07	2.417	1669420	WORD	n/a	wordpools/wordpool_categorized_EN.txt	SOCKS	Clothing	11	11	[0, 0, 0]	n/a	catFR1	1	R1646T
1462.487	1.616	1671837	WORD	n/a	wordpools/wordpool_categorized_EN.txt	SHORTS	Clothing	12	11	[0, 0, 0]	n/a	catFR1	1	R1646T
1464.103	0.001	1673453	PROB	7.333	n/a	n/a	n/a	-999	11	[6, 2, 1]	9.0	catFR1	1	R1646T
1464.104	7.349	1673454	DISTRACT_START	n/a	n/a	n/a	n/a	-999	11	[0, 0, 0]	n/a	catFR1	1	R1646T
1471.453	4.384	1680803	PROB	4.366	n/a	n/a	n/a	-999	11	[7, 1, 3]	11.0	catFR1	1	R1646T
1475.837	13.495	1685187	PROB	11.132	n/a	n/a	n/a	-999	11	[8, 1, 7]	16.0	catFR1	1	R1646T
1489.332	0.277	1698682	REC_START	n/a	n/a	n/a	n/a	-999	11	[0, 0, 0]	n/a	catFR1	1	R1646T
1489.609	0.416	1698959	REC_WORD_VV	0.277	n/a	<>	n/a	-999	11	[0, 0, 0]	n/a	catFR1	1	R1646T
1490.025	0.905	1699375	REC_WORD	0.693	n/a	BLOUSE	Clothing	2	11	[0, 0, 0]	n/a	catFR1	1	R1646T
1490.93	0.917	1700280	REC_WORD	1.598	n/a	SHIRT	Clothing	-999	11	[0, 0, 0]	n/a	catFR1	1	R1646T
1491.847	1.0	1701197	REC_WORD	2.515	n/a	SHORTS	Clothing	12	11	[0, 0, 0]	n/a	catFR1	1	R1646T
1492.847	0.632	1702197	REC_WORD_VV	3.515	n/a	<>	n/a	-999	11	[0, 0, 0]	n/a	catFR1	1	R1646T
1493.479	2.095	1702829	REC_WORD_VV	4.147	n/a	<>	n/a	-999	11	[0, 0, 0]	n/a	catFR1	1	R1646T
1495.574	0.5	1704924	REC_WORD_VV	6.242	n/a	<>	n/a	-999	11	[0, 0, 0]	n/a	catFR1	1	R1646T
1496.074	0.798	1705424	REC_WORD	6.742	n/a	CAR	Vehicles	3	11	[0, 0, 0]	n/a	catFR1	1	R1646T
1496.872	3.279	1706222	REC_WORD	7.54	n/a	CAR	Vehicles	3	11	[0, 0, 0]	n/a	catFR1	1	R1646T
1500.151	1.941	1709501	REC_WORD_VV	10.819	n/a	<>	n/a	-999	11	[0, 0, 0]	n/a	catFR1	1	R1646T
1502.092	1.0	1711442	REC_WORD	12.76	n/a	AIRPLANE	n/a	-999	11	[0, 0, 0]	n/a	catFR1	1	R1646T
1503.092	1.0	1712442	REC_WORD_VV	13.76	n/a	<>	n/a	-999	11	[0, 0, 0]	n/a	catFR1	1	R1646T
1504.092	3.379	1713442	REC_WORD_VV	14.76	n/a	<>	n/a	-999	11	[0, 0, 0]	n/a	catFR1	1	R1646T
1507.471	4.689	1716821	REC_WORD_VV	18.139	n/a	<>	n/a	-999	11	[0, 0, 0]	n/a	catFR1	1	R1646T
1512.16	0.74	1721510	REC_WORD_VV	22.828	n/a	<>	n/a	-999	11	[0, 0, 0]	n/a	catFR1	1	R1646T
1512.9	6.396	1722250	REC_WORD	23.568	n/a	SHIRT	Clothing	-999	11	[0, 0, 0]	n/a	catFR1	1	R1646T
1519.296	22.571	1728646	TRIAL	n/a	n/a	n/a	n/a	-999	12	[0, 0, 0]	n/a	catFR1	1	R1646T
1541.867	10.365	1751217	COUNTDOWN	n/a	n/a	n/a	n/a	-999	12	[0, 0, 0]	n/a	catFR1	1	R1646T
1552.232	2.266	1761582	ENCODING_START	n/a	n/a	n/a	n/a	-999	12	[0, 0, 0]	n/a	catFR1	1	R1646T
1554.498	2.551	1763848	WORD	n/a	wordpools/wordpool_categorized_EN.txt	SPOON	KitchenTools	1	12	[0, 0, 0]	n/a	catFR1	1	R1646T
1557.049	2.451	1766399	WORD	n/a	wordpools/wordpool_categorized_EN.txt	KNIFE	KitchenTools	2	12	[0, 0, 0]	n/a	catFR1	1	R1646T
1559.5	2.399	1768850	WORD	n/a	wordpools/wordpool_categorized_EN.txt	DESK	Furniture	3	12	[0, 0, 0]	n/a	catFR1	1	R1646T
1561.899	2.549	1771249	WORD	n/a	wordpools/wordpool_categorized_EN.txt	CHAIR	Furniture	4	12	[0, 0, 0]	n/a	catFR1	1	R1646T
1564.448	2.601	1773798	WORD	n/a	wordpools/wordpool_categorized_EN.txt	SQUID	OceanAnimals	5	12	[0, 0, 0]	n/a	catFR1	1	R1646T
1567.049	2.566	1776399	WORD	n/a	wordpools/wordpool_categorized_EN.txt	SHRIMP	OceanAnimals	6	12	[0, 0, 0]	n/a	catFR1	1	R1646T
1569.615	2.434	1778965	WORD	n/a	wordpools/wordpool_categorized_EN.txt	TONGS	KitchenTools	7	12	[0, 0, 0]	n/a	catFR1	1	R1646T
1572.049	2.416	1781399	WORD	n/a	wordpools/wordpool_categorized_EN.txt	SPATULA	KitchenTools	8	12	[0, 0, 0]	n/a	catFR1	1	R1646T
1574.465	2.499	1783815	WORD	n/a	wordpools/wordpool_categorized_EN.txt	PLANKTON	OceanAnimals	9	12	[0, 0, 0]	n/a	catFR1	1	R1646T
1576.964	2.434	1786314	WORD	n/a	wordpools/wordpool_categorized_EN.txt	OYSTER	OceanAnimals	10	12	[0, 0, 0]	n/a	catFR1	1	R1646T
1579.398	2.433	1788748	WORD	n/a	wordpools/wordpool_categorized_EN.txt	RECLINER	Furniture	11	12	[0, 0, 0]	n/a	catFR1	1	R1646T
1581.831	1.616	1791181	WORD	n/a	wordpools/wordpool_categorized_EN.txt	BOOKCASE	Furniture	12	12	[0, 0, 0]	n/a	catFR1	1	R1646T
1583.447	0.0	1792797	DISTRACT_START	n/a	n/a	n/a	n/a	-999	12	[0, 0, 0]	n/a	catFR1	1	R1646T
1583.447	7.534	1792797	PROB	7.517	n/a	n/a	n/a	-999	12	[3, 8, 8]	19.0	catFR1	1	R1646T
1590.981	8.649	1800331	PROB	8.632	n/a	n/a	n/a	-999	12	[7, 6, 5]	18.0	catFR1	1	R1646T
1599.63	18.511	1808980	PROB	16.065	n/a	n/a	n/a	-999	12	[2, 5, 4]	11.0	catFR1	1	R1646T
1618.141	0.803	1827491	REC_START	n/a	n/a	n/a	n/a	-999	12	[0, 0, 0]	n/a	catFR1	1	R1646T
1618.944	2.315	1828294	REC_WORD	0.803	n/a	DESK	Furniture	3	12	[0, 0, 0]	n/a	catFR1	1	R1646T
1621.259	1.012	1830609	REC_WORD	3.118	n/a	FORK	n/a	-999	12	[0, 0, 0]	n/a	catFR1	1	R1646T
1622.271	1.951	1831621	REC_WORD	4.13	n/a	KNIFE	KitchenTools	2	12	[0, 0, 0]	n/a	catFR1	1	R1646T
1624.222	1.235	1833572	REC_WORD	6.081	n/a	SQUID	OceanAnimals	5	12	[0, 0, 0]	n/a	catFR1	1	R1646T
1625.457	1.0	1834807	REC_WORD	7.316	n/a	OYSTER	OceanAnimals	10	12	[0, 0, 0]	n/a	catFR1	1	R1646T
1626.457	0.163	1835807	REC_WORD_VV	8.316	n/a	<>	n/a	-999	12	[0, 0, 0]	n/a	catFR1	1	R1646T
1626.62	1.865	1835970	REC_WORD	8.479	n/a	PLANKTON	OceanAnimals	9	12	[0, 0, 0]	n/a	catFR1	1	R1646T
1628.485	0.461	1837835	REC_WORD_VV	10.344	n/a	<>	n/a	-999	12	[0, 0, 0]	n/a	catFR1	1	R1646T
1628.946	1.0	1838296	REC_WORD	10.805	n/a	TONGS	KitchenTools	7	12	[0, 0, 0]	n/a	catFR1	1	R1646T
1629.946	6.606	1839296	REC_WORD_VV	11.805	n/a	<>	n/a	-999	12	[0, 0, 0]	n/a	catFR1	1	R1646T
1636.552	10.698	1845902	REC_WORD	18.411	n/a	SPATULA	KitchenTools	8	12	[0, 0, 0]	n/a	catFR1	1	R1646T
1647.25	1.024	1856600	REC_WORD_VV	29.109	n/a	<>	n/a	-999	12	[0, 0, 0]	n/a	catFR1	1	R1646T
1648.274	0.0	1857624	SESS_END	n/a	n/a	n/a	n/a	-999	12	[0, 0, 0]	n/a	catFR1	1	R1646T
