onset	duration	sample	trial_type	response_time	stim_file	item_name	category	serialpos	list	test	answer	experiment	session	subject
0.0	164.798	2367	INSTRUCT_START	n/a	n/a	n/a	n/a	-999	-999	[0, 0, 0]	n/a	catFR1	2	R1443D
164.798	27.433	167158	INSTRUCT_END	n/a	n/a	n/a	n/a	-999	-999	[0, 0, 0]	n/a	catFR1	2	R1443D
192.231	10.349	194590	COUNTDOWN_START	n/a	n/a	n/a	n/a	-999	-999	[0, 0, 0]	n/a	catFR1	2	R1443D
202.58	0.0	204933	COUNTDOWN_END	n/a	n/a	n/a	n/a	-999	-999	[0, 0, 0]	n/a	catFR1	2	R1443D
202.58	2.218	204933	ENCODING_START	n/a	n/a	n/a	n/a	-999	-1	[0, 0, 0]	n/a	catFR1	2	R1443D
204.798	1.616	207155	WORD	n/a	n/a	SNOW	Weather	1	-1	[0, 0, 0]	n/a	catFR1	2	R1443D
206.414	0.951	208782	WORD_OFF	n/a	n/a	SNOW	Weather	1	-1	[0, 0, 0]	n/a	catFR1	2	R1443D
207.365	1.6	209721	WORD	n/a	n/a	THUNDERSTORM	Weather	2	-1	[0, 0, 0]	n/a	catFR1	2	R1443D
208.965	0.916	211322	WORD_OFF	n/a	n/a	THUNDERSTORM	Weather	2	-1	[0, 0, 0]	n/a	catFR1	2	R1443D
209.881	1.617	212234	WORD	n/a	n/a	PLANE	Vehicles	3	-1	[0, 0, 0]	n/a	catFR1	2	R1443D
211.498	0.932	213861	WORD_OFF	n/a	n/a	PLANE	Vehicles	3	-1	[0, 0, 0]	n/a	catFR1	2	R1443D
212.43	1.6	214787	WORD	n/a	n/a	CAR	Vehicles	4	-1	[0, 0, 0]	n/a	catFR1	2	R1443D
214.03	0.801	216388	WORD_OFF	n/a	n/a	CAR	Vehicles	4	-1	[0, 0, 0]	n/a	catFR1	2	R1443D
214.831	1.6	217181	WORD	n/a	n/a	BLUEBERRY	Fruit	5	-1	[0, 0, 0]	n/a	catFR1	2	R1443D
216.431	1.0	218782	WORD_OFF	n/a	n/a	BLUEBERRY	Fruit	5	-1	[0, 0, 0]	n/a	catFR1	2	R1443D
217.431	1.617	219787	WORD	n/a	n/a	BANANA	Fruit	6	-1	[0, 0, 0]	n/a	catFR1	2	R1443D
219.048	0.949	221401	WORD_OFF	n/a	n/a	BANANA	Fruit	6	-1	[0, 0, 0]	n/a	catFR1	2	R1443D
219.997	1.617	222353	WORD	n/a	n/a	HUMIDITY	Weather	7	-1	[0, 0, 0]	n/a	catFR1	2	R1443D
221.614	0.816	223966	WORD_OFF	n/a	n/a	HUMIDITY	Weather	7	-1	[0, 0, 0]	n/a	catFR1	2	R1443D
222.43	1.6	224787	WORD	n/a	n/a	TORNADO	Weather	8	-1	[0, 0, 0]	n/a	catFR1	2	R1443D
224.03	0.816	226387	WORD_OFF	n/a	n/a	TORNADO	Weather	8	-1	[0, 0, 0]	n/a	catFR1	2	R1443D
224.846	1.601	227207	WORD	n/a	n/a	BIKE	Vehicles	9	-1	[0, 0, 0]	n/a	catFR1	2	R1443D
226.447	0.984	228807	WORD_OFF	n/a	n/a	BIKE	Vehicles	9	-1	[0, 0, 0]	n/a	catFR1	2	R1443D
227.431	1.614	229786	WORD	n/a	n/a	BUS	Vehicles	10	-1	[0, 0, 0]	n/a	catFR1	2	R1443D
229.045	0.819	231400	WORD_OFF	n/a	n/a	BUS	Vehicles	10	-1	[0, 0, 0]	n/a	catFR1	2	R1443D
229.864	1.601	232220	WORD	n/a	n/a	APPLE	Fruit	11	-1	[0, 0, 0]	n/a	catFR1	2	R1443D
231.465	0.783	233820	WORD_OFF	n/a	n/a	APPLE	Fruit	11	-1	[0, 0, 0]	n/a	catFR1	2	R1443D
232.248	1.617	234601	WORD	n/a	n/a	ORANGE	Fruit	12	-1	[0, 0, 0]	n/a	catFR1	2	R1443D
233.865	0.001	236214	WORD_OFF	n/a	n/a	ORANGE	Fruit	12	-1	[0, 0, 0]	n/a	catFR1	2	R1443D
233.866	0.002	236221	PROB	0.002	n/a	n/a	n/a	-999	-1	[7, 3, 4]	14	catFR1	2	R1443D
233.868	0.0	236223	START	n/a	n/a	n/a	n/a	-999	-1	[-999, -999, -999]	n/a	catFR1	2	R1443D
233.868	0.0	236228	ENCODING_END	n/a	n/a	n/a	n/a	-999	-1	[0, 0, 0]	n/a	catFR1	2	R1443D
233.868	6.898	236228	DISTRACT_START	n/a	n/a	n/a	n/a	-999	-1	[0, 0, 0]	n/a	catFR1	2	R1443D
240.766	6.066	243121	PROB	6.066	n/a	n/a	n/a	-999	-1	[4, 1, 8]	13	catFR1	2	R1443D
246.832	4.55	249186	PROB	4.55	n/a	n/a	n/a	-999	-1	[5, 2, 4]	11	catFR1	2	R1443D
251.382	4.499	253736	PROB	4.499	n/a	n/a	n/a	-999	-1	[5, 5, 3]	13	catFR1	2	R1443D
255.881	0.0	258235	STOP	n/a	n/a	n/a	n/a	-999	-1	[-999, -999, -999]	n/a	catFR1	2	R1443D
255.881	1.099	258237	DISTRACT_END	n/a	n/a	n/a	n/a	-999	-1	[0, 0, 0]	n/a	catFR1	2	R1443D
256.98	1.737	259335	REC_START	n/a	n/a	n/a	n/a	-999	-1	[0, 0, 0]	n/a	catFR1	2	R1443D
258.717	0.768	261071	REC_WORD_VV	0.768	n/a	<>	n/a	-999	-1	[0, 0, 0]	n/a	catFR1	2	R1443D
259.485	1.135	261839	REC_WORD	1.135	n/a	APPLE	Fruit	11	-1	[0, 0, 0]	n/a	catFR1	2	R1443D
260.62	3.301	262974	REC_WORD	3.301	n/a	SNOW	Weather	1	-1	[0, 0, 0]	n/a	catFR1	2	R1443D
263.921	2.755	266274	REC_WORD_VV	2.755	n/a	<>	n/a	-999	-1	[0, 0, 0]	n/a	catFR1	2	R1443D
266.676	2.46	269029	REC_WORD	2.46	n/a	PLANE	Vehicles	3	-1	[0, 0, 0]	n/a	catFR1	2	R1443D
269.136	3.125	271489	REC_WORD	3.125	n/a	TRAIN	n/a	-999	-1	[0, 0, 0]	n/a	catFR1	2	R1443D
272.261	9.841	274614	REC_WORD	9.841	n/a	BIKE	Vehicles	9	-1	[0, 0, 0]	n/a	catFR1	2	R1443D
282.102	2.009	284455	REC_WORD	2.009	n/a	MOUNTAIN	n/a	-999	-1	[0, 0, 0]	n/a	catFR1	2	R1443D
284.111	4.07	286463	REC_WORD	4.07	n/a	TORNADO	Weather	8	-1	[0, 0, 0]	n/a	catFR1	2	R1443D
288.181	6.317	290536	REC_END	n/a	n/a	n/a	n/a	-999	-1	[0, 0, 0]	n/a	catFR1	2	R1443D
294.498	10.349	296859	COUNTDOWN_START	n/a	n/a	n/a	n/a	-999	1	[0, 0, 0]	n/a	catFR1	2	R1443D
304.847	0.0	307202	COUNTDOWN_END	n/a	n/a	n/a	n/a	-999	1	[0, 0, 0]	n/a	catFR1	2	R1443D
304.847	2.069	307202	ENCODING_START	n/a	n/a	n/a	n/a	-999	1	[0, 0, 0]	n/a	catFR1	2	R1443D
306.916	1.615	309265	WORD	n/a	wordpools/wordpool_categorized_EN.txt	PETUNIA	Flowers	1	1	[0, 0, 0]	n/a	catFR1	2	R1443D
308.531	0.933	310879	WORD_OFF	n/a	n/a	PETUNIA	Flowers	1	1	[0, 0, 0]	n/a	catFR1	2	R1443D
309.464	1.601	311818	WORD	n/a	wordpools/wordpool_categorized_EN.txt	DAISY	Flowers	2	1	[0, 0, 0]	n/a	catFR1	2	R1443D
311.065	0.782	313418	WORD_OFF	n/a	n/a	DAISY	Flowers	2	1	[0, 0, 0]	n/a	catFR1	2	R1443D
311.847	1.601	314199	WORD	n/a	wordpools/wordpool_categorized_EN.txt	PEACH	Fruit	3	1	[0, 0, 0]	n/a	catFR1	2	R1443D
313.448	0.832	315799	WORD_OFF	n/a	n/a	PEACH	Fruit	3	1	[0, 0, 0]	n/a	catFR1	2	R1443D
314.28	1.601	316632	WORD	n/a	wordpools/wordpool_categorized_EN.txt	CHERRY	Fruit	4	1	[0, 0, 0]	n/a	catFR1	2	R1443D
315.881	0.883	318233	WORD_OFF	n/a	n/a	CHERRY	Fruit	4	1	[0, 0, 0]	n/a	catFR1	2	R1443D
316.764	1.6	319119	WORD	n/a	wordpools/wordpool_categorized_EN.txt	LOBSTER	OceanAnimals	5	1	[0, 0, 0]	n/a	catFR1	2	R1443D
318.364	0.95	320719	WORD_OFF	n/a	n/a	LOBSTER	OceanAnimals	5	1	[0, 0, 0]	n/a	catFR1	2	R1443D
319.314	1.602	321672	WORD	n/a	wordpools/wordpool_categorized_EN.txt	SHRIMP	OceanAnimals	6	1	[0, 0, 0]	n/a	catFR1	2	R1443D
320.916	0.932	323272	WORD_OFF	n/a	n/a	SHRIMP	OceanAnimals	6	1	[0, 0, 0]	n/a	catFR1	2	R1443D
321.848	1.6	324198	WORD	n/a	wordpools/wordpool_categorized_EN.txt	TULIP	Flowers	7	1	[0, 0, 0]	n/a	catFR1	2	R1443D
323.448	0.783	325798	WORD_OFF	n/a	n/a	TULIP	Flowers	7	1	[0, 0, 0]	n/a	catFR1	2	R1443D
324.231	1.6	326579	WORD	n/a	wordpools/wordpool_categorized_EN.txt	MARIGOLD	Flowers	8	1	[0, 0, 0]	n/a	catFR1	2	R1443D
325.831	0.85	328179	WORD_OFF	n/a	n/a	MARIGOLD	Flowers	8	1	[0, 0, 0]	n/a	catFR1	2	R1443D
326.681	1.6	329026	WORD	n/a	wordpools/wordpool_categorized_EN.txt	GRAPE	Fruit	9	1	[0, 0, 0]	n/a	catFR1	2	R1443D
328.281	0.85	330626	WORD_OFF	n/a	n/a	GRAPE	Fruit	9	1	[0, 0, 0]	n/a	catFR1	2	R1443D
329.131	1.6	331486	WORD	n/a	wordpools/wordpool_categorized_EN.txt	PEAR	Fruit	10	1	[0, 0, 0]	n/a	catFR1	2	R1443D
330.731	0.817	333086	WORD_OFF	n/a	n/a	PEAR	Fruit	10	1	[0, 0, 0]	n/a	catFR1	2	R1443D
331.548	1.616	333893	WORD	n/a	wordpools/wordpool_categorized_EN.txt	FISH	OceanAnimals	11	1	[0, 0, 0]	n/a	catFR1	2	R1443D
333.164	0.8	335520	WORD_OFF	n/a	n/a	FISH	OceanAnimals	11	1	[0, 0, 0]	n/a	catFR1	2	R1443D
333.964	1.617	336314	WORD	n/a	wordpools/wordpool_categorized_EN.txt	SQUID	OceanAnimals	12	1	[0, 0, 0]	n/a	catFR1	2	R1443D
335.581	0.001	337927	WORD_OFF	n/a	n/a	SQUID	OceanAnimals	12	1	[0, 0, 0]	n/a	catFR1	2	R1443D
335.582	0.0	337927	ENCODING_END	n/a	n/a	n/a	n/a	-999	1	[0, 0, 0]	n/a	catFR1	2	R1443D
335.581	0.001	337931	PROB	0.001	n/a	n/a	n/a	-999	1	[1, 2, 5]	8	catFR1	2	R1443D
335.582	0.0	337932	START	n/a	n/a	n/a	n/a	-999	1	[-999, -999, -999]	n/a	catFR1	2	R1443D
335.582	5.483	337941	DISTRACT_START	n/a	n/a	n/a	n/a	-999	1	[0, 0, 0]	n/a	catFR1	2	R1443D
341.065	4.983	343415	PROB	4.983	n/a	n/a	n/a	-999	1	[4, 8, 1]	13	catFR1	2	R1443D
346.048	5.817	348397	PROB	5.817	n/a	n/a	n/a	-999	1	[4, 1, 8]	13	catFR1	2	R1443D
351.865	5.382	354214	PROB	5.382	n/a	n/a	n/a	-999	1	[3, 7, 6]	16	catFR1	2	R1443D
357.247	0.0	359593	DISTRACT_END	n/a	n/a	n/a	n/a	-999	1	[0, 0, 0]	n/a	catFR1	2	R1443D
357.247	1.2	359596	STOP	n/a	n/a	n/a	n/a	-999	1	[-999, -999, -999]	n/a	catFR1	2	R1443D
358.447	0.718	360796	REC_START	n/a	n/a	n/a	n/a	-999	1	[0, 0, 0]	n/a	catFR1	2	R1443D
359.165	1.11	361514	REC_WORD_VV	1.11	n/a	<>	n/a	-999	1	[0, 0, 0]	n/a	catFR1	2	R1443D
360.275	1.941	362624	REC_WORD	1.941	n/a	SQUID	OceanAnimals	12	1	[0, 0, 0]	n/a	catFR1	2	R1443D
362.216	0.325	364564	REC_WORD_VV	0.325	n/a	<>	n/a	-999	1	[0, 0, 0]	n/a	catFR1	2	R1443D
362.541	3.111	364889	REC_WORD	3.111	n/a	FISH	OceanAnimals	11	1	[0, 0, 0]	n/a	catFR1	2	R1443D
365.652	0.895	368000	REC_WORD_VV	0.895	n/a	<>	n/a	-999	1	[0, 0, 0]	n/a	catFR1	2	R1443D
366.547	3.867	368895	REC_WORD	3.867	n/a	LAKE	n/a	-999	1	[0, 0, 0]	n/a	catFR1	2	R1443D
370.414	1.227	372762	REC_WORD_VV	1.227	n/a	<>	n/a	-999	1	[0, 0, 0]	n/a	catFR1	2	R1443D
371.641	1.984	373989	REC_WORD	1.984	n/a	OCTOPUS	n/a	-999	1	[0, 0, 0]	n/a	catFR1	2	R1443D
373.625	5.544	375973	REC_WORD	5.544	n/a	LOBSTER	OceanAnimals	5	1	[0, 0, 0]	n/a	catFR1	2	R1443D
379.169	1.0	381517	REC_WORD	1.0	n/a	SNOW	Weather	-999	1	[0, 0, 0]	n/a	catFR1	2	R1443D
380.169	5.978	382517	REC_WORD_VV	5.978	n/a	<>	n/a	-999	1	[0, 0, 0]	n/a	catFR1	2	R1443D
386.147	3.51	388494	REC_WORD_VV	3.51	n/a	<>	n/a	-999	1	[0, 0, 0]	n/a	catFR1	2	R1443D
389.657	4.406	391998	REC_END	n/a	n/a	n/a	n/a	-999	1	[0, 0, 0]	n/a	catFR1	2	R1443D
394.063	10.351	396416	COUNTDOWN_START	n/a	n/a	n/a	n/a	-999	1	[0, 0, 0]	n/a	catFR1	2	R1443D
404.414	0.0	406759	COUNTDOWN_END	n/a	n/a	n/a	n/a	-999	1	[0, 0, 0]	n/a	catFR1	2	R1443D
404.414	2.367	406759	ENCODING_START	n/a	n/a	n/a	n/a	-999	2	[0, 0, 0]	n/a	catFR1	2	R1443D
406.781	1.617	409126	WORD	n/a	wordpools/wordpool_categorized_EN.txt	JUICE	Beverages	1	2	[0, 0, 0]	n/a	catFR1	2	R1443D
408.398	0.766	410740	WORD_OFF	n/a	n/a	JUICE	Beverages	1	2	[0, 0, 0]	n/a	catFR1	2	R1443D
409.164	1.617	411507	WORD	n/a	wordpools/wordpool_categorized_EN.txt	WATER	Beverages	2	2	[0, 0, 0]	n/a	catFR1	2	R1443D
410.781	0.817	413121	WORD_OFF	n/a	n/a	WATER	Beverages	2	2	[0, 0, 0]	n/a	catFR1	2	R1443D
411.598	1.616	413941	WORD	n/a	wordpools/wordpool_categorized_EN.txt	SHELF	Furniture	3	2	[0, 0, 0]	n/a	catFR1	2	R1443D
413.214	0.967	415555	WORD_OFF	n/a	n/a	SHELF	Furniture	3	2	[0, 0, 0]	n/a	catFR1	2	R1443D
414.181	1.617	416533	WORD	n/a	wordpools/wordpool_categorized_EN.txt	RECLINER	Furniture	4	2	[0, 0, 0]	n/a	catFR1	2	R1443D
415.798	0.983	418147	WORD_OFF	n/a	n/a	RECLINER	Furniture	4	2	[0, 0, 0]	n/a	catFR1	2	R1443D
416.781	1.617	419126	WORD	n/a	wordpools/wordpool_categorized_EN.txt	HAWK	Birds	5	2	[0, 0, 0]	n/a	catFR1	2	R1443D
418.398	0.95	420739	WORD_OFF	n/a	n/a	HAWK	Birds	5	2	[0, 0, 0]	n/a	catFR1	2	R1443D
419.348	1.617	421692	WORD	n/a	wordpools/wordpool_categorized_EN.txt	BLUEBIRD	Birds	6	2	[0, 0, 0]	n/a	catFR1	2	R1443D
420.965	0.899	423305	WORD_OFF	n/a	n/a	BLUEBIRD	Birds	6	2	[0, 0, 0]	n/a	catFR1	2	R1443D
421.864	1.617	424205	WORD	n/a	wordpools/wordpool_categorized_EN.txt	CABINET	Furniture	7	2	[0, 0, 0]	n/a	catFR1	2	R1443D
423.481	0.917	425832	WORD_OFF	n/a	n/a	CABINET	Furniture	7	2	[0, 0, 0]	n/a	catFR1	2	R1443D
424.398	1.616	426744	WORD	n/a	wordpools/wordpool_categorized_EN.txt	COUCH	Furniture	8	2	[0, 0, 0]	n/a	catFR1	2	R1443D
426.014	1.0	428358	WORD_OFF	n/a	n/a	COUCH	Furniture	8	2	[0, 0, 0]	n/a	catFR1	2	R1443D
427.014	1.601	429363	WORD	n/a	wordpools/wordpool_categorized_EN.txt	FINCH	Birds	9	2	[0, 0, 0]	n/a	catFR1	2	R1443D
428.615	0.816	430964	WORD_OFF	n/a	n/a	FINCH	Birds	9	2	[0, 0, 0]	n/a	catFR1	2	R1443D
429.431	1.6	431770	WORD	n/a	wordpools/wordpool_categorized_EN.txt	SPARROW	Birds	10	2	[0, 0, 0]	n/a	catFR1	2	R1443D
431.031	0.8	433371	WORD_OFF	n/a	n/a	SPARROW	Birds	10	2	[0, 0, 0]	n/a	catFR1	2	R1443D
431.831	1.6	434178	WORD	n/a	wordpools/wordpool_categorized_EN.txt	BEER	Beverages	11	2	[0, 0, 0]	n/a	catFR1	2	R1443D
433.431	0.883	435778	WORD_OFF	n/a	n/a	BEER	Beverages	11	2	[0, 0, 0]	n/a	catFR1	2	R1443D
434.314	1.601	436664	WORD	n/a	wordpools/wordpool_categorized_EN.txt	COLA	Beverages	12	2	[0, 0, 0]	n/a	catFR1	2	R1443D
435.915	0.001	438260	PROB	0.001	n/a	n/a	n/a	-999	2	[6, 4, 8]	18	catFR1	2	R1443D
435.916	0.0	438261	START	n/a	n/a	n/a	n/a	-999	2	[-999, -999, -999]	n/a	catFR1	2	R1443D
435.914	0.002	438265	WORD_OFF	n/a	n/a	COLA	Beverages	12	2	[0, 0, 0]	n/a	catFR1	2	R1443D
435.916	0.0	438265	ENCODING_END	n/a	n/a	n/a	n/a	-999	2	[0, 0, 0]	n/a	catFR1	2	R1443D
435.916	5.848	438265	DISTRACT_START	n/a	n/a	n/a	n/a	-999	2	[0, 0, 0]	n/a	catFR1	2	R1443D
441.764	6.384	444108	PROB	6.384	n/a	n/a	n/a	-999	2	[2, 7, 1]	10	catFR1	2	R1443D
448.148	4.833	450492	PROB	4.833	n/a	n/a	n/a	-999	2	[3, 6, 2]	11	catFR1	2	R1443D
452.981	4.15	455325	PROB	4.15	n/a	n/a	n/a	-999	2	[3, 3, 2]	8	catFR1	2	R1443D
457.131	0.0	459475	STOP	n/a	n/a	n/a	n/a	-999	2	[-999, -999, -999]	n/a	catFR1	2	R1443D
457.131	1.266	459480	DISTRACT_END	n/a	n/a	n/a	n/a	-999	2	[0, 0, 0]	n/a	catFR1	2	R1443D
458.397	1.353	460737	REC_START	n/a	n/a	n/a	n/a	-999	2	[0, 0, 0]	n/a	catFR1	2	R1443D
459.75	1.653	462094	REC_WORD	1.653	n/a	COUCH	Furniture	8	2	[0, 0, 0]	n/a	catFR1	2	R1443D
461.403	1.565	463746	REC_WORD_VV	1.565	n/a	<>	n/a	-999	2	[0, 0, 0]	n/a	catFR1	2	R1443D
462.968	2.616	465311	REC_WORD	2.616	n/a	FINCH	Birds	9	2	[0, 0, 0]	n/a	catFR1	2	R1443D
465.584	0.483	467927	REC_WORD	0.483	n/a	BIRD	n/a	-999	2	[0, 0, 0]	n/a	catFR1	2	R1443D
466.067	3.505	468410	REC_WORD	3.505	n/a	BLUEBIRD	Birds	6	2	[0, 0, 0]	n/a	catFR1	2	R1443D
469.572	2.862	471915	REC_WORD_VV	2.862	n/a	<>	n/a	-999	2	[0, 0, 0]	n/a	catFR1	2	R1443D
472.434	3.882	474777	REC_WORD	3.882	n/a	PLANE	Vehicles	-999	2	[0, 0, 0]	n/a	catFR1	2	R1443D
476.316	13.256	478659	REC_WORD_VV	13.256	n/a	<>	n/a	-999	2	[0, 0, 0]	n/a	catFR1	2	R1443D
489.572	5.009	491912	REC_END	n/a	n/a	n/a	n/a	-999	2	[0, 0, 0]	n/a	catFR1	2	R1443D
494.581	10.351	496925	COUNTDOWN_START	n/a	n/a	n/a	n/a	-999	2	[0, 0, 0]	n/a	catFR1	2	R1443D
504.932	0.0	507268	COUNTDOWN_END	n/a	n/a	n/a	n/a	-999	2	[0, 0, 0]	n/a	catFR1	2	R1443D
504.932	2.148	507281	ENCODING_START	n/a	n/a	n/a	n/a	-999	3	[0, 0, 0]	n/a	catFR1	2	R1443D
507.08	1.601	509424	WORD	n/a	wordpools/wordpool_categorized_EN.txt	SODA	Beverages	1	3	[0, 0, 0]	n/a	catFR1	2	R1443D
508.681	0.799	511025	WORD_OFF	n/a	n/a	SODA	Beverages	1	3	[0, 0, 0]	n/a	catFR1	2	R1443D
509.48	1.601	511818	WORD	n/a	wordpools/wordpool_categorized_EN.txt	RUM	Beverages	2	3	[0, 0, 0]	n/a	catFR1	2	R1443D
511.081	0.884	513419	WORD_OFF	n/a	n/a	RUM	Beverages	2	3	[0, 0, 0]	n/a	catFR1	2	R1443D
511.965	1.616	514305	WORD	n/a	wordpools/wordpool_categorized_EN.txt	FOG	Weather	3	3	[0, 0, 0]	n/a	catFR1	2	R1443D
513.581	0.867	515918	WORD_OFF	n/a	n/a	FOG	Weather	3	3	[0, 0, 0]	n/a	catFR1	2	R1443D
514.448	1.6	516791	WORD	n/a	wordpools/wordpool_categorized_EN.txt	WIND	Weather	4	3	[0, 0, 0]	n/a	catFR1	2	R1443D
516.048	0.767	518392	WORD_OFF	n/a	n/a	WIND	Weather	4	3	[0, 0, 0]	n/a	catFR1	2	R1443D
516.815	1.616	519159	WORD	n/a	wordpools/wordpool_categorized_EN.txt	WALNUT	Trees	5	3	[0, 0, 0]	n/a	catFR1	2	R1443D
518.431	0.933	520773	WORD_OFF	n/a	n/a	WALNUT	Trees	5	3	[0, 0, 0]	n/a	catFR1	2	R1443D
519.364	1.601	521698	WORD	n/a	wordpools/wordpool_categorized_EN.txt	OAK	Trees	6	3	[0, 0, 0]	n/a	catFR1	2	R1443D
520.965	0.766	523312	WORD_OFF	n/a	n/a	OAK	Trees	6	3	[0, 0, 0]	n/a	catFR1	2	R1443D
521.731	1.616	524066	WORD	n/a	wordpools/wordpool_categorized_EN.txt	HURRICANE	Weather	7	3	[0, 0, 0]	n/a	catFR1	2	R1443D
523.347	1.001	525693	WORD_OFF	n/a	n/a	HURRICANE	Weather	7	3	[0, 0, 0]	n/a	catFR1	2	R1443D
524.348	1.6	526685	WORD	n/a	wordpools/wordpool_categorized_EN.txt	RAIN	Weather	8	3	[0, 0, 0]	n/a	catFR1	2	R1443D
525.948	0.866	528285	WORD_OFF	n/a	n/a	RAIN	Weather	8	3	[0, 0, 0]	n/a	catFR1	2	R1443D
526.814	1.617	529158	WORD	n/a	wordpools/wordpool_categorized_EN.txt	PINE	Trees	9	3	[0, 0, 0]	n/a	catFR1	2	R1443D
528.431	1.0	530772	WORD_OFF	n/a	n/a	PINE	Trees	9	3	[0, 0, 0]	n/a	catFR1	2	R1443D
529.431	1.6	531777	WORD	n/a	wordpools/wordpool_categorized_EN.txt	EVERGREEN	Trees	10	3	[0, 0, 0]	n/a	catFR1	2	R1443D
531.031	0.917	533378	WORD_OFF	n/a	n/a	EVERGREEN	Trees	10	3	[0, 0, 0]	n/a	catFR1	2	R1443D
531.948	1.6	534290	WORD	n/a	wordpools/wordpool_categorized_EN.txt	LEMONADE	Beverages	11	3	[0, 0, 0]	n/a	catFR1	2	R1443D
533.548	0.999	535891	WORD_OFF	n/a	n/a	LEMONADE	Beverages	11	3	[0, 0, 0]	n/a	catFR1	2	R1443D
534.547	1.6	536883	WORD	n/a	wordpools/wordpool_categorized_EN.txt	TEA	Beverages	12	3	[0, 0, 0]	n/a	catFR1	2	R1443D
536.147	0.001	538483	WORD_OFF	n/a	n/a	TEA	Beverages	12	3	[0, 0, 0]	n/a	catFR1	2	R1443D
536.148	0.0	538488	PROB	0.0	n/a	n/a	n/a	-999	3	[8, 4, 8]	20	catFR1	2	R1443D
536.148	0.0	538488	START	n/a	n/a	n/a	n/a	-999	3	[-999, -999, -999]	n/a	catFR1	2	R1443D
536.148	0.0	538496	ENCODING_END	n/a	n/a	n/a	n/a	-999	3	[0, 0, 0]	n/a	catFR1	2	R1443D
536.148	7.166	538496	DISTRACT_START	n/a	n/a	n/a	n/a	-999	3	[0, 0, 0]	n/a	catFR1	2	R1443D
543.314	7.101	545653	PROB	7.101	n/a	n/a	n/a	-999	3	[7, 4, 6]	17	catFR1	2	R1443D
550.415	3.4	552754	PROB	3.4	n/a	n/a	n/a	-999	3	[4, 2, 1]	7	catFR1	2	R1443D
553.815	6.783	556154	PROB	6.783	n/a	n/a	n/a	-999	3	[4, 4, 7]	15	catFR1	2	R1443D
560.598	0.0	562936	STOP	n/a	n/a	n/a	n/a	-999	3	[-999, -999, -999]	n/a	catFR1	2	R1443D
560.598	1.249	562939	DISTRACT_END	n/a	n/a	n/a	n/a	-999	3	[0, 0, 0]	n/a	catFR1	2	R1443D
561.847	0.51	564182	REC_START	n/a	n/a	n/a	n/a	-999	3	[0, 0, 0]	n/a	catFR1	2	R1443D
562.357	0.815	564695	REC_WORD_VV	0.815	n/a	<>	n/a	-999	3	[0, 0, 0]	n/a	catFR1	2	R1443D
563.172	1.202	565510	REC_WORD	1.202	n/a	GREEN	n/a	-999	3	[0, 0, 0]	n/a	catFR1	2	R1443D
564.374	2.977	566712	REC_WORD	2.977	n/a	EVERGREEN	Trees	10	3	[0, 0, 0]	n/a	catFR1	2	R1443D
567.351	2.716	569689	REC_WORD	2.716	n/a	TORNADO	Weather	-999	3	[0, 0, 0]	n/a	catFR1	2	R1443D
570.067	2.876	572405	REC_WORD	2.876	n/a	HURRICANE	Weather	7	3	[0, 0, 0]	n/a	catFR1	2	R1443D
572.943	0.801	575281	REC_WORD	0.801	n/a	WIND	Weather	4	3	[0, 0, 0]	n/a	catFR1	2	R1443D
573.744	3.728	576082	REC_WORD	3.728	n/a	RAIN	Weather	8	3	[0, 0, 0]	n/a	catFR1	2	R1443D
577.472	2.983	579810	REC_WORD_VV	2.983	n/a	<>	n/a	-999	3	[0, 0, 0]	n/a	catFR1	2	R1443D
580.455	3.843	582792	REC_WORD_VV	3.843	n/a	<>	n/a	-999	3	[0, 0, 0]	n/a	catFR1	2	R1443D
584.298	1.0	586635	REC_WORD	1.0	n/a	TREE	n/a	-999	3	[0, 0, 0]	n/a	catFR1	2	R1443D
585.298	2.677	587635	REC_WORD	2.677	n/a	EVERGREEN	Trees	10	3	[0, 0, 0]	n/a	catFR1	2	R1443D
587.975	2.735	590312	REC_WORD	2.735	n/a	GREEN	n/a	-999	3	[0, 0, 0]	n/a	catFR1	2	R1443D
590.71	2.369	593047	REC_WORD	2.369	n/a	BIRD	n/a	-999	3	[0, 0, 0]	n/a	catFR1	2	R1443D
593.079	3.102	595411	REC_END	n/a	n/a	n/a	n/a	-999	3	[0, 0, 0]	n/a	catFR1	2	R1443D
596.181	10.349	598519	COUNTDOWN_START	n/a	n/a	n/a	n/a	-999	3	[0, 0, 0]	n/a	catFR1	2	R1443D
606.53	0.001	608862	COUNTDOWN_END	n/a	n/a	n/a	n/a	-999	3	[0, 0, 0]	n/a	catFR1	2	R1443D
606.531	2.367	608875	ENCODING_START	n/a	n/a	n/a	n/a	-999	4	[0, 0, 0]	n/a	catFR1	2	R1443D
608.898	1.616	611230	WORD	n/a	wordpools/wordpool_categorized_EN.txt	CORN	Vegetables	1	4	[0, 0, 0]	n/a	catFR1	2	R1443D
610.514	0.817	612857	WORD_OFF	n/a	n/a	CORN	Vegetables	1	4	[0, 0, 0]	n/a	catFR1	2	R1443D
611.331	1.6	613663	WORD	n/a	wordpools/wordpool_categorized_EN.txt	SPINACH	Vegetables	2	4	[0, 0, 0]	n/a	catFR1	2	R1443D
612.931	0.8	615264	WORD_OFF	n/a	n/a	SPINACH	Vegetables	2	4	[0, 0, 0]	n/a	catFR1	2	R1443D
613.731	1.6	616071	WORD	n/a	wordpools/wordpool_categorized_EN.txt	TAPE	OfficeSupplies	3	4	[0, 0, 0]	n/a	catFR1	2	R1443D
615.331	0.999	617671	WORD_OFF	n/a	n/a	TAPE	OfficeSupplies	3	4	[0, 0, 0]	n/a	catFR1	2	R1443D
616.33	1.601	618663	WORD	n/a	wordpools/wordpool_categorized_EN.txt	RULER	OfficeSupplies	4	4	[0, 0, 0]	n/a	catFR1	2	R1443D
617.931	0.984	620264	WORD_OFF	n/a	n/a	RULER	OfficeSupplies	4	4	[0, 0, 0]	n/a	catFR1	2	R1443D
618.915	1.616	621256	WORD	n/a	wordpools/wordpool_categorized_EN.txt	DRILL	Tools	5	4	[0, 0, 0]	n/a	catFR1	2	R1443D
620.531	0.967	622869	WORD_OFF	n/a	n/a	DRILL	Tools	5	4	[0, 0, 0]	n/a	catFR1	2	R1443D
621.498	1.6	623835	WORD	n/a	wordpools/wordpool_categorized_EN.txt	HAMMER	Tools	6	4	[0, 0, 0]	n/a	catFR1	2	R1443D
623.098	0.95	625435	WORD_OFF	n/a	n/a	HAMMER	Tools	6	4	[0, 0, 0]	n/a	catFR1	2	R1443D
624.048	1.616	626387	WORD	n/a	wordpools/wordpool_categorized_EN.txt	PAPER	OfficeSupplies	7	4	[0, 0, 0]	n/a	catFR1	2	R1443D
625.664	0.966	628001	WORD_OFF	n/a	n/a	PAPER	OfficeSupplies	7	4	[0, 0, 0]	n/a	catFR1	2	R1443D
626.63	1.6	628967	WORD	n/a	wordpools/wordpool_categorized_EN.txt	BINDER	OfficeSupplies	8	4	[0, 0, 0]	n/a	catFR1	2	R1443D
628.23	0.884	630567	WORD_OFF	n/a	n/a	BINDER	OfficeSupplies	8	4	[0, 0, 0]	n/a	catFR1	2	R1443D
629.114	1.616	631453	WORD	n/a	wordpools/wordpool_categorized_EN.txt	PLIERS	Tools	9	4	[0, 0, 0]	n/a	catFR1	2	R1443D
630.73	0.918	633067	WORD_OFF	n/a	n/a	PLIERS	Tools	9	4	[0, 0, 0]	n/a	catFR1	2	R1443D
631.648	1.616	633980	WORD	n/a	wordpools/wordpool_categorized_EN.txt	WRENCH	Tools	10	4	[0, 0, 0]	n/a	catFR1	2	R1443D
633.264	0.8	635593	WORD_OFF	n/a	n/a	WRENCH	Tools	10	4	[0, 0, 0]	n/a	catFR1	2	R1443D
634.064	1.6	636400	WORD	n/a	wordpools/wordpool_categorized_EN.txt	CAULIFLOWER	Vegetables	11	4	[0, 0, 0]	n/a	catFR1	2	R1443D
635.664	1.0	638000	WORD_OFF	n/a	n/a	CAULIFLOWER	Vegetables	11	4	[0, 0, 0]	n/a	catFR1	2	R1443D
636.664	1.618	638992	WORD	n/a	wordpools/wordpool_categorized_EN.txt	CELERY	Vegetables	12	4	[0, 0, 0]	n/a	catFR1	2	R1443D
638.282	0.001	640616	PROB	0.001	n/a	n/a	n/a	-999	4	[8, 5, 8]	21	catFR1	2	R1443D
638.283	0.0	640617	START	n/a	n/a	n/a	n/a	-999	4	[-999, -999, -999]	n/a	catFR1	2	R1443D
638.281	0.002	640619	WORD_OFF	n/a	n/a	CELERY	Vegetables	12	4	[0, 0, 0]	n/a	catFR1	2	R1443D
638.283	0.0	640619	ENCODING_END	n/a	n/a	n/a	n/a	-999	4	[0, 0, 0]	n/a	catFR1	2	R1443D
638.283	5.732	640619	DISTRACT_START	n/a	n/a	n/a	n/a	-999	4	[0, 0, 0]	n/a	catFR1	2	R1443D
644.015	4.25	646349	PROB	4.25	n/a	n/a	n/a	-999	4	[5, 5, 4]	14	catFR1	2	R1443D
648.265	4.367	650599	PROB	4.367	n/a	n/a	n/a	-999	4	[1, 3, 8]	12	catFR1	2	R1443D
652.632	6.699	654966	PROB	6.699	n/a	n/a	n/a	-999	4	[4, 8, 7]	19	catFR1	2	R1443D
659.331	0.0	661663	DISTRACT_END	n/a	n/a	n/a	n/a	-999	4	[0, 0, 0]	n/a	catFR1	2	R1443D
659.331	1.184	661664	STOP	n/a	n/a	n/a	n/a	-999	4	[-999, -999, -999]	n/a	catFR1	2	R1443D
660.515	1.216	662853	REC_START	n/a	n/a	n/a	n/a	-999	4	[0, 0, 0]	n/a	catFR1	2	R1443D
661.731	0.384	664064	REC_WORD_VV	0.384	n/a	<>	n/a	-999	4	[0, 0, 0]	n/a	catFR1	2	R1443D
662.115	0.792	664448	REC_WORD	0.792	n/a	RULER	OfficeSupplies	4	4	[0, 0, 0]	n/a	catFR1	2	R1443D
662.907	1.171	665240	REC_WORD	1.171	n/a	TAPE	OfficeSupplies	3	4	[0, 0, 0]	n/a	catFR1	2	R1443D
664.078	1.281	666411	REC_WORD	1.281	n/a	HAMMER	Tools	6	4	[0, 0, 0]	n/a	catFR1	2	R1443D
665.359	2.074	667692	REC_WORD	2.074	n/a	WRENCH	Tools	10	4	[0, 0, 0]	n/a	catFR1	2	R1443D
667.433	3.137	669766	REC_WORD	3.137	n/a	CAULIFLOWER	Vegetables	11	4	[0, 0, 0]	n/a	catFR1	2	R1443D
670.57	1.0	672903	REC_WORD_VV	1.0	n/a	<>	n/a	-999	4	[0, 0, 0]	n/a	catFR1	2	R1443D
671.57	1.549	673903	REC_WORD_VV	1.549	n/a	<>	n/a	-999	4	[0, 0, 0]	n/a	catFR1	2	R1443D
673.119	4.639	675452	REC_WORD	4.639	n/a	CORN	Vegetables	1	4	[0, 0, 0]	n/a	catFR1	2	R1443D
677.758	1.499	680090	REC_WORD_VV	1.499	n/a	<>	n/a	-999	4	[0, 0, 0]	n/a	catFR1	2	R1443D
679.257	0.58	681589	REC_WORD	0.58	n/a	HAMMER	Tools	6	4	[0, 0, 0]	n/a	catFR1	2	R1443D
679.837	1.726	682169	REC_WORD	1.726	n/a	SCREWDRIVER	n/a	-999	4	[0, 0, 0]	n/a	catFR1	2	R1443D
681.563	0.679	683895	REC_WORD	0.679	n/a	NAIL	n/a	-999	4	[0, 0, 0]	n/a	catFR1	2	R1443D
682.242	2.871	684574	REC_WORD	2.871	n/a	SCREW	n/a	-999	4	[0, 0, 0]	n/a	catFR1	2	R1443D
685.113	2.314	687445	REC_WORD	2.314	n/a	RULER	OfficeSupplies	4	4	[0, 0, 0]	n/a	catFR1	2	R1443D
687.427	1.132	689759	REC_WORD	1.132	n/a	CAULIFLOWER	Vegetables	11	4	[0, 0, 0]	n/a	catFR1	2	R1443D
688.559	3.206	690891	REC_WORD	3.206	n/a	CORN	Vegetables	1	4	[0, 0, 0]	n/a	catFR1	2	R1443D
691.765	3.133	694095	REC_END	n/a	n/a	n/a	n/a	-999	4	[0, 0, 0]	n/a	catFR1	2	R1443D
694.898	10.35	697229	COUNTDOWN_START	n/a	n/a	n/a	n/a	-999	4	[0, 0, 0]	n/a	catFR1	2	R1443D
705.248	0.0	707573	COUNTDOWN_END	n/a	n/a	n/a	n/a	-999	4	[0, 0, 0]	n/a	catFR1	2	R1443D
705.248	2.35	707586	ENCODING_START	n/a	n/a	n/a	n/a	-999	5	[0, 0, 0]	n/a	catFR1	2	R1443D
707.598	1.6	709927	WORD	n/a	wordpools/wordpool_categorized_EN.txt	DOVE	Birds	1	5	[0, 0, 0]	n/a	catFR1	2	R1443D
709.198	0.983	711527	WORD_OFF	n/a	n/a	DOVE	Birds	1	5	[0, 0, 0]	n/a	catFR1	2	R1443D
710.181	1.6	712519	WORD	n/a	wordpools/wordpool_categorized_EN.txt	CARDINAL	Birds	2	5	[0, 0, 0]	n/a	catFR1	2	R1443D
711.781	0.85	714107	WORD_OFF	n/a	n/a	CARDINAL	Birds	2	5	[0, 0, 0]	n/a	catFR1	2	R1443D
712.631	1.617	714966	WORD	n/a	wordpools/wordpool_categorized_EN.txt	LAKE	Landscapes	3	5	[0, 0, 0]	n/a	catFR1	2	R1443D
714.248	0.983	716580	WORD_OFF	n/a	n/a	LAKE	Landscapes	3	5	[0, 0, 0]	n/a	catFR1	2	R1443D
715.231	1.616	717559	WORD	n/a	wordpools/wordpool_categorized_EN.txt	OCEAN	Landscapes	4	5	[0, 0, 0]	n/a	catFR1	2	R1443D
716.847	0.833	719172	WORD_OFF	n/a	n/a	OCEAN	Landscapes	4	5	[0, 0, 0]	n/a	catFR1	2	R1443D
717.68	1.6	720006	WORD	n/a	wordpools/wordpool_categorized_EN.txt	SPIDER	Insects	5	5	[0, 0, 0]	n/a	catFR1	2	R1443D
719.28	0.9	721606	WORD_OFF	n/a	n/a	SPIDER	Insects	5	5	[0, 0, 0]	n/a	catFR1	2	R1443D
720.18	1.6	722506	WORD	n/a	wordpools/wordpool_categorized_EN.txt	MOTH	Insects	6	5	[0, 0, 0]	n/a	catFR1	2	R1443D
721.78	0.883	724106	WORD_OFF	n/a	n/a	MOTH	Insects	6	5	[0, 0, 0]	n/a	catFR1	2	R1443D
722.663	1.618	724992	WORD	n/a	wordpools/wordpool_categorized_EN.txt	GOOSE	Birds	7	5	[0, 0, 0]	n/a	catFR1	2	R1443D
724.281	0.85	726606	WORD_OFF	n/a	n/a	GOOSE	Birds	7	5	[0, 0, 0]	n/a	catFR1	2	R1443D
725.131	1.617	727466	WORD	n/a	wordpools/wordpool_categorized_EN.txt	ROBIN	Birds	8	5	[0, 0, 0]	n/a	catFR1	2	R1443D
726.748	0.833	729079	WORD_OFF	n/a	n/a	ROBIN	Birds	8	5	[0, 0, 0]	n/a	catFR1	2	R1443D
727.581	1.617	729912	WORD	n/a	wordpools/wordpool_categorized_EN.txt	ISLAND	Landscapes	9	5	[0, 0, 0]	n/a	catFR1	2	R1443D
729.198	0.933	731526	WORD_OFF	n/a	n/a	ISLAND	Landscapes	9	5	[0, 0, 0]	n/a	catFR1	2	R1443D
730.131	1.6	732465	WORD	n/a	wordpools/wordpool_categorized_EN.txt	HILLS	Landscapes	10	5	[0, 0, 0]	n/a	catFR1	2	R1443D
731.731	0.968	734066	WORD_OFF	n/a	n/a	HILLS	Landscapes	10	5	[0, 0, 0]	n/a	catFR1	2	R1443D
732.699	1.615	735031	WORD	n/a	wordpools/wordpool_categorized_EN.txt	ANT	Insects	11	5	[0, 0, 0]	n/a	catFR1	2	R1443D
734.314	1.001	736645	WORD_OFF	n/a	n/a	ANT	Insects	11	5	[0, 0, 0]	n/a	catFR1	2	R1443D
735.315	1.617	737650	WORD	n/a	wordpools/wordpool_categorized_EN.txt	BUTTERFLY	Insects	12	5	[0, 0, 0]	n/a	catFR1	2	R1443D
736.932	0.001	739261	PROB	0.001	n/a	n/a	n/a	-999	5	[1, 2, 2]	5	catFR1	2	R1443D
736.933	0.0	739262	START	n/a	n/a	n/a	n/a	-999	5	[-999, -999, -999]	n/a	catFR1	2	R1443D
736.931	0.002	739264	WORD_OFF	n/a	n/a	BUTTERFLY	Insects	12	5	[0, 0, 0]	n/a	catFR1	2	R1443D
736.933	0.0	739264	ENCODING_END	n/a	n/a	n/a	n/a	-999	5	[0, 0, 0]	n/a	catFR1	2	R1443D
736.933	5.082	739264	DISTRACT_START	n/a	n/a	n/a	n/a	-999	5	[0, 0, 0]	n/a	catFR1	2	R1443D
742.015	5.018	744344	PROB	5.018	n/a	n/a	n/a	-999	5	[1, 6, 3]	10	catFR1	2	R1443D
747.033	4.68	749362	PROB	4.68	n/a	n/a	n/a	-999	5	[6, 2, 4]	12	catFR1	2	R1443D
751.713	3.969	754042	PROB	3.969	n/a	n/a	n/a	-999	5	[7, 4, 2]	13	catFR1	2	R1443D
755.682	3.549	758011	PROB	3.549	n/a	n/a	n/a	-999	5	[5, 1, 5]	11	catFR1	2	R1443D
759.231	0.0	761559	STOP	n/a	n/a	n/a	n/a	-999	5	[-999, -999, -999]	n/a	catFR1	2	R1443D
759.231	1.233	761564	DISTRACT_END	n/a	n/a	n/a	n/a	-999	5	[0, 0, 0]	n/a	catFR1	2	R1443D
760.464	1.084	762794	REC_START	n/a	n/a	n/a	n/a	-999	5	[0, 0, 0]	n/a	catFR1	2	R1443D
761.548	0.993	763876	REC_WORD	0.993	n/a	ANT	Insects	11	5	[0, 0, 0]	n/a	catFR1	2	R1443D
762.541	1.0	764869	REC_WORD	1.0	n/a	BUTTERFLY	Insects	12	5	[0, 0, 0]	n/a	catFR1	2	R1443D
763.541	0.64	765869	REC_WORD_VV	0.64	n/a	<>	n/a	-999	5	[0, 0, 0]	n/a	catFR1	2	R1443D
764.181	0.46	766509	REC_WORD_VV	0.46	n/a	<>	n/a	-999	5	[0, 0, 0]	n/a	catFR1	2	R1443D
764.641	1.0	766969	REC_WORD	1.0	n/a	HILLS	Landscapes	10	5	[0, 0, 0]	n/a	catFR1	2	R1443D
765.641	0.574	767969	REC_WORD_VV	0.574	n/a	<>	n/a	-999	5	[0, 0, 0]	n/a	catFR1	2	R1443D
766.215	0.853	768543	REC_WORD	0.853	n/a	LAKE	Landscapes	3	5	[0, 0, 0]	n/a	catFR1	2	R1443D
767.068	2.597	769396	REC_WORD	2.597	n/a	ISLAND	Landscapes	9	5	[0, 0, 0]	n/a	catFR1	2	R1443D
769.665	1.605	771993	REC_WORD_VV	1.605	n/a	<>	n/a	-999	5	[0, 0, 0]	n/a	catFR1	2	R1443D
771.27	1.39	773598	REC_WORD_VV	1.39	n/a	<>	n/a	-999	5	[0, 0, 0]	n/a	catFR1	2	R1443D
772.66	3.252	774988	REC_WORD	3.252	n/a	SNAKE	n/a	-999	5	[0, 0, 0]	n/a	catFR1	2	R1443D
775.912	0.867	778239	REC_WORD	0.867	n/a	OCEAN	Landscapes	4	5	[0, 0, 0]	n/a	catFR1	2	R1443D
776.779	2.921	779106	REC_WORD	2.921	n/a	LAKE	Landscapes	3	5	[0, 0, 0]	n/a	catFR1	2	R1443D
779.7	3.949	782027	REC_WORD	3.949	n/a	RIVER	n/a	-999	5	[0, 0, 0]	n/a	catFR1	2	R1443D
783.649	1.003	785976	REC_WORD	1.003	n/a	MOTH	Insects	6	5	[0, 0, 0]	n/a	catFR1	2	R1443D
784.652	3.962	786979	REC_WORD	3.962	n/a	BUTTERFLY	Insects	12	5	[0, 0, 0]	n/a	catFR1	2	R1443D
788.614	3.089	790941	REC_WORD	3.089	n/a	ANT	Insects	11	5	[0, 0, 0]	n/a	catFR1	2	R1443D
791.703	2.178	794035	REC_END	n/a	n/a	n/a	n/a	-999	5	[0, 0, 0]	n/a	catFR1	2	R1443D
793.881	10.351	796204	COUNTDOWN_START	n/a	n/a	n/a	n/a	-999	5	[0, 0, 0]	n/a	catFR1	2	R1443D
804.232	0.0	806561	COUNTDOWN_END	n/a	n/a	n/a	n/a	-999	5	[0, 0, 0]	n/a	catFR1	2	R1443D
804.232	2.098	806561	ENCODING_START	n/a	n/a	n/a	n/a	-999	6	[0, 0, 0]	n/a	catFR1	2	R1443D
806.33	1.618	808651	WORD	n/a	wordpools/wordpool_categorized_EN.txt	WILLOW	Trees	1	6	[0, 0, 0]	n/a	catFR1	2	R1443D
807.948	0.999	810278	WORD_OFF	n/a	n/a	WILLOW	Trees	1	6	[0, 0, 0]	n/a	catFR1	2	R1443D
808.947	1.617	811270	WORD	n/a	wordpools/wordpool_categorized_EN.txt	HICKORY	Trees	2	6	[0, 0, 0]	n/a	catFR1	2	R1443D
810.564	0.766	812883	WORD_OFF	n/a	n/a	HICKORY	Trees	2	6	[0, 0, 0]	n/a	catFR1	2	R1443D
811.33	1.6	813650	WORD	n/a	wordpools/wordpool_categorized_EN.txt	FOUNDATION	Building	3	6	[0, 0, 0]	n/a	catFR1	2	R1443D
812.93	0.834	815251	WORD_OFF	n/a	n/a	FOUNDATION	Building	3	6	[0, 0, 0]	n/a	catFR1	2	R1443D
813.764	1.617	816084	WORD	n/a	wordpools/wordpool_categorized_EN.txt	WINDOW	Building	4	6	[0, 0, 0]	n/a	catFR1	2	R1443D
815.381	0.867	817711	WORD_OFF	n/a	n/a	WINDOW	Building	4	6	[0, 0, 0]	n/a	catFR1	2	R1443D
816.248	1.6	818571	WORD	n/a	wordpools/wordpool_categorized_EN.txt	PEAS	Vegetables	5	6	[0, 0, 0]	n/a	catFR1	2	R1443D
817.848	0.766	820171	WORD_OFF	n/a	n/a	PEAS	Vegetables	5	6	[0, 0, 0]	n/a	catFR1	2	R1443D
818.614	1.617	820938	WORD	n/a	wordpools/wordpool_categorized_EN.txt	ONION	Vegetables	6	6	[0, 0, 0]	n/a	catFR1	2	R1443D
820.231	0.85	822552	WORD_OFF	n/a	n/a	ONION	Vegetables	6	6	[0, 0, 0]	n/a	catFR1	2	R1443D
821.081	1.617	823412	WORD	n/a	wordpools/wordpool_categorized_EN.txt	HALLWAY	Building	7	6	[0, 0, 0]	n/a	catFR1	2	R1443D
822.698	0.832	825025	WORD_OFF	n/a	n/a	HALLWAY	Building	7	6	[0, 0, 0]	n/a	catFR1	2	R1443D
823.53	1.601	825859	WORD	n/a	wordpools/wordpool_categorized_EN.txt	WALL	Building	8	6	[0, 0, 0]	n/a	catFR1	2	R1443D
825.131	0.967	827459	WORD_OFF	n/a	n/a	WALL	Building	8	6	[0, 0, 0]	n/a	catFR1	2	R1443D
826.098	1.616	828425	WORD	n/a	wordpools/wordpool_categorized_EN.txt	CABBAGE	Vegetables	9	6	[0, 0, 0]	n/a	catFR1	2	R1443D
827.714	0.8	830038	WORD_OFF	n/a	n/a	CABBAGE	Vegetables	9	6	[0, 0, 0]	n/a	catFR1	2	R1443D
828.514	1.601	830845	WORD	n/a	wordpools/wordpool_categorized_EN.txt	LETTUCE	Vegetables	10	6	[0, 0, 0]	n/a	catFR1	2	R1443D
830.115	0.932	832446	WORD_OFF	n/a	n/a	LETTUCE	Vegetables	10	6	[0, 0, 0]	n/a	catFR1	2	R1443D
831.047	1.601	833371	WORD	n/a	wordpools/wordpool_categorized_EN.txt	BIRCH	Trees	11	6	[0, 0, 0]	n/a	catFR1	2	R1443D
832.648	0.933	834972	WORD_OFF	n/a	n/a	BIRCH	Trees	11	6	[0, 0, 0]	n/a	catFR1	2	R1443D
833.581	1.6	835911	WORD	n/a	wordpools/wordpool_categorized_EN.txt	SPRUCE	Trees	12	6	[0, 0, 0]	n/a	catFR1	2	R1443D
835.181	0.001	837505	PROB	0.001	n/a	n/a	n/a	-999	6	[2, 4, 7]	13	catFR1	2	R1443D
835.182	0.0	837506	START	n/a	n/a	n/a	n/a	-999	6	[-999, -999, -999]	n/a	catFR1	2	R1443D
835.181	0.001	837511	WORD_OFF	n/a	n/a	SPRUCE	Trees	12	6	[0, 0, 0]	n/a	catFR1	2	R1443D
835.182	0.0	837511	ENCODING_END	n/a	n/a	n/a	n/a	-999	6	[0, 0, 0]	n/a	catFR1	2	R1443D
835.182	9.716	837511	DISTRACT_START	n/a	n/a	n/a	n/a	-999	6	[0, 0, 0]	n/a	catFR1	2	R1443D
844.898	6.651	847222	PROB	6.651	n/a	n/a	n/a	-999	6	[4, 7, 7]	18	catFR1	2	R1443D
851.549	4.282	853873	PROB	4.282	n/a	n/a	n/a	-999	6	[6, 2, 4]	14	catFR1	2	R1443D
855.831	0.0	858154	STOP	n/a	n/a	n/a	n/a	-999	6	[-999, -999, -999]	n/a	catFR1	2	R1443D
855.831	1.299	858158	DISTRACT_END	n/a	n/a	n/a	n/a	-999	6	[0, 0, 0]	n/a	catFR1	2	R1443D
857.13	0.2	859454	REC_START	n/a	n/a	n/a	n/a	-999	6	[0, 0, 0]	n/a	catFR1	2	R1443D
857.33	1.0	859653	REC_WORD_VV	1.0	n/a	<>	n/a	-999	6	[0, 0, 0]	n/a	catFR1	2	R1443D
858.33	1.0	860653	REC_WORD_VV	1.0	n/a	<>	n/a	-999	6	[0, 0, 0]	n/a	catFR1	2	R1443D
859.33	1.0	861653	REC_WORD_VV	1.0	n/a	<>	n/a	-999	6	[0, 0, 0]	n/a	catFR1	2	R1443D
860.33	1.0	862653	REC_WORD_VV	1.0	n/a	<>	n/a	-999	6	[0, 0, 0]	n/a	catFR1	2	R1443D
861.33	1.0	863653	REC_WORD_VV	1.0	n/a	<>	n/a	-999	6	[0, 0, 0]	n/a	catFR1	2	R1443D
862.33	1.0	864653	REC_WORD_VV	1.0	n/a	<>	n/a	-999	6	[0, 0, 0]	n/a	catFR1	2	R1443D
863.33	6.954	865653	REC_WORD_VV	6.954	n/a	<>	n/a	-999	6	[0, 0, 0]	n/a	catFR1	2	R1443D
870.284	2.344	872607	REC_WORD	2.344	n/a	BIRDS	n/a	-999	6	[0, 0, 0]	n/a	catFR1	2	R1443D
872.628	1.0	874951	REC_WORD_VV	1.0	n/a	<>	n/a	-999	6	[0, 0, 0]	n/a	catFR1	2	R1443D
873.628	1.0	875951	REC_WORD_VV	1.0	n/a	<>	n/a	-999	6	[0, 0, 0]	n/a	catFR1	2	R1443D
874.628	1.0	876950	REC_WORD_VV	1.0	n/a	<>	n/a	-999	6	[0, 0, 0]	n/a	catFR1	2	R1443D
875.628	3.406	877950	REC_WORD_VV	3.406	n/a	<>	n/a	-999	6	[0, 0, 0]	n/a	catFR1	2	R1443D
879.034	1.0	881356	REC_WORD_VV	1.0	n/a	<>	n/a	-999	6	[0, 0, 0]	n/a	catFR1	2	R1443D
880.034	3.273	882356	REC_WORD_VV	3.273	n/a	<>	n/a	-999	6	[0, 0, 0]	n/a	catFR1	2	R1443D
883.307	1.0	885629	REC_WORD_VV	1.0	n/a	<>	n/a	-999	6	[0, 0, 0]	n/a	catFR1	2	R1443D
884.307	4.066	886629	REC_WORD_VV	4.066	n/a	<>	n/a	-999	6	[0, 0, 0]	n/a	catFR1	2	R1443D
888.373	3.975	890696	REC_END	n/a	n/a	n/a	n/a	-999	6	[0, 0, 0]	n/a	catFR1	2	R1443D
892.348	10.349	894677	COUNTDOWN_START	n/a	n/a	n/a	n/a	-999	6	[0, 0, 0]	n/a	catFR1	2	R1443D
902.697	0.0	905020	COUNTDOWN_END	n/a	n/a	n/a	n/a	-999	6	[0, 0, 0]	n/a	catFR1	2	R1443D
902.697	2.051	905020	ENCODING_START	n/a	n/a	n/a	n/a	-999	7	[0, 0, 0]	n/a	catFR1	2	R1443D
904.748	1.616	907070	WORD	n/a	wordpools/wordpool_categorized_EN.txt	ARM	BodyParts	1	7	[0, 0, 0]	n/a	catFR1	2	R1443D
906.364	0.767	908684	WORD_OFF	n/a	n/a	ARM	BodyParts	1	7	[0, 0, 0]	n/a	catFR1	2	R1443D
907.131	1.616	909451	WORD	n/a	wordpools/wordpool_categorized_EN.txt	NOSE	BodyParts	2	7	[0, 0, 0]	n/a	catFR1	2	R1443D
908.747	0.751	911065	WORD_OFF	n/a	n/a	NOSE	BodyParts	2	7	[0, 0, 0]	n/a	catFR1	2	R1443D
909.498	1.6	911819	WORD	n/a	wordpools/wordpool_categorized_EN.txt	SUNFLOWER	Flowers	3	7	[0, 0, 0]	n/a	catFR1	2	R1443D
911.098	0.866	913419	WORD_OFF	n/a	n/a	SUNFLOWER	Flowers	3	7	[0, 0, 0]	n/a	catFR1	2	R1443D
911.964	1.601	914279	WORD	n/a	wordpools/wordpool_categorized_EN.txt	ORCHID	Flowers	4	7	[0, 0, 0]	n/a	catFR1	2	R1443D
913.565	1.0	915879	WORD_OFF	n/a	n/a	ORCHID	Flowers	4	7	[0, 0, 0]	n/a	catFR1	2	R1443D
914.565	1.616	916884	WORD	n/a	wordpools/wordpool_categorized_EN.txt	BROCCOLI	Vegetables	5	7	[0, 0, 0]	n/a	catFR1	2	R1443D
916.181	0.933	918498	WORD_OFF	n/a	n/a	BROCCOLI	Vegetables	5	7	[0, 0, 0]	n/a	catFR1	2	R1443D
917.114	1.601	919437	WORD	n/a	wordpools/wordpool_categorized_EN.txt	POTATO	Vegetables	6	7	[0, 0, 0]	n/a	catFR1	2	R1443D
918.715	0.966	921038	WORD_OFF	n/a	n/a	POTATO	Vegetables	6	7	[0, 0, 0]	n/a	catFR1	2	R1443D
919.681	1.617	922003	WORD	n/a	wordpools/wordpool_categorized_EN.txt	HAND	BodyParts	7	7	[0, 0, 0]	n/a	catFR1	2	R1443D
921.298	0.816	923617	WORD_OFF	n/a	n/a	HAND	BodyParts	7	7	[0, 0, 0]	n/a	catFR1	2	R1443D
922.114	1.6	924437	WORD	n/a	wordpools/wordpool_categorized_EN.txt	ELBOW	BodyParts	8	7	[0, 0, 0]	n/a	catFR1	2	R1443D
923.714	0.8	926037	WORD_OFF	n/a	n/a	ELBOW	BodyParts	8	7	[0, 0, 0]	n/a	catFR1	2	R1443D
924.514	1.601	926831	WORD	n/a	wordpools/wordpool_categorized_EN.txt	ROSE	Flowers	9	7	[0, 0, 0]	n/a	catFR1	2	R1443D
926.115	0.883	928431	WORD_OFF	n/a	n/a	ROSE	Flowers	9	7	[0, 0, 0]	n/a	catFR1	2	R1443D
926.998	1.617	929318	WORD	n/a	wordpools/wordpool_categorized_EN.txt	DAFFODIL	Flowers	10	7	[0, 0, 0]	n/a	catFR1	2	R1443D
928.615	0.999	930931	WORD_OFF	n/a	n/a	DAFFODIL	Flowers	10	7	[0, 0, 0]	n/a	catFR1	2	R1443D
929.614	1.601	931936	WORD	n/a	wordpools/wordpool_categorized_EN.txt	CUCUMBER	Vegetables	11	7	[0, 0, 0]	n/a	catFR1	2	R1443D
931.215	0.866	933537	WORD_OFF	n/a	n/a	CUCUMBER	Vegetables	11	7	[0, 0, 0]	n/a	catFR1	2	R1443D
932.081	1.617	934397	WORD	n/a	wordpools/wordpool_categorized_EN.txt	CARROT	Vegetables	12	7	[0, 0, 0]	n/a	catFR1	2	R1443D
933.698	0.001	936017	PROB	0.001	n/a	n/a	n/a	-999	7	[5, 6, 8]	19	catFR1	2	R1443D
933.699	0.0	936018	START	n/a	n/a	n/a	n/a	-999	7	[-999, -999, -999]	n/a	catFR1	2	R1443D
933.697	0.002	936023	WORD_OFF	n/a	n/a	CARROT	Vegetables	12	7	[0, 0, 0]	n/a	catFR1	2	R1443D
933.699	0.0	936023	ENCODING_END	n/a	n/a	n/a	n/a	-999	7	[0, 0, 0]	n/a	catFR1	2	R1443D
933.699	8.649	936023	DISTRACT_START	n/a	n/a	n/a	n/a	-999	7	[0, 0, 0]	n/a	catFR1	2	R1443D
942.348	6.149	944667	PROB	6.149	n/a	n/a	n/a	-999	7	[6, 3, 7]	16	catFR1	2	R1443D
948.497	3.867	950816	PROB	3.867	n/a	n/a	n/a	-999	7	[1, 7, 2]	10	catFR1	2	R1443D
952.364	5.117	954683	PROB	5.117	n/a	n/a	n/a	-999	7	[1, 6, 7]	14	catFR1	2	R1443D
957.481	0.0	959799	STOP	n/a	n/a	n/a	n/a	-999	7	[-999, -999, -999]	n/a	catFR1	2	R1443D
957.481	1.315	959805	DISTRACT_END	n/a	n/a	n/a	n/a	-999	7	[0, 0, 0]	n/a	catFR1	2	R1443D
958.796	0.05	961114	REC_START	n/a	n/a	n/a	n/a	-999	7	[0, 0, 0]	n/a	catFR1	2	R1443D
958.846	1.0	961164	REC_WORD_VV	1.0	n/a	<>	n/a	-999	7	[0, 0, 0]	n/a	catFR1	2	R1443D
959.846	1.0	962164	REC_WORD_VV	1.0	n/a	<>	n/a	-999	7	[0, 0, 0]	n/a	catFR1	2	R1443D
960.846	0.948	963164	REC_WORD_VV	0.948	n/a	<>	n/a	-999	7	[0, 0, 0]	n/a	catFR1	2	R1443D
961.794	0.621	964112	REC_WORD	0.621	n/a	ROSE	Flowers	9	7	[0, 0, 0]	n/a	catFR1	2	R1443D
962.415	2.08	964733	REC_WORD	2.08	n/a	DAFFODIL	Flowers	10	7	[0, 0, 0]	n/a	catFR1	2	R1443D
964.495	0.833	966813	REC_WORD	0.833	n/a	BROCCOLI	Vegetables	5	7	[0, 0, 0]	n/a	catFR1	2	R1443D
965.328	1.0	967646	REC_WORD	1.0	n/a	CARROT	Vegetables	12	7	[0, 0, 0]	n/a	catFR1	2	R1443D
966.328	1.334	968646	REC_WORD_VV	1.334	n/a	<>	n/a	-999	7	[0, 0, 0]	n/a	catFR1	2	R1443D
967.662	1.0	969980	REC_WORD	1.0	n/a	CUCUMBER	Vegetables	11	7	[0, 0, 0]	n/a	catFR1	2	R1443D
968.662	2.468	970980	REC_WORD_VV	2.468	n/a	<>	n/a	-999	7	[0, 0, 0]	n/a	catFR1	2	R1443D
971.13	1.872	973448	REC_WORD_VV	1.872	n/a	<>	n/a	-999	7	[0, 0, 0]	n/a	catFR1	2	R1443D
973.002	0.637	975319	REC_WORD	0.637	n/a	ROSE	Flowers	9	7	[0, 0, 0]	n/a	catFR1	2	R1443D
973.639	2.377	975956	REC_WORD	2.377	n/a	THORN	n/a	-999	7	[0, 0, 0]	n/a	catFR1	2	R1443D
976.016	2.729	978333	REC_WORD	2.729	n/a	DAFFODIL	Flowers	10	7	[0, 0, 0]	n/a	catFR1	2	R1443D
978.745	3.683	981062	REC_WORD_VV	3.683	n/a	<>	n/a	-999	7	[0, 0, 0]	n/a	catFR1	2	R1443D
982.428	1.725	984745	REC_WORD_VV	1.725	n/a	<>	n/a	-999	7	[0, 0, 0]	n/a	catFR1	2	R1443D
984.153	1.0	986470	REC_WORD	1.0	n/a	CUCUMBER	Vegetables	11	7	[0, 0, 0]	n/a	catFR1	2	R1443D
985.153	0.447	987470	REC_WORD_VV	0.447	n/a	<>	n/a	-999	7	[0, 0, 0]	n/a	catFR1	2	R1443D
985.6	1.0	987917	REC_WORD	1.0	n/a	CARROT	Vegetables	12	7	[0, 0, 0]	n/a	catFR1	2	R1443D
986.6	3.437	988917	REC_WORD_VV	3.437	n/a	<>	n/a	-999	7	[0, 0, 0]	n/a	catFR1	2	R1443D
990.037	2.677	992356	REC_END	n/a	n/a	n/a	n/a	-999	7	[0, 0, 0]	n/a	catFR1	2	R1443D
992.714	10.351	995028	COUNTDOWN_START	n/a	n/a	n/a	n/a	-999	7	[0, 0, 0]	n/a	catFR1	2	R1443D
1003.065	0.0	1005384	COUNTDOWN_END	n/a	n/a	n/a	n/a	-999	7	[0, 0, 0]	n/a	catFR1	2	R1443D
1003.065	1.999	1005384	ENCODING_START	n/a	n/a	n/a	n/a	-999	8	[0, 0, 0]	n/a	catFR1	2	R1443D
1005.064	1.601	1007381	WORD	n/a	wordpools/wordpool_categorized_EN.txt	UNDERWEAR	Clothing	1	8	[0, 0, 0]	n/a	catFR1	2	R1443D
1006.665	0.8	1008982	WORD_OFF	n/a	n/a	UNDERWEAR	Clothing	1	8	[0, 0, 0]	n/a	catFR1	2	R1443D
1007.465	1.6	1009775	WORD	n/a	wordpools/wordpool_categorized_EN.txt	JEANS	Clothing	2	8	[0, 0, 0]	n/a	catFR1	2	R1443D
1009.065	0.815	1011389	WORD_OFF	n/a	n/a	JEANS	Clothing	2	8	[0, 0, 0]	n/a	catFR1	2	R1443D
1009.88	1.601	1012196	WORD	n/a	wordpools/wordpool_categorized_EN.txt	GIRAFFE	Zoo	3	8	[0, 0, 0]	n/a	catFR1	2	R1443D
1011.481	0.983	1013796	WORD_OFF	n/a	n/a	GIRAFFE	Zoo	3	8	[0, 0, 0]	n/a	catFR1	2	R1443D
1012.464	1.601	1014775	WORD	n/a	wordpools/wordpool_categorized_EN.txt	ELEPHANT	Zoo	4	8	[0, 0, 0]	n/a	catFR1	2	R1443D
1014.065	0.833	1016375	WORD_OFF	n/a	n/a	ELEPHANT	Zoo	4	8	[0, 0, 0]	n/a	catFR1	2	R1443D
1014.898	1.6	1017209	WORD	n/a	wordpools/wordpool_categorized_EN.txt	WINE	Beverages	5	8	[0, 0, 0]	n/a	catFR1	2	R1443D
1016.498	0.917	1018809	WORD_OFF	n/a	n/a	WINE	Beverages	5	8	[0, 0, 0]	n/a	catFR1	2	R1443D
1017.415	1.6	1019735	WORD	n/a	wordpools/wordpool_categorized_EN.txt	CIDER	Beverages	6	8	[0, 0, 0]	n/a	catFR1	2	R1443D
1019.015	0.916	1021335	WORD_OFF	n/a	n/a	CIDER	Beverages	6	8	[0, 0, 0]	n/a	catFR1	2	R1443D
1019.931	1.6	1022248	WORD	n/a	wordpools/wordpool_categorized_EN.txt	SKIRT	Clothing	7	8	[0, 0, 0]	n/a	catFR1	2	R1443D
1021.531	0.984	1023848	WORD_OFF	n/a	n/a	SKIRT	Clothing	7	8	[0, 0, 0]	n/a	catFR1	2	R1443D
1022.515	1.615	1024827	WORD	n/a	wordpools/wordpool_categorized_EN.txt	SOCKS	Clothing	8	8	[0, 0, 0]	n/a	catFR1	2	R1443D
1024.13	0.851	1026441	WORD_OFF	n/a	n/a	SOCKS	Clothing	8	8	[0, 0, 0]	n/a	catFR1	2	R1443D
1024.981	1.616	1027301	WORD	n/a	wordpools/wordpool_categorized_EN.txt	GORILLA	Zoo	9	8	[0, 0, 0]	n/a	catFR1	2	R1443D
1026.597	0.901	1028914	WORD_OFF	n/a	n/a	GORILLA	Zoo	9	8	[0, 0, 0]	n/a	catFR1	2	R1443D
1027.498	1.616	1029814	WORD	n/a	wordpools/wordpool_categorized_EN.txt	ZEBRA	Zoo	10	8	[0, 0, 0]	n/a	catFR1	2	R1443D
1029.114	0.867	1031427	WORD_OFF	n/a	n/a	ZEBRA	Zoo	10	8	[0, 0, 0]	n/a	catFR1	2	R1443D
1029.981	1.6	1032300	WORD	n/a	wordpools/wordpool_categorized_EN.txt	COFFEE	Beverages	11	8	[0, 0, 0]	n/a	catFR1	2	R1443D
1031.581	0.816	1033901	WORD_OFF	n/a	n/a	COFFEE	Beverages	11	8	[0, 0, 0]	n/a	catFR1	2	R1443D
1032.397	1.601	1034708	WORD	n/a	wordpools/wordpool_categorized_EN.txt	MILK	Beverages	12	8	[0, 0, 0]	n/a	catFR1	2	R1443D
1033.998	0.0	1036308	WORD_OFF	n/a	n/a	MILK	Beverages	12	8	[0, 0, 0]	n/a	catFR1	2	R1443D
1033.998	0.001	1036312	PROB	0.001	n/a	n/a	n/a	-999	8	[5, 2, 7]	14	catFR1	2	R1443D
1033.999	0.0	1036313	START	n/a	n/a	n/a	n/a	-999	8	[-999, -999, -999]	n/a	catFR1	2	R1443D
1033.999	0.0	1036321	ENCODING_END	n/a	n/a	n/a	n/a	-999	8	[0, 0, 0]	n/a	catFR1	2	R1443D
1033.999	5.566	1036321	DISTRACT_START	n/a	n/a	n/a	n/a	-999	8	[0, 0, 0]	n/a	catFR1	2	R1443D
1039.565	4.05	1041879	PROB	4.05	n/a	n/a	n/a	-999	8	[7, 1, 2]	10	catFR1	2	R1443D
1043.615	4.984	1045929	PROB	4.984	n/a	n/a	n/a	-999	8	[5, 4, 6]	15	catFR1	2	R1443D
1048.599	3.732	1050913	PROB	3.732	n/a	n/a	n/a	-999	8	[2, 7, 2]	11	catFR1	2	R1443D
1052.331	4.764	1054644	PROB	4.764	n/a	n/a	n/a	-999	8	[1, 6, 8]	15	catFR1	2	R1443D
1057.095	0.0	1059408	STOP	n/a	n/a	n/a	n/a	-999	8	[-999, -999, -999]	n/a	catFR1	2	R1443D
1057.095	1.186	1059415	DISTRACT_END	n/a	n/a	n/a	n/a	-999	8	[0, 0, 0]	n/a	catFR1	2	R1443D
1058.281	0.66	1060592	REC_START	n/a	n/a	n/a	n/a	-999	8	[0, 0, 0]	n/a	catFR1	2	R1443D
1058.941	1.0	1061254	REC_WORD_VV	1.0	n/a	<>	n/a	-999	8	[0, 0, 0]	n/a	catFR1	2	R1443D
1059.941	0.43	1062254	REC_WORD_VV	0.43	n/a	<>	n/a	-999	8	[0, 0, 0]	n/a	catFR1	2	R1443D
1060.371	2.331	1062684	REC_WORD	2.331	n/a	GORILLA	Zoo	9	8	[0, 0, 0]	n/a	catFR1	2	R1443D
1062.702	1.209	1065015	REC_WORD	1.209	n/a	ELEPHANT	Zoo	4	8	[0, 0, 0]	n/a	catFR1	2	R1443D
1063.911	3.998	1066224	REC_WORD	3.998	n/a	ZEBRA	Zoo	10	8	[0, 0, 0]	n/a	catFR1	2	R1443D
1067.909	1.0	1070222	REC_WORD_VV	1.0	n/a	<>	n/a	-999	8	[0, 0, 0]	n/a	catFR1	2	R1443D
1068.909	1.473	1071222	REC_WORD_VV	1.473	n/a	<>	n/a	-999	8	[0, 0, 0]	n/a	catFR1	2	R1443D
1070.382	1.0	1072695	REC_WORD_VV	1.0	n/a	<>	n/a	-999	8	[0, 0, 0]	n/a	catFR1	2	R1443D
1071.382	4.159	1073694	REC_WORD_VV	4.159	n/a	<>	n/a	-999	8	[0, 0, 0]	n/a	catFR1	2	R1443D
1075.541	1.0	1077853	REC_WORD_VV	1.0	n/a	<>	n/a	-999	8	[0, 0, 0]	n/a	catFR1	2	R1443D
1076.541	4.363	1078853	REC_WORD_VV	4.363	n/a	<>	n/a	-999	8	[0, 0, 0]	n/a	catFR1	2	R1443D
1080.904	0.663	1083216	REC_WORD	0.663	n/a	GORILLA	Zoo	9	8	[0, 0, 0]	n/a	catFR1	2	R1443D
1081.567	2.975	1083879	REC_WORD	2.975	n/a	GIRAFFE	Zoo	3	8	[0, 0, 0]	n/a	catFR1	2	R1443D
1084.542	1.0	1086854	REC_WORD_VV	1.0	n/a	<>	n/a	-999	8	[0, 0, 0]	n/a	catFR1	2	R1443D
1085.542	1.0	1087854	REC_WORD_VV	1.0	n/a	<>	n/a	-999	8	[0, 0, 0]	n/a	catFR1	2	R1443D
1086.542	1.0	1088854	REC_WORD_VV	1.0	n/a	<>	n/a	-999	8	[0, 0, 0]	n/a	catFR1	2	R1443D
1087.542	1.968	1089854	REC_WORD_VV	1.968	n/a	<>	n/a	-999	8	[0, 0, 0]	n/a	catFR1	2	R1443D
1089.51	2.187	1091820	REC_END	n/a	n/a	n/a	n/a	-999	8	[0, 0, 0]	n/a	catFR1	2	R1443D
1091.697	10.35	1094016	COUNTDOWN_START	n/a	n/a	n/a	n/a	-999	8	[0, 0, 0]	n/a	catFR1	2	R1443D
1102.047	0.0	1104359	COUNTDOWN_END	n/a	n/a	n/a	n/a	-999	8	[0, 0, 0]	n/a	catFR1	2	R1443D
1102.047	2.018	1104359	ENCODING_START	n/a	n/a	n/a	n/a	-999	9	[0, 0, 0]	n/a	catFR1	2	R1443D
1104.065	1.616	1106370	WORD	n/a	wordpools/wordpool_categorized_EN.txt	MONKEY	Zoo	1	9	[0, 0, 0]	n/a	catFR1	2	R1443D
1105.681	0.799	1107996	WORD_OFF	n/a	n/a	MONKEY	Zoo	1	9	[0, 0, 0]	n/a	catFR1	2	R1443D
1106.48	1.601	1108790	WORD	n/a	wordpools/wordpool_categorized_EN.txt	ORANGUTAN	Zoo	2	9	[0, 0, 0]	n/a	catFR1	2	R1443D
1108.081	0.95	1110390	WORD_OFF	n/a	n/a	ORANGUTAN	Zoo	2	9	[0, 0, 0]	n/a	catFR1	2	R1443D
1109.031	1.617	1111343	WORD	n/a	wordpools/wordpool_categorized_EN.txt	BOOKCASE	Furniture	3	9	[0, 0, 0]	n/a	catFR1	2	R1443D
1110.648	0.783	1112956	WORD_OFF	n/a	n/a	BOOKCASE	Furniture	3	9	[0, 0, 0]	n/a	catFR1	2	R1443D
1111.431	1.6	1113737	WORD	n/a	wordpools/wordpool_categorized_EN.txt	CHAIR	Furniture	4	9	[0, 0, 0]	n/a	catFR1	2	R1443D
1113.031	0.967	1115337	WORD_OFF	n/a	n/a	CHAIR	Furniture	4	9	[0, 0, 0]	n/a	catFR1	2	R1443D
1113.998	1.6	1116303	WORD	n/a	wordpools/wordpool_categorized_EN.txt	EYE	BodyParts	5	9	[0, 0, 0]	n/a	catFR1	2	R1443D
1115.598	0.782	1117903	WORD_OFF	n/a	n/a	EYE	BodyParts	5	9	[0, 0, 0]	n/a	catFR1	2	R1443D
1116.38	1.601	1118697	WORD	n/a	wordpools/wordpool_categorized_EN.txt	HEAD	BodyParts	6	9	[0, 0, 0]	n/a	catFR1	2	R1443D
1117.981	0.95	1120297	WORD_OFF	n/a	n/a	HEAD	BodyParts	6	9	[0, 0, 0]	n/a	catFR1	2	R1443D
1118.931	1.617	1121236	WORD	n/a	wordpools/wordpool_categorized_EN.txt	BEAR	Zoo	7	9	[0, 0, 0]	n/a	catFR1	2	R1443D
1120.548	0.95	1122863	WORD_OFF	n/a	n/a	BEAR	Zoo	7	9	[0, 0, 0]	n/a	catFR1	2	R1443D
1121.498	1.6	1123802	WORD	n/a	wordpools/wordpool_categorized_EN.txt	TIGER	Zoo	8	9	[0, 0, 0]	n/a	catFR1	2	R1443D
1123.098	0.816	1125403	WORD_OFF	n/a	n/a	TIGER	Zoo	8	9	[0, 0, 0]	n/a	catFR1	2	R1443D
1123.914	1.601	1126223	WORD	n/a	wordpools/wordpool_categorized_EN.txt	NIGHTSTAND	Furniture	9	9	[0, 0, 0]	n/a	catFR1	2	R1443D
1125.515	0.966	1127823	WORD_OFF	n/a	n/a	NIGHTSTAND	Furniture	9	9	[0, 0, 0]	n/a	catFR1	2	R1443D
1126.481	1.6	1128789	WORD	n/a	wordpools/wordpool_categorized_EN.txt	BED	Furniture	10	9	[0, 0, 0]	n/a	catFR1	2	R1443D
1128.081	0.884	1130389	WORD_OFF	n/a	n/a	BED	Furniture	10	9	[0, 0, 0]	n/a	catFR1	2	R1443D
1128.965	1.616	1131275	WORD	n/a	wordpools/wordpool_categorized_EN.txt	TOE	BodyParts	11	9	[0, 0, 0]	n/a	catFR1	2	R1443D
1130.581	0.85	1132889	WORD_OFF	n/a	n/a	TOE	BodyParts	11	9	[0, 0, 0]	n/a	catFR1	2	R1443D
1131.431	1.6	1133736	WORD	n/a	wordpools/wordpool_categorized_EN.txt	FOOT	BodyParts	12	9	[0, 0, 0]	n/a	catFR1	2	R1443D
1133.031	0.001	1135336	WORD_OFF	n/a	n/a	FOOT	BodyParts	12	9	[0, 0, 0]	n/a	catFR1	2	R1443D
1133.032	0.0	1135341	START	n/a	n/a	n/a	n/a	-999	9	[-999, -999, -999]	n/a	catFR1	2	R1443D
1133.032	0.0	1135341	PROB	0.0	n/a	n/a	n/a	-999	9	[8, 5, 6]	19	catFR1	2	R1443D
1133.032	0.0	1135349	ENCODING_END	n/a	n/a	n/a	n/a	-999	9	[0, 0, 0]	n/a	catFR1	2	R1443D
1133.032	7.382	1135349	DISTRACT_START	n/a	n/a	n/a	n/a	-999	9	[0, 0, 0]	n/a	catFR1	2	R1443D
1140.414	4.602	1142723	PROB	4.602	n/a	n/a	n/a	-999	9	[4, 2, 5]	11	catFR1	2	R1443D
1145.016	3.633	1147325	PROB	3.633	n/a	n/a	n/a	-999	9	[1, 6, 1]	8	catFR1	2	R1443D
1148.649	3.433	1150958	PROB	3.433	n/a	n/a	n/a	-999	9	[3, 1, 2]	6	catFR1	2	R1443D
1152.082	3.866	1154390	PROB	3.866	n/a	n/a	n/a	-999	9	[1, 2, 3]	6	catFR1	2	R1443D
1155.948	0.0	1158256	STOP	n/a	n/a	n/a	n/a	-999	9	[-999, -999, -999]	n/a	catFR1	2	R1443D
1155.948	1.033	1158258	DISTRACT_END	n/a	n/a	n/a	n/a	-999	9	[0, 0, 0]	n/a	catFR1	2	R1443D
1156.981	1.557	1159289	REC_START	n/a	n/a	n/a	n/a	-999	9	[0, 0, 0]	n/a	catFR1	2	R1443D
1158.538	1.0	1160846	REC_WORD_VV	1.0	n/a	<>	n/a	-999	9	[0, 0, 0]	n/a	catFR1	2	R1443D
1159.538	1.0	1161846	REC_WORD_VV	1.0	n/a	<>	n/a	-999	9	[0, 0, 0]	n/a	catFR1	2	R1443D
1160.538	0.79	1162846	REC_WORD_VV	0.79	n/a	<>	n/a	-999	9	[0, 0, 0]	n/a	catFR1	2	R1443D
1161.328	1.383	1163636	REC_WORD	1.383	n/a	GORILLA	Zoo	-999	9	[0, 0, 0]	n/a	catFR1	2	R1443D
1162.711	1.0	1165019	REC_WORD	1.0	n/a	GIRAFFE	Zoo	-999	9	[0, 0, 0]	n/a	catFR1	2	R1443D
1163.711	6.844	1166019	REC_WORD_VV	6.844	n/a	<>	n/a	-999	9	[0, 0, 0]	n/a	catFR1	2	R1443D
1170.555	1.101	1172862	REC_WORD	1.101	n/a	NIGHTSTAND	Furniture	9	9	[0, 0, 0]	n/a	catFR1	2	R1443D
1171.656	3.409	1173963	REC_WORD	3.409	n/a	BEDSTAND	n/a	-999	9	[0, 0, 0]	n/a	catFR1	2	R1443D
1175.065	1.0	1177372	REC_WORD_VV	1.0	n/a	<>	n/a	-999	9	[0, 0, 0]	n/a	catFR1	2	R1443D
1176.065	1.288	1178372	REC_WORD_VV	1.288	n/a	<>	n/a	-999	9	[0, 0, 0]	n/a	catFR1	2	R1443D
1177.353	0.365	1179660	REC_WORD	0.365	n/a	TOE	BodyParts	11	9	[0, 0, 0]	n/a	catFR1	2	R1443D
1177.718	5.796	1180025	REC_WORD	5.796	n/a	FOOT	BodyParts	12	9	[0, 0, 0]	n/a	catFR1	2	R1443D
1183.514	0.944	1185821	REC_WORD	0.944	n/a	HAND	BodyParts	-999	9	[0, 0, 0]	n/a	catFR1	2	R1443D
1184.458	3.759	1186765	REC_WORD	3.759	n/a	ARM	BodyParts	-999	9	[0, 0, 0]	n/a	catFR1	2	R1443D
1188.217	2.313	1190518	REC_END	n/a	n/a	n/a	n/a	-999	9	[0, 0, 0]	n/a	catFR1	2	R1443D
1190.53	10.351	1192845	COUNTDOWN_START	n/a	n/a	n/a	n/a	-999	9	[0, 0, 0]	n/a	catFR1	2	R1443D
1200.881	0.0	1203189	COUNTDOWN_END	n/a	n/a	n/a	n/a	-999	9	[0, 0, 0]	n/a	catFR1	2	R1443D
1200.881	1.85	1203189	ENCODING_START	n/a	n/a	n/a	n/a	-999	10	[0, 0, 0]	n/a	catFR1	2	R1443D
1202.731	1.617	1205040	WORD	n/a	wordpools/wordpool_categorized_EN.txt	FOREST	Landscapes	1	10	[0, 0, 0]	n/a	catFR1	2	R1443D
1204.348	0.983	1206654	WORD_OFF	n/a	n/a	FOREST	Landscapes	1	10	[0, 0, 0]	n/a	catFR1	2	R1443D
1205.331	1.617	1207633	WORD	n/a	wordpools/wordpool_categorized_EN.txt	STREAM	Landscapes	2	10	[0, 0, 0]	n/a	catFR1	2	R1443D
1206.948	1.0	1209260	WORD_OFF	n/a	n/a	STREAM	Landscapes	2	10	[0, 0, 0]	n/a	catFR1	2	R1443D
1207.948	1.6	1210252	WORD	n/a	wordpools/wordpool_categorized_EN.txt	LADYBUG	Insects	3	10	[0, 0, 0]	n/a	catFR1	2	R1443D
1209.548	0.833	1211852	WORD_OFF	n/a	n/a	LADYBUG	Insects	3	10	[0, 0, 0]	n/a	catFR1	2	R1443D
1210.381	1.6	1212685	WORD	n/a	wordpools/wordpool_categorized_EN.txt	CRICKET	Insects	4	10	[0, 0, 0]	n/a	catFR1	2	R1443D
1211.981	0.932	1214286	WORD_OFF	n/a	n/a	CRICKET	Insects	4	10	[0, 0, 0]	n/a	catFR1	2	R1443D
1212.913	1.601	1215225	WORD	n/a	wordpools/wordpool_categorized_EN.txt	STAIRS	Building	5	10	[0, 0, 0]	n/a	catFR1	2	R1443D
1214.514	0.917	1216825	WORD_OFF	n/a	n/a	STAIRS	Building	5	10	[0, 0, 0]	n/a	catFR1	2	R1443D
1215.431	1.616	1217738	WORD	n/a	wordpools/wordpool_categorized_EN.txt	BATHROOM	Building	6	10	[0, 0, 0]	n/a	catFR1	2	R1443D
1217.047	0.884	1219352	WORD_OFF	n/a	n/a	BATHROOM	Building	6	10	[0, 0, 0]	n/a	catFR1	2	R1443D
1217.931	1.616	1220238	WORD	n/a	wordpools/wordpool_categorized_EN.txt	CREEK	Landscapes	7	10	[0, 0, 0]	n/a	catFR1	2	R1443D
1219.547	0.934	1221851	WORD_OFF	n/a	n/a	CREEK	Landscapes	7	10	[0, 0, 0]	n/a	catFR1	2	R1443D
1220.481	1.617	1222791	WORD	n/a	wordpools/wordpool_categorized_EN.txt	WOODS	Landscapes	8	10	[0, 0, 0]	n/a	catFR1	2	R1443D
1222.098	1.0	1224404	WORD_OFF	n/a	n/a	WOODS	Landscapes	8	10	[0, 0, 0]	n/a	catFR1	2	R1443D
1223.098	1.617	1225409	WORD	n/a	wordpools/wordpool_categorized_EN.txt	FLOOR	Building	9	10	[0, 0, 0]	n/a	catFR1	2	R1443D
1224.715	0.966	1227023	WORD_OFF	n/a	n/a	FLOOR	Building	9	10	[0, 0, 0]	n/a	catFR1	2	R1443D
1225.681	1.6	1227989	WORD	n/a	wordpools/wordpool_categorized_EN.txt	ROOF	Building	10	10	[0, 0, 0]	n/a	catFR1	2	R1443D
1227.281	0.967	1229589	WORD_OFF	n/a	n/a	ROOF	Building	10	10	[0, 0, 0]	n/a	catFR1	2	R1443D
1228.248	1.6	1230555	WORD	n/a	wordpools/wordpool_categorized_EN.txt	FLY	Insects	11	10	[0, 0, 0]	n/a	catFR1	2	R1443D
1229.848	0.849	1232155	WORD_OFF	n/a	n/a	FLY	Insects	11	10	[0, 0, 0]	n/a	catFR1	2	R1443D
1230.697	1.601	1233002	WORD	n/a	wordpools/wordpool_categorized_EN.txt	BEE	Insects	12	10	[0, 0, 0]	n/a	catFR1	2	R1443D
1232.298	0.001	1234602	WORD_OFF	n/a	n/a	BEE	Insects	12	10	[0, 0, 0]	n/a	catFR1	2	R1443D
1232.299	0.0	1234602	ENCODING_END	n/a	n/a	n/a	n/a	-999	10	[0, 0, 0]	n/a	catFR1	2	R1443D
1232.299	0.0	1234602	DISTRACT_START	n/a	n/a	n/a	n/a	-999	10	[0, 0, 0]	n/a	catFR1	2	R1443D
1232.298	0.001	1234602	PROB	0.001	n/a	n/a	n/a	-999	10	[4, 1, 8]	13	catFR1	2	R1443D
1232.299	7.299	1234603	START	n/a	n/a	n/a	n/a	-999	10	[-999, -999, -999]	n/a	catFR1	2	R1443D
1239.598	5.765	1241902	PROB	5.765	n/a	n/a	n/a	-999	10	[5, 7, 1]	13	catFR1	2	R1443D
1245.363	4.669	1247667	PROB	4.669	n/a	n/a	n/a	-999	10	[1, 4, 3]	8	catFR1	2	R1443D
1250.032	4.081	1252335	PROB	4.081	n/a	n/a	n/a	-999	10	[7, 5, 5]	17	catFR1	2	R1443D
1254.113	0.0	1256413	DISTRACT_END	n/a	n/a	n/a	n/a	-999	10	[0, 0, 0]	n/a	catFR1	2	R1443D
1254.113	1.018	1256416	STOP	n/a	n/a	n/a	n/a	-999	10	[-999, -999, -999]	n/a	catFR1	2	R1443D
1255.131	1.025	1257431	REC_START	n/a	n/a	n/a	n/a	-999	10	[0, 0, 0]	n/a	catFR1	2	R1443D
1256.156	1.0	1258459	REC_WORD_VV	1.0	n/a	<>	n/a	-999	10	[0, 0, 0]	n/a	catFR1	2	R1443D
1257.156	1.0	1259459	REC_WORD_VV	1.0	n/a	<>	n/a	-999	10	[0, 0, 0]	n/a	catFR1	2	R1443D
1258.156	1.639	1260459	REC_WORD_VV	1.639	n/a	<>	n/a	-999	10	[0, 0, 0]	n/a	catFR1	2	R1443D
1259.795	2.776	1262098	REC_WORD	2.776	n/a	LADYBUG	Insects	3	10	[0, 0, 0]	n/a	catFR1	2	R1443D
1262.571	6.287	1264874	REC_WORD	6.287	n/a	FLY	Insects	11	10	[0, 0, 0]	n/a	catFR1	2	R1443D
1268.858	2.298	1271160	REC_WORD	2.298	n/a	ANT	Insects	-999	10	[0, 0, 0]	n/a	catFR1	2	R1443D
1271.156	4.032	1273458	REC_WORD_VV	4.032	n/a	<>	n/a	-999	10	[0, 0, 0]	n/a	catFR1	2	R1443D
1275.188	4.921	1277490	REC_WORD	4.921	n/a	BATHROOM	Building	6	10	[0, 0, 0]	n/a	catFR1	2	R1443D
1280.109	1.0	1282411	REC_WORD_VV	1.0	n/a	<>	n/a	-999	10	[0, 0, 0]	n/a	catFR1	2	R1443D
1281.109	5.252	1283411	REC_WORD_VV	5.252	n/a	<>	n/a	-999	10	[0, 0, 0]	n/a	catFR1	2	R1443D
1286.361	2.12	1288659	REC_END	n/a	n/a	n/a	n/a	-999	10	[0, 0, 0]	n/a	catFR1	2	R1443D
1288.481	10.35	1290789	COUNTDOWN_START	n/a	n/a	n/a	n/a	-999	10	[0, 0, 0]	n/a	catFR1	2	R1443D
1298.831	0.0	1301132	COUNTDOWN_END	n/a	n/a	n/a	n/a	-999	10	[0, 0, 0]	n/a	catFR1	2	R1443D
1298.831	2.334	1301132	ENCODING_START	n/a	n/a	n/a	n/a	-999	11	[0, 0, 0]	n/a	catFR1	2	R1443D
1301.165	1.6	1303460	WORD	n/a	wordpools/wordpool_categorized_EN.txt	LIME	Fruit	1	11	[0, 0, 0]	n/a	catFR1	2	R1443D
1302.765	0.85	1305060	WORD_OFF	n/a	n/a	LIME	Fruit	1	11	[0, 0, 0]	n/a	catFR1	2	R1443D
1303.615	1.6	1305920	WORD	n/a	wordpools/wordpool_categorized_EN.txt	STRAWBERRY	Fruit	2	11	[0, 0, 0]	n/a	catFR1	2	R1443D
1305.215	0.782	1307521	WORD_OFF	n/a	n/a	STRAWBERRY	Fruit	2	11	[0, 0, 0]	n/a	catFR1	2	R1443D
1305.997	1.618	1308301	WORD	n/a	wordpools/wordpool_categorized_EN.txt	PANDA	Zoo	3	11	[0, 0, 0]	n/a	catFR1	2	R1443D
1307.615	0.9	1309915	WORD_OFF	n/a	n/a	PANDA	Zoo	3	11	[0, 0, 0]	n/a	catFR1	2	R1443D
1308.515	1.616	1310814	WORD	n/a	wordpools/wordpool_categorized_EN.txt	CHIMPANZEE	Zoo	4	11	[0, 0, 0]	n/a	catFR1	2	R1443D
1310.131	0.866	1312428	WORD_OFF	n/a	n/a	CHIMPANZEE	Zoo	4	11	[0, 0, 0]	n/a	catFR1	2	R1443D
1310.997	1.6	1313301	WORD	n/a	wordpools/wordpool_categorized_EN.txt	VIOLET	Flowers	5	11	[0, 0, 0]	n/a	catFR1	2	R1443D
1312.597	0.818	1314901	WORD_OFF	n/a	n/a	VIOLET	Flowers	5	11	[0, 0, 0]	n/a	catFR1	2	R1443D
1313.415	1.6	1315721	WORD	n/a	wordpools/wordpool_categorized_EN.txt	LILAC	Flowers	6	11	[0, 0, 0]	n/a	catFR1	2	R1443D
1315.015	0.864	1317321	WORD_OFF	n/a	n/a	LILAC	Flowers	6	11	[0, 0, 0]	n/a	catFR1	2	R1443D
1315.879	1.602	1318181	WORD	n/a	wordpools/wordpool_categorized_EN.txt	CHEETAH	Zoo	7	11	[0, 0, 0]	n/a	catFR1	2	R1443D
1317.481	0.934	1319782	WORD_OFF	n/a	n/a	CHEETAH	Zoo	7	11	[0, 0, 0]	n/a	catFR1	2	R1443D
1318.415	1.616	1320721	WORD	n/a	wordpools/wordpool_categorized_EN.txt	LION	Zoo	8	11	[0, 0, 0]	n/a	catFR1	2	R1443D
1320.031	0.833	1322334	WORD_OFF	n/a	n/a	LION	Zoo	8	11	[0, 0, 0]	n/a	catFR1	2	R1443D
1320.864	1.6	1323168	WORD	n/a	wordpools/wordpool_categorized_EN.txt	PLUM	Fruit	9	11	[0, 0, 0]	n/a	catFR1	2	R1443D
1322.464	0.917	1324768	WORD_OFF	n/a	n/a	PLUM	Fruit	9	11	[0, 0, 0]	n/a	catFR1	2	R1443D
1323.381	1.617	1325681	WORD	n/a	wordpools/wordpool_categorized_EN.txt	LEMON	Fruit	10	11	[0, 0, 0]	n/a	catFR1	2	R1443D
1324.998	0.883	1327294	WORD_OFF	n/a	n/a	LEMON	Fruit	10	11	[0, 0, 0]	n/a	catFR1	2	R1443D
1325.881	1.6	1328181	WORD	n/a	wordpools/wordpool_categorized_EN.txt	CARNATION	Flowers	11	11	[0, 0, 0]	n/a	catFR1	2	R1443D
1327.481	0.983	1329781	WORD_OFF	n/a	n/a	CARNATION	Flowers	11	11	[0, 0, 0]	n/a	catFR1	2	R1443D
1328.464	1.601	1330760	WORD	n/a	wordpools/wordpool_categorized_EN.txt	LILY	Flowers	12	11	[0, 0, 0]	n/a	catFR1	2	R1443D
1330.065	0.001	1332360	WORD_OFF	n/a	n/a	LILY	Flowers	12	11	[0, 0, 0]	n/a	catFR1	2	R1443D
1330.066	0.0	1332360	ENCODING_END	n/a	n/a	n/a	n/a	-999	11	[0, 0, 0]	n/a	catFR1	2	R1443D
1330.065	0.001	1332364	PROB	0.001	n/a	n/a	n/a	-999	11	[2, 4, 2]	8	catFR1	2	R1443D
1330.066	0.0	1332365	START	n/a	n/a	n/a	n/a	-999	11	[-999, -999, -999]	n/a	catFR1	2	R1443D
1330.066	4.632	1332373	DISTRACT_START	n/a	n/a	n/a	n/a	-999	11	[0, 0, 0]	n/a	catFR1	2	R1443D
1334.698	5.883	1336997	PROB	5.883	n/a	n/a	n/a	-999	11	[4, 3, 6]	13	catFR1	2	R1443D
1340.581	5.85	1342880	PROB	5.85	n/a	n/a	n/a	-999	11	[8, 3, 6]	17	catFR1	2	R1443D
1346.431	5.167	1348730	PROB	5.167	n/a	n/a	n/a	-999	11	[3, 8, 7]	18	catFR1	2	R1443D
1351.598	0.0	1353893	DISTRACT_END	n/a	n/a	n/a	n/a	-999	11	[0, 0, 0]	n/a	catFR1	2	R1443D
1351.598	1.366	1353896	STOP	n/a	n/a	n/a	n/a	-999	11	[-999, -999, -999]	n/a	catFR1	2	R1443D
1352.964	0.412	1355269	REC_START	n/a	n/a	n/a	n/a	-999	11	[0, 0, 0]	n/a	catFR1	2	R1443D
1353.376	4.964	1355674	REC_WORD_VV	4.964	n/a	<>	n/a	-999	11	[0, 0, 0]	n/a	catFR1	2	R1443D
1358.34	1.141	1360638	REC_WORD	1.141	n/a	CARNATION	Flowers	11	11	[0, 0, 0]	n/a	catFR1	2	R1443D
1359.481	2.212	1361779	REC_WORD_VV	2.212	n/a	<>	n/a	-999	11	[0, 0, 0]	n/a	catFR1	2	R1443D
1361.693	3.122	1363991	REC_WORD	3.122	n/a	LILY	Flowers	12	11	[0, 0, 0]	n/a	catFR1	2	R1443D
1364.815	1.0	1367113	REC_WORD	1.0	n/a	LION	Zoo	8	11	[0, 0, 0]	n/a	catFR1	2	R1443D
1365.815	3.926	1368113	REC_WORD_VV	3.926	n/a	<>	n/a	-999	11	[0, 0, 0]	n/a	catFR1	2	R1443D
1369.741	1.223	1372038	REC_WORD	1.223	n/a	TIRE	n/a	-999	11	[0, 0, 0]	n/a	catFR1	2	R1443D
1370.964	2.647	1373261	REC_WORD	2.647	n/a	ROSE	Flowers	-999	11	[0, 0, 0]	n/a	catFR1	2	R1443D
1373.611	1.621	1375908	REC_WORD	1.621	n/a	ROSE	Flowers	-999	11	[0, 0, 0]	n/a	catFR1	2	R1443D
1375.232	1.655	1377529	REC_WORD	1.655	n/a	CARNATION	Flowers	11	11	[0, 0, 0]	n/a	catFR1	2	R1443D
1376.887	0.804	1379184	REC_WORD	0.804	n/a	GORILLA	Zoo	-999	11	[0, 0, 0]	n/a	catFR1	2	R1443D
1377.691	3.213	1379988	REC_WORD	3.213	n/a	ORANGUTAN	Zoo	-999	11	[0, 0, 0]	n/a	catFR1	2	R1443D
1380.904	3.284	1383201	REC_WORD	3.284	n/a	ORANGE	Fruit	-999	11	[0, 0, 0]	n/a	catFR1	2	R1443D
1384.188	2.626	1386484	REC_END	n/a	n/a	n/a	n/a	-999	11	[0, 0, 0]	n/a	catFR1	2	R1443D
1386.814	10.351	1389116	COUNTDOWN_START	n/a	n/a	n/a	n/a	-999	11	[0, 0, 0]	n/a	catFR1	2	R1443D
1397.165	0.0	1399459	COUNTDOWN_END	n/a	n/a	n/a	n/a	-999	11	[0, 0, 0]	n/a	catFR1	2	R1443D
1397.165	2.033	1399459	ENCODING_START	n/a	n/a	n/a	n/a	-999	12	[0, 0, 0]	n/a	catFR1	2	R1443D
1399.198	1.617	1401496	WORD	n/a	wordpools/wordpool_categorized_EN.txt	VALLEY	Landscapes	1	12	[0, 0, 0]	n/a	catFR1	2	R1443D
1400.815	0.983	1403110	WORD_OFF	n/a	n/a	VALLEY	Landscapes	1	12	[0, 0, 0]	n/a	catFR1	2	R1443D
1401.798	1.617	1404088	WORD	n/a	wordpools/wordpool_categorized_EN.txt	MOUNTAIN	Landscapes	2	12	[0, 0, 0]	n/a	catFR1	2	R1443D
1403.415	0.866	1405715	WORD_OFF	n/a	n/a	MOUNTAIN	Landscapes	2	12	[0, 0, 0]	n/a	catFR1	2	R1443D
1404.281	1.616	1406575	WORD	n/a	wordpools/wordpool_categorized_EN.txt	DUCK	Birds	3	12	[0, 0, 0]	n/a	catFR1	2	R1443D
1405.897	0.817	1408189	WORD_OFF	n/a	n/a	DUCK	Birds	3	12	[0, 0, 0]	n/a	catFR1	2	R1443D
1406.714	1.601	1409009	WORD	n/a	wordpools/wordpool_categorized_EN.txt	CROW	Birds	4	12	[0, 0, 0]	n/a	catFR1	2	R1443D
1408.315	1.0	1410609	WORD_OFF	n/a	n/a	CROW	Birds	4	12	[0, 0, 0]	n/a	catFR1	2	R1443D
1409.315	1.616	1411614	WORD	n/a	wordpools/wordpool_categorized_EN.txt	DRESSER	Furniture	5	12	[0, 0, 0]	n/a	catFR1	2	R1443D
1410.931	1.0	1413228	WORD_OFF	n/a	n/a	DRESSER	Furniture	5	12	[0, 0, 0]	n/a	catFR1	2	R1443D
1411.931	1.6	1414233	WORD	n/a	wordpools/wordpool_categorized_EN.txt	DESK	Furniture	6	12	[0, 0, 0]	n/a	catFR1	2	R1443D
1413.531	0.984	1415820	WORD_OFF	n/a	n/a	DESK	Furniture	6	12	[0, 0, 0]	n/a	catFR1	2	R1443D
1414.515	1.616	1416812	WORD	n/a	wordpools/wordpool_categorized_EN.txt	RIVER	Landscapes	7	12	[0, 0, 0]	n/a	catFR1	2	R1443D
1416.131	0.85	1418426	WORD_OFF	n/a	n/a	RIVER	Landscapes	7	12	[0, 0, 0]	n/a	catFR1	2	R1443D
1416.981	1.616	1419273	WORD	n/a	wordpools/wordpool_categorized_EN.txt	BEACH	Landscapes	8	12	[0, 0, 0]	n/a	catFR1	2	R1443D
1418.597	0.918	1420899	WORD_OFF	n/a	n/a	BEACH	Landscapes	8	12	[0, 0, 0]	n/a	catFR1	2	R1443D
1419.515	1.6	1421812	WORD	n/a	wordpools/wordpool_categorized_EN.txt	SOFA	Furniture	9	12	[0, 0, 0]	n/a	catFR1	2	R1443D
1421.115	0.933	1423412	WORD_OFF	n/a	n/a	SOFA	Furniture	9	12	[0, 0, 0]	n/a	catFR1	2	R1443D
1422.048	1.617	1424338	WORD	n/a	wordpools/wordpool_categorized_EN.txt	TABLE	Furniture	10	12	[0, 0, 0]	n/a	catFR1	2	R1443D
1423.665	0.866	1425965	WORD_OFF	n/a	n/a	TABLE	Furniture	10	12	[0, 0, 0]	n/a	catFR1	2	R1443D
1424.531	1.6	1426825	WORD	n/a	wordpools/wordpool_categorized_EN.txt	SEAGULL	Birds	11	12	[0, 0, 0]	n/a	catFR1	2	R1443D
1426.131	0.834	1428425	WORD_OFF	n/a	n/a	SEAGULL	Birds	11	12	[0, 0, 0]	n/a	catFR1	2	R1443D
1426.965	1.616	1429259	WORD	n/a	wordpools/wordpool_categorized_EN.txt	PIGEON	Birds	12	12	[0, 0, 0]	n/a	catFR1	2	R1443D
1428.581	0.002	1430872	WORD_OFF	n/a	n/a	PIGEON	Birds	12	12	[0, 0, 0]	n/a	catFR1	2	R1443D
1428.583	0.0	1430872	ENCODING_END	n/a	n/a	n/a	n/a	-999	12	[0, 0, 0]	n/a	catFR1	2	R1443D
1428.582	0.001	1430876	PROB	0.001	n/a	n/a	n/a	-999	12	[3, 2, 5]	10	catFR1	2	R1443D
1428.583	0.0	1430877	START	n/a	n/a	n/a	n/a	-999	12	[-999, -999, -999]	n/a	catFR1	2	R1443D
1428.583	5.782	1430886	DISTRACT_START	n/a	n/a	n/a	n/a	-999	12	[0, 0, 0]	n/a	catFR1	2	R1443D
1434.365	4.817	1436659	PROB	4.817	n/a	n/a	n/a	-999	12	[5, 3, 7]	15	catFR1	2	R1443D
1439.182	5.816	1441476	PROB	5.816	n/a	n/a	n/a	-999	12	[6, 7, 4]	17	catFR1	2	R1443D
1444.998	4.483	1447292	PROB	4.483	n/a	n/a	n/a	-999	12	[6, 5, 3]	14	catFR1	2	R1443D
1449.481	0.0	1451770	DISTRACT_END	n/a	n/a	n/a	n/a	-999	12	[0, 0, 0]	n/a	catFR1	2	R1443D
1449.481	1.2	1451774	STOP	n/a	n/a	n/a	n/a	-999	12	[-999, -999, -999]	n/a	catFR1	2	R1443D
1450.681	0.497	1452974	REC_START	n/a	n/a	n/a	n/a	-999	12	[0, 0, 0]	n/a	catFR1	2	R1443D
1451.178	0.802	1453471	REC_WORD	0.802	n/a	PIGEON	Birds	12	12	[0, 0, 0]	n/a	catFR1	2	R1443D
1451.98	1.0	1454273	REC_WORD	1.0	n/a	SEAGULL	Birds	11	12	[0, 0, 0]	n/a	catFR1	2	R1443D
1452.98	1.0	1455273	REC_WORD_VV	1.0	n/a	<>	n/a	-999	12	[0, 0, 0]	n/a	catFR1	2	R1443D
1453.98	0.472	1456273	REC_WORD_VV	0.472	n/a	<>	n/a	-999	12	[0, 0, 0]	n/a	catFR1	2	R1443D
1454.452	0.553	1456745	REC_WORD	0.553	n/a	RIVER	Landscapes	7	12	[0, 0, 0]	n/a	catFR1	2	R1443D
1455.005	0.946	1457298	REC_WORD	0.946	n/a	VALLEY	Landscapes	1	12	[0, 0, 0]	n/a	catFR1	2	R1443D
1455.951	2.489	1458244	REC_WORD	2.489	n/a	LAKE	Landscapes	-999	12	[0, 0, 0]	n/a	catFR1	2	R1443D
1458.44	0.842	1460733	REC_WORD	0.842	n/a	HILLS	Landscapes	-999	12	[0, 0, 0]	n/a	catFR1	2	R1443D
1459.282	1.981	1461575	REC_WORD	1.981	n/a	MOUNTAIN	Landscapes	2	12	[0, 0, 0]	n/a	catFR1	2	R1443D
1461.263	5.521	1463556	REC_WORD_VV	5.521	n/a	<>	n/a	-999	12	[0, 0, 0]	n/a	catFR1	2	R1443D
1466.784	1.0	1469076	REC_WORD_VV	1.0	n/a	<>	n/a	-999	12	[0, 0, 0]	n/a	catFR1	2	R1443D
1467.784	8.079	1470076	REC_WORD_VV	8.079	n/a	<>	n/a	-999	12	[0, 0, 0]	n/a	catFR1	2	R1443D
1475.863	1.537	1478155	REC_WORD	1.537	n/a	CANYON	n/a	-999	12	[0, 0, 0]	n/a	catFR1	2	R1443D
1477.4	0.687	1479692	REC_WORD	0.687	n/a	VALLEY	Landscapes	1	12	[0, 0, 0]	n/a	catFR1	2	R1443D
1478.087	2.075	1480379	REC_WORD	2.075	n/a	RIVER	Landscapes	7	12	[0, 0, 0]	n/a	catFR1	2	R1443D
1480.162	1.769	1482454	REC_WORD	1.769	n/a	LAKE	Landscapes	-999	12	[0, 0, 0]	n/a	catFR1	2	R1443D
1481.931	0.0	1484229	REC_END	n/a	n/a	n/a	n/a	-999	12	[0, 0, 0]	n/a	catFR1	2	R1443D
