onset	duration	sample	trial_type	response_time	stim_file	item_name	category	serialpos	list	test	answer	experiment	session	subject
0.0	1.232	44695	INSTRUCT_START	n/a	n/a	n/a	n/a	-999	-999	[0, 0, 0]	n/a	catFR1	0	R1422T
1.232	41.466	45925	INSTRUCT_END	n/a	n/a	n/a	n/a	-999	-999	[0, 0, 0]	n/a	catFR1	0	R1422T
42.698	10.383	87397	COUNTDOWN_START	n/a	n/a	n/a	n/a	-999	-999	[0, 0, 0]	n/a	catFR1	0	R1422T
53.081	0.0	97776	COUNTDOWN_END	n/a	n/a	n/a	n/a	-999	-999	[0, 0, 0]	n/a	catFR1	0	R1422T
53.081	2.234	97776	ENCODING_START	n/a	n/a	n/a	n/a	-999	-1	[0, 0, 0]	n/a	catFR1	0	R1422T
55.315	1.616	100008	WORD	n/a	n/a	FLUTE	Instruments	1	-1	[0, 0, 0]	n/a	catFR1	0	R1422T
56.931	0.867	101624	WORD_OFF	n/a	n/a	FLUTE	Instruments	1	-1	[0, 0, 0]	n/a	catFR1	0	R1422T
57.798	1.6	102488	WORD	n/a	n/a	PIANO	Instruments	2	-1	[0, 0, 0]	n/a	catFR1	0	R1422T
59.398	0.833	104095	WORD_OFF	n/a	n/a	PIANO	Instruments	2	-1	[0, 0, 0]	n/a	catFR1	0	R1422T
60.231	1.6	104922	WORD	n/a	n/a	DRIZZLE	Weather	3	-1	[0, 0, 0]	n/a	catFR1	0	R1422T
61.831	0.8	106520	WORD_OFF	n/a	n/a	DRIZZLE	Weather	3	-1	[0, 0, 0]	n/a	catFR1	0	R1422T
62.631	1.616	107328	WORD	n/a	n/a	HUMIDITY	Weather	4	-1	[0, 0, 0]	n/a	catFR1	0	R1422T
64.247	0.984	108945	WORD_OFF	n/a	n/a	HUMIDITY	Weather	4	-1	[0, 0, 0]	n/a	catFR1	0	R1422T
65.231	1.6	109928	WORD	n/a	n/a	HICKORY	Trees	5	-1	[0, 0, 0]	n/a	catFR1	0	R1422T
66.831	0.85	111526	WORD_OFF	n/a	n/a	HICKORY	Trees	5	-1	[0, 0, 0]	n/a	catFR1	0	R1422T
67.681	1.617	112371	WORD	n/a	n/a	CEDAR	Trees	6	-1	[0, 0, 0]	n/a	catFR1	0	R1422T
69.298	0.883	113988	WORD_OFF	n/a	n/a	CEDAR	Trees	6	-1	[0, 0, 0]	n/a	catFR1	0	R1422T
70.181	1.6	114869	WORD	n/a	n/a	TRUMPET	Instruments	7	-1	[0, 0, 0]	n/a	catFR1	0	R1422T
71.781	0.85	116477	WORD_OFF	n/a	n/a	TRUMPET	Instruments	7	-1	[0, 0, 0]	n/a	catFR1	0	R1422T
72.631	1.6	117322	WORD	n/a	n/a	TROMBONE	Instruments	8	-1	[0, 0, 0]	n/a	catFR1	0	R1422T
74.231	0.783	118920	WORD_OFF	n/a	n/a	TROMBONE	Instruments	8	-1	[0, 0, 0]	n/a	catFR1	0	R1422T
75.014	1.6	119710	WORD	n/a	n/a	SPRUCE	Trees	9	-1	[0, 0, 0]	n/a	catFR1	0	R1422T
76.614	0.983	121308	WORD_OFF	n/a	n/a	SPRUCE	Trees	9	-1	[0, 0, 0]	n/a	catFR1	0	R1422T
77.597	1.617	122291	WORD	n/a	n/a	EVERGREEN	Trees	10	-1	[0, 0, 0]	n/a	catFR1	0	R1422T
79.214	0.985	123908	WORD_OFF	n/a	n/a	EVERGREEN	Trees	10	-1	[0, 0, 0]	n/a	catFR1	0	R1422T
80.199	1.615	124890	WORD	n/a	n/a	THUNDER	Weather	11	-1	[0, 0, 0]	n/a	catFR1	0	R1422T
81.814	0.884	126507	WORD_OFF	n/a	n/a	THUNDER	Weather	11	-1	[0, 0, 0]	n/a	catFR1	0	R1422T
82.698	1.616	127389	WORD	n/a	n/a	LIGHTNING	Weather	12	-1	[0, 0, 0]	n/a	catFR1	0	R1422T
84.314	0.002	129005	WORD_OFF	n/a	n/a	LIGHTNING	Weather	12	-1	[0, 0, 0]	n/a	catFR1	0	R1422T
84.316	0.0	129005	ENCODING_END	n/a	n/a	n/a	n/a	-999	-1	[0, 0, 0]	n/a	catFR1	0	R1422T
84.316	0.0	129005	DISTRACT_START	n/a	n/a	n/a	n/a	-999	-1	[0, 0, 0]	n/a	catFR1	0	R1422T
84.315	0.001	129006	PROB	5.616	n/a	n/a	n/a	-999	-1	[4, 7, 3]	14.0	catFR1	0	R1422T
84.316	5.631	129007	START	n/a	n/a	n/a	n/a	-999	-1	[-999, -999, -999]	n/a	catFR1	0	R1422T
89.947	2.968	134638	PROB	2.95	n/a	n/a	n/a	-999	-1	[6, 6, 2]	14.0	catFR1	0	R1422T
92.915	3.966	137606	PROB	3.949	n/a	n/a	n/a	-999	-1	[3, 8, 8]	19.0	catFR1	0	R1422T
96.881	6.7	141572	PROB	6.682	n/a	n/a	n/a	-999	-1	[7, 3, 8]	19.0	catFR1	0	R1422T
103.581	4.599	148271	PROB	4.583	n/a	n/a	n/a	-999	-1	[3, 6, 7]	16.0	catFR1	0	R1422T
108.18	0.0	152868	DISTRACT_END	n/a	n/a	n/a	n/a	-999	-1	[0, 0, 0]	n/a	catFR1	0	R1422T
108.18	2.385	152870	STOP	n/a	n/a	n/a	n/a	-999	-1	[-999, -999, -999]	n/a	catFR1	0	R1422T
110.565	1.768	155255	REC_START	n/a	n/a	n/a	n/a	-999	-1	[0, 0, 0]	n/a	catFR1	0	R1422T
112.333	1.235	157023	REC_WORD	1.768	n/a	FLUTE	Instruments	1	-1	[0, 0, 0]	n/a	catFR1	0	R1422T
113.568	2.213	158258	REC_WORD	3.003	n/a	PIANO	Instruments	2	-1	[0, 0, 0]	n/a	catFR1	0	R1422T
115.781	3.203	160471	REC_WORD	5.216	n/a	EVERGREEN	Trees	10	-1	[0, 0, 0]	n/a	catFR1	0	R1422T
118.984	1.852	163674	REC_WORD	8.419	n/a	SPRUCE	Trees	9	-1	[0, 0, 0]	n/a	catFR1	0	R1422T
120.836	3.608	165526	REC_WORD	10.271	n/a	DRIZZLE	Weather	3	-1	[0, 0, 0]	n/a	catFR1	0	R1422T
124.444	3.052	169133	REC_WORD	13.879	n/a	TROMBONE	Instruments	8	-1	[0, 0, 0]	n/a	catFR1	0	R1422T
127.496	8.634	172185	REC_WORD	16.931	n/a	TRUMPET	Instruments	7	-1	[0, 0, 0]	n/a	catFR1	0	R1422T
136.13	1.73	180819	REC_WORD	25.565	n/a	LIGHTNING	Weather	12	-1	[0, 0, 0]	n/a	catFR1	0	R1422T
137.86	2.955	182549	REC_WORD	27.295	n/a	THUNDER	Weather	11	-1	[0, 0, 0]	n/a	catFR1	0	R1422T
140.815	15.683	185503	REC_END	n/a	n/a	n/a	n/a	-999	-1	[0, 0, 0]	n/a	catFR1	0	R1422T
156.498	10.35	201192	COUNTDOWN_START	n/a	n/a	n/a	n/a	-999	1	[0, 0, 0]	n/a	catFR1	0	R1422T
166.848	0.001	211534	COUNTDOWN_END	n/a	n/a	n/a	n/a	-999	1	[0, 0, 0]	n/a	catFR1	0	R1422T
166.849	1.898	211534	ENCODING_START	n/a	n/a	n/a	n/a	-999	1	[0, 0, 0]	n/a	catFR1	0	R1422T
168.747	1.617	213436	WORD	n/a	wordpools/wordpool_categorized_EN.txt	WILLOW	Trees	1	1	[0, 0, 0]	n/a	catFR1	0	R1422T
170.364	0.917	215052	WORD_OFF	n/a	n/a	WILLOW	Trees	1	1	[0, 0, 0]	n/a	catFR1	0	R1422T
171.281	1.6	215971	WORD	n/a	wordpools/wordpool_categorized_EN.txt	WALNUT	Trees	2	1	[0, 0, 0]	n/a	catFR1	0	R1422T
172.881	0.916	217569	WORD_OFF	n/a	n/a	WALNUT	Trees	2	1	[0, 0, 0]	n/a	catFR1	0	R1422T
173.797	1.618	218487	WORD	n/a	wordpools/wordpool_categorized_EN.txt	PLANKTON	OceanAnimals	3	1	[0, 0, 0]	n/a	catFR1	0	R1422T
175.415	1.0	220104	WORD_OFF	n/a	n/a	PLANKTON	OceanAnimals	3	1	[0, 0, 0]	n/a	catFR1	0	R1422T
176.415	1.599	221105	WORD	n/a	wordpools/wordpool_categorized_EN.txt	CRAB	OceanAnimals	4	1	[0, 0, 0]	n/a	catFR1	0	R1422T
178.014	0.883	222703	WORD_OFF	n/a	n/a	CRAB	OceanAnimals	4	1	[0, 0, 0]	n/a	catFR1	0	R1422T
178.897	1.617	223585	WORD	n/a	wordpools/wordpool_categorized_EN.txt	TOASTER	Appliances	5	1	[0, 0, 0]	n/a	catFR1	0	R1422T
180.514	0.866	225202	WORD_OFF	n/a	n/a	TOASTER	Appliances	5	1	[0, 0, 0]	n/a	catFR1	0	R1422T
181.38	1.6	226065	WORD	n/a	wordpools/wordpool_categorized_EN.txt	WASHER	Appliances	6	1	[0, 0, 0]	n/a	catFR1	0	R1422T
182.98	0.884	227673	WORD_OFF	n/a	n/a	WASHER	Appliances	6	1	[0, 0, 0]	n/a	catFR1	0	R1422T
183.864	1.616	228554	WORD	n/a	wordpools/wordpool_categorized_EN.txt	CYPRESS	Trees	7	1	[0, 0, 0]	n/a	catFR1	0	R1422T
185.48	1.0	230171	WORD_OFF	n/a	n/a	CYPRESS	Trees	7	1	[0, 0, 0]	n/a	catFR1	0	R1422T
186.48	1.601	231172	WORD	n/a	wordpools/wordpool_categorized_EN.txt	PINE	Trees	8	1	[0, 0, 0]	n/a	catFR1	0	R1422T
188.081	0.866	232770	WORD_OFF	n/a	n/a	PINE	Trees	8	1	[0, 0, 0]	n/a	catFR1	0	R1422T
188.947	1.6	233634	WORD	n/a	wordpools/wordpool_categorized_EN.txt	MIXER	Appliances	9	1	[0, 0, 0]	n/a	catFR1	0	R1422T
190.547	0.967	235232	WORD_OFF	n/a	n/a	MIXER	Appliances	9	1	[0, 0, 0]	n/a	catFR1	0	R1422T
191.514	1.616	236196	WORD	n/a	wordpools/wordpool_categorized_EN.txt	DISHWASHER	Appliances	10	1	[0, 0, 0]	n/a	catFR1	0	R1422T
193.13	0.817	237813	WORD_OFF	n/a	n/a	DISHWASHER	Appliances	10	1	[0, 0, 0]	n/a	catFR1	0	R1422T
193.947	1.6	238631	WORD	n/a	wordpools/wordpool_categorized_EN.txt	LOBSTER	OceanAnimals	11	1	[0, 0, 0]	n/a	catFR1	0	R1422T
195.547	0.868	240238	WORD_OFF	n/a	n/a	LOBSTER	OceanAnimals	11	1	[0, 0, 0]	n/a	catFR1	0	R1422T
196.415	1.616	241101	WORD	n/a	wordpools/wordpool_categorized_EN.txt	TURTLE	OceanAnimals	12	1	[0, 0, 0]	n/a	catFR1	0	R1422T
198.031	0.0	242717	PROB	4.75	n/a	n/a	n/a	-999	1	[6, 8, 2]	16.0	catFR1	0	R1422T
198.03	0.008	242718	WORD_OFF	n/a	n/a	TURTLE	OceanAnimals	12	1	[0, 0, 0]	n/a	catFR1	0	R1422T
198.038	0.0	242724	START	n/a	n/a	n/a	n/a	-999	1	[-999, -999, -999]	n/a	catFR1	0	R1422T
198.038	0.0	242727	ENCODING_END	n/a	n/a	n/a	n/a	-999	1	[0, 0, 0]	n/a	catFR1	0	R1422T
198.038	4.759	242727	DISTRACT_START	n/a	n/a	n/a	n/a	-999	1	[0, 0, 0]	n/a	catFR1	0	R1422T
202.797	3.418	247482	PROB	3.4	n/a	n/a	n/a	-999	1	[4, 2, 8]	14.0	catFR1	0	R1422T
206.215	5.75	250900	PROB	5.733	n/a	n/a	n/a	-999	1	[8, 5, 8]	21.0	catFR1	0	R1422T
211.965	3.033	256650	PROB	3.016	n/a	n/a	n/a	-999	1	[6, 3, 2]	11.0	catFR1	0	R1422T
214.998	5.016	259683	PROB	5.0	n/a	n/a	n/a	-999	1	[2, 6, 4]	12.0	catFR1	0	R1422T
220.014	0.0	264698	DISTRACT_END	n/a	n/a	n/a	n/a	-999	1	[0, 0, 0]	n/a	catFR1	0	R1422T
220.014	2.134	264699	STOP	n/a	n/a	n/a	n/a	-999	1	[-999, -999, -999]	n/a	catFR1	0	R1422T
222.148	2.17	266837	REC_START	n/a	n/a	n/a	n/a	-999	1	[0, 0, 0]	n/a	catFR1	0	R1422T
224.318	2.085	269002	REC_WORD	2.17	n/a	WILLOW	Trees	1	1	[0, 0, 0]	n/a	catFR1	0	R1422T
226.403	4.406	271087	REC_WORD	4.255	n/a	PLANKTON	OceanAnimals	3	1	[0, 0, 0]	n/a	catFR1	0	R1422T
230.809	2.229	275493	REC_WORD	8.661	n/a	CYPRESS	Trees	7	1	[0, 0, 0]	n/a	catFR1	0	R1422T
233.038	19.34	277722	REC_WORD	10.89	n/a	PINE	Trees	8	1	[0, 0, 0]	n/a	catFR1	0	R1422T
252.378	2.535	297057	REC_END	n/a	n/a	n/a	n/a	-999	1	[0, 0, 0]	n/a	catFR1	0	R1422T
254.913	10.351	299602	COUNTDOWN_START	n/a	n/a	n/a	n/a	-999	2	[0, 0, 0]	n/a	catFR1	0	R1422T
265.264	0.0	309944	COUNTDOWN_END	n/a	n/a	n/a	n/a	-999	2	[0, 0, 0]	n/a	catFR1	0	R1422T
265.264	1.816	309953	ENCODING_START	n/a	n/a	n/a	n/a	-999	2	[0, 0, 0]	n/a	catFR1	0	R1422T
267.08	1.6	311763	WORD	n/a	wordpools/wordpool_categorized_EN.txt	OCEAN	Landscapes	1	2	[0, 0, 0]	n/a	catFR1	0	R1422T
268.68	0.917	313361	WORD_OFF	n/a	n/a	OCEAN	Landscapes	1	2	[0, 0, 0]	n/a	catFR1	0	R1422T
269.597	1.6	314280	WORD	n/a	wordpools/wordpool_categorized_EN.txt	WOODS	Landscapes	2	2	[0, 0, 0]	n/a	catFR1	0	R1422T
271.197	0.783	315878	WORD_OFF	n/a	n/a	WOODS	Landscapes	2	2	[0, 0, 0]	n/a	catFR1	0	R1422T
271.98	1.6	316659	WORD	n/a	wordpools/wordpool_categorized_EN.txt	CARROT	Vegetables	3	2	[0, 0, 0]	n/a	catFR1	0	R1422T
273.58	0.834	318266	WORD_OFF	n/a	n/a	CARROT	Vegetables	3	2	[0, 0, 0]	n/a	catFR1	0	R1422T
274.414	1.616	319093	WORD	n/a	wordpools/wordpool_categorized_EN.txt	BROCCOLI	Vegetables	4	2	[0, 0, 0]	n/a	catFR1	0	R1422T
276.03	0.8	320709	WORD_OFF	n/a	n/a	BROCCOLI	Vegetables	4	2	[0, 0, 0]	n/a	catFR1	0	R1422T
276.83	1.617	321508	WORD	n/a	wordpools/wordpool_categorized_EN.txt	ROSE	Flowers	5	2	[0, 0, 0]	n/a	catFR1	0	R1422T
278.447	0.85	323134	WORD_OFF	n/a	n/a	ROSE	Flowers	5	2	[0, 0, 0]	n/a	catFR1	0	R1422T
279.297	1.6	323979	WORD	n/a	wordpools/wordpool_categorized_EN.txt	MARIGOLD	Flowers	6	2	[0, 0, 0]	n/a	catFR1	0	R1422T
280.897	0.95	325577	WORD_OFF	n/a	n/a	MARIGOLD	Flowers	6	2	[0, 0, 0]	n/a	catFR1	0	R1422T
281.847	1.6	326533	WORD	n/a	wordpools/wordpool_categorized_EN.txt	LAKE	Landscapes	7	2	[0, 0, 0]	n/a	catFR1	0	R1422T
283.447	0.883	328131	WORD_OFF	n/a	n/a	LAKE	Landscapes	7	2	[0, 0, 0]	n/a	catFR1	0	R1422T
284.33	1.6	329013	WORD	n/a	wordpools/wordpool_categorized_EN.txt	RIVER	Landscapes	8	2	[0, 0, 0]	n/a	catFR1	0	R1422T
285.93	0.867	330611	WORD_OFF	n/a	n/a	RIVER	Landscapes	8	2	[0, 0, 0]	n/a	catFR1	0	R1422T
286.797	1.6	331483	WORD	n/a	wordpools/wordpool_categorized_EN.txt	CARNATION	Flowers	9	2	[0, 0, 0]	n/a	catFR1	0	R1422T
288.397	0.9	333082	WORD_OFF	n/a	n/a	CARNATION	Flowers	9	2	[0, 0, 0]	n/a	catFR1	0	R1422T
289.297	1.601	333982	WORD	n/a	wordpools/wordpool_categorized_EN.txt	TULIP	Flowers	10	2	[0, 0, 0]	n/a	catFR1	0	R1422T
290.898	0.933	335580	WORD_OFF	n/a	n/a	TULIP	Flowers	10	2	[0, 0, 0]	n/a	catFR1	0	R1422T
291.831	1.6	336517	WORD	n/a	wordpools/wordpool_categorized_EN.txt	CABBAGE	Vegetables	11	2	[0, 0, 0]	n/a	catFR1	0	R1422T
293.431	0.834	338115	WORD_OFF	n/a	n/a	CABBAGE	Vegetables	11	2	[0, 0, 0]	n/a	catFR1	0	R1422T
294.265	1.601	338951	WORD	n/a	wordpools/wordpool_categorized_EN.txt	CELERY	Vegetables	12	2	[0, 0, 0]	n/a	catFR1	0	R1422T
295.866	0.001	340547	PROB	4.015	n/a	n/a	n/a	-999	2	[6, 1, 6]	13.0	catFR1	0	R1422T
295.867	0.0	340548	START	n/a	n/a	n/a	n/a	-999	2	[-999, -999, -999]	n/a	catFR1	0	R1422T
295.865	0.002	340549	WORD_OFF	n/a	n/a	CELERY	Vegetables	12	2	[0, 0, 0]	n/a	catFR1	0	R1422T
295.867	0.0	340549	ENCODING_END	n/a	n/a	n/a	n/a	-999	2	[0, 0, 0]	n/a	catFR1	0	R1422T
295.867	4.031	340549	DISTRACT_START	n/a	n/a	n/a	n/a	-999	2	[0, 0, 0]	n/a	catFR1	0	R1422T
299.898	4.166	344578	PROB	4.149	n/a	n/a	n/a	-999	2	[4, 2, 7]	13.0	catFR1	0	R1422T
304.064	6.267	348744	PROB	6.25	n/a	n/a	n/a	-999	2	[2, 4, 7]	13.0	catFR1	0	R1422T
310.331	5.75	355011	PROB	5.733	n/a	n/a	n/a	-999	2	[5, 7, 3]	15.0	catFR1	0	R1422T
316.081	0.0	360761	STOP	n/a	n/a	n/a	n/a	-999	2	[-999, -999, -999]	n/a	catFR1	0	R1422T
316.081	2.349	360766	DISTRACT_END	n/a	n/a	n/a	n/a	-999	2	[0, 0, 0]	n/a	catFR1	0	R1422T
318.43	2.334	363107	REC_START	n/a	n/a	n/a	n/a	-999	2	[0, 0, 0]	n/a	catFR1	0	R1422T
320.764	1.584	365443	REC_WORD	2.334	n/a	ROSE	Flowers	5	2	[0, 0, 0]	n/a	catFR1	0	R1422T
322.348	1.821	367027	REC_WORD	3.918	n/a	MARIGOLD	Flowers	6	2	[0, 0, 0]	n/a	catFR1	0	R1422T
324.169	2.263	368848	REC_WORD	5.739	n/a	CELERY	Vegetables	12	2	[0, 0, 0]	n/a	catFR1	0	R1422T
326.432	3.006	371111	REC_WORD	8.002	n/a	CARNATION	Flowers	9	2	[0, 0, 0]	n/a	catFR1	0	R1422T
329.438	4.36	374117	REC_WORD	11.008	n/a	OCEAN	Landscapes	1	2	[0, 0, 0]	n/a	catFR1	0	R1422T
333.798	4.639	378477	REC_WORD	15.368	n/a	TULIP	Flowers	10	2	[0, 0, 0]	n/a	catFR1	0	R1422T
338.437	10.23	383116	REC_WORD	20.007	n/a	CARROT	Vegetables	3	2	[0, 0, 0]	n/a	catFR1	0	R1422T
348.667	2.047	393346	REC_END	n/a	n/a	n/a	n/a	-999	2	[0, 0, 0]	n/a	catFR1	0	R1422T
350.714	10.351	395394	COUNTDOWN_START	n/a	n/a	n/a	n/a	-999	3	[0, 0, 0]	n/a	catFR1	0	R1422T
361.065	0.0	405746	COUNTDOWN_END	n/a	n/a	n/a	n/a	-999	3	[0, 0, 0]	n/a	catFR1	0	R1422T
361.065	2.233	405746	ENCODING_START	n/a	n/a	n/a	n/a	-999	3	[0, 0, 0]	n/a	catFR1	0	R1422T
363.298	1.616	407978	WORD	n/a	wordpools/wordpool_categorized_EN.txt	BOAT	Vehicles	1	3	[0, 0, 0]	n/a	catFR1	0	R1422T
364.914	0.8	409594	WORD_OFF	n/a	n/a	BOAT	Vehicles	1	3	[0, 0, 0]	n/a	catFR1	0	R1422T
365.714	1.617	410393	WORD	n/a	wordpools/wordpool_categorized_EN.txt	VAN	Vehicles	2	3	[0, 0, 0]	n/a	catFR1	0	R1422T
367.331	0.883	412010	WORD_OFF	n/a	n/a	VAN	Vehicles	2	3	[0, 0, 0]	n/a	catFR1	0	R1422T
368.214	1.617	412892	WORD	n/a	wordpools/wordpool_categorized_EN.txt	KNIFE	KitchenTools	3	3	[0, 0, 0]	n/a	catFR1	0	R1422T
369.831	0.9	414508	WORD_OFF	n/a	n/a	KNIFE	KitchenTools	3	3	[0, 0, 0]	n/a	catFR1	0	R1422T
370.731	1.617	415408	WORD	n/a	wordpools/wordpool_categorized_EN.txt	LADLE	KitchenTools	4	3	[0, 0, 0]	n/a	catFR1	0	R1422T
372.348	0.949	417025	WORD_OFF	n/a	n/a	LADLE	KitchenTools	4	3	[0, 0, 0]	n/a	catFR1	0	R1422T
373.297	1.601	417971	WORD	n/a	wordpools/wordpool_categorized_EN.txt	FOG	Weather	5	3	[0, 0, 0]	n/a	catFR1	0	R1422T
374.898	0.782	419579	WORD_OFF	n/a	n/a	FOG	Weather	5	3	[0, 0, 0]	n/a	catFR1	0	R1422T
375.68	1.601	420359	WORD	n/a	wordpools/wordpool_categorized_EN.txt	CLOUD	Weather	6	3	[0, 0, 0]	n/a	catFR1	0	R1422T
377.281	0.933	421957	WORD_OFF	n/a	n/a	CLOUD	Weather	6	3	[0, 0, 0]	n/a	catFR1	0	R1422T
378.214	1.617	422894	WORD	n/a	wordpools/wordpool_categorized_EN.txt	MOTORCYCLE	Vehicles	7	3	[0, 0, 0]	n/a	catFR1	0	R1422T
379.831	0.966	424511	WORD_OFF	n/a	n/a	MOTORCYCLE	Vehicles	7	3	[0, 0, 0]	n/a	catFR1	0	R1422T
380.797	1.6	425475	WORD	n/a	wordpools/wordpool_categorized_EN.txt	CAR	Vehicles	8	3	[0, 0, 0]	n/a	catFR1	0	R1422T
382.397	0.784	427074	WORD_OFF	n/a	n/a	CAR	Vehicles	8	3	[0, 0, 0]	n/a	catFR1	0	R1422T
383.181	1.6	427854	WORD	n/a	wordpools/wordpool_categorized_EN.txt	SNOW	Weather	9	3	[0, 0, 0]	n/a	catFR1	0	R1422T
384.781	0.999	429453	WORD_OFF	n/a	n/a	SNOW	Weather	9	3	[0, 0, 0]	n/a	catFR1	0	R1422T
385.78	1.602	430454	WORD	n/a	wordpools/wordpool_categorized_EN.txt	HURRICANE	Weather	10	3	[0, 0, 0]	n/a	catFR1	0	R1422T
387.382	0.982	432061	WORD_OFF	n/a	n/a	HURRICANE	Weather	10	3	[0, 0, 0]	n/a	catFR1	0	R1422T
388.364	1.617	433044	WORD	n/a	wordpools/wordpool_categorized_EN.txt	COLANDER	KitchenTools	11	3	[0, 0, 0]	n/a	catFR1	0	R1422T
389.981	0.933	434661	WORD_OFF	n/a	n/a	COLANDER	KitchenTools	11	3	[0, 0, 0]	n/a	catFR1	0	R1422T
390.914	1.617	435588	WORD	n/a	wordpools/wordpool_categorized_EN.txt	TONGS	KitchenTools	12	3	[0, 0, 0]	n/a	catFR1	0	R1422T
392.531	0.001	437205	WORD_OFF	n/a	n/a	TONGS	KitchenTools	12	3	[0, 0, 0]	n/a	catFR1	0	R1422T
392.532	0.001	437208	PROB	6.916	n/a	n/a	n/a	-999	3	[7, 6, 2]	15.0	catFR1	0	R1422T
392.533	0.0	437209	START	n/a	n/a	n/a	n/a	-999	3	[-999, -999, -999]	n/a	catFR1	0	R1422T
392.533	0.0	437214	ENCODING_END	n/a	n/a	n/a	n/a	-999	3	[0, 0, 0]	n/a	catFR1	0	R1422T
392.533	6.931	437214	DISTRACT_START	n/a	n/a	n/a	n/a	-999	3	[0, 0, 0]	n/a	catFR1	0	R1422T
399.464	4.768	444139	PROB	4.75	n/a	n/a	n/a	-999	3	[7, 7, 8]	22.0	catFR1	0	R1422T
404.232	4.383	448907	PROB	4.365	n/a	n/a	n/a	-999	3	[4, 5, 1]	10.0	catFR1	0	R1422T
408.615	6.949	453290	PROB	6.933	n/a	n/a	n/a	-999	3	[7, 4, 8]	19.0	catFR1	0	R1422T
415.564	0.0	460239	STOP	n/a	n/a	n/a	n/a	-999	3	[-999, -999, -999]	n/a	catFR1	0	R1422T
415.564	2.117	460241	DISTRACT_END	n/a	n/a	n/a	n/a	-999	3	[0, 0, 0]	n/a	catFR1	0	R1422T
417.681	2.4	462353	REC_START	n/a	n/a	n/a	n/a	-999	3	[0, 0, 0]	n/a	catFR1	0	R1422T
420.081	1.269	464755	REC_WORD	2.4	n/a	TONGS	KitchenTools	12	3	[0, 0, 0]	n/a	catFR1	0	R1422T
421.35	2.386	466024	REC_WORD	3.669	n/a	COLANDER	KitchenTools	11	3	[0, 0, 0]	n/a	catFR1	0	R1422T
423.736	6.546	468410	REC_WORD	6.055	n/a	KNIFE	KitchenTools	3	3	[0, 0, 0]	n/a	catFR1	0	R1422T
430.282	2.062	474956	REC_WORD	12.601	n/a	FOG	Weather	5	3	[0, 0, 0]	n/a	catFR1	0	R1422T
432.344	15.594	477018	REC_WORD	14.663	n/a	CAR	Vehicles	8	3	[0, 0, 0]	n/a	catFR1	0	R1422T
447.938	1.876	492610	REC_END	n/a	n/a	n/a	n/a	-999	3	[0, 0, 0]	n/a	catFR1	0	R1422T
449.814	10.351	494493	COUNTDOWN_START	n/a	n/a	n/a	n/a	-999	4	[0, 0, 0]	n/a	catFR1	0	R1422T
460.165	0.0	504835	COUNTDOWN_END	n/a	n/a	n/a	n/a	-999	4	[0, 0, 0]	n/a	catFR1	0	R1422T
460.165	2.066	504835	ENCODING_START	n/a	n/a	n/a	n/a	-999	4	[0, 0, 0]	n/a	catFR1	0	R1422T
462.231	1.6	506902	WORD	n/a	wordpools/wordpool_categorized_EN.txt	SANDER	Tools	1	4	[0, 0, 0]	n/a	catFR1	0	R1422T
463.831	0.816	508500	WORD_OFF	n/a	n/a	SANDER	Tools	1	4	[0, 0, 0]	n/a	catFR1	0	R1422T
464.647	1.6	509318	WORD	n/a	wordpools/wordpool_categorized_EN.txt	SCREWDRIVER	Tools	2	4	[0, 0, 0]	n/a	catFR1	0	R1422T
466.247	0.884	510916	WORD_OFF	n/a	n/a	SCREWDRIVER	Tools	2	4	[0, 0, 0]	n/a	catFR1	0	R1422T
467.131	1.616	511807	WORD	n/a	wordpools/wordpool_categorized_EN.txt	STREAM	Landscapes	3	4	[0, 0, 0]	n/a	catFR1	0	R1422T
468.747	0.95	513424	WORD_OFF	n/a	n/a	STREAM	Landscapes	3	4	[0, 0, 0]	n/a	catFR1	0	R1422T
469.697	1.616	514370	WORD	n/a	wordpools/wordpool_categorized_EN.txt	HILLS	Landscapes	4	4	[0, 0, 0]	n/a	catFR1	0	R1422T
471.313	0.801	515986	WORD_OFF	n/a	n/a	HILLS	Landscapes	4	4	[0, 0, 0]	n/a	catFR1	0	R1422T
472.114	1.6	516785	WORD	n/a	wordpools/wordpool_categorized_EN.txt	MOSQUITO	Insects	5	4	[0, 0, 0]	n/a	catFR1	0	R1422T
473.714	1.0	518384	WORD_OFF	n/a	n/a	MOSQUITO	Insects	5	4	[0, 0, 0]	n/a	catFR1	0	R1422T
474.714	1.6	519385	WORD	n/a	wordpools/wordpool_categorized_EN.txt	CRICKET	Insects	6	4	[0, 0, 0]	n/a	catFR1	0	R1422T
476.314	0.832	520983	WORD_OFF	n/a	n/a	CRICKET	Insects	6	4	[0, 0, 0]	n/a	catFR1	0	R1422T
477.146	1.602	521819	WORD	n/a	wordpools/wordpool_categorized_EN.txt	FOREST	Landscapes	7	4	[0, 0, 0]	n/a	catFR1	0	R1422T
478.748	0.916	523417	WORD_OFF	n/a	n/a	FOREST	Landscapes	7	4	[0, 0, 0]	n/a	catFR1	0	R1422T
479.664	1.617	524336	WORD	n/a	wordpools/wordpool_categorized_EN.txt	VALLEY	Landscapes	8	4	[0, 0, 0]	n/a	catFR1	0	R1422T
481.281	0.967	525952	WORD_OFF	n/a	n/a	VALLEY	Landscapes	8	4	[0, 0, 0]	n/a	catFR1	0	R1422T
482.248	1.616	526917	WORD	n/a	wordpools/wordpool_categorized_EN.txt	BUTTERFLY	Insects	9	4	[0, 0, 0]	n/a	catFR1	0	R1422T
483.864	0.967	528533	WORD_OFF	n/a	n/a	BUTTERFLY	Insects	9	4	[0, 0, 0]	n/a	catFR1	0	R1422T
484.831	1.616	529507	WORD	n/a	wordpools/wordpool_categorized_EN.txt	BEETLE	Insects	10	4	[0, 0, 0]	n/a	catFR1	0	R1422T
486.447	0.933	531123	WORD_OFF	n/a	n/a	BEETLE	Insects	10	4	[0, 0, 0]	n/a	catFR1	0	R1422T
487.38	1.6	532051	WORD	n/a	wordpools/wordpool_categorized_EN.txt	SHOVEL	Tools	11	4	[0, 0, 0]	n/a	catFR1	0	R1422T
488.98	0.968	533649	WORD_OFF	n/a	n/a	SHOVEL	Tools	11	4	[0, 0, 0]	n/a	catFR1	0	R1422T
489.948	1.6	534623	WORD	n/a	wordpools/wordpool_categorized_EN.txt	SAW	Tools	12	4	[0, 0, 0]	n/a	catFR1	0	R1422T
491.548	0.0	536219	PROB	3.7	n/a	n/a	n/a	-999	4	[3, 1, 3]	7.0	catFR1	0	R1422T
491.548	0.009	536221	WORD_OFF	n/a	n/a	SAW	Tools	12	4	[0, 0, 0]	n/a	catFR1	0	R1422T
491.557	0.0	536228	START	n/a	n/a	n/a	n/a	-999	4	[-999, -999, -999]	n/a	catFR1	0	R1422T
491.557	0.0	536230	ENCODING_END	n/a	n/a	n/a	n/a	-999	4	[0, 0, 0]	n/a	catFR1	0	R1422T
491.557	3.708	536230	DISTRACT_START	n/a	n/a	n/a	n/a	-999	4	[0, 0, 0]	n/a	catFR1	0	R1422T
495.265	3.25	539936	PROB	3.233	n/a	n/a	n/a	-999	4	[2, 8, 4]	14.0	catFR1	0	R1422T
498.515	3.466	543185	PROB	3.449	n/a	n/a	n/a	-999	4	[3, 4, 4]	11.0	catFR1	0	R1422T
501.981	5.218	546651	PROB	5.2	n/a	n/a	n/a	-999	4	[5, 4, 4]	13.0	catFR1	0	R1422T
507.199	2.865	551869	PROB	2.849	n/a	n/a	n/a	-999	4	[3, 4, 4]	11.0	catFR1	0	R1422T
510.064	3.717	554734	PROB	3.699	n/a	n/a	n/a	-999	4	[5, 6, 6]	17.0	catFR1	0	R1422T
513.781	0.0	558449	DISTRACT_END	n/a	n/a	n/a	n/a	-999	4	[0, 0, 0]	n/a	catFR1	0	R1422T
513.781	2.217	558451	STOP	n/a	n/a	n/a	n/a	-999	4	[-999, -999, -999]	n/a	catFR1	0	R1422T
515.998	6.453	560671	REC_START	n/a	n/a	n/a	n/a	-999	4	[0, 0, 0]	n/a	catFR1	0	R1422T
522.451	12.568	567120	REC_WORD	6.453	n/a	SCREWDRIVER	Tools	2	4	[0, 0, 0]	n/a	catFR1	0	R1422T
535.019	2.448	579688	REC_WORD	19.021	n/a	TRUCK	n/a	-999	4	[0, 0, 0]	n/a	catFR1	0	R1422T
537.467	8.819	582135	REC_WORD_VV	21.469	n/a	<>	n/a	-999	4	[0, 0, 0]	n/a	catFR1	0	R1422T
546.286	2.278	590956	REC_END	n/a	n/a	n/a	n/a	-999	4	[0, 0, 0]	n/a	catFR1	0	R1422T
548.564	10.351	593234	COUNTDOWN_START	n/a	n/a	n/a	n/a	-999	5	[0, 0, 0]	n/a	catFR1	0	R1422T
558.915	0.0	603585	COUNTDOWN_END	n/a	n/a	n/a	n/a	-999	5	[0, 0, 0]	n/a	catFR1	0	R1422T
558.915	2.065	603585	ENCODING_START	n/a	n/a	n/a	n/a	-999	5	[0, 0, 0]	n/a	catFR1	0	R1422T
560.98	1.617	605652	WORD	n/a	wordpools/wordpool_categorized_EN.txt	PUZZLE	Toys	1	5	[0, 0, 0]	n/a	catFR1	0	R1422T
562.597	0.967	607268	WORD_OFF	n/a	n/a	PUZZLE	Toys	1	5	[0, 0, 0]	n/a	catFR1	0	R1422T
563.564	1.616	608233	WORD	n/a	wordpools/wordpool_categorized_EN.txt	FOOTBALL	Toys	2	5	[0, 0, 0]	n/a	catFR1	0	R1422T
565.18	0.9	609850	WORD_OFF	n/a	n/a	FOOTBALL	Toys	2	5	[0, 0, 0]	n/a	catFR1	0	R1422T
566.08	1.618	610750	WORD	n/a	wordpools/wordpool_categorized_EN.txt	HAND	BodyParts	3	5	[0, 0, 0]	n/a	catFR1	0	R1422T
567.698	0.832	612366	WORD_OFF	n/a	n/a	HAND	BodyParts	3	5	[0, 0, 0]	n/a	catFR1	0	R1422T
568.53	1.601	613193	WORD	n/a	wordpools/wordpool_categorized_EN.txt	EAR	BodyParts	4	5	[0, 0, 0]	n/a	catFR1	0	R1422T
570.131	0.95	614800	WORD_OFF	n/a	n/a	EAR	BodyParts	4	5	[0, 0, 0]	n/a	catFR1	0	R1422T
571.081	1.6	615746	WORD	n/a	wordpools/wordpool_categorized_EN.txt	PANTS	Clothing	5	5	[0, 0, 0]	n/a	catFR1	0	R1422T
572.681	0.932	617345	WORD_OFF	n/a	n/a	PANTS	Clothing	5	5	[0, 0, 0]	n/a	catFR1	0	R1422T
573.613	1.601	618282	WORD	n/a	wordpools/wordpool_categorized_EN.txt	DRESS	Clothing	6	5	[0, 0, 0]	n/a	catFR1	0	R1422T
575.214	0.984	619880	WORD_OFF	n/a	n/a	DRESS	Clothing	6	5	[0, 0, 0]	n/a	catFR1	0	R1422T
576.198	1.616	620863	WORD	n/a	wordpools/wordpool_categorized_EN.txt	KNEE	BodyParts	7	5	[0, 0, 0]	n/a	catFR1	0	R1422T
577.814	0.917	622479	WORD_OFF	n/a	n/a	KNEE	BodyParts	7	5	[0, 0, 0]	n/a	catFR1	0	R1422T
578.731	1.6	623398	WORD	n/a	wordpools/wordpool_categorized_EN.txt	FOOT	BodyParts	8	5	[0, 0, 0]	n/a	catFR1	0	R1422T
580.331	0.883	624996	WORD_OFF	n/a	n/a	FOOT	BodyParts	8	5	[0, 0, 0]	n/a	catFR1	0	R1422T
581.214	1.6	625878	WORD	n/a	wordpools/wordpool_categorized_EN.txt	SKIRT	Clothing	9	5	[0, 0, 0]	n/a	catFR1	0	R1422T
582.814	0.95	627485	WORD_OFF	n/a	n/a	SKIRT	Clothing	9	5	[0, 0, 0]	n/a	catFR1	0	R1422T
583.764	1.602	628431	WORD	n/a	wordpools/wordpool_categorized_EN.txt	JEANS	Clothing	10	5	[0, 0, 0]	n/a	catFR1	0	R1422T
585.366	0.898	630029	WORD_OFF	n/a	n/a	JEANS	Clothing	10	5	[0, 0, 0]	n/a	catFR1	0	R1422T
586.264	1.617	630930	WORD	n/a	wordpools/wordpool_categorized_EN.txt	SLINKY	Toys	11	5	[0, 0, 0]	n/a	catFR1	0	R1422T
587.881	0.833	632546	WORD_OFF	n/a	n/a	SLINKY	Toys	11	5	[0, 0, 0]	n/a	catFR1	0	R1422T
588.714	1.617	633382	WORD	n/a	wordpools/wordpool_categorized_EN.txt	BALL	Toys	12	5	[0, 0, 0]	n/a	catFR1	0	R1422T
590.331	0.0	634997	PROB	6.866	n/a	n/a	n/a	-999	5	[4, 3, 5]	12.0	catFR1	0	R1422T
590.331	0.002	634999	WORD_OFF	n/a	n/a	BALL	Toys	12	5	[0, 0, 0]	n/a	catFR1	0	R1422T
590.333	0.0	634999	ENCODING_END	n/a	n/a	n/a	n/a	-999	5	[0, 0, 0]	n/a	catFR1	0	R1422T
590.333	0.0	634999	DISTRACT_START	n/a	n/a	n/a	n/a	-999	5	[0, 0, 0]	n/a	catFR1	0	R1422T
590.333	6.882	634999	START	n/a	n/a	n/a	n/a	-999	5	[-999, -999, -999]	n/a	catFR1	0	R1422T
597.215	4.4	641880	PROB	4.382	n/a	n/a	n/a	-999	5	[5, 4, 3]	12.0	catFR1	0	R1422T
601.615	3.283	646280	PROB	3.266	n/a	n/a	n/a	-999	5	[2, 6, 4]	12.0	catFR1	0	R1422T
604.898	8.632	649563	PROB	8.616	n/a	n/a	n/a	-999	5	[6, 5, 7]	18.0	catFR1	0	R1422T
613.53	0.0	658191	DISTRACT_END	n/a	n/a	n/a	n/a	-999	5	[0, 0, 0]	n/a	catFR1	0	R1422T
613.53	2.151	658195	STOP	n/a	n/a	n/a	n/a	-999	5	[-999, -999, -999]	n/a	catFR1	0	R1422T
615.681	1.89	660348	REC_START	n/a	n/a	n/a	n/a	-999	5	[0, 0, 0]	n/a	catFR1	0	R1422T
617.571	1.476	662235	REC_WORD	1.89	n/a	DRESS	Clothing	6	5	[0, 0, 0]	n/a	catFR1	0	R1422T
619.047	2.08	663711	REC_WORD	3.366	n/a	SKIRT	Clothing	9	5	[0, 0, 0]	n/a	catFR1	0	R1422T
621.127	1.534	665791	REC_WORD	5.446	n/a	SLINKY	Toys	11	5	[0, 0, 0]	n/a	catFR1	0	R1422T
622.661	2.447	667325	REC_WORD	6.98	n/a	KNEE	BodyParts	7	5	[0, 0, 0]	n/a	catFR1	0	R1422T
625.108	1.647	669772	REC_WORD	9.427	n/a	EAR	BodyParts	4	5	[0, 0, 0]	n/a	catFR1	0	R1422T
626.755	6.668	671419	REC_WORD	11.074	n/a	HAND	BodyParts	3	5	[0, 0, 0]	n/a	catFR1	0	R1422T
633.423	5.808	678087	REC_WORD	17.742	n/a	PUZZLE	Toys	1	5	[0, 0, 0]	n/a	catFR1	0	R1422T
639.231	6.743	683894	REC_WORD	23.55	n/a	FOOTBALL	Toys	2	5	[0, 0, 0]	n/a	catFR1	0	R1422T
645.974	1.606	690633	REC_END	n/a	n/a	n/a	n/a	-999	5	[0, 0, 0]	n/a	catFR1	0	R1422T
647.58	10.351	692241	COUNTDOWN_START	n/a	n/a	n/a	n/a	-999	6	[0, 0, 0]	n/a	catFR1	0	R1422T
657.931	0.0	702592	COUNTDOWN_END	n/a	n/a	n/a	n/a	-999	6	[0, 0, 0]	n/a	catFR1	0	R1422T
657.931	2.1	702592	ENCODING_START	n/a	n/a	n/a	n/a	-999	6	[0, 0, 0]	n/a	catFR1	0	R1422T
660.031	1.617	704696	WORD	n/a	wordpools/wordpool_categorized_EN.txt	TORNADO	Weather	1	6	[0, 0, 0]	n/a	catFR1	0	R1422T
661.648	0.8	706312	WORD_OFF	n/a	n/a	TORNADO	Weather	1	6	[0, 0, 0]	n/a	catFR1	0	R1422T
662.448	1.6	707111	WORD	n/a	wordpools/wordpool_categorized_EN.txt	WIND	Weather	2	6	[0, 0, 0]	n/a	catFR1	0	R1422T
664.048	0.816	708710	WORD_OFF	n/a	n/a	WIND	Weather	2	6	[0, 0, 0]	n/a	catFR1	0	R1422T
664.864	1.6	709527	WORD	n/a	wordpools/wordpool_categorized_EN.txt	BOOKCASE	Furniture	3	6	[0, 0, 0]	n/a	catFR1	0	R1422T
666.464	0.834	711125	WORD_OFF	n/a	n/a	BOOKCASE	Furniture	3	6	[0, 0, 0]	n/a	catFR1	0	R1422T
667.298	1.616	711961	WORD	n/a	wordpools/wordpool_categorized_EN.txt	NIGHTSTAND	Furniture	4	6	[0, 0, 0]	n/a	catFR1	0	R1422T
668.914	0.834	713578	WORD_OFF	n/a	n/a	NIGHTSTAND	Furniture	4	6	[0, 0, 0]	n/a	catFR1	0	R1422T
669.748	1.6	714414	WORD	n/a	wordpools/wordpool_categorized_EN.txt	BULL	FarmAnimals	5	6	[0, 0, 0]	n/a	catFR1	0	R1422T
671.348	0.9	716012	WORD_OFF	n/a	n/a	BULL	FarmAnimals	5	6	[0, 0, 0]	n/a	catFR1	0	R1422T
672.248	1.6	716912	WORD	n/a	wordpools/wordpool_categorized_EN.txt	CALF	FarmAnimals	6	6	[0, 0, 0]	n/a	catFR1	0	R1422T
673.848	1.0	718510	WORD_OFF	n/a	n/a	CALF	FarmAnimals	6	6	[0, 0, 0]	n/a	catFR1	0	R1422T
674.848	1.6	719511	WORD	n/a	wordpools/wordpool_categorized_EN.txt	RECLINER	Furniture	7	6	[0, 0, 0]	n/a	catFR1	0	R1422T
676.448	0.883	721110	WORD_OFF	n/a	n/a	RECLINER	Furniture	7	6	[0, 0, 0]	n/a	catFR1	0	R1422T
677.331	1.6	721991	WORD	n/a	wordpools/wordpool_categorized_EN.txt	TABLE	Furniture	8	6	[0, 0, 0]	n/a	catFR1	0	R1422T
678.931	0.983	723590	WORD_OFF	n/a	n/a	TABLE	Furniture	8	6	[0, 0, 0]	n/a	catFR1	0	R1422T
679.914	1.6	724572	WORD	n/a	wordpools/wordpool_categorized_EN.txt	THUNDERSTORM	Weather	9	6	[0, 0, 0]	n/a	catFR1	0	R1422T
681.514	0.95	726180	WORD_OFF	n/a	n/a	THUNDERSTORM	Weather	9	6	[0, 0, 0]	n/a	catFR1	0	R1422T
682.464	1.6	727126	WORD	n/a	wordpools/wordpool_categorized_EN.txt	RAIN	Weather	10	6	[0, 0, 0]	n/a	catFR1	0	R1422T
684.064	0.9	728724	WORD_OFF	n/a	n/a	RAIN	Weather	10	6	[0, 0, 0]	n/a	catFR1	0	R1422T
684.964	1.6	729624	WORD	n/a	wordpools/wordpool_categorized_EN.txt	GOAT	FarmAnimals	11	6	[0, 0, 0]	n/a	catFR1	0	R1422T
686.564	0.834	731222	WORD_OFF	n/a	n/a	GOAT	FarmAnimals	11	6	[0, 0, 0]	n/a	catFR1	0	R1422T
687.398	1.6	732058	WORD	n/a	wordpools/wordpool_categorized_EN.txt	COW	FarmAnimals	12	6	[0, 0, 0]	n/a	catFR1	0	R1422T
688.998	0.001	733657	WORD_OFF	n/a	n/a	COW	FarmAnimals	12	6	[0, 0, 0]	n/a	catFR1	0	R1422T
688.999	0.0	733657	ENCODING_END	n/a	n/a	n/a	n/a	-999	6	[0, 0, 0]	n/a	catFR1	0	R1422T
688.998	0.001	733659	PROB	4.85	n/a	n/a	n/a	-999	6	[6, 4, 3]	13.0	catFR1	0	R1422T
688.999	0.0	733660	START	n/a	n/a	n/a	n/a	-999	6	[-999, -999, -999]	n/a	catFR1	0	R1422T
688.999	4.866	733666	DISTRACT_START	n/a	n/a	n/a	n/a	-999	6	[0, 0, 0]	n/a	catFR1	0	R1422T
693.865	4.05	738525	PROB	4.033	n/a	n/a	n/a	-999	6	[5, 3, 4]	13.0	catFR1	0	R1422T
697.915	3.782	742575	PROB	3.766	n/a	n/a	n/a	-999	6	[3, 2, 5]	10.0	catFR1	0	R1422T
701.697	3.534	746357	PROB	3.517	n/a	n/a	n/a	-999	6	[3, 1, 4]	8.0	catFR1	0	R1422T
705.231	3.867	749891	PROB	3.849	n/a	n/a	n/a	-999	6	[7, 7, 2]	16.0	catFR1	0	R1422T
709.098	0.0	753754	DISTRACT_END	n/a	n/a	n/a	n/a	-999	6	[0, 0, 0]	n/a	catFR1	0	R1422T
709.098	2.033	753758	STOP	n/a	n/a	n/a	n/a	-999	6	[-999, -999, -999]	n/a	catFR1	0	R1422T
711.131	2.066	755792	REC_START	n/a	n/a	n/a	n/a	-999	6	[0, 0, 0]	n/a	catFR1	0	R1422T
713.197	1.548	757856	REC_WORD	2.066	n/a	THUNDERSTORM	Weather	9	6	[0, 0, 0]	n/a	catFR1	0	R1422T
714.745	2.05	759404	REC_WORD	3.614	n/a	TORNADO	Weather	1	6	[0, 0, 0]	n/a	catFR1	0	R1422T
716.795	6.027	761454	REC_WORD	5.664	n/a	GOAT	FarmAnimals	11	6	[0, 0, 0]	n/a	catFR1	0	R1422T
722.822	4.283	767481	REC_WORD	11.691	n/a	BOOKCASE	Furniture	3	6	[0, 0, 0]	n/a	catFR1	0	R1422T
727.105	9.949	771764	REC_WORD	15.974	n/a	RECLINER	Furniture	7	6	[0, 0, 0]	n/a	catFR1	0	R1422T
737.054	4.353	781712	REC_WORD	25.923	n/a	BOOKSHELF	n/a	-999	6	[0, 0, 0]	n/a	catFR1	0	R1422T
741.407	1.624	786067	REC_END	n/a	n/a	n/a	n/a	-999	6	[0, 0, 0]	n/a	catFR1	0	R1422T
743.031	10.35	787693	COUNTDOWN_START	n/a	n/a	n/a	n/a	-999	7	[0, 0, 0]	n/a	catFR1	0	R1422T
753.381	0.0	798035	COUNTDOWN_END	n/a	n/a	n/a	n/a	-999	7	[0, 0, 0]	n/a	catFR1	0	R1422T
753.381	2.167	798045	ENCODING_START	n/a	n/a	n/a	n/a	-999	7	[0, 0, 0]	n/a	catFR1	0	R1422T
755.548	1.6	800203	WORD	n/a	wordpools/wordpool_categorized_EN.txt	ANT	Insects	1	7	[0, 0, 0]	n/a	catFR1	0	R1422T
757.148	0.833	801801	WORD_OFF	n/a	n/a	ANT	Insects	1	7	[0, 0, 0]	n/a	catFR1	0	R1422T
757.981	1.6	802637	WORD	n/a	wordpools/wordpool_categorized_EN.txt	FLY	Insects	2	7	[0, 0, 0]	n/a	catFR1	0	R1422T
759.581	0.883	804235	WORD_OFF	n/a	n/a	FLY	Insects	2	7	[0, 0, 0]	n/a	catFR1	0	R1422T
760.464	1.6	805126	WORD	n/a	wordpools/wordpool_categorized_EN.txt	MOUNTAIN	Landscapes	3	7	[0, 0, 0]	n/a	catFR1	0	R1422T
762.064	0.933	806725	WORD_OFF	n/a	n/a	MOUNTAIN	Landscapes	3	7	[0, 0, 0]	n/a	catFR1	0	R1422T
762.997	1.6	807652	WORD	n/a	wordpools/wordpool_categorized_EN.txt	BEACH	Landscapes	4	7	[0, 0, 0]	n/a	catFR1	0	R1422T
764.597	0.85	809251	WORD_OFF	n/a	n/a	BEACH	Landscapes	4	7	[0, 0, 0]	n/a	catFR1	0	R1422T
765.447	1.6	810105	WORD	n/a	wordpools/wordpool_categorized_EN.txt	SHELF	Furniture	5	7	[0, 0, 0]	n/a	catFR1	0	R1422T
767.047	0.833	811703	WORD_OFF	n/a	n/a	SHELF	Furniture	5	7	[0, 0, 0]	n/a	catFR1	0	R1422T
767.88	1.618	812539	WORD	n/a	wordpools/wordpool_categorized_EN.txt	DESK	Furniture	6	7	[0, 0, 0]	n/a	catFR1	0	R1422T
769.498	0.966	814155	WORD_OFF	n/a	n/a	DESK	Furniture	6	7	[0, 0, 0]	n/a	catFR1	0	R1422T
770.464	1.6	815120	WORD	n/a	wordpools/wordpool_categorized_EN.txt	ISLAND	Landscapes	7	7	[0, 0, 0]	n/a	catFR1	0	R1422T
772.064	0.917	816718	WORD_OFF	n/a	n/a	ISLAND	Landscapes	7	7	[0, 0, 0]	n/a	catFR1	0	R1422T
772.981	1.6	817637	WORD	n/a	wordpools/wordpool_categorized_EN.txt	CREEK	Landscapes	8	7	[0, 0, 0]	n/a	catFR1	0	R1422T
774.581	0.802	819235	WORD_OFF	n/a	n/a	CREEK	Landscapes	8	7	[0, 0, 0]	n/a	catFR1	0	R1422T
775.383	1.615	820043	WORD	n/a	wordpools/wordpool_categorized_EN.txt	CABINET	Furniture	9	7	[0, 0, 0]	n/a	catFR1	0	R1422T
776.998	0.966	821651	WORD_OFF	n/a	n/a	CABINET	Furniture	9	7	[0, 0, 0]	n/a	catFR1	0	R1422T
777.964	1.617	822624	WORD	n/a	wordpools/wordpool_categorized_EN.txt	CHAIR	Furniture	10	7	[0, 0, 0]	n/a	catFR1	0	R1422T
779.581	0.883	824241	WORD_OFF	n/a	n/a	CHAIR	Furniture	10	7	[0, 0, 0]	n/a	catFR1	0	R1422T
780.464	1.616	825123	WORD	n/a	wordpools/wordpool_categorized_EN.txt	GNAT	Insects	11	7	[0, 0, 0]	n/a	catFR1	0	R1422T
782.08	0.884	826739	WORD_OFF	n/a	n/a	GNAT	Insects	11	7	[0, 0, 0]	n/a	catFR1	0	R1422T
782.964	1.6	827621	WORD	n/a	wordpools/wordpool_categorized_EN.txt	SPIDER	Insects	12	7	[0, 0, 0]	n/a	catFR1	0	R1422T
784.564	0.002	829219	WORD_OFF	n/a	n/a	SPIDER	Insects	12	7	[0, 0, 0]	n/a	catFR1	0	R1422T
784.566	0.0	829219	ENCODING_END	n/a	n/a	n/a	n/a	-999	7	[0, 0, 0]	n/a	catFR1	0	R1422T
784.566	0.0	829219	DISTRACT_START	n/a	n/a	n/a	n/a	-999	7	[0, 0, 0]	n/a	catFR1	0	R1422T
784.565	0.001	829221	PROB	5.366	n/a	n/a	n/a	-999	7	[3, 8, 3]	14.0	catFR1	0	R1422T
784.566	5.382	829222	START	n/a	n/a	n/a	n/a	-999	7	[-999, -999, -999]	n/a	catFR1	0	R1422T
789.948	4.684	834604	PROB	4.666	n/a	n/a	n/a	-999	7	[7, 7, 5]	19.0	catFR1	0	R1422T
794.632	4.482	839287	PROB	4.466	n/a	n/a	n/a	-999	7	[7, 6, 1]	14.0	catFR1	0	R1422T
799.114	3.718	843769	PROB	3.7	n/a	n/a	n/a	-999	7	[6, 1, 8]	15.0	catFR1	0	R1422T
802.832	2.932	847487	PROB	2.915	n/a	n/a	n/a	-999	7	[3, 8, 2]	13.0	catFR1	0	R1422T
805.764	0.0	850419	DISTRACT_END	n/a	n/a	n/a	n/a	-999	7	[0, 0, 0]	n/a	catFR1	0	R1422T
805.764	2.217	850419	STOP	n/a	n/a	n/a	n/a	-999	7	[-999, -999, -999]	n/a	catFR1	0	R1422T
807.981	1.488	852640	REC_START	n/a	n/a	n/a	n/a	-999	7	[0, 0, 0]	n/a	catFR1	0	R1422T
809.469	1.701	854124	REC_WORD	1.488	n/a	MOSQUITO	Insects	-999	7	[0, 0, 0]	n/a	catFR1	0	R1422T
811.17	1.775	855824	REC_WORD	3.189	n/a	GNAT	Insects	11	7	[0, 0, 0]	n/a	catFR1	0	R1422T
812.945	2.017	857599	REC_WORD	4.964	n/a	FLY	Insects	2	7	[0, 0, 0]	n/a	catFR1	0	R1422T
814.962	3.298	859616	REC_WORD	6.981	n/a	CABINET	Furniture	9	7	[0, 0, 0]	n/a	catFR1	0	R1422T
818.26	4.399	862914	REC_WORD	10.279	n/a	SHELF	Furniture	5	7	[0, 0, 0]	n/a	catFR1	0	R1422T
822.659	2.044	867313	REC_WORD	14.678	n/a	ISLAND	Landscapes	7	7	[0, 0, 0]	n/a	catFR1	0	R1422T
824.703	13.552	869357	REC_WORD	16.722	n/a	MOUNTAIN	Landscapes	3	7	[0, 0, 0]	n/a	catFR1	0	R1422T
838.255	2.143	882907	REC_END	n/a	n/a	n/a	n/a	-999	7	[0, 0, 0]	n/a	catFR1	0	R1422T
840.398	10.349	885056	COUNTDOWN_START	n/a	n/a	n/a	n/a	-999	8	[0, 0, 0]	n/a	catFR1	0	R1422T
850.747	0.0	895398	COUNTDOWN_END	n/a	n/a	n/a	n/a	-999	8	[0, 0, 0]	n/a	catFR1	0	R1422T
850.747	1.901	895398	ENCODING_START	n/a	n/a	n/a	n/a	-999	8	[0, 0, 0]	n/a	catFR1	0	R1422T
852.648	1.6	897300	WORD	n/a	wordpools/wordpool_categorized_EN.txt	ROACH	Insects	1	8	[0, 0, 0]	n/a	catFR1	0	R1422T
854.248	0.9	898898	WORD_OFF	n/a	n/a	ROACH	Insects	1	8	[0, 0, 0]	n/a	catFR1	0	R1422T
855.148	1.6	899798	WORD	n/a	wordpools/wordpool_categorized_EN.txt	MOTH	Insects	2	8	[0, 0, 0]	n/a	catFR1	0	R1422T
856.748	0.916	901396	WORD_OFF	n/a	n/a	MOTH	Insects	2	8	[0, 0, 0]	n/a	catFR1	0	R1422T
857.664	1.6	902315	WORD	n/a	wordpools/wordpool_categorized_EN.txt	ARM	BodyParts	3	8	[0, 0, 0]	n/a	catFR1	0	R1422T
859.264	0.9	903913	WORD_OFF	n/a	n/a	ARM	BodyParts	3	8	[0, 0, 0]	n/a	catFR1	0	R1422T
860.164	1.6	904813	WORD	n/a	wordpools/wordpool_categorized_EN.txt	LEG	BodyParts	4	8	[0, 0, 0]	n/a	catFR1	0	R1422T
861.764	0.95	906421	WORD_OFF	n/a	n/a	LEG	BodyParts	4	8	[0, 0, 0]	n/a	catFR1	0	R1422T
862.714	1.6	907367	WORD	n/a	wordpools/wordpool_categorized_EN.txt	POTATO	Vegetables	5	8	[0, 0, 0]	n/a	catFR1	0	R1422T
864.314	0.95	908965	WORD_OFF	n/a	n/a	POTATO	Vegetables	5	8	[0, 0, 0]	n/a	catFR1	0	R1422T
865.264	1.617	909920	WORD	n/a	wordpools/wordpool_categorized_EN.txt	SPINACH	Vegetables	6	8	[0, 0, 0]	n/a	catFR1	0	R1422T
866.881	0.782	911537	WORD_OFF	n/a	n/a	SPINACH	Vegetables	6	8	[0, 0, 0]	n/a	catFR1	0	R1422T
867.663	1.601	912317	WORD	n/a	wordpools/wordpool_categorized_EN.txt	BEE	Insects	7	8	[0, 0, 0]	n/a	catFR1	0	R1422T
869.264	0.783	913916	WORD_OFF	n/a	n/a	BEE	Insects	7	8	[0, 0, 0]	n/a	catFR1	0	R1422T
870.047	1.617	914696	WORD	n/a	wordpools/wordpool_categorized_EN.txt	LADYBUG	Insects	8	8	[0, 0, 0]	n/a	catFR1	0	R1422T
871.664	1.0	916313	WORD_OFF	n/a	n/a	LADYBUG	Insects	8	8	[0, 0, 0]	n/a	catFR1	0	R1422T
872.664	1.6	917314	WORD	n/a	wordpools/wordpool_categorized_EN.txt	EYE	BodyParts	9	8	[0, 0, 0]	n/a	catFR1	0	R1422T
874.264	0.817	918912	WORD_OFF	n/a	n/a	EYE	BodyParts	9	8	[0, 0, 0]	n/a	catFR1	0	R1422T
875.081	1.601	919730	WORD	n/a	wordpools/wordpool_categorized_EN.txt	ELBOW	BodyParts	10	8	[0, 0, 0]	n/a	catFR1	0	R1422T
876.682	0.932	921337	WORD_OFF	n/a	n/a	ELBOW	BodyParts	10	8	[0, 0, 0]	n/a	catFR1	0	R1422T
877.614	1.617	922265	WORD	n/a	wordpools/wordpool_categorized_EN.txt	CORN	Vegetables	11	8	[0, 0, 0]	n/a	catFR1	0	R1422T
879.231	0.9	923882	WORD_OFF	n/a	n/a	CORN	Vegetables	11	8	[0, 0, 0]	n/a	catFR1	0	R1422T
880.131	1.617	924782	WORD	n/a	wordpools/wordpool_categorized_EN.txt	ONION	Vegetables	12	8	[0, 0, 0]	n/a	catFR1	0	R1422T
881.748	0.001	926398	WORD_OFF	n/a	n/a	ONION	Vegetables	12	8	[0, 0, 0]	n/a	catFR1	0	R1422T
881.749	0.0	926398	ENCODING_END	n/a	n/a	n/a	n/a	-999	8	[0, 0, 0]	n/a	catFR1	0	R1422T
881.749	0.0	926398	DISTRACT_START	n/a	n/a	n/a	n/a	-999	8	[0, 0, 0]	n/a	catFR1	0	R1422T
881.748	0.001	926399	PROB	3.365	n/a	n/a	n/a	-999	8	[5, 2, 5]	12.0	catFR1	0	R1422T
881.749	3.383	926400	START	n/a	n/a	n/a	n/a	-999	8	[-999, -999, -999]	n/a	catFR1	0	R1422T
885.132	10.316	929783	PROB	10.299	n/a	n/a	n/a	-999	8	[8, 8, 8]	24.0	catFR1	0	R1422T
895.448	4.95	940098	PROB	4.933	n/a	n/a	n/a	-999	8	[5, 2, 3]	10.0	catFR1	0	R1422T
900.398	7.866	945048	PROB	7.849	n/a	n/a	n/a	-999	8	[4, 7, 2]	13.0	catFR1	0	R1422T
908.264	0.0	952914	STOP	n/a	n/a	n/a	n/a	-999	8	[-999, -999, -999]	n/a	catFR1	0	R1422T
908.264	2.383	952916	DISTRACT_END	n/a	n/a	n/a	n/a	-999	8	[0, 0, 0]	n/a	catFR1	0	R1422T
910.647	1.255	955294	REC_START	n/a	n/a	n/a	n/a	-999	8	[0, 0, 0]	n/a	catFR1	0	R1422T
911.902	1.821	956551	REC_WORD	1.255	n/a	LADYBUG	Insects	8	8	[0, 0, 0]	n/a	catFR1	0	R1422T
913.723	2.144	958372	REC_WORD	3.076	n/a	ONION	Vegetables	12	8	[0, 0, 0]	n/a	catFR1	0	R1422T
915.867	18.886	960516	REC_WORD	5.22	n/a	EYE	BodyParts	9	8	[0, 0, 0]	n/a	catFR1	0	R1422T
934.753	6.167	979401	REC_WORD	24.106	n/a	ELBOW	BodyParts	10	8	[0, 0, 0]	n/a	catFR1	0	R1422T
940.92	1.953	985569	REC_END	n/a	n/a	n/a	n/a	-999	8	[0, 0, 0]	n/a	catFR1	0	R1422T
942.873	10.342	987526	COUNTDOWN_START	n/a	n/a	n/a	n/a	-999	9	[0, 0, 0]	n/a	catFR1	0	R1422T
953.215	0.0	997859	COUNTDOWN_END	n/a	n/a	n/a	n/a	-999	9	[0, 0, 0]	n/a	catFR1	0	R1422T
953.215	1.933	997868	ENCODING_START	n/a	n/a	n/a	n/a	-999	9	[0, 0, 0]	n/a	catFR1	0	R1422T
955.148	1.6	999797	WORD	n/a	wordpools/wordpool_categorized_EN.txt	ROOM	Building	1	9	[0, 0, 0]	n/a	catFR1	0	R1422T
956.748	0.783	1001395	WORD_OFF	n/a	n/a	ROOM	Building	1	9	[0, 0, 0]	n/a	catFR1	0	R1422T
957.531	1.6	1002176	WORD	n/a	wordpools/wordpool_categorized_EN.txt	CEILING	Building	2	9	[0, 0, 0]	n/a	catFR1	0	R1422T
959.131	0.833	1003775	WORD_OFF	n/a	n/a	CEILING	Building	2	9	[0, 0, 0]	n/a	catFR1	0	R1422T
959.964	1.6	1004610	WORD	n/a	wordpools/wordpool_categorized_EN.txt	VACUUM	Appliances	3	9	[0, 0, 0]	n/a	catFR1	0	R1422T
961.564	0.8	1006208	WORD_OFF	n/a	n/a	VACUUM	Appliances	3	9	[0, 0, 0]	n/a	catFR1	0	R1422T
962.364	1.6	1007008	WORD	n/a	wordpools/wordpool_categorized_EN.txt	STOVE	Appliances	4	9	[0, 0, 0]	n/a	catFR1	0	R1422T
963.964	1.0	1008615	WORD_OFF	n/a	n/a	STOVE	Appliances	4	9	[0, 0, 0]	n/a	catFR1	0	R1422T
964.964	1.6	1009616	WORD	n/a	wordpools/wordpool_categorized_EN.txt	NOSE	BodyParts	5	9	[0, 0, 0]	n/a	catFR1	0	R1422T
966.564	0.95	1011214	WORD_OFF	n/a	n/a	NOSE	BodyParts	5	9	[0, 0, 0]	n/a	catFR1	0	R1422T
967.514	1.6	1012160	WORD	n/a	wordpools/wordpool_categorized_EN.txt	TOE	BodyParts	6	9	[0, 0, 0]	n/a	catFR1	0	R1422T
969.114	0.8	1013759	WORD_OFF	n/a	n/a	TOE	BodyParts	6	9	[0, 0, 0]	n/a	catFR1	0	R1422T
969.914	1.6	1014558	WORD	n/a	wordpools/wordpool_categorized_EN.txt	FLOOR	Building	7	9	[0, 0, 0]	n/a	catFR1	0	R1422T
971.514	0.967	1016165	WORD_OFF	n/a	n/a	FLOOR	Building	7	9	[0, 0, 0]	n/a	catFR1	0	R1422T
972.481	1.6	1017130	WORD	n/a	wordpools/wordpool_categorized_EN.txt	WALL	Building	8	9	[0, 0, 0]	n/a	catFR1	0	R1422T
974.081	0.783	1018728	WORD_OFF	n/a	n/a	WALL	Building	8	9	[0, 0, 0]	n/a	catFR1	0	R1422T
974.864	1.617	1019509	WORD	n/a	wordpools/wordpool_categorized_EN.txt	REFRIGERATOR	Appliances	9	9	[0, 0, 0]	n/a	catFR1	0	R1422T
976.481	0.767	1021125	WORD_OFF	n/a	n/a	REFRIGERATOR	Appliances	9	9	[0, 0, 0]	n/a	catFR1	0	R1422T
977.248	1.6	1021897	WORD	n/a	wordpools/wordpool_categorized_EN.txt	IRON	Appliances	10	9	[0, 0, 0]	n/a	catFR1	0	R1422T
978.848	0.883	1023495	WORD_OFF	n/a	n/a	IRON	Appliances	10	9	[0, 0, 0]	n/a	catFR1	0	R1422T
979.731	1.6	1024377	WORD	n/a	wordpools/wordpool_categorized_EN.txt	FINGERS	BodyParts	11	9	[0, 0, 0]	n/a	catFR1	0	R1422T
981.331	0.866	1025975	WORD_OFF	n/a	n/a	FINGERS	BodyParts	11	9	[0, 0, 0]	n/a	catFR1	0	R1422T
982.197	1.601	1026847	WORD	n/a	wordpools/wordpool_categorized_EN.txt	HEAD	BodyParts	12	9	[0, 0, 0]	n/a	catFR1	0	R1422T
983.798	0.001	1028444	PROB	7.499	n/a	n/a	n/a	-999	9	[6, 7, 3]	16.0	catFR1	0	R1422T
983.799	0.0	1028445	START	n/a	n/a	n/a	n/a	-999	9	[-999, -999, -999]	n/a	catFR1	0	R1422T
983.797	0.002	1028446	WORD_OFF	n/a	n/a	HEAD	BodyParts	12	9	[0, 0, 0]	n/a	catFR1	0	R1422T
983.799	0.0	1028446	ENCODING_END	n/a	n/a	n/a	n/a	-999	9	[0, 0, 0]	n/a	catFR1	0	R1422T
983.799	7.515	1028446	DISTRACT_START	n/a	n/a	n/a	n/a	-999	9	[0, 0, 0]	n/a	catFR1	0	R1422T
991.314	4.9	1035959	PROB	4.883	n/a	n/a	n/a	-999	9	[2, 5, 7]	14.0	catFR1	0	R1422T
996.214	2.283	1040859	PROB	2.266	n/a	n/a	n/a	-999	9	[7, 1, 8]	16.0	catFR1	0	R1422T
998.497	2.584	1043142	PROB	2.566	n/a	n/a	n/a	-999	9	[6, 2, 1]	9.0	catFR1	0	R1422T
1001.081	4.433	1045726	PROB	4.416	n/a	n/a	n/a	-999	9	[7, 5, 1]	13.0	catFR1	0	R1422T
1005.514	0.0	1050159	DISTRACT_END	n/a	n/a	n/a	n/a	-999	9	[0, 0, 0]	n/a	catFR1	0	R1422T
1005.514	2.399	1050159	STOP	n/a	n/a	n/a	n/a	-999	9	[-999, -999, -999]	n/a	catFR1	0	R1422T
1007.913	1.954	1052556	REC_START	n/a	n/a	n/a	n/a	-999	9	[0, 0, 0]	n/a	catFR1	0	R1422T
1009.867	1.727	1054511	REC_WORD	1.954	n/a	CEILING	Building	2	9	[0, 0, 0]	n/a	catFR1	0	R1422T
1011.594	4.191	1056238	REC_WORD	3.681	n/a	WALL	Building	8	9	[0, 0, 0]	n/a	catFR1	0	R1422T
1015.785	1.983	1060429	REC_WORD	7.872	n/a	VACUUM	Appliances	3	9	[0, 0, 0]	n/a	catFR1	0	R1422T
1017.768	20.417	1062412	REC_WORD	9.855	n/a	REFRIGERATOR	Appliances	9	9	[0, 0, 0]	n/a	catFR1	0	R1422T
1038.185	1.579	1082831	REC_END	n/a	n/a	n/a	n/a	-999	9	[0, 0, 0]	n/a	catFR1	0	R1422T
1039.764	10.351	1084411	COUNTDOWN_START	n/a	n/a	n/a	n/a	-999	10	[0, 0, 0]	n/a	catFR1	0	R1422T
1050.115	0.0	1094754	COUNTDOWN_END	n/a	n/a	n/a	n/a	-999	10	[0, 0, 0]	n/a	catFR1	0	R1422T
1050.115	2.216	1094763	ENCODING_START	n/a	n/a	n/a	n/a	-999	10	[0, 0, 0]	n/a	catFR1	0	R1422T
1052.331	1.617	1096976	WORD	n/a	wordpools/wordpool_categorized_EN.txt	COMPUTER	Electronics	1	10	[0, 0, 0]	n/a	catFR1	0	R1422T
1053.948	0.933	1098593	WORD_OFF	n/a	n/a	COMPUTER	Electronics	1	10	[0, 0, 0]	n/a	catFR1	0	R1422T
1054.881	1.6	1099521	WORD	n/a	wordpools/wordpool_categorized_EN.txt	HEADPHONES	Electronics	2	10	[0, 0, 0]	n/a	catFR1	0	R1422T
1056.481	0.899	1101128	WORD_OFF	n/a	n/a	HEADPHONES	Electronics	2	10	[0, 0, 0]	n/a	catFR1	0	R1422T
1057.38	1.601	1102019	WORD	n/a	wordpools/wordpool_categorized_EN.txt	ROOF	Building	3	10	[0, 0, 0]	n/a	catFR1	0	R1422T
1058.981	0.949	1103626	WORD_OFF	n/a	n/a	ROOF	Building	3	10	[0, 0, 0]	n/a	catFR1	0	R1422T
1059.93	1.601	1104572	WORD	n/a	wordpools/wordpool_categorized_EN.txt	STAIRS	Building	4	10	[0, 0, 0]	n/a	catFR1	0	R1422T
1061.531	0.849	1106171	WORD_OFF	n/a	n/a	STAIRS	Building	4	10	[0, 0, 0]	n/a	catFR1	0	R1422T
1062.38	1.601	1107025	WORD	n/a	wordpools/wordpool_categorized_EN.txt	PEAS	Vegetables	5	10	[0, 0, 0]	n/a	catFR1	0	R1422T
1063.981	0.833	1108623	WORD_OFF	n/a	n/a	PEAS	Vegetables	5	10	[0, 0, 0]	n/a	catFR1	0	R1422T
1064.814	1.6	1109459	WORD	n/a	wordpools/wordpool_categorized_EN.txt	LETTUCE	Vegetables	6	10	[0, 0, 0]	n/a	catFR1	0	R1422T
1066.414	0.95	1111057	WORD_OFF	n/a	n/a	LETTUCE	Vegetables	6	10	[0, 0, 0]	n/a	catFR1	0	R1422T
1067.364	1.6	1112003	WORD	n/a	wordpools/wordpool_categorized_EN.txt	SCANNER	Electronics	7	10	[0, 0, 0]	n/a	catFR1	0	R1422T
1068.964	0.833	1113611	WORD_OFF	n/a	n/a	SCANNER	Electronics	7	10	[0, 0, 0]	n/a	catFR1	0	R1422T
1069.797	1.601	1114437	WORD	n/a	wordpools/wordpool_categorized_EN.txt	TABLET	Electronics	8	10	[0, 0, 0]	n/a	catFR1	0	R1422T
1071.398	0.982	1116036	WORD_OFF	n/a	n/a	TABLET	Electronics	8	10	[0, 0, 0]	n/a	catFR1	0	R1422T
1072.38	1.601	1117018	WORD	n/a	wordpools/wordpool_categorized_EN.txt	CUCUMBER	Vegetables	9	10	[0, 0, 0]	n/a	catFR1	0	R1422T
1073.981	0.966	1118626	WORD_OFF	n/a	n/a	CUCUMBER	Vegetables	9	10	[0, 0, 0]	n/a	catFR1	0	R1422T
1074.947	1.6	1119590	WORD	n/a	wordpools/wordpool_categorized_EN.txt	CAULIFLOWER	Vegetables	10	10	[0, 0, 0]	n/a	catFR1	0	R1422T
1076.547	0.767	1121188	WORD_OFF	n/a	n/a	CAULIFLOWER	Vegetables	10	10	[0, 0, 0]	n/a	catFR1	0	R1422T
1077.314	1.617	1121951	WORD	n/a	wordpools/wordpool_categorized_EN.txt	DOOR	Building	11	10	[0, 0, 0]	n/a	catFR1	0	R1422T
1078.931	0.783	1123567	WORD_OFF	n/a	n/a	DOOR	Building	11	10	[0, 0, 0]	n/a	catFR1	0	R1422T
1079.714	1.6	1124357	WORD	n/a	wordpools/wordpool_categorized_EN.txt	WINDOW	Building	12	10	[0, 0, 0]	n/a	catFR1	0	R1422T
1081.314	0.0	1125955	PROB	5.883	n/a	n/a	n/a	-999	10	[7, 5, 7]	19.0	catFR1	0	R1422T
1081.314	0.002	1125956	WORD_OFF	n/a	n/a	WINDOW	Building	12	10	[0, 0, 0]	n/a	catFR1	0	R1422T
1081.316	0.0	1125956	ENCODING_END	n/a	n/a	n/a	n/a	-999	10	[0, 0, 0]	n/a	catFR1	0	R1422T
1081.316	0.0	1125956	DISTRACT_START	n/a	n/a	n/a	n/a	-999	10	[0, 0, 0]	n/a	catFR1	0	R1422T
1081.316	5.898	1125957	START	n/a	n/a	n/a	n/a	-999	10	[-999, -999, -999]	n/a	catFR1	0	R1422T
1087.214	4.884	1131854	PROB	4.866	n/a	n/a	n/a	-999	10	[2, 5, 6]	13.0	catFR1	0	R1422T
1092.098	5.183	1136738	PROB	5.166	n/a	n/a	n/a	-999	10	[3, 4, 6]	13.0	catFR1	0	R1422T
1097.281	9.466	1141921	PROB	9.45	n/a	n/a	n/a	-999	10	[8, 8, 6]	22.0	catFR1	0	R1422T
1106.747	0.0	1151386	STOP	n/a	n/a	n/a	n/a	-999	10	[-999, -999, -999]	n/a	catFR1	0	R1422T
1106.747	2.251	1151389	DISTRACT_END	n/a	n/a	n/a	n/a	-999	10	[0, 0, 0]	n/a	catFR1	0	R1422T
1108.998	1.774	1153639	REC_START	n/a	n/a	n/a	n/a	-999	10	[0, 0, 0]	n/a	catFR1	0	R1422T
1110.772	1.585	1155411	REC_WORD	1.774	n/a	CUCUMBER	Vegetables	9	10	[0, 0, 0]	n/a	catFR1	0	R1422T
1112.357	1.445	1156996	REC_WORD	3.359	n/a	PEAS	Vegetables	5	10	[0, 0, 0]	n/a	catFR1	0	R1422T
1113.802	2.161	1158441	REC_WORD	4.804	n/a	CAULIFLOWER	Vegetables	10	10	[0, 0, 0]	n/a	catFR1	0	R1422T
1115.963	1.594	1160602	REC_WORD	6.965	n/a	CEILING	Building	-999	10	[0, 0, 0]	n/a	catFR1	0	R1422T
1117.557	1.861	1162196	REC_WORD	8.559	n/a	FLOOR	Building	-999	10	[0, 0, 0]	n/a	catFR1	0	R1422T
1119.418	4.325	1164057	REC_WORD	10.42	n/a	WALL	Building	-999	10	[0, 0, 0]	n/a	catFR1	0	R1422T
1123.743	15.554	1168382	REC_WORD	14.745	n/a	WINDOW	Building	12	10	[0, 0, 0]	n/a	catFR1	0	R1422T
1139.297	1.601	1183932	REC_END	n/a	n/a	n/a	n/a	-999	10	[0, 0, 0]	n/a	catFR1	0	R1422T
1140.898	10.35	1185540	COUNTDOWN_START	n/a	n/a	n/a	n/a	-999	11	[0, 0, 0]	n/a	catFR1	0	R1422T
1151.248	0.0	1195882	COUNTDOWN_END	n/a	n/a	n/a	n/a	-999	11	[0, 0, 0]	n/a	catFR1	0	R1422T
1151.248	1.982	1195882	ENCODING_START	n/a	n/a	n/a	n/a	-999	11	[0, 0, 0]	n/a	catFR1	0	R1422T
1153.23	1.601	1197866	WORD	n/a	wordpools/wordpool_categorized_EN.txt	BLENDER	Appliances	1	11	[0, 0, 0]	n/a	catFR1	0	R1422T
1154.831	0.932	1199465	WORD_OFF	n/a	n/a	BLENDER	Appliances	1	11	[0, 0, 0]	n/a	catFR1	0	R1422T
1155.763	1.601	1200401	WORD	n/a	wordpools/wordpool_categorized_EN.txt	DRYER	Appliances	2	11	[0, 0, 0]	n/a	catFR1	0	R1422T
1157.364	0.917	1202000	WORD_OFF	n/a	n/a	DRYER	Appliances	2	11	[0, 0, 0]	n/a	catFR1	0	R1422T
1158.281	1.6	1202918	WORD	n/a	wordpools/wordpool_categorized_EN.txt	FOUNDATION	Building	3	11	[0, 0, 0]	n/a	catFR1	0	R1422T
1159.881	0.933	1204516	WORD_OFF	n/a	n/a	FOUNDATION	Building	3	11	[0, 0, 0]	n/a	catFR1	0	R1422T
1160.814	1.6	1205453	WORD	n/a	wordpools/wordpool_categorized_EN.txt	BATHROOM	Building	4	11	[0, 0, 0]	n/a	catFR1	0	R1422T
1162.414	0.933	1207052	WORD_OFF	n/a	n/a	BATHROOM	Building	4	11	[0, 0, 0]	n/a	catFR1	0	R1422T
1163.347	1.6	1207988	WORD	n/a	wordpools/wordpool_categorized_EN.txt	JACKET	Clothing	5	11	[0, 0, 0]	n/a	catFR1	0	R1422T
1164.947	0.9	1209587	WORD_OFF	n/a	n/a	JACKET	Clothing	5	11	[0, 0, 0]	n/a	catFR1	0	R1422T
1165.847	1.6	1210487	WORD	n/a	wordpools/wordpool_categorized_EN.txt	COAT	Clothing	6	11	[0, 0, 0]	n/a	catFR1	0	R1422T
1167.447	0.95	1212085	WORD_OFF	n/a	n/a	COAT	Clothing	6	11	[0, 0, 0]	n/a	catFR1	0	R1422T
1168.397	1.617	1213031	WORD	n/a	wordpools/wordpool_categorized_EN.txt	ATTIC	Building	7	11	[0, 0, 0]	n/a	catFR1	0	R1422T
1170.014	1.0	1214648	WORD_OFF	n/a	n/a	ATTIC	Building	7	11	[0, 0, 0]	n/a	catFR1	0	R1422T
1171.014	1.6	1215649	WORD	n/a	wordpools/wordpool_categorized_EN.txt	HALLWAY	Building	8	11	[0, 0, 0]	n/a	catFR1	0	R1422T
1172.614	0.95	1217247	WORD_OFF	n/a	n/a	HALLWAY	Building	8	11	[0, 0, 0]	n/a	catFR1	0	R1422T
1173.564	1.616	1218202	WORD	n/a	wordpools/wordpool_categorized_EN.txt	SHORTS	Clothing	9	11	[0, 0, 0]	n/a	catFR1	0	R1422T
1175.18	0.9	1219819	WORD_OFF	n/a	n/a	SHORTS	Clothing	9	11	[0, 0, 0]	n/a	catFR1	0	R1422T
1176.08	1.601	1220719	WORD	n/a	wordpools/wordpool_categorized_EN.txt	SHIRT	Clothing	10	11	[0, 0, 0]	n/a	catFR1	0	R1422T
1177.681	0.866	1222317	WORD_OFF	n/a	n/a	SHIRT	Clothing	10	11	[0, 0, 0]	n/a	catFR1	0	R1422T
1178.547	1.6	1223181	WORD	n/a	wordpools/wordpool_categorized_EN.txt	FREEZER	Appliances	11	11	[0, 0, 0]	n/a	catFR1	0	R1422T
1180.147	0.783	1224779	WORD_OFF	n/a	n/a	FREEZER	Appliances	11	11	[0, 0, 0]	n/a	catFR1	0	R1422T
1180.93	1.6	1225569	WORD	n/a	wordpools/wordpool_categorized_EN.txt	OVEN	Appliances	12	11	[0, 0, 0]	n/a	catFR1	0	R1422T
1182.53	0.002	1227167	WORD_OFF	n/a	n/a	OVEN	Appliances	12	11	[0, 0, 0]	n/a	catFR1	0	R1422T
1182.532	0.0	1227167	ENCODING_END	n/a	n/a	n/a	n/a	-999	11	[0, 0, 0]	n/a	catFR1	0	R1422T
1182.532	0.0	1227167	DISTRACT_START	n/a	n/a	n/a	n/a	-999	11	[0, 0, 0]	n/a	catFR1	0	R1422T
1182.531	0.001	1227167	PROB	3.666	n/a	n/a	n/a	-999	11	[7, 7, 1]	15.0	catFR1	0	R1422T
1182.532	3.682	1227168	START	n/a	n/a	n/a	n/a	-999	11	[-999, -999, -999]	n/a	catFR1	0	R1422T
1186.214	2.95	1230849	PROB	2.933	n/a	n/a	n/a	-999	11	[7, 4, 1]	12.0	catFR1	0	R1422T
1189.164	3.283	1233799	PROB	3.266	n/a	n/a	n/a	-999	11	[4, 2, 7]	13.0	catFR1	0	R1422T
1192.447	5.785	1237082	PROB	5.766	n/a	n/a	n/a	-999	11	[7, 3, 3]	13.0	catFR1	0	R1422T
1198.232	2.083	1242867	PROB	2.066	n/a	n/a	n/a	-999	11	[5, 3, 5]	13.0	catFR1	0	R1422T
1200.315	6.283	1244950	PROB	6.266	n/a	n/a	n/a	-999	11	[5, 8, 4]	17.0	catFR1	0	R1422T
1206.598	0.0	1251232	STOP	n/a	n/a	n/a	n/a	-999	11	[-999, -999, -999]	n/a	catFR1	0	R1422T
1206.598	2.3	1251241	DISTRACT_END	n/a	n/a	n/a	n/a	-999	11	[0, 0, 0]	n/a	catFR1	0	R1422T
1208.898	2.646	1253537	REC_START	n/a	n/a	n/a	n/a	-999	11	[0, 0, 0]	n/a	catFR1	0	R1422T
1211.544	2.292	1256178	REC_WORD	2.646	n/a	BLENDER	Appliances	1	11	[0, 0, 0]	n/a	catFR1	0	R1422T
1213.836	2.123	1258470	REC_WORD	4.938	n/a	BATHROOM	Building	4	11	[0, 0, 0]	n/a	catFR1	0	R1422T
1215.959	1.672	1260593	REC_WORD	7.061	n/a	COAT	Clothing	6	11	[0, 0, 0]	n/a	catFR1	0	R1422T
1217.631	1.503	1262265	REC_WORD	8.733	n/a	JACKET	Clothing	5	11	[0, 0, 0]	n/a	catFR1	0	R1422T
1219.134	2.863	1263768	REC_WORD	10.236	n/a	SHIRT	Clothing	10	11	[0, 0, 0]	n/a	catFR1	0	R1422T
1221.997	3.966	1266631	REC_WORD	13.099	n/a	ATTIC	Building	7	11	[0, 0, 0]	n/a	catFR1	0	R1422T
1225.963	3.692	1270596	REC_WORD	17.065	n/a	BLOWDRYER	n/a	-999	11	[0, 0, 0]	n/a	catFR1	0	R1422T
1229.655	9.517	1274288	REC_WORD	20.757	n/a	HALLWAY	Building	8	11	[0, 0, 0]	n/a	catFR1	0	R1422T
1239.172	3.359	1283803	REC_END	n/a	n/a	n/a	n/a	-999	11	[0, 0, 0]	n/a	catFR1	0	R1422T
1242.531	10.35	1287165	COUNTDOWN_START	n/a	n/a	n/a	n/a	-999	12	[0, 0, 0]	n/a	catFR1	0	R1422T
1252.881	0.001	1297516	COUNTDOWN_END	n/a	n/a	n/a	n/a	-999	12	[0, 0, 0]	n/a	catFR1	0	R1422T
1252.882	2.115	1297516	ENCODING_START	n/a	n/a	n/a	n/a	-999	12	[0, 0, 0]	n/a	catFR1	0	R1422T
1254.997	1.6	1299629	WORD	n/a	wordpools/wordpool_categorized_EN.txt	SHOES	Clothing	1	12	[0, 0, 0]	n/a	catFR1	0	R1422T
1256.597	0.867	1301227	WORD_OFF	n/a	n/a	SHOES	Clothing	1	12	[0, 0, 0]	n/a	catFR1	0	R1422T
1257.464	1.6	1302100	WORD	n/a	wordpools/wordpool_categorized_EN.txt	SOCKS	Clothing	2	12	[0, 0, 0]	n/a	catFR1	0	R1422T
1259.064	0.917	1303698	WORD_OFF	n/a	n/a	SOCKS	Clothing	2	12	[0, 0, 0]	n/a	catFR1	0	R1422T
1259.981	1.6	1304617	WORD	n/a	wordpools/wordpool_categorized_EN.txt	SOFA	Furniture	3	12	[0, 0, 0]	n/a	catFR1	0	R1422T
1261.581	0.883	1306215	WORD_OFF	n/a	n/a	SOFA	Furniture	3	12	[0, 0, 0]	n/a	catFR1	0	R1422T
1262.464	1.6	1307097	WORD	n/a	wordpools/wordpool_categorized_EN.txt	DRESSER	Furniture	4	12	[0, 0, 0]	n/a	catFR1	0	R1422T
1264.064	0.933	1308695	WORD_OFF	n/a	n/a	DRESSER	Furniture	4	12	[0, 0, 0]	n/a	catFR1	0	R1422T
1264.997	1.6	1309632	WORD	n/a	wordpools/wordpool_categorized_EN.txt	PRINTER	Electronics	5	12	[0, 0, 0]	n/a	catFR1	0	R1422T
1266.597	0.867	1311230	WORD_OFF	n/a	n/a	PRINTER	Electronics	5	12	[0, 0, 0]	n/a	catFR1	0	R1422T
1267.464	1.616	1312093	WORD	n/a	wordpools/wordpool_categorized_EN.txt	CALCULATOR	Electronics	6	12	[0, 0, 0]	n/a	catFR1	0	R1422T
1269.08	1.0	1313710	WORD_OFF	n/a	n/a	CALCULATOR	Electronics	6	12	[0, 0, 0]	n/a	catFR1	0	R1422T
1270.08	1.617	1314711	WORD	n/a	wordpools/wordpool_categorized_EN.txt	UNDERWEAR	Clothing	7	12	[0, 0, 0]	n/a	catFR1	0	R1422T
1271.697	0.766	1316328	WORD_OFF	n/a	n/a	UNDERWEAR	Clothing	7	12	[0, 0, 0]	n/a	catFR1	0	R1422T
1272.463	1.601	1317099	WORD	n/a	wordpools/wordpool_categorized_EN.txt	BLOUSE	Clothing	8	12	[0, 0, 0]	n/a	catFR1	0	R1422T
1274.064	0.866	1318697	WORD_OFF	n/a	n/a	BLOUSE	Clothing	8	12	[0, 0, 0]	n/a	catFR1	0	R1422T
1274.93	1.617	1319561	WORD	n/a	wordpools/wordpool_categorized_EN.txt	COUCH	Furniture	9	12	[0, 0, 0]	n/a	catFR1	0	R1422T
1276.547	0.783	1321177	WORD_OFF	n/a	n/a	COUCH	Furniture	9	12	[0, 0, 0]	n/a	catFR1	0	R1422T
1277.33	1.6	1321958	WORD	n/a	wordpools/wordpool_categorized_EN.txt	BED	Furniture	10	12	[0, 0, 0]	n/a	catFR1	0	R1422T
1278.93	0.783	1323566	WORD_OFF	n/a	n/a	BED	Furniture	10	12	[0, 0, 0]	n/a	catFR1	0	R1422T
1279.713	1.601	1324346	WORD	n/a	wordpools/wordpool_categorized_EN.txt	RADIO	Electronics	11	12	[0, 0, 0]	n/a	catFR1	0	R1422T
1281.314	0.999	1325944	WORD_OFF	n/a	n/a	RADIO	Electronics	11	12	[0, 0, 0]	n/a	catFR1	0	R1422T
1282.313	1.601	1326946	WORD	n/a	wordpools/wordpool_categorized_EN.txt	MICROWAVE	Electronics	12	12	[0, 0, 0]	n/a	catFR1	0	R1422T
1283.914	0.001	1328544	WORD_OFF	n/a	n/a	MICROWAVE	Electronics	12	12	[0, 0, 0]	n/a	catFR1	0	R1422T
1283.915	0.001	1328544	ENCODING_END	n/a	n/a	n/a	n/a	-999	12	[0, 0, 0]	n/a	catFR1	0	R1422T
1283.916	0.0	1328544	DISTRACT_START	n/a	n/a	n/a	n/a	-999	12	[0, 0, 0]	n/a	catFR1	0	R1422T
1283.914	0.002	1328544	PROB	6.95	n/a	n/a	n/a	-999	12	[4, 6, 5]	15.0	catFR1	0	R1422T
1283.916	6.965	1328546	START	n/a	n/a	n/a	n/a	-999	12	[-999, -999, -999]	n/a	catFR1	0	R1422T
1290.881	4.834	1335511	PROB	4.816	n/a	n/a	n/a	-999	12	[7, 1, 4]	12.0	catFR1	0	R1422T
1295.715	5.299	1340345	PROB	5.283	n/a	n/a	n/a	-999	12	[5, 1, 8]	14.0	catFR1	0	R1422T
1301.014	5.334	1345644	PROB	5.316	n/a	n/a	n/a	-999	12	[7, 4, 6]	17.0	catFR1	0	R1422T
1306.348	0.0	1350974	DISTRACT_END	n/a	n/a	n/a	n/a	-999	12	[0, 0, 0]	n/a	catFR1	0	R1422T
1306.348	2.3	1350977	STOP	n/a	n/a	n/a	n/a	-999	12	[-999, -999, -999]	n/a	catFR1	0	R1422T
1308.648	1.439	1353278	REC_START	n/a	n/a	n/a	n/a	-999	12	[0, 0, 0]	n/a	catFR1	0	R1422T
1310.087	1.536	1354716	REC_WORD	1.439	n/a	SOFA	Furniture	3	12	[0, 0, 0]	n/a	catFR1	0	R1422T
1311.623	2.049	1356252	REC_WORD	2.975	n/a	RADIO	Electronics	11	12	[0, 0, 0]	n/a	catFR1	0	R1422T
1313.672	1.411	1358301	REC_WORD	5.024	n/a	COUCH	Furniture	9	12	[0, 0, 0]	n/a	catFR1	0	R1422T
1315.083	3.524	1359712	REC_WORD	6.435	n/a	MICROWAVE	Electronics	12	12	[0, 0, 0]	n/a	catFR1	0	R1422T
1318.607	1.127	1363236	REC_WORD	9.959	n/a	SHOES	Clothing	1	12	[0, 0, 0]	n/a	catFR1	0	R1422T
1319.734	1.401	1364363	REC_WORD	11.086	n/a	SOCKS	Clothing	2	12	[0, 0, 0]	n/a	catFR1	0	R1422T
1321.135	15.937	1365764	REC_WORD	12.487	n/a	UNDERWEAR	Clothing	7	12	[0, 0, 0]	n/a	catFR1	0	R1422T
1337.072	1.84	1381700	REC_WORD	28.424	n/a	CABINET	Furniture	-999	12	[0, 0, 0]	n/a	catFR1	0	R1422T
1338.912	0.0	1383545	REC_END	n/a	n/a	n/a	n/a	-999	12	[0, 0, 0]	n/a	catFR1	0	R1422T
