onset	duration	sample	trial_type	response_time	stim_file	item_name	category	serialpos	list	test	answer	experiment	session	subject
0.0	164.899	427332	INSTRUCT_START	n/a	n/a	n/a	n/a	-999	-999	[0, 0, 0]	n/a	catFR1	1	R1468J
164.899	50.967	592223	INSTRUCT_END	n/a	n/a	n/a	n/a	-999	-999	[0, 0, 0]	n/a	catFR1	1	R1468J
215.866	10.0	643184	COUNTDOWN_START	n/a	n/a	n/a	n/a	-999	-999	[0, 0, 0]	n/a	catFR1	1	R1468J
226.215	0.0	653531	COUNTDOWN_END	n/a	n/a	n/a	n/a	-999	-999	[0, 0, 0]	n/a	catFR1	1	R1468J
226.215	1.984	653542	ENCODING_START	n/a	n/a	n/a	n/a	-999	-1	[0, 0, 0]	n/a	catFR1	1	R1468J
228.199	1.6	655515	WORD	n/a	n/a	WOODS	Landscapes	1	-1	[0, 0, 0]	n/a	catFR1	1	R1468J
229.815	0.851	657130	WORD_OFF	n/a	n/a	WOODS	Landscapes	1	-1	[0, 0, 0]	n/a	catFR1	1	R1468J
230.666	1.6	657983	WORD	n/a	n/a	OCEAN	Landscapes	2	-1	[0, 0, 0]	n/a	catFR1	1	R1468J
232.282	0.85	659598	WORD_OFF	n/a	n/a	OCEAN	Landscapes	2	-1	[0, 0, 0]	n/a	catFR1	1	R1468J
233.132	1.6	660452	WORD	n/a	n/a	THUNDERSTORM	Weather	3	-1	[0, 0, 0]	n/a	catFR1	1	R1468J
234.733	0.799	662055	WORD_OFF	n/a	n/a	THUNDERSTORM	Weather	3	-1	[0, 0, 0]	n/a	catFR1	1	R1468J
235.532	1.6	662851	WORD	n/a	n/a	FOG	Weather	4	-1	[0, 0, 0]	n/a	catFR1	1	R1468J
237.132	0.766	664454	WORD_OFF	n/a	n/a	FOG	Weather	4	-1	[0, 0, 0]	n/a	catFR1	1	R1468J
237.898	1.6	665216	WORD	n/a	n/a	OYSTER	OceanAnimals	5	-1	[0, 0, 0]	n/a	catFR1	1	R1468J
239.516	0.899	666831	WORD_OFF	n/a	n/a	OYSTER	OceanAnimals	5	-1	[0, 0, 0]	n/a	catFR1	1	R1468J
240.415	1.6	667730	WORD	n/a	n/a	PLANKTON	OceanAnimals	6	-1	[0, 0, 0]	n/a	catFR1	1	R1468J
242.032	0.816	669345	WORD_OFF	n/a	n/a	PLANKTON	OceanAnimals	6	-1	[0, 0, 0]	n/a	catFR1	1	R1468J
242.848	1.6	670164	WORD	n/a	n/a	STREAM	Landscapes	7	-1	[0, 0, 0]	n/a	catFR1	1	R1468J
244.448	0.984	671768	WORD_OFF	n/a	n/a	STREAM	Landscapes	7	-1	[0, 0, 0]	n/a	catFR1	1	R1468J
245.432	1.6	672748	WORD	n/a	n/a	VALLEY	Landscapes	8	-1	[0, 0, 0]	n/a	catFR1	1	R1468J
247.032	0.833	674351	WORD_OFF	n/a	n/a	VALLEY	Landscapes	8	-1	[0, 0, 0]	n/a	catFR1	1	R1468J
247.865	1.6	675182	WORD	n/a	n/a	HURRICANE	Weather	9	-1	[0, 0, 0]	n/a	catFR1	1	R1468J
249.465	0.817	676785	WORD_OFF	n/a	n/a	HURRICANE	Weather	9	-1	[0, 0, 0]	n/a	catFR1	1	R1468J
250.282	1.6	677604	WORD	n/a	n/a	LIGHTNING	Weather	10	-1	[0, 0, 0]	n/a	catFR1	1	R1468J
251.882	0.866	679196	WORD_OFF	n/a	n/a	LIGHTNING	Weather	10	-1	[0, 0, 0]	n/a	catFR1	1	R1468J
252.748	1.6	680061	WORD	n/a	n/a	SHRIMP	OceanAnimals	11	-1	[0, 0, 0]	n/a	catFR1	1	R1468J
254.348	0.967	681664	WORD_OFF	n/a	n/a	SHRIMP	OceanAnimals	11	-1	[0, 0, 0]	n/a	catFR1	1	R1468J
255.315	1.6	682633	WORD	n/a	n/a	TURTLE	OceanAnimals	12	-1	[0, 0, 0]	n/a	catFR1	1	R1468J
256.933	0.001	684248	WORD_OFF	n/a	n/a	TURTLE	OceanAnimals	12	-1	[0, 0, 0]	n/a	catFR1	1	R1468J
256.934	0.0	684248	ENCODING_END	n/a	n/a	n/a	n/a	-999	-1	[0, 0, 0]	n/a	catFR1	1	R1468J
256.933	0.001	684251	PROB	9.249	n/a	n/a	n/a	-999	-1	[5, 3, 7]	15.0	catFR1	1	R1468J
256.934	0.0	684252	START	n/a	n/a	n/a	n/a	-999	-1	[-999, -999, -999]	n/a	catFR1	1	R1468J
256.934	9.266	684260	DISTRACT_START	n/a	n/a	n/a	n/a	-999	-1	[0, 0, 0]	n/a	catFR1	1	R1468J
266.2	5.565	693518	PROB	5.549	n/a	n/a	n/a	-999	-1	[6, 7, 5]	18.0	catFR1	1	R1468J
271.765	4.068	699083	PROB	4.05	n/a	n/a	n/a	-999	-1	[3, 4, 4]	11.0	catFR1	1	R1468J
275.833	5.483	703151	PROB	5.466	n/a	n/a	n/a	-999	-1	[8, 5, 4]	17.0	catFR1	1	R1468J
281.316	0.0	708633	DISTRACT_END	n/a	n/a	n/a	n/a	-999	-1	[0, 0, 0]	n/a	catFR1	1	R1468J
281.316	2.25	708633	STOP	n/a	n/a	n/a	n/a	-999	-1	[-999, -999, -999]	n/a	catFR1	1	R1468J
283.566	30.216	710879	REC_START	n/a	n/a	n/a	n/a	-999	-1	[0, 0, 0]	n/a	catFR1	1	R1468J
313.782	34.767	741092	REC_END	n/a	n/a	n/a	n/a	-999	-1	[0, 0, 0]	n/a	catFR1	1	R1468J
348.549	10.0	775870	COUNTDOWN_START	n/a	n/a	n/a	n/a	-999	1	[0, 0, 0]	n/a	catFR1	1	R1468J
358.899	0.0	786217	COUNTDOWN_END	n/a	n/a	n/a	n/a	-999	1	[0, 0, 0]	n/a	catFR1	1	R1468J
358.899	2.133	786217	ENCODING_START	n/a	n/a	n/a	n/a	-999	1	[0, 0, 0]	n/a	catFR1	1	R1468J
361.032	1.6	788351	WORD	n/a	wordpools/wordpool_categorized_EN.txt	PENCIL	OfficeSupplies	1	1	[0, 0, 0]	n/a	catFR1	1	R1468J
362.632	0.966	789942	WORD_OFF	n/a	n/a	PENCIL	OfficeSupplies	1	1	[0, 0, 0]	n/a	catFR1	1	R1468J
363.598	1.6	790911	WORD	n/a	wordpools/wordpool_categorized_EN.txt	PAPER	OfficeSupplies	2	1	[0, 0, 0]	n/a	catFR1	1	R1468J
365.199	0.816	792515	WORD_OFF	n/a	n/a	PAPER	OfficeSupplies	2	1	[0, 0, 0]	n/a	catFR1	1	R1468J
366.015	1.6	793334	WORD	n/a	wordpools/wordpool_categorized_EN.txt	MOUNTAIN	Landscapes	3	1	[0, 0, 0]	n/a	catFR1	1	R1468J
367.632	0.984	794948	WORD_OFF	n/a	n/a	MOUNTAIN	Landscapes	3	1	[0, 0, 0]	n/a	catFR1	1	R1468J
368.616	1.6	795929	WORD	n/a	wordpools/wordpool_categorized_EN.txt	RIVER	Landscapes	4	1	[0, 0, 0]	n/a	catFR1	1	R1468J
370.216	0.816	797532	WORD_OFF	n/a	n/a	RIVER	Landscapes	4	1	[0, 0, 0]	n/a	catFR1	1	R1468J
371.032	1.6	798340	WORD	n/a	wordpools/wordpool_categorized_EN.txt	CABBAGE	Vegetables	5	1	[0, 0, 0]	n/a	catFR1	1	R1468J
372.632	0.833	799943	WORD_OFF	n/a	n/a	CABBAGE	Vegetables	5	1	[0, 0, 0]	n/a	catFR1	1	R1468J
373.465	1.6	800774	WORD	n/a	wordpools/wordpool_categorized_EN.txt	CORN	Vegetables	6	1	[0, 0, 0]	n/a	catFR1	1	R1468J
375.065	0.783	802377	WORD_OFF	n/a	n/a	CORN	Vegetables	6	1	[0, 0, 0]	n/a	catFR1	1	R1468J
375.848	1.6	803161	WORD	n/a	wordpools/wordpool_categorized_EN.txt	LAKE	Landscapes	7	1	[0, 0, 0]	n/a	catFR1	1	R1468J
377.449	0.949	804765	WORD_OFF	n/a	n/a	LAKE	Landscapes	7	1	[0, 0, 0]	n/a	catFR1	1	R1468J
378.398	1.6	805711	WORD	n/a	wordpools/wordpool_categorized_EN.txt	BEACH	Landscapes	8	1	[0, 0, 0]	n/a	catFR1	1	R1468J
379.999	0.85	807314	WORD_OFF	n/a	n/a	BEACH	Landscapes	8	1	[0, 0, 0]	n/a	catFR1	1	R1468J
380.849	1.6	808156	WORD	n/a	wordpools/wordpool_categorized_EN.txt	CAULIFLOWER	Vegetables	9	1	[0, 0, 0]	n/a	catFR1	1	R1468J
382.449	0.983	809759	WORD_OFF	n/a	n/a	CAULIFLOWER	Vegetables	9	1	[0, 0, 0]	n/a	catFR1	1	R1468J
383.432	1.6	810740	WORD	n/a	wordpools/wordpool_categorized_EN.txt	SPINACH	Vegetables	10	1	[0, 0, 0]	n/a	catFR1	1	R1468J
385.032	0.85	812343	WORD_OFF	n/a	n/a	SPINACH	Vegetables	10	1	[0, 0, 0]	n/a	catFR1	1	R1468J
385.882	1.6	813197	WORD	n/a	wordpools/wordpool_categorized_EN.txt	BINDER	OfficeSupplies	11	1	[0, 0, 0]	n/a	catFR1	1	R1468J
387.482	0.767	814800	WORD_OFF	n/a	n/a	BINDER	OfficeSupplies	11	1	[0, 0, 0]	n/a	catFR1	1	R1468J
388.249	1.6	815561	WORD	n/a	wordpools/wordpool_categorized_EN.txt	RULER	OfficeSupplies	12	1	[0, 0, 0]	n/a	catFR1	1	R1468J
389.865	0.001	817176	WORD_OFF	n/a	n/a	RULER	OfficeSupplies	12	1	[0, 0, 0]	n/a	catFR1	1	R1468J
389.866	0.0	817176	ENCODING_END	n/a	n/a	n/a	n/a	-999	1	[0, 0, 0]	n/a	catFR1	1	R1468J
389.866	0.0	817176	DISTRACT_START	n/a	n/a	n/a	n/a	-999	1	[0, 0, 0]	n/a	catFR1	1	R1468J
389.866	0.0	817179	START	n/a	n/a	n/a	n/a	-999	1	[-999, -999, -999]	n/a	catFR1	1	R1468J
389.866	6.984	817179	PROB	6.966	n/a	n/a	n/a	-999	1	[3, 7, 5]	15.0	catFR1	1	R1468J
396.85	4.616	824163	PROB	4.599	n/a	n/a	n/a	-999	1	[3, 6, 3]	12.0	catFR1	1	R1468J
401.466	5.6	828778	PROB	5.583	n/a	n/a	n/a	-999	1	[4, 8, 6]	18.0	catFR1	1	R1468J
407.066	3.649	834378	PROB	3.633	n/a	n/a	n/a	-999	1	[2, 3, 6]	11.0	catFR1	1	R1468J
410.715	0.0	838027	STOP	n/a	n/a	n/a	n/a	-999	1	[-999, -999, -999]	n/a	catFR1	1	R1468J
410.715	2.034	838031	DISTRACT_END	n/a	n/a	n/a	n/a	-999	1	[0, 0, 0]	n/a	catFR1	1	R1468J
412.749	2.187	840058	REC_START	n/a	n/a	n/a	n/a	-999	1	[0, 0, 0]	n/a	catFR1	1	R1468J
414.936	1.468	842248	REC_WORD	2.187	n/a	LAKE	Landscapes	7	1	[0, 0, 0]	n/a	catFR1	1	R1468J
416.404	1.942	843716	REC_WORD	3.655	n/a	OCEAN	Landscapes	-999	1	[0, 0, 0]	n/a	catFR1	1	R1468J
418.346	0.993	845658	REC_WORD	5.597	n/a	CAULIFLOWER	Vegetables	9	1	[0, 0, 0]	n/a	catFR1	1	R1468J
419.339	0.978	846651	REC_WORD	6.59	n/a	CABBAGE	Vegetables	5	1	[0, 0, 0]	n/a	catFR1	1	R1468J
420.317	1.0	847629	REC_WORD	7.568	n/a	SPINACH	Vegetables	10	1	[0, 0, 0]	n/a	catFR1	1	R1468J
421.317	1.395	848629	REC_WORD_VV	8.568	n/a	<>	n/a	-999	1	[0, 0, 0]	n/a	catFR1	1	R1468J
422.712	5.91	850024	REC_WORD	9.963	n/a	MOUNTAIN	Landscapes	3	1	[0, 0, 0]	n/a	catFR1	1	R1468J
428.622	6.929	855933	REC_WORD	15.873	n/a	LAKE	Landscapes	7	1	[0, 0, 0]	n/a	catFR1	1	R1468J
435.551	7.397	862862	REC_WORD	22.802	n/a	CORN	Vegetables	6	1	[0, 0, 0]	n/a	catFR1	1	R1468J
442.948	3.001	870260	REC_END	n/a	n/a	n/a	n/a	-999	1	[0, 0, 0]	n/a	catFR1	1	R1468J
445.949	10.0	873259	COUNTDOWN_START	n/a	n/a	n/a	n/a	-999	2	[0, 0, 0]	n/a	catFR1	1	R1468J
456.3	0.0	883606	COUNTDOWN_END	n/a	n/a	n/a	n/a	-999	2	[0, 0, 0]	n/a	catFR1	1	R1468J
456.3	2.132	883617	ENCODING_START	n/a	n/a	n/a	n/a	-999	2	[0, 0, 0]	n/a	catFR1	1	R1468J
458.432	1.6	885740	WORD	n/a	wordpools/wordpool_categorized_EN.txt	TIGER	Zoo	1	2	[0, 0, 0]	n/a	catFR1	1	R1468J
460.049	0.933	887354	WORD_OFF	n/a	n/a	TIGER	Zoo	1	2	[0, 0, 0]	n/a	catFR1	1	R1468J
460.982	1.6	888289	WORD	n/a	wordpools/wordpool_categorized_EN.txt	BEAR	Zoo	2	2	[0, 0, 0]	n/a	catFR1	1	R1468J
462.582	0.917	889892	WORD_OFF	n/a	n/a	BEAR	Zoo	2	2	[0, 0, 0]	n/a	catFR1	1	R1468J
463.499	1.6	890803	WORD	n/a	wordpools/wordpool_categorized_EN.txt	DOOR	Building	3	2	[0, 0, 0]	n/a	catFR1	1	R1468J
465.115	0.867	892430	WORD_OFF	n/a	n/a	DOOR	Building	3	2	[0, 0, 0]	n/a	catFR1	1	R1468J
465.982	1.6	893295	WORD	n/a	wordpools/wordpool_categorized_EN.txt	BATHROOM	Building	4	2	[0, 0, 0]	n/a	catFR1	1	R1468J
467.583	0.849	894887	WORD_OFF	n/a	n/a	BATHROOM	Building	4	2	[0, 0, 0]	n/a	catFR1	1	R1468J
468.432	1.6	895740	WORD	n/a	wordpools/wordpool_categorized_EN.txt	PEN	OfficeSupplies	5	2	[0, 0, 0]	n/a	catFR1	1	R1468J
470.049	0.9	897355	WORD_OFF	n/a	n/a	PEN	OfficeSupplies	5	2	[0, 0, 0]	n/a	catFR1	1	R1468J
470.949	1.6	898255	WORD	n/a	wordpools/wordpool_categorized_EN.txt	TAPE	OfficeSupplies	6	2	[0, 0, 0]	n/a	catFR1	1	R1468J
472.565	0.817	899870	WORD_OFF	n/a	n/a	TAPE	OfficeSupplies	6	2	[0, 0, 0]	n/a	catFR1	1	R1468J
473.382	1.6	900689	WORD	n/a	wordpools/wordpool_categorized_EN.txt	ZEBRA	Zoo	7	2	[0, 0, 0]	n/a	catFR1	1	R1468J
474.999	0.916	902304	WORD_OFF	n/a	n/a	ZEBRA	Zoo	7	2	[0, 0, 0]	n/a	catFR1	1	R1468J
475.915	1.6	903226	WORD	n/a	wordpools/wordpool_categorized_EN.txt	PANDA	Zoo	8	2	[0, 0, 0]	n/a	catFR1	1	R1468J
477.532	0.85	904841	WORD_OFF	n/a	n/a	PANDA	Zoo	8	2	[0, 0, 0]	n/a	catFR1	1	R1468J
478.382	1.6	905695	WORD	n/a	wordpools/wordpool_categorized_EN.txt	WINDOW	Building	9	2	[0, 0, 0]	n/a	catFR1	1	R1468J
479.999	0.85	907310	WORD_OFF	n/a	n/a	WINDOW	Building	9	2	[0, 0, 0]	n/a	catFR1	1	R1468J
480.849	1.6	908163	WORD	n/a	wordpools/wordpool_categorized_EN.txt	ATTIC	Building	10	2	[0, 0, 0]	n/a	catFR1	1	R1468J
482.465	0.934	909778	WORD_OFF	n/a	n/a	ATTIC	Building	10	2	[0, 0, 0]	n/a	catFR1	1	R1468J
483.399	1.6	910712	WORD	n/a	wordpools/wordpool_categorized_EN.txt	ERASER	OfficeSupplies	11	2	[0, 0, 0]	n/a	catFR1	1	R1468J
484.999	0.849	912304	WORD_OFF	n/a	n/a	ERASER	OfficeSupplies	11	2	[0, 0, 0]	n/a	catFR1	1	R1468J
485.848	1.6	913158	WORD	n/a	wordpools/wordpool_categorized_EN.txt	STAPLER	OfficeSupplies	12	2	[0, 0, 0]	n/a	catFR1	1	R1468J
487.449	0.001	914758	PROB	6.083	n/a	n/a	n/a	-999	2	[8, 5, 6]	19.0	catFR1	1	R1468J
487.45	0.0	914759	START	n/a	n/a	n/a	n/a	-999	2	[-999, -999, -999]	n/a	catFR1	1	R1468J
487.449	0.001	914761	WORD_OFF	n/a	n/a	STAPLER	OfficeSupplies	12	2	[0, 0, 0]	n/a	catFR1	1	R1468J
487.45	0.0	914761	ENCODING_END	n/a	n/a	n/a	n/a	-999	2	[0, 0, 0]	n/a	catFR1	1	R1468J
487.45	6.099	914761	DISTRACT_START	n/a	n/a	n/a	n/a	-999	2	[0, 0, 0]	n/a	catFR1	1	R1468J
493.549	5.317	920858	PROB	5.3	n/a	n/a	n/a	-999	2	[2, 6, 7]	15.0	catFR1	1	R1468J
498.866	4.733	926174	PROB	4.716	n/a	n/a	n/a	-999	2	[8, 5, 5]	18.0	catFR1	1	R1468J
503.599	3.65	930907	PROB	3.633	n/a	n/a	n/a	-999	2	[8, 2, 7]	17.0	catFR1	1	R1468J
507.249	4.333	934557	PROB	4.316	n/a	n/a	n/a	-999	2	[1, 7, 4]	12.0	catFR1	1	R1468J
511.582	0.0	938890	STOP	n/a	n/a	n/a	n/a	-999	2	[-999, -999, -999]	n/a	catFR1	1	R1468J
511.582	2.333	938892	DISTRACT_END	n/a	n/a	n/a	n/a	-999	2	[0, 0, 0]	n/a	catFR1	1	R1468J
513.915	3.904	941219	REC_START	n/a	n/a	n/a	n/a	-999	2	[0, 0, 0]	n/a	catFR1	1	R1468J
517.819	2.985	945127	REC_WORD	3.904	n/a	TIGER	Zoo	1	2	[0, 0, 0]	n/a	catFR1	1	R1468J
520.804	5.224	948112	REC_WORD	6.889	n/a	WINDOW	Building	9	2	[0, 0, 0]	n/a	catFR1	1	R1468J
526.028	1.997	953335	REC_WORD	12.113	n/a	WINDOW	Building	9	2	[0, 0, 0]	n/a	catFR1	1	R1468J
528.025	6.372	955332	REC_WORD	14.11	n/a	CLUE	n/a	-999	2	[0, 0, 0]	n/a	catFR1	1	R1468J
534.397	9.725	961704	REC_WORD	20.482	n/a	PENCIL	OfficeSupplies	-999	2	[0, 0, 0]	n/a	catFR1	1	R1468J
544.122	2.827	971432	REC_END	n/a	n/a	n/a	n/a	-999	2	[0, 0, 0]	n/a	catFR1	1	R1468J
546.949	10.0	974258	COUNTDOWN_START	n/a	n/a	n/a	n/a	-999	3	[0, 0, 0]	n/a	catFR1	1	R1468J
557.299	0.0	984605	COUNTDOWN_END	n/a	n/a	n/a	n/a	-999	3	[0, 0, 0]	n/a	catFR1	1	R1468J
557.299	2.233	984605	ENCODING_START	n/a	n/a	n/a	n/a	-999	3	[0, 0, 0]	n/a	catFR1	1	R1468J
559.532	1.6	986843	WORD	n/a	wordpools/wordpool_categorized_EN.txt	STOVE	Appliances	1	3	[0, 0, 0]	n/a	catFR1	1	R1468J
561.132	0.8	988434	WORD_OFF	n/a	n/a	STOVE	Appliances	1	3	[0, 0, 0]	n/a	catFR1	1	R1468J
561.932	1.6	989242	WORD	n/a	wordpools/wordpool_categorized_EN.txt	VACUUM	Appliances	2	3	[0, 0, 0]	n/a	catFR1	1	R1468J
563.532	0.967	990834	WORD_OFF	n/a	n/a	VACUUM	Appliances	2	3	[0, 0, 0]	n/a	catFR1	1	R1468J
564.499	1.6	991803	WORD	n/a	wordpools/wordpool_categorized_EN.txt	RUM	Beverages	3	3	[0, 0, 0]	n/a	catFR1	1	R1468J
566.115	0.884	993418	WORD_OFF	n/a	n/a	RUM	Beverages	3	3	[0, 0, 0]	n/a	catFR1	1	R1468J
566.999	1.6	994306	WORD	n/a	wordpools/wordpool_categorized_EN.txt	WATER	Beverages	4	3	[0, 0, 0]	n/a	catFR1	1	R1468J
568.615	0.817	995921	WORD_OFF	n/a	n/a	WATER	Beverages	4	3	[0, 0, 0]	n/a	catFR1	1	R1468J
569.432	1.6	996740	WORD	n/a	wordpools/wordpool_categorized_EN.txt	JEEP	Vehicles	5	3	[0, 0, 0]	n/a	catFR1	1	R1468J
571.032	0.967	998331	WORD_OFF	n/a	n/a	JEEP	Vehicles	5	3	[0, 0, 0]	n/a	catFR1	1	R1468J
571.999	1.6	999300	WORD	n/a	wordpools/wordpool_categorized_EN.txt	CAR	Vehicles	6	3	[0, 0, 0]	n/a	catFR1	1	R1468J
573.599	0.85	1000904	WORD_OFF	n/a	n/a	CAR	Vehicles	6	3	[0, 0, 0]	n/a	catFR1	1	R1468J
574.449	1.6	1001757	WORD	n/a	wordpools/wordpool_categorized_EN.txt	DRYER	Appliances	7	3	[0, 0, 0]	n/a	catFR1	1	R1468J
576.049	0.966	1003349	WORD_OFF	n/a	n/a	DRYER	Appliances	7	3	[0, 0, 0]	n/a	catFR1	1	R1468J
577.015	1.6	1004318	WORD	n/a	wordpools/wordpool_categorized_EN.txt	OVEN	Appliances	8	3	[0, 0, 0]	n/a	catFR1	1	R1468J
578.632	1.0	1005933	WORD_OFF	n/a	n/a	OVEN	Appliances	8	3	[0, 0, 0]	n/a	catFR1	1	R1468J
579.632	1.6	1006936	WORD	n/a	wordpools/wordpool_categorized_EN.txt	BIKE	Vehicles	9	3	[0, 0, 0]	n/a	catFR1	1	R1468J
581.232	0.901	1008540	WORD_OFF	n/a	n/a	BIKE	Vehicles	9	3	[0, 0, 0]	n/a	catFR1	1	R1468J
582.133	1.6	1009440	WORD	n/a	wordpools/wordpool_categorized_EN.txt	PLANE	Vehicles	10	3	[0, 0, 0]	n/a	catFR1	1	R1468J
583.749	0.85	1011054	WORD_OFF	n/a	n/a	PLANE	Vehicles	10	3	[0, 0, 0]	n/a	catFR1	1	R1468J
584.599	1.6	1011908	WORD	n/a	wordpools/wordpool_categorized_EN.txt	JUICE	Beverages	11	3	[0, 0, 0]	n/a	catFR1	1	R1468J
586.216	0.866	1013523	WORD_OFF	n/a	n/a	JUICE	Beverages	11	3	[0, 0, 0]	n/a	catFR1	1	R1468J
587.082	1.6	1014388	WORD	n/a	wordpools/wordpool_categorized_EN.txt	CIDER	Beverages	12	3	[0, 0, 0]	n/a	catFR1	1	R1468J
588.682	0.002	1015987	PROB	3.783	n/a	n/a	n/a	-999	3	[5, 6, 5]	16.0	catFR1	1	R1468J
588.684	0.0	1015989	START	n/a	n/a	n/a	n/a	-999	3	[-999, -999, -999]	n/a	catFR1	1	R1468J
588.682	0.002	1015991	WORD_OFF	n/a	n/a	CIDER	Beverages	12	3	[0, 0, 0]	n/a	catFR1	1	R1468J
588.684	0.0	1015991	ENCODING_END	n/a	n/a	n/a	n/a	-999	3	[0, 0, 0]	n/a	catFR1	1	R1468J
588.684	3.799	1015991	DISTRACT_START	n/a	n/a	n/a	n/a	-999	3	[0, 0, 0]	n/a	catFR1	1	R1468J
592.483	10.301	1019788	PROB	10.282	n/a	n/a	n/a	-999	3	[2, 1, 8]	12.0	catFR1	1	R1468J
602.784	9.015	1030088	PROB	8.999	n/a	n/a	n/a	-999	3	[8, 7, 7]	22.0	catFR1	1	R1468J
611.799	0.0	1039103	STOP	n/a	n/a	n/a	n/a	-999	3	[-999, -999, -999]	n/a	catFR1	1	R1468J
611.799	2.166	1039107	DISTRACT_END	n/a	n/a	n/a	n/a	-999	3	[0, 0, 0]	n/a	catFR1	1	R1468J
613.965	1.555	1041272	REC_START	n/a	n/a	n/a	n/a	-999	3	[0, 0, 0]	n/a	catFR1	1	R1468J
615.52	0.888	1042824	REC_WORD_VV	1.555	n/a	<>	n/a	-999	3	[0, 0, 0]	n/a	catFR1	1	R1468J
616.408	6.016	1043712	REC_WORD	2.443	n/a	STOVE	Appliances	1	3	[0, 0, 0]	n/a	catFR1	1	R1468J
622.424	0.765	1049727	REC_WORD	8.459	n/a	PIANO	n/a	-999	3	[0, 0, 0]	n/a	catFR1	1	R1468J
623.189	10.511	1050492	REC_WORD	9.224	n/a	DOOR	Building	-999	3	[0, 0, 0]	n/a	catFR1	1	R1468J
633.7	10.483	1061003	REC_WORD	19.735	n/a	BIKE	Vehicles	9	3	[0, 0, 0]	n/a	catFR1	1	R1468J
644.183	2.182	1071486	REC_END	n/a	n/a	n/a	n/a	-999	3	[0, 0, 0]	n/a	catFR1	1	R1468J
646.365	10.0	1073666	COUNTDOWN_START	n/a	n/a	n/a	n/a	-999	4	[0, 0, 0]	n/a	catFR1	1	R1468J
656.721	0.0	1084024	COUNTDOWN_END	n/a	n/a	n/a	n/a	-999	4	[0, 0, 0]	n/a	catFR1	1	R1468J
656.721	2.211	1084024	ENCODING_START	n/a	n/a	n/a	n/a	-999	4	[0, 0, 0]	n/a	catFR1	1	R1468J
658.932	1.6	1086227	WORD	n/a	wordpools/wordpool_categorized_EN.txt	TROMBONE	Instruments	1	4	[0, 0, 0]	n/a	catFR1	1	R1468J
660.532	0.9	1087830	WORD_OFF	n/a	n/a	TROMBONE	Instruments	1	4	[0, 0, 0]	n/a	catFR1	1	R1468J
661.432	1.6	1088730	WORD	n/a	wordpools/wordpool_categorized_EN.txt	BANJO	Instruments	2	4	[0, 0, 0]	n/a	catFR1	1	R1468J
663.032	0.833	1090334	WORD_OFF	n/a	n/a	BANJO	Instruments	2	4	[0, 0, 0]	n/a	catFR1	1	R1468J
663.865	1.6	1091164	WORD	n/a	wordpools/wordpool_categorized_EN.txt	VIOLET	Flowers	3	4	[0, 0, 0]	n/a	catFR1	1	R1468J
665.465	0.8	1092767	WORD_OFF	n/a	n/a	VIOLET	Flowers	3	4	[0, 0, 0]	n/a	catFR1	1	R1468J
666.265	1.6	1093563	WORD	n/a	wordpools/wordpool_categorized_EN.txt	TULIP	Flowers	4	4	[0, 0, 0]	n/a	catFR1	1	R1468J
667.865	0.851	1095167	WORD_OFF	n/a	n/a	TULIP	Flowers	4	4	[0, 0, 0]	n/a	catFR1	1	R1468J
668.716	1.6	1096020	WORD	n/a	wordpools/wordpool_categorized_EN.txt	MOTH	Insects	5	4	[0, 0, 0]	n/a	catFR1	1	R1468J
670.316	0.933	1097612	WORD_OFF	n/a	n/a	MOTH	Insects	5	4	[0, 0, 0]	n/a	catFR1	1	R1468J
671.249	1.6	1098546	WORD	n/a	wordpools/wordpool_categorized_EN.txt	ANT	Insects	6	4	[0, 0, 0]	n/a	catFR1	1	R1468J
672.854	0.833	1100150	WORD_OFF	n/a	n/a	ANT	Insects	6	4	[0, 0, 0]	n/a	catFR1	1	R1468J
673.687	1.6	1100992	WORD	n/a	wordpools/wordpool_categorized_EN.txt	ORCHID	Flowers	7	4	[0, 0, 0]	n/a	catFR1	1	R1468J
675.304	0.983	1102607	WORD_OFF	n/a	n/a	ORCHID	Flowers	7	4	[0, 0, 0]	n/a	catFR1	1	R1468J
676.287	1.6	1103587	WORD	n/a	wordpools/wordpool_categorized_EN.txt	SUNFLOWER	Flowers	8	4	[0, 0, 0]	n/a	catFR1	1	R1468J
677.903	0.868	1105202	WORD_OFF	n/a	n/a	SUNFLOWER	Flowers	8	4	[0, 0, 0]	n/a	catFR1	1	R1468J
678.771	1.6	1106067	WORD	n/a	wordpools/wordpool_categorized_EN.txt	GNAT	Insects	9	4	[0, 0, 0]	n/a	catFR1	1	R1468J
680.387	0.928	1107694	WORD_OFF	n/a	n/a	GNAT	Insects	9	4	[0, 0, 0]	n/a	catFR1	1	R1468J
681.315	1.6	1108616	WORD	n/a	wordpools/wordpool_categorized_EN.txt	FLY	Insects	10	4	[0, 0, 0]	n/a	catFR1	1	R1468J
682.915	0.901	1110220	WORD_OFF	n/a	n/a	FLY	Insects	10	4	[0, 0, 0]	n/a	catFR1	1	R1468J
683.816	1.6	1111119	WORD	n/a	wordpools/wordpool_categorized_EN.txt	CELLO	Instruments	11	4	[0, 0, 0]	n/a	catFR1	1	R1468J
685.432	0.934	1112734	WORD_OFF	n/a	n/a	CELLO	Instruments	11	4	[0, 0, 0]	n/a	catFR1	1	R1468J
686.366	1.6	1113669	WORD	n/a	wordpools/wordpool_categorized_EN.txt	PIANO	Instruments	12	4	[0, 0, 0]	n/a	catFR1	1	R1468J
687.966	0.0	1115260	WORD_OFF	n/a	n/a	PIANO	Instruments	12	4	[0, 0, 0]	n/a	catFR1	1	R1468J
687.966	0.001	1115267	PROB	3.916	n/a	n/a	n/a	-999	4	[8, 2, 5]	15.0	catFR1	1	R1468J
687.967	0.0	1115268	START	n/a	n/a	n/a	n/a	-999	4	[-999, -999, -999]	n/a	catFR1	1	R1468J
687.967	0.0	1115272	ENCODING_END	n/a	n/a	n/a	n/a	-999	4	[0, 0, 0]	n/a	catFR1	1	R1468J
687.967	3.935	1115272	DISTRACT_START	n/a	n/a	n/a	n/a	-999	4	[0, 0, 0]	n/a	catFR1	1	R1468J
691.902	4.449	1119203	PROB	4.435	n/a	n/a	n/a	-999	4	[8, 1, 1]	10.0	catFR1	1	R1468J
696.351	5.482	1123651	PROB	5.464	n/a	n/a	n/a	-999	4	[6, 7, 6]	23.0	catFR1	1	R1468J
701.833	5.152	1129133	PROB	5.133	n/a	n/a	n/a	-999	4	[8, 1, 7]	16.0	catFR1	1	R1468J
706.985	2.619	1134285	PROB	2.603	n/a	n/a	n/a	-999	4	[1, 1, 2]	4.0	catFR1	1	R1468J
709.604	0.0	1136900	DISTRACT_END	n/a	n/a	n/a	n/a	-999	4	[0, 0, 0]	n/a	catFR1	1	R1468J
709.604	2.066	1136904	STOP	n/a	n/a	n/a	n/a	-999	4	[-999, -999, -999]	n/a	catFR1	1	R1468J
711.67	1.141	1138973	REC_START	n/a	n/a	n/a	n/a	-999	4	[0, 0, 0]	n/a	catFR1	1	R1468J
712.811	1.156	1140111	REC_WORD	1.141	n/a	GNAT	Insects	9	4	[0, 0, 0]	n/a	catFR1	1	R1468J
713.967	2.045	1141267	REC_WORD	2.297	n/a	TROMBONE	Instruments	1	4	[0, 0, 0]	n/a	catFR1	1	R1468J
716.012	2.651	1143312	REC_WORD	4.342	n/a	VIOLET	Flowers	3	4	[0, 0, 0]	n/a	catFR1	1	R1468J
718.663	0.639	1145963	REC_WORD_VV	6.993	n/a	<>	n/a	-999	4	[0, 0, 0]	n/a	catFR1	1	R1468J
719.302	0.842	1146602	REC_WORD	7.632	n/a	CELLO	Instruments	11	4	[0, 0, 0]	n/a	catFR1	1	R1468J
720.144	6.5	1147444	REC_WORD	8.474	n/a	PIANO	Instruments	12	4	[0, 0, 0]	n/a	catFR1	1	R1468J
726.644	5.275	1153943	REC_WORD	14.974	n/a	MOSQUITO	n/a	-999	4	[0, 0, 0]	n/a	catFR1	1	R1468J
731.919	10.635	1159218	REC_WORD	20.249	n/a	ORCHID	Flowers	7	4	[0, 0, 0]	n/a	catFR1	1	R1468J
742.554	2.261	1169855	REC_END	n/a	n/a	n/a	n/a	-999	4	[0, 0, 0]	n/a	catFR1	1	R1468J
744.815	10.0	1172116	COUNTDOWN_START	n/a	n/a	n/a	n/a	-999	5	[0, 0, 0]	n/a	catFR1	1	R1468J
755.171	0.0	1182474	COUNTDOWN_END	n/a	n/a	n/a	n/a	-999	5	[0, 0, 0]	n/a	catFR1	1	R1468J
755.171	2.016	1182474	ENCODING_START	n/a	n/a	n/a	n/a	-999	5	[0, 0, 0]	n/a	catFR1	1	R1468J
757.187	1.6	1184481	WORD	n/a	wordpools/wordpool_categorized_EN.txt	MIXER	Appliances	1	5	[0, 0, 0]	n/a	catFR1	1	R1468J
758.788	0.949	1186085	WORD_OFF	n/a	n/a	MIXER	Appliances	1	5	[0, 0, 0]	n/a	catFR1	1	R1468J
759.737	1.6	1187030	WORD	n/a	wordpools/wordpool_categorized_EN.txt	FREEZER	Appliances	2	5	[0, 0, 0]	n/a	catFR1	1	R1468J
761.353	0.917	1188657	WORD_OFF	n/a	n/a	FREEZER	Appliances	2	5	[0, 0, 0]	n/a	catFR1	1	R1468J
762.27	1.6	1189568	WORD	n/a	wordpools/wordpool_categorized_EN.txt	BLOUSE	Clothing	3	5	[0, 0, 0]	n/a	catFR1	1	R1468J
763.882	0.883	1191183	WORD_OFF	n/a	n/a	BLOUSE	Clothing	3	5	[0, 0, 0]	n/a	catFR1	1	R1468J
764.765	1.6	1192060	WORD	n/a	wordpools/wordpool_categorized_EN.txt	SHORTS	Clothing	4	5	[0, 0, 0]	n/a	catFR1	1	R1468J
766.365	0.889	1193663	WORD_OFF	n/a	n/a	SHORTS	Clothing	4	5	[0, 0, 0]	n/a	catFR1	1	R1468J
767.254	1.6	1194551	WORD	n/a	wordpools/wordpool_categorized_EN.txt	LEMONADE	Beverages	5	5	[0, 0, 0]	n/a	catFR1	1	R1468J
768.87	1.0	1196166	WORD_OFF	n/a	n/a	LEMONADE	Beverages	5	5	[0, 0, 0]	n/a	catFR1	1	R1468J
769.87	1.6	1197170	WORD	n/a	wordpools/wordpool_categorized_EN.txt	COLA	Beverages	6	5	[0, 0, 0]	n/a	catFR1	1	R1468J
771.471	0.783	1198773	WORD_OFF	n/a	n/a	COLA	Beverages	6	5	[0, 0, 0]	n/a	catFR1	1	R1468J
772.254	1.6	1199546	WORD	n/a	wordpools/wordpool_categorized_EN.txt	WASHER	Appliances	7	5	[0, 0, 0]	n/a	catFR1	1	R1468J
773.87	0.767	1201172	WORD_OFF	n/a	n/a	WASHER	Appliances	7	5	[0, 0, 0]	n/a	catFR1	1	R1468J
774.637	1.6	1201933	WORD	n/a	wordpools/wordpool_categorized_EN.txt	TOASTER	Appliances	8	5	[0, 0, 0]	n/a	catFR1	1	R1468J
776.237	0.9	1203537	WORD_OFF	n/a	n/a	TOASTER	Appliances	8	5	[0, 0, 0]	n/a	catFR1	1	R1468J
777.137	1.6	1204437	WORD	n/a	wordpools/wordpool_categorized_EN.txt	COFFEE	Beverages	9	5	[0, 0, 0]	n/a	catFR1	1	R1468J
778.749	0.833	1206040	WORD_OFF	n/a	n/a	COFFEE	Beverages	9	5	[0, 0, 0]	n/a	catFR1	1	R1468J
779.582	1.6	1206882	WORD	n/a	wordpools/wordpool_categorized_EN.txt	WINE	Beverages	10	5	[0, 0, 0]	n/a	catFR1	1	R1468J
781.182	0.971	1208474	WORD_OFF	n/a	n/a	WINE	Beverages	10	5	[0, 0, 0]	n/a	catFR1	1	R1468J
782.153	1.6	1209454	WORD	n/a	wordpools/wordpool_categorized_EN.txt	SHOES	Clothing	11	5	[0, 0, 0]	n/a	catFR1	1	R1468J
783.753	0.95	1211046	WORD_OFF	n/a	n/a	SHOES	Clothing	11	5	[0, 0, 0]	n/a	catFR1	1	R1468J
784.703	1.6	1212003	WORD	n/a	wordpools/wordpool_categorized_EN.txt	COAT	Clothing	12	5	[0, 0, 0]	n/a	catFR1	1	R1468J
786.304	0.005	1213601	PROB	8.083	n/a	n/a	n/a	-999	5	[2, 6, 3]	11.0	catFR1	1	R1468J
786.309	0.0	1213606	START	n/a	n/a	n/a	n/a	-999	5	[-999, -999, -999]	n/a	catFR1	1	R1468J
786.305	0.004	1213607	WORD_OFF	n/a	n/a	COAT	Clothing	12	5	[0, 0, 0]	n/a	catFR1	1	R1468J
786.309	0.0	1213607	ENCODING_END	n/a	n/a	n/a	n/a	-999	5	[0, 0, 0]	n/a	catFR1	1	R1468J
786.309	8.096	1213607	DISTRACT_START	n/a	n/a	n/a	n/a	-999	5	[0, 0, 0]	n/a	catFR1	1	R1468J
794.405	3.733	1221701	PROB	3.715	n/a	n/a	n/a	-999	5	[2, 4, 2]	8.0	catFR1	1	R1468J
798.138	6.65	1225434	PROB	6.633	n/a	n/a	n/a	-999	5	[8, 6, 1]	15.0	catFR1	1	R1468J
804.788	6.581	1232084	PROB	6.566	n/a	n/a	n/a	-999	5	[8, 6, 3]	17.0	catFR1	1	R1468J
811.369	0.0	1238661	DISTRACT_END	n/a	n/a	n/a	n/a	-999	5	[0, 0, 0]	n/a	catFR1	1	R1468J
811.369	2.313	1238665	STOP	n/a	n/a	n/a	n/a	-999	5	[-999, -999, -999]	n/a	catFR1	1	R1468J
813.682	1.665	1240976	REC_START	n/a	n/a	n/a	n/a	-999	5	[0, 0, 0]	n/a	catFR1	1	R1468J
815.347	1.406	1242643	REC_WORD	1.665	n/a	BLOUSE	Clothing	3	5	[0, 0, 0]	n/a	catFR1	1	R1468J
816.753	5.392	1244049	REC_WORD	3.071	n/a	SHORTS	Clothing	4	5	[0, 0, 0]	n/a	catFR1	1	R1468J
822.145	2.975	1249440	REC_WORD	8.463	n/a	PANTS	n/a	-999	5	[0, 0, 0]	n/a	catFR1	1	R1468J
825.12	4.178	1252415	REC_WORD	11.438	n/a	WINE	Beverages	10	5	[0, 0, 0]	n/a	catFR1	1	R1468J
829.298	4.451	1256593	REC_WORD	15.616	n/a	LEMONADE	Beverages	5	5	[0, 0, 0]	n/a	catFR1	1	R1468J
833.749	4.831	1261044	REC_WORD_VV	20.067	n/a	<>	n/a	-999	5	[0, 0, 0]	n/a	catFR1	1	R1468J
838.58	1.105	1265875	REC_WORD	24.898	n/a	TOASTER	Appliances	8	5	[0, 0, 0]	n/a	catFR1	1	R1468J
839.685	4.943	1266980	REC_WORD	26.003	n/a	MIXER	Appliances	1	5	[0, 0, 0]	n/a	catFR1	1	R1468J
844.628	2.41	1271927	REC_END	n/a	n/a	n/a	n/a	-999	5	[0, 0, 0]	n/a	catFR1	1	R1468J
847.038	10.0	1274338	COUNTDOWN_START	n/a	n/a	n/a	n/a	-999	6	[0, 0, 0]	n/a	catFR1	1	R1468J
857.388	0.001	1284685	COUNTDOWN_END	n/a	n/a	n/a	n/a	-999	6	[0, 0, 0]	n/a	catFR1	1	R1468J
857.389	1.831	1284685	ENCODING_START	n/a	n/a	n/a	n/a	-999	6	[0, 0, 0]	n/a	catFR1	1	R1468J
859.22	1.6	1286519	WORD	n/a	wordpools/wordpool_categorized_EN.txt	TABLE	Furniture	1	6	[0, 0, 0]	n/a	catFR1	1	R1468J
860.821	0.832	1288111	WORD_OFF	n/a	n/a	TABLE	Furniture	1	6	[0, 0, 0]	n/a	catFR1	1	R1468J
861.653	1.6	1288941	WORD	n/a	wordpools/wordpool_categorized_EN.txt	BED	Furniture	2	6	[0, 0, 0]	n/a	catFR1	1	R1468J
863.255	0.893	1290544	WORD_OFF	n/a	n/a	BED	Furniture	2	6	[0, 0, 0]	n/a	catFR1	1	R1468J
864.148	1.6	1291444	WORD	n/a	wordpools/wordpool_categorized_EN.txt	DOLL	Toys	3	6	[0, 0, 0]	n/a	catFR1	1	R1468J
865.754	0.999	1293047	WORD_OFF	n/a	n/a	DOLL	Toys	3	6	[0, 0, 0]	n/a	catFR1	1	R1468J
866.753	1.6	1294051	WORD	n/a	wordpools/wordpool_categorized_EN.txt	SLINKY	Toys	4	6	[0, 0, 0]	n/a	catFR1	1	R1468J
868.354	0.866	1295643	WORD_OFF	n/a	n/a	SLINKY	Toys	4	6	[0, 0, 0]	n/a	catFR1	1	R1468J
869.22	1.6	1296508	WORD	n/a	wordpools/wordpool_categorized_EN.txt	FISH	OceanAnimals	5	6	[0, 0, 0]	n/a	catFR1	1	R1468J
870.82	0.9	1298111	WORD_OFF	n/a	n/a	FISH	OceanAnimals	5	6	[0, 0, 0]	n/a	catFR1	1	R1468J
871.72	1.6	1299011	WORD	n/a	wordpools/wordpool_categorized_EN.txt	OCTOPUS	OceanAnimals	6	6	[0, 0, 0]	n/a	catFR1	1	R1468J
873.336	1.001	1300626	WORD_OFF	n/a	n/a	OCTOPUS	OceanAnimals	6	6	[0, 0, 0]	n/a	catFR1	1	R1468J
874.337	1.6	1301629	WORD	n/a	wordpools/wordpool_categorized_EN.txt	SOFA	Furniture	7	6	[0, 0, 0]	n/a	catFR1	1	R1468J
875.954	0.866	1303244	WORD_OFF	n/a	n/a	SOFA	Furniture	7	6	[0, 0, 0]	n/a	catFR1	1	R1468J
876.82	1.6	1304109	WORD	n/a	wordpools/wordpool_categorized_EN.txt	CHAIR	Furniture	8	6	[0, 0, 0]	n/a	catFR1	1	R1468J
878.421	0.784	1305713	WORD_OFF	n/a	n/a	CHAIR	Furniture	8	6	[0, 0, 0]	n/a	catFR1	1	R1468J
879.205	1.6	1306497	WORD	n/a	wordpools/wordpool_categorized_EN.txt	WHALE	OceanAnimals	9	6	[0, 0, 0]	n/a	catFR1	1	R1468J
880.82	0.833	1308112	WORD_OFF	n/a	n/a	WHALE	OceanAnimals	9	6	[0, 0, 0]	n/a	catFR1	1	R1468J
881.653	1.6	1308943	WORD	n/a	wordpools/wordpool_categorized_EN.txt	JELLYFISH	OceanAnimals	10	6	[0, 0, 0]	n/a	catFR1	1	R1468J
883.254	0.833	1310546	WORD_OFF	n/a	n/a	JELLYFISH	OceanAnimals	10	6	[0, 0, 0]	n/a	catFR1	1	R1468J
884.087	1.6	1311376	WORD	n/a	wordpools/wordpool_categorized_EN.txt	BASEBALL	Toys	11	6	[0, 0, 0]	n/a	catFR1	1	R1468J
885.688	0.898	1312980	WORD_OFF	n/a	n/a	BASEBALL	Toys	11	6	[0, 0, 0]	n/a	catFR1	1	R1468J
886.586	1.6	1313879	WORD	n/a	wordpools/wordpool_categorized_EN.txt	FRISBEE	Toys	12	6	[0, 0, 0]	n/a	catFR1	1	R1468J
888.188	0.004	1315483	WORD_OFF	n/a	n/a	FRISBEE	Toys	12	6	[0, 0, 0]	n/a	catFR1	1	R1468J
888.192	0.0	1315483	ENCODING_END	n/a	n/a	n/a	n/a	-999	6	[0, 0, 0]	n/a	catFR1	1	R1468J
888.192	0.0	1315483	DISTRACT_START	n/a	n/a	n/a	n/a	-999	6	[0, 0, 0]	n/a	catFR1	1	R1468J
888.19	0.002	1315483	PROB	5.232	n/a	n/a	n/a	-999	6	[8, 6, 8]	22.0	catFR1	1	R1468J
888.192	5.245	1315485	START	n/a	n/a	n/a	n/a	-999	6	[-999, -999, -999]	n/a	catFR1	1	R1468J
893.437	4.118	1320729	PROB	4.1	n/a	n/a	n/a	-999	6	[2, 4, 4]	10.0	catFR1	1	R1468J
897.555	3.1	1324847	PROB	3.083	n/a	n/a	n/a	-999	6	[4, 5, 3]	12.0	catFR1	1	R1468J
900.655	3.265	1327947	PROB	3.249	n/a	n/a	n/a	-999	6	[6, 1, 6]	13.0	catFR1	1	R1468J
903.92	3.486	1331212	PROB	3.467	n/a	n/a	n/a	-999	6	[6, 2, 8]	16.0	catFR1	1	R1468J
907.406	4.548	1334698	PROB	4.532	n/a	n/a	n/a	-999	6	[1, 8, 8]	17.0	catFR1	1	R1468J
911.954	0.0	1339245	DISTRACT_END	n/a	n/a	n/a	n/a	-999	6	[0, 0, 0]	n/a	catFR1	1	R1468J
911.954	2.384	1339246	STOP	n/a	n/a	n/a	n/a	-999	6	[-999, -999, -999]	n/a	catFR1	1	R1468J
914.338	1.393	1341629	REC_START	n/a	n/a	n/a	n/a	-999	6	[0, 0, 0]	n/a	catFR1	1	R1468J
915.731	0.92	1343023	REC_WORD	1.393	n/a	TABLE	Furniture	1	6	[0, 0, 0]	n/a	catFR1	1	R1468J
916.651	2.437	1343943	REC_WORD	2.313	n/a	BED	Furniture	2	6	[0, 0, 0]	n/a	catFR1	1	R1468J
919.088	0.985	1346379	REC_WORD	4.75	n/a	FISH	OceanAnimals	5	6	[0, 0, 0]	n/a	catFR1	1	R1468J
920.073	2.842	1347364	REC_WORD	5.735	n/a	OYSTER	OceanAnimals	-999	6	[0, 0, 0]	n/a	catFR1	1	R1468J
922.915	1.0	1350206	REC_WORD	8.577	n/a	OCTOPUS	OceanAnimals	6	6	[0, 0, 0]	n/a	catFR1	1	R1468J
923.915	3.908	1351206	REC_WORD_VV	9.577	n/a	<>	n/a	-999	6	[0, 0, 0]	n/a	catFR1	1	R1468J
927.823	1.552	1355114	REC_WORD	13.485	n/a	OCEAN	Landscapes	-999	6	[0, 0, 0]	n/a	catFR1	1	R1468J
929.375	6.356	1356666	REC_WORD	15.037	n/a	TABLECLOTH	n/a	-999	6	[0, 0, 0]	n/a	catFR1	1	R1468J
935.731	9.568	1363022	REC_WORD_VV	21.393	n/a	<>	n/a	-999	6	[0, 0, 0]	n/a	catFR1	1	R1468J
945.299	2.438	1372592	REC_END	n/a	n/a	n/a	n/a	-999	6	[0, 0, 0]	n/a	catFR1	1	R1468J
947.737	10.0	1375026	COUNTDOWN_START	n/a	n/a	n/a	n/a	-999	7	[0, 0, 0]	n/a	catFR1	1	R1468J
958.088	0.001	1385373	COUNTDOWN_END	n/a	n/a	n/a	n/a	-999	7	[0, 0, 0]	n/a	catFR1	1	R1468J
958.089	2.082	1385384	ENCODING_START	n/a	n/a	n/a	n/a	-999	7	[0, 0, 0]	n/a	catFR1	1	R1468J
960.171	1.6	1387460	WORD	n/a	wordpools/wordpool_categorized_EN.txt	PIE	Desserts	1	7	[0, 0, 0]	n/a	catFR1	1	R1468J
961.787	0.883	1389075	WORD_OFF	n/a	n/a	PIE	Desserts	1	7	[0, 0, 0]	n/a	catFR1	1	R1468J
962.67	1.6	1389963	WORD	n/a	wordpools/wordpool_categorized_EN.txt	PUDDING	Desserts	2	7	[0, 0, 0]	n/a	catFR1	1	R1468J
964.27	0.784	1391555	WORD_OFF	n/a	n/a	PUDDING	Desserts	2	7	[0, 0, 0]	n/a	catFR1	1	R1468J
965.054	1.6	1392340	WORD	n/a	wordpools/wordpool_categorized_EN.txt	GOAT	FarmAnimals	3	7	[0, 0, 0]	n/a	catFR1	1	R1468J
966.671	0.85	1393955	WORD_OFF	n/a	n/a	GOAT	FarmAnimals	3	7	[0, 0, 0]	n/a	catFR1	1	R1468J
967.521	1.6	1394808	WORD	n/a	wordpools/wordpool_categorized_EN.txt	PIG	FarmAnimals	4	7	[0, 0, 0]	n/a	catFR1	1	R1468J
969.137	0.816	1396423	WORD_OFF	n/a	n/a	PIG	FarmAnimals	4	7	[0, 0, 0]	n/a	catFR1	1	R1468J
969.953	1.6	1397242	WORD	n/a	wordpools/wordpool_categorized_EN.txt	TUBA	Instruments	5	7	[0, 0, 0]	n/a	catFR1	1	R1468J
971.571	1.0	1398857	WORD_OFF	n/a	n/a	TUBA	Instruments	5	7	[0, 0, 0]	n/a	catFR1	1	R1468J
972.571	1.6	1399860	WORD	n/a	wordpools/wordpool_categorized_EN.txt	VIOLIN	Instruments	6	7	[0, 0, 0]	n/a	catFR1	1	R1468J
974.171	0.999	1401464	WORD_OFF	n/a	n/a	VIOLIN	Instruments	6	7	[0, 0, 0]	n/a	catFR1	1	R1468J
975.17	1.6	1402456	WORD	n/a	wordpools/wordpool_categorized_EN.txt	COBBLER	Desserts	7	7	[0, 0, 0]	n/a	catFR1	1	R1468J
976.786	0.868	1404071	WORD_OFF	n/a	n/a	COBBLER	Desserts	7	7	[0, 0, 0]	n/a	catFR1	1	R1468J
977.654	1.6	1404947	WORD	n/a	wordpools/wordpool_categorized_EN.txt	FUDGE	Desserts	8	7	[0, 0, 0]	n/a	catFR1	1	R1468J
979.27	0.866	1406562	WORD_OFF	n/a	n/a	FUDGE	Desserts	8	7	[0, 0, 0]	n/a	catFR1	1	R1468J
980.136	1.6	1407427	WORD	n/a	wordpools/wordpool_categorized_EN.txt	TURKEY	FarmAnimals	9	7	[0, 0, 0]	n/a	catFR1	1	R1468J
981.738	0.815	1409031	WORD_OFF	n/a	n/a	TURKEY	FarmAnimals	9	7	[0, 0, 0]	n/a	catFR1	1	R1468J
982.553	1.6	1409838	WORD	n/a	wordpools/wordpool_categorized_EN.txt	SHEEP	FarmAnimals	10	7	[0, 0, 0]	n/a	catFR1	1	R1468J
984.17	0.851	1411453	WORD_OFF	n/a	n/a	SHEEP	FarmAnimals	10	7	[0, 0, 0]	n/a	catFR1	1	R1468J
985.021	1.6	1412307	WORD	n/a	wordpools/wordpool_categorized_EN.txt	FLUTE	Instruments	11	7	[0, 0, 0]	n/a	catFR1	1	R1468J
986.621	0.766	1413910	WORD_OFF	n/a	n/a	FLUTE	Instruments	11	7	[0, 0, 0]	n/a	catFR1	1	R1468J
987.387	1.6	1414671	WORD	n/a	wordpools/wordpool_categorized_EN.txt	DRUM	Instruments	12	7	[0, 0, 0]	n/a	catFR1	1	R1468J
988.987	0.003	1416275	WORD_OFF	n/a	n/a	DRUM	Instruments	12	7	[0, 0, 0]	n/a	catFR1	1	R1468J
988.99	0.001	1416275	ENCODING_END	n/a	n/a	n/a	n/a	-999	7	[0, 0, 0]	n/a	catFR1	1	R1468J
988.991	0.0	1416280	START	n/a	n/a	n/a	n/a	-999	7	[-999, -999, -999]	n/a	catFR1	1	R1468J
988.991	0.0	1416280	PROB	2.95	n/a	n/a	n/a	-999	7	[8, 2, 1]	11.0	catFR1	1	R1468J
988.991	2.963	1416286	DISTRACT_START	n/a	n/a	n/a	n/a	-999	7	[0, 0, 0]	n/a	catFR1	1	R1468J
991.954	4.485	1419242	PROB	4.467	n/a	n/a	n/a	-999	7	[8, 4, 7]	19.0	catFR1	1	R1468J
996.439	5.366	1423727	PROB	5.349	n/a	n/a	n/a	-999	7	[7, 4, 7]	18.0	catFR1	1	R1468J
1001.805	3.717	1429093	PROB	3.7	n/a	n/a	n/a	-999	7	[3, 6, 4]	13.0	catFR1	1	R1468J
1005.522	3.615	1432810	PROB	3.599	n/a	n/a	n/a	-999	7	[4, 6, 2]	12.0	catFR1	1	R1468J
1009.137	0.0	1436425	STOP	n/a	n/a	n/a	n/a	-999	7	[-999, -999, -999]	n/a	catFR1	1	R1468J
1009.137	2.2	1436426	DISTRACT_END	n/a	n/a	n/a	n/a	-999	7	[0, 0, 0]	n/a	catFR1	1	R1468J
1011.337	1.444	1438626	REC_START	n/a	n/a	n/a	n/a	-999	7	[0, 0, 0]	n/a	catFR1	1	R1468J
1012.781	0.632	1440069	REC_WORD	1.444	n/a	PUDDING	Desserts	2	7	[0, 0, 0]	n/a	catFR1	1	R1468J
1013.413	2.434	1440701	REC_WORD	2.076	n/a	PIE	Desserts	1	7	[0, 0, 0]	n/a	catFR1	1	R1468J
1015.847	1.809	1443134	REC_WORD	4.51	n/a	TUBA	Instruments	5	7	[0, 0, 0]	n/a	catFR1	1	R1468J
1017.656	2.22	1444943	REC_WORD	6.319	n/a	VIOLIN	Instruments	6	7	[0, 0, 0]	n/a	catFR1	1	R1468J
1019.876	2.444	1447163	REC_WORD	8.539	n/a	DRUM	Instruments	12	7	[0, 0, 0]	n/a	catFR1	1	R1468J
1022.32	7.14	1449607	REC_WORD_VV	10.983	n/a	<>	n/a	-999	7	[0, 0, 0]	n/a	catFR1	1	R1468J
1029.46	8.322	1456747	REC_WORD	18.123	n/a	ORCHID	Flowers	-999	7	[0, 0, 0]	n/a	catFR1	1	R1468J
1037.782	4.5	1465069	REC_WORD_VV	26.445	n/a	<>	n/a	-999	7	[0, 0, 0]	n/a	catFR1	1	R1468J
1042.282	7.406	1469566	REC_END	n/a	n/a	n/a	n/a	-999	7	[0, 0, 0]	n/a	catFR1	1	R1468J
1049.688	10.0	1476971	COUNTDOWN_START	n/a	n/a	n/a	n/a	-999	8	[0, 0, 0]	n/a	catFR1	1	R1468J
1060.037	0.001	1487318	COUNTDOWN_END	n/a	n/a	n/a	n/a	-999	8	[0, 0, 0]	n/a	catFR1	1	R1468J
1060.038	2.082	1487329	ENCODING_START	n/a	n/a	n/a	n/a	-999	8	[0, 0, 0]	n/a	catFR1	1	R1468J
1062.12	1.6	1489406	WORD	n/a	wordpools/wordpool_categorized_EN.txt	BLENDER	Appliances	1	8	[0, 0, 0]	n/a	catFR1	1	R1468J
1063.72	0.967	1491009	WORD_OFF	n/a	n/a	BLENDER	Appliances	1	8	[0, 0, 0]	n/a	catFR1	1	R1468J
1064.687	1.6	1491978	WORD	n/a	wordpools/wordpool_categorized_EN.txt	IRON	Appliances	2	8	[0, 0, 0]	n/a	catFR1	1	R1468J
1066.288	0.798	1493570	WORD_OFF	n/a	n/a	IRON	Appliances	2	8	[0, 0, 0]	n/a	catFR1	1	R1468J
1067.086	1.6	1494366	WORD	n/a	wordpools/wordpool_categorized_EN.txt	MOTORCYCLE	Vehicles	3	8	[0, 0, 0]	n/a	catFR1	1	R1468J
1068.687	0.983	1495969	WORD_OFF	n/a	n/a	MOTORCYCLE	Vehicles	3	8	[0, 0, 0]	n/a	catFR1	1	R1468J
1069.67	1.6	1496949	WORD	n/a	wordpools/wordpool_categorized_EN.txt	BOAT	Vehicles	4	8	[0, 0, 0]	n/a	catFR1	1	R1468J
1071.271	0.932	1498553	WORD_OFF	n/a	n/a	BOAT	Vehicles	4	8	[0, 0, 0]	n/a	catFR1	1	R1468J
1072.203	1.6	1499487	WORD	n/a	wordpools/wordpool_categorized_EN.txt	BEE	Insects	5	8	[0, 0, 0]	n/a	catFR1	1	R1468J
1073.803	0.834	1501090	WORD_OFF	n/a	n/a	BEE	Insects	5	8	[0, 0, 0]	n/a	catFR1	1	R1468J
1074.637	1.6	1501921	WORD	n/a	wordpools/wordpool_categorized_EN.txt	SPIDER	Insects	6	8	[0, 0, 0]	n/a	catFR1	1	R1468J
1076.237	0.766	1503524	WORD_OFF	n/a	n/a	SPIDER	Insects	6	8	[0, 0, 0]	n/a	catFR1	1	R1468J
1077.003	1.6	1504286	WORD	n/a	wordpools/wordpool_categorized_EN.txt	TRAIN	Vehicles	7	8	[0, 0, 0]	n/a	catFR1	1	R1468J
1078.604	0.967	1505889	WORD_OFF	n/a	n/a	TRAIN	Vehicles	7	8	[0, 0, 0]	n/a	catFR1	1	R1468J
1079.571	1.6	1506858	WORD	n/a	wordpools/wordpool_categorized_EN.txt	MOPED	Vehicles	8	8	[0, 0, 0]	n/a	catFR1	1	R1468J
1081.186	0.95	1508473	WORD_OFF	n/a	n/a	MOPED	Vehicles	8	8	[0, 0, 0]	n/a	catFR1	1	R1468J
1082.136	1.6	1509419	WORD	n/a	wordpools/wordpool_categorized_EN.txt	BUTTERFLY	Insects	9	8	[0, 0, 0]	n/a	catFR1	1	R1468J
1083.736	0.784	1511022	WORD_OFF	n/a	n/a	BUTTERFLY	Insects	9	8	[0, 0, 0]	n/a	catFR1	1	R1468J
1084.52	1.6	1511806	WORD	n/a	wordpools/wordpool_categorized_EN.txt	ROACH	Insects	10	8	[0, 0, 0]	n/a	catFR1	1	R1468J
1086.121	0.849	1513410	WORD_OFF	n/a	n/a	ROACH	Insects	10	8	[0, 0, 0]	n/a	catFR1	1	R1468J
1086.97	1.6	1514252	WORD	n/a	wordpools/wordpool_categorized_EN.txt	REFRIGERATOR	Appliances	11	8	[0, 0, 0]	n/a	catFR1	1	R1468J
1088.57	0.784	1515855	WORD_OFF	n/a	n/a	REFRIGERATOR	Appliances	11	8	[0, 0, 0]	n/a	catFR1	1	R1468J
1089.354	1.6	1516639	WORD	n/a	wordpools/wordpool_categorized_EN.txt	DISHWASHER	Appliances	12	8	[0, 0, 0]	n/a	catFR1	1	R1468J
1090.971	0.004	1518254	WORD_OFF	n/a	n/a	DISHWASHER	Appliances	12	8	[0, 0, 0]	n/a	catFR1	1	R1468J
1090.975	0.0	1518254	ENCODING_END	n/a	n/a	n/a	n/a	-999	8	[0, 0, 0]	n/a	catFR1	1	R1468J
1090.972	0.003	1518256	PROB	3.732	n/a	n/a	n/a	-999	8	[6, 5, 1]	12.0	catFR1	1	R1468J
1090.975	0.0	1518259	START	n/a	n/a	n/a	n/a	-999	8	[-999, -999, -999]	n/a	catFR1	1	R1468J
1090.975	3.746	1518266	DISTRACT_START	n/a	n/a	n/a	n/a	-999	8	[0, 0, 0]	n/a	catFR1	1	R1468J
1094.721	2.968	1522005	PROB	2.949	n/a	n/a	n/a	-999	8	[4, 4, 3]	11.0	catFR1	1	R1468J
1097.689	5.836	1524973	PROB	5.815	n/a	n/a	n/a	-999	8	[8, 7, 8]	23.0	catFR1	1	R1468J
1103.525	3.429	1530809	PROB	3.416	n/a	n/a	n/a	-999	8	[7, 2, 3]	12.0	catFR1	1	R1468J
1106.954	4.084	1534238	PROB	4.067	n/a	n/a	n/a	-999	8	[4, 2, 3]	11.0	catFR1	1	R1468J
1111.038	0.0	1538322	STOP	n/a	n/a	n/a	n/a	-999	8	[-999, -999, -999]	n/a	catFR1	1	R1468J
1111.038	2.084	1538325	DISTRACT_END	n/a	n/a	n/a	n/a	-999	8	[0, 0, 0]	n/a	catFR1	1	R1468J
1113.122	1.292	1540409	REC_START	n/a	n/a	n/a	n/a	-999	8	[0, 0, 0]	n/a	catFR1	1	R1468J
1114.414	2.237	1541697	REC_WORD	1.292	n/a	MOTORCYCLE	Vehicles	3	8	[0, 0, 0]	n/a	catFR1	1	R1468J
1116.651	2.576	1543934	REC_WORD	3.529	n/a	REFRIGERATOR	Appliances	11	8	[0, 0, 0]	n/a	catFR1	1	R1468J
1119.227	2.685	1546510	REC_WORD	6.105	n/a	BLENDER	Appliances	1	8	[0, 0, 0]	n/a	catFR1	1	R1468J
1121.912	1.59	1549195	REC_WORD	8.79	n/a	ROACH	Insects	10	8	[0, 0, 0]	n/a	catFR1	1	R1468J
1123.502	3.294	1550785	REC_WORD	10.38	n/a	ANT	Insects	-999	8	[0, 0, 0]	n/a	catFR1	1	R1468J
1126.796	4.734	1554079	REC_WORD	13.674	n/a	MOSQUITO	n/a	-999	8	[0, 0, 0]	n/a	catFR1	1	R1468J
1131.53	0.375	1558813	REC_WORD_VV	18.408	n/a	<>	n/a	-999	8	[0, 0, 0]	n/a	catFR1	1	R1468J
1131.905	7.749	1559188	REC_WORD	18.783	n/a	TABLE	Furniture	-999	8	[0, 0, 0]	n/a	catFR1	1	R1468J
1139.654	4.453	1566936	REC_WORD	26.532	n/a	ANT	Insects	-999	8	[0, 0, 0]	n/a	catFR1	1	R1468J
1144.107	4.097	1571384	REC_END	n/a	n/a	n/a	n/a	-999	8	[0, 0, 0]	n/a	catFR1	1	R1468J
1148.204	10.0	1575490	COUNTDOWN_START	n/a	n/a	n/a	n/a	-999	9	[0, 0, 0]	n/a	catFR1	1	R1468J
1158.554	0.0	1585837	COUNTDOWN_END	n/a	n/a	n/a	n/a	-999	9	[0, 0, 0]	n/a	catFR1	1	R1468J
1158.554	2.335	1585837	ENCODING_START	n/a	n/a	n/a	n/a	-999	9	[0, 0, 0]	n/a	catFR1	1	R1468J
1160.889	1.6	1588167	WORD	n/a	wordpools/wordpool_categorized_EN.txt	CUPCAKE	Desserts	1	9	[0, 0, 0]	n/a	catFR1	1	R1468J
1162.503	0.768	1589782	WORD_OFF	n/a	n/a	CUPCAKE	Desserts	1	9	[0, 0, 0]	n/a	catFR1	1	R1468J
1163.271	1.6	1590555	WORD	n/a	wordpools/wordpool_categorized_EN.txt	COOKIE	Desserts	2	9	[0, 0, 0]	n/a	catFR1	1	R1468J
1164.887	0.769	1592170	WORD_OFF	n/a	n/a	COOKIE	Desserts	2	9	[0, 0, 0]	n/a	catFR1	1	R1468J
1165.656	1.6	1592931	WORD	n/a	wordpools/wordpool_categorized_EN.txt	CRICKET	Insects	3	9	[0, 0, 0]	n/a	catFR1	1	R1468J
1167.27	0.867	1594546	WORD_OFF	n/a	n/a	CRICKET	Insects	3	9	[0, 0, 0]	n/a	catFR1	1	R1468J
1168.137	1.6	1595423	WORD	n/a	wordpools/wordpool_categorized_EN.txt	BEETLE	Insects	4	9	[0, 0, 0]	n/a	catFR1	1	R1468J
1169.737	0.933	1597014	WORD_OFF	n/a	n/a	BEETLE	Insects	4	9	[0, 0, 0]	n/a	catFR1	1	R1468J
1170.67	1.6	1597949	WORD	n/a	wordpools/wordpool_categorized_EN.txt	DRESSER	Furniture	5	9	[0, 0, 0]	n/a	catFR1	1	R1468J
1172.287	0.799	1599564	WORD_OFF	n/a	n/a	DRESSER	Furniture	5	9	[0, 0, 0]	n/a	catFR1	1	R1468J
1173.086	1.6	1600371	WORD	n/a	wordpools/wordpool_categorized_EN.txt	NIGHTSTAND	Furniture	6	9	[0, 0, 0]	n/a	catFR1	1	R1468J
1174.687	0.966	1601963	WORD_OFF	n/a	n/a	NIGHTSTAND	Furniture	6	9	[0, 0, 0]	n/a	catFR1	1	R1468J
1175.653	1.6	1602932	WORD	n/a	wordpools/wordpool_categorized_EN.txt	MOUSSE	Desserts	7	9	[0, 0, 0]	n/a	catFR1	1	R1468J
1177.253	0.967	1604535	WORD_OFF	n/a	n/a	MOUSSE	Desserts	7	9	[0, 0, 0]	n/a	catFR1	1	R1468J
1178.22	1.6	1605504	WORD	n/a	wordpools/wordpool_categorized_EN.txt	CAKE	Desserts	8	9	[0, 0, 0]	n/a	catFR1	1	R1468J
1179.837	0.783	1607119	WORD_OFF	n/a	n/a	CAKE	Desserts	8	9	[0, 0, 0]	n/a	catFR1	1	R1468J
1180.62	1.6	1607903	WORD	n/a	wordpools/wordpool_categorized_EN.txt	LADYBUG	Insects	9	9	[0, 0, 0]	n/a	catFR1	1	R1468J
1182.237	0.935	1609518	WORD_OFF	n/a	n/a	LADYBUG	Insects	9	9	[0, 0, 0]	n/a	catFR1	1	R1468J
1183.172	1.6	1610453	WORD	n/a	wordpools/wordpool_categorized_EN.txt	MOSQUITO	Insects	10	9	[0, 0, 0]	n/a	catFR1	1	R1468J
1184.789	0.882	1612068	WORD_OFF	n/a	n/a	MOSQUITO	Insects	10	9	[0, 0, 0]	n/a	catFR1	1	R1468J
1185.671	1.6	1612956	WORD	n/a	wordpools/wordpool_categorized_EN.txt	DESK	Furniture	11	9	[0, 0, 0]	n/a	catFR1	1	R1468J
1187.273	0.931	1614548	WORD_OFF	n/a	n/a	DESK	Furniture	11	9	[0, 0, 0]	n/a	catFR1	1	R1468J
1188.204	1.6	1615482	WORD	n/a	wordpools/wordpool_categorized_EN.txt	BOOKCASE	Furniture	12	9	[0, 0, 0]	n/a	catFR1	1	R1468J
1189.806	0.012	1617085	WORD_OFF	n/a	n/a	BOOKCASE	Furniture	12	9	[0, 0, 0]	n/a	catFR1	1	R1468J
1189.818	0.0	1617097	ENCODING_END	n/a	n/a	n/a	n/a	-999	9	[0, 0, 0]	n/a	catFR1	1	R1468J
1189.818	0.0	1617097	DISTRACT_START	n/a	n/a	n/a	n/a	-999	9	[0, 0, 0]	n/a	catFR1	1	R1468J
1189.818	2.533	1617098	START	n/a	n/a	n/a	n/a	-999	9	[-999, -999, -999]	n/a	catFR1	1	R1468J
1192.351	4.839	1619631	PROB	4.822	n/a	n/a	n/a	-999	9	[6, 8, 6]	20.0	catFR1	1	R1468J
1197.19	3.21	1624470	PROB	2.783	n/a	n/a	n/a	-999	9	[5, 4, 2]	11.0	catFR1	1	R1468J
1200.4	4.357	1627680	PROB	4.338	n/a	n/a	n/a	-999	9	[3, 5, 5]	13.0	catFR1	1	R1468J
1204.757	4.599	1632037	PROB	4.582	n/a	n/a	n/a	-999	9	[4, 6, 6]	16.0	catFR1	1	R1468J
1209.356	2.716	1636636	PROB	2.699	n/a	n/a	n/a	-999	9	[5, 3, 1]	9.0	catFR1	1	R1468J
1212.072	5.101	1639351	PROB	5.084	n/a	n/a	n/a	-999	9	[5, 3, 6]	14.0	catFR1	1	R1468J
1217.173	0.0	1644452	STOP	n/a	n/a	n/a	n/a	-999	9	[-999, -999, -999]	n/a	catFR1	1	R1468J
1217.173	2.214	1644457	DISTRACT_END	n/a	n/a	n/a	n/a	-999	9	[0, 0, 0]	n/a	catFR1	1	R1468J
1219.387	5.051	1646669	REC_START	n/a	n/a	n/a	n/a	-999	9	[0, 0, 0]	n/a	catFR1	1	R1468J
1224.438	0.657	1651717	REC_WORD	5.051	n/a	PIANO	Instruments	-999	9	[0, 0, 0]	n/a	catFR1	1	R1468J
1225.095	10.537	1652374	REC_WORD	5.708	n/a	DOOR	Building	-999	9	[0, 0, 0]	n/a	catFR1	1	R1468J
1235.632	15.798	1662911	REC_WORD	16.245	n/a	BIKE	Vehicles	-999	9	[0, 0, 0]	n/a	catFR1	1	R1468J
1251.43	0.0	1678704	REC_END	n/a	n/a	n/a	n/a	-999	9	[0, 0, 0]	n/a	catFR1	1	R1468J
