onset	duration	sample	trial_type	response_time	stim_file	item_name	category	serialpos	list	test	answer	experiment	session	subject
0.0	9.667	40642	INSTRUCT_START	n/a	n/a	n/a	n/a	-999	-999	[0, 0, 0]	n/a	catFR1	3	R1476J
9.667	53.833	50303	INSTRUCT_END	n/a	n/a	n/a	n/a	-999	-999	[0, 0, 0]	n/a	catFR1	3	R1476J
63.5	10.0	104137	COUNTDOWN_START	n/a	n/a	n/a	n/a	-999	-999	[0, 0, 0]	n/a	catFR1	3	R1476J
73.848	0.0	114479	COUNTDOWN_END	n/a	n/a	n/a	n/a	-999	-999	[0, 0, 0]	n/a	catFR1	3	R1476J
73.848	2.336	114487	ENCODING_START	n/a	n/a	n/a	n/a	-999	-1	[0, 0, 0]	n/a	catFR1	3	R1476J
76.184	1.6	116819	WORD	n/a	n/a	PIANO	Instruments	1	-1	[0, 0, 0]	n/a	catFR1	3	R1476J
77.783	0.932	118418	WORD_OFF	n/a	n/a	PIANO	Instruments	1	-1	[0, 0, 0]	n/a	catFR1	3	R1476J
78.715	1.6	119350	WORD	n/a	n/a	BANJO	Instruments	2	-1	[0, 0, 0]	n/a	catFR1	3	R1476J
80.316	0.9	120949	WORD_OFF	n/a	n/a	BANJO	Instruments	2	-1	[0, 0, 0]	n/a	catFR1	3	R1476J
81.216	1.6	121853	WORD	n/a	n/a	MOSQUITO	Insects	3	-1	[0, 0, 0]	n/a	catFR1	3	R1476J
82.833	0.867	123466	WORD_OFF	n/a	n/a	MOSQUITO	Insects	3	-1	[0, 0, 0]	n/a	catFR1	3	R1476J
83.7	1.6	124333	WORD	n/a	n/a	MOTH	Insects	4	-1	[0, 0, 0]	n/a	catFR1	3	R1476J
85.3	0.781	125932	WORD_OFF	n/a	n/a	MOTH	Insects	4	-1	[0, 0, 0]	n/a	catFR1	3	R1476J
86.081	1.6	126716	WORD	n/a	n/a	KNIFE	KitchenTools	5	-1	[0, 0, 0]	n/a	catFR1	3	R1476J
87.682	0.833	128315	WORD_OFF	n/a	n/a	KNIFE	KitchenTools	5	-1	[0, 0, 0]	n/a	catFR1	3	R1476J
88.515	1.6	129152	WORD	n/a	n/a	PEELER	KitchenTools	6	-1	[0, 0, 0]	n/a	catFR1	3	R1476J
90.132	0.768	130766	WORD_OFF	n/a	n/a	PEELER	KitchenTools	6	-1	[0, 0, 0]	n/a	catFR1	3	R1476J
90.9	1.6	131536	WORD	n/a	n/a	GUITAR	Instruments	7	-1	[0, 0, 0]	n/a	catFR1	3	R1476J
92.5	0.949	133135	WORD_OFF	n/a	n/a	GUITAR	Instruments	7	-1	[0, 0, 0]	n/a	catFR1	3	R1476J
93.449	1.6	134082	WORD	n/a	n/a	FLUTE	Instruments	8	-1	[0, 0, 0]	n/a	catFR1	3	R1476J
95.066	0.783	135696	WORD_OFF	n/a	n/a	FLUTE	Instruments	8	-1	[0, 0, 0]	n/a	catFR1	3	R1476J
95.849	1.6	136481	WORD	n/a	n/a	BEETLE	Insects	9	-1	[0, 0, 0]	n/a	catFR1	3	R1476J
97.449	0.932	138080	WORD_OFF	n/a	n/a	BEETLE	Insects	9	-1	[0, 0, 0]	n/a	catFR1	3	R1476J
98.381	1.6	139013	WORD	n/a	n/a	CRICKET	Insects	10	-1	[0, 0, 0]	n/a	catFR1	3	R1476J
99.982	0.985	140612	WORD_OFF	n/a	n/a	CRICKET	Insects	10	-1	[0, 0, 0]	n/a	catFR1	3	R1476J
100.967	1.6	141596	WORD	n/a	n/a	WHISK	KitchenTools	11	-1	[0, 0, 0]	n/a	catFR1	3	R1476J
102.581	0.919	143210	WORD_OFF	n/a	n/a	WHISK	KitchenTools	11	-1	[0, 0, 0]	n/a	catFR1	3	R1476J
103.5	1.6	144136	WORD	n/a	n/a	LADLE	KitchenTools	12	-1	[0, 0, 0]	n/a	catFR1	3	R1476J
105.116	0.0	145747	START	n/a	n/a	n/a	n/a	-999	-1	[-999, -999, -999]	n/a	catFR1	3	R1476J
105.116	0.0	145747	PROB	4.532	n/a	n/a	n/a	-999	-1	[8, 5, 1]	14.0	catFR1	3	R1476J
105.115	0.001	145749	WORD_OFF	n/a	n/a	LADLE	KitchenTools	12	-1	[0, 0, 0]	n/a	catFR1	3	R1476J
105.116	0.0	145749	ENCODING_END	n/a	n/a	n/a	n/a	-999	-1	[0, 0, 0]	n/a	catFR1	3	R1476J
105.116	4.551	145749	DISTRACT_START	n/a	n/a	n/a	n/a	-999	-1	[0, 0, 0]	n/a	catFR1	3	R1476J
109.667	3.5	150298	PROB	3.483	n/a	n/a	n/a	-999	-1	[6, 2, 4]	12.0	catFR1	3	R1476J
113.167	4.183	153798	PROB	4.166	n/a	n/a	n/a	-999	-1	[4, 8, 4]	16.0	catFR1	3	R1476J
117.35	3.817	157981	PROB	3.798	n/a	n/a	n/a	-999	-1	[6, 6, 6]	18.0	catFR1	3	R1476J
121.167	3.233	161797	PROB	3.215	n/a	n/a	n/a	-999	-1	[6, 4, 8]	18.0	catFR1	3	R1476J
124.4	5.782	165030	PROB	5.766	n/a	n/a	n/a	-999	-1	[8, 3, 6]	17.0	catFR1	3	R1476J
130.182	0.0	170812	STOP	n/a	n/a	n/a	n/a	-999	-1	[-999, -999, -999]	n/a	catFR1	3	R1476J
130.182	2.2	170816	DISTRACT_END	n/a	n/a	n/a	n/a	-999	-1	[0, 0, 0]	n/a	catFR1	3	R1476J
132.382	0.693	173015	REC_START	n/a	n/a	n/a	n/a	-999	-1	[0, 0, 0]	n/a	catFR1	3	R1476J
133.075	0.789	173705	REC_WORD	0.693	n/a	PIANO	Instruments	1	-1	[0, 0, 0]	n/a	catFR1	3	R1476J
133.864	0.682	174494	REC_WORD	1.482	n/a	BANJO	Instruments	2	-1	[0, 0, 0]	n/a	catFR1	3	R1476J
134.546	0.609	175176	REC_WORD	2.164	n/a	GUITAR	Instruments	7	-1	[0, 0, 0]	n/a	catFR1	3	R1476J
135.155	0.854	175785	REC_WORD	2.773	n/a	FLUTE	Instruments	8	-1	[0, 0, 0]	n/a	catFR1	3	R1476J
136.009	0.509	176639	REC_WORD	3.627	n/a	MOTH	Insects	4	-1	[0, 0, 0]	n/a	catFR1	3	R1476J
136.518	5.506	177148	REC_WORD	4.136	n/a	MOSQUITO	Insects	3	-1	[0, 0, 0]	n/a	catFR1	3	R1476J
142.024	20.538	182654	REC_WORD_VV	9.642	n/a	<>	n/a	-999	-1	[0, 0, 0]	n/a	catFR1	3	R1476J
162.562	22.053	203189	REC_END	n/a	n/a	n/a	n/a	-999	-1	[0, 0, 0]	n/a	catFR1	3	R1476J
184.615	10.0	225243	COUNTDOWN_START	n/a	n/a	n/a	n/a	-999	1	[0, 0, 0]	n/a	catFR1	3	R1476J
194.965	0.0	235592	COUNTDOWN_END	n/a	n/a	n/a	n/a	-999	1	[0, 0, 0]	n/a	catFR1	3	R1476J
194.965	1.902	235599	ENCODING_START	n/a	n/a	n/a	n/a	-999	1	[0, 0, 0]	n/a	catFR1	3	R1476J
196.867	1.6	237495	WORD	n/a	wordpools/wordpool_categorized_EN.txt	SOFA	Furniture	1	1	[0, 0, 0]	n/a	catFR1	3	R1476J
198.483	0.883	239108	WORD_OFF	n/a	n/a	SOFA	Furniture	1	1	[0, 0, 0]	n/a	catFR1	3	R1476J
199.366	1.6	239997	WORD	n/a	wordpools/wordpool_categorized_EN.txt	BOOKCASE	Furniture	2	1	[0, 0, 0]	n/a	catFR1	3	R1476J
200.966	0.782	241596	WORD_OFF	n/a	n/a	BOOKCASE	Furniture	2	1	[0, 0, 0]	n/a	catFR1	3	R1476J
201.748	1.6	242373	WORD	n/a	wordpools/wordpool_categorized_EN.txt	DUCK	Birds	3	1	[0, 0, 0]	n/a	catFR1	3	R1476J
203.349	0.784	243980	WORD_OFF	n/a	n/a	DUCK	Birds	3	1	[0, 0, 0]	n/a	catFR1	3	R1476J
204.133	1.6	244764	WORD	n/a	wordpools/wordpool_categorized_EN.txt	PIGEON	Birds	4	1	[0, 0, 0]	n/a	catFR1	3	R1476J
205.733	0.9	246363	WORD_OFF	n/a	n/a	PIGEON	Birds	4	1	[0, 0, 0]	n/a	catFR1	3	R1476J
206.633	1.6	247259	WORD	n/a	wordpools/wordpool_categorized_EN.txt	DRUM	Instruments	5	1	[0, 0, 0]	n/a	catFR1	3	R1476J
208.249	0.933	248880	WORD_OFF	n/a	n/a	DRUM	Instruments	5	1	[0, 0, 0]	n/a	catFR1	3	R1476J
209.182	1.6	249813	WORD	n/a	wordpools/wordpool_categorized_EN.txt	TROMBONE	Instruments	6	1	[0, 0, 0]	n/a	catFR1	3	R1476J
210.798	0.784	251427	WORD_OFF	n/a	n/a	TROMBONE	Instruments	6	1	[0, 0, 0]	n/a	catFR1	3	R1476J
211.582	1.6	252212	WORD	n/a	wordpools/wordpool_categorized_EN.txt	NIGHTSTAND	Furniture	7	1	[0, 0, 0]	n/a	catFR1	3	R1476J
213.2	0.932	253826	WORD_OFF	n/a	n/a	NIGHTSTAND	Furniture	7	1	[0, 0, 0]	n/a	catFR1	3	R1476J
214.132	1.6	254758	WORD	n/a	wordpools/wordpool_categorized_EN.txt	COUCH	Furniture	8	1	[0, 0, 0]	n/a	catFR1	3	R1476J
215.733	0.8	256357	WORD_OFF	n/a	n/a	COUCH	Furniture	8	1	[0, 0, 0]	n/a	catFR1	3	R1476J
216.533	1.6	257164	WORD	n/a	wordpools/wordpool_categorized_EN.txt	VIOLIN	Instruments	9	1	[0, 0, 0]	n/a	catFR1	3	R1476J
218.133	0.867	258763	WORD_OFF	n/a	n/a	VIOLIN	Instruments	9	1	[0, 0, 0]	n/a	catFR1	3	R1476J
219.0	1.6	259629	WORD	n/a	wordpools/wordpool_categorized_EN.txt	BASS	Instruments	10	1	[0, 0, 0]	n/a	catFR1	3	R1476J
220.615	0.884	261243	WORD_OFF	n/a	n/a	BASS	Instruments	10	1	[0, 0, 0]	n/a	catFR1	3	R1476J
221.499	1.6	262124	WORD	n/a	wordpools/wordpool_categorized_EN.txt	CROW	Birds	11	1	[0, 0, 0]	n/a	catFR1	3	R1476J
223.099	0.982	263723	WORD_OFF	n/a	n/a	CROW	Birds	11	1	[0, 0, 0]	n/a	catFR1	3	R1476J
224.081	1.6	264708	WORD	n/a	wordpools/wordpool_categorized_EN.txt	SEAGULL	Birds	12	1	[0, 0, 0]	n/a	catFR1	3	R1476J
225.682	0.001	266307	WORD_OFF	n/a	n/a	SEAGULL	Birds	12	1	[0, 0, 0]	n/a	catFR1	3	R1476J
225.683	0.002	266309	START	n/a	n/a	n/a	n/a	-999	1	[-999, -999, -999]	n/a	catFR1	3	R1476J
225.685	0.0	266311	PROB	4.299	n/a	n/a	n/a	-999	1	[1, 6, 3]	10.0	catFR1	3	R1476J
225.683	0.0	266314	ENCODING_END	n/a	n/a	n/a	n/a	-999	1	[0, 0, 0]	n/a	catFR1	3	R1476J
225.683	4.317	266314	DISTRACT_START	n/a	n/a	n/a	n/a	-999	1	[0, 0, 0]	n/a	catFR1	3	R1476J
230.0	3.167	270626	PROB	3.149	n/a	n/a	n/a	-999	1	[8, 2, 1]	11.0	catFR1	3	R1476J
233.167	2.815	273793	PROB	2.8	n/a	n/a	n/a	-999	1	[1, 4, 3]	8.0	catFR1	3	R1476J
235.982	3.886	276608	PROB	3.867	n/a	n/a	n/a	-999	1	[5, 4, 7]	16.0	catFR1	3	R1476J
239.868	7.865	280493	PROB	7.848	n/a	n/a	n/a	-999	1	[6, 7, 8]	21.0	catFR1	3	R1476J
247.733	0.0	288358	STOP	n/a	n/a	n/a	n/a	-999	1	[-999, -999, -999]	n/a	catFR1	3	R1476J
247.733	2.033	288360	DISTRACT_END	n/a	n/a	n/a	n/a	-999	1	[0, 0, 0]	n/a	catFR1	3	R1476J
249.766	1.171	290389	REC_START	n/a	n/a	n/a	n/a	-999	1	[0, 0, 0]	n/a	catFR1	3	R1476J
250.937	0.588	291562	REC_WORD	1.171	n/a	PIGEON	Birds	4	1	[0, 0, 0]	n/a	catFR1	3	R1476J
251.525	1.131	292150	REC_WORD	1.759	n/a	GUITAR	Instruments	-999	1	[0, 0, 0]	n/a	catFR1	3	R1476J
252.656	0.768	293281	REC_WORD	2.89	n/a	DUCK	Birds	3	1	[0, 0, 0]	n/a	catFR1	3	R1476J
253.424	14.514	294049	REC_WORD	3.658	n/a	CROWBAR	n/a	-999	1	[0, 0, 0]	n/a	catFR1	3	R1476J
267.938	4.432	308562	REC_WORD	18.172	n/a	COUCH	Furniture	8	1	[0, 0, 0]	n/a	catFR1	3	R1476J
272.37	7.589	312994	REC_WORD	22.604	n/a	CHAIR	n/a	-999	1	[0, 0, 0]	n/a	catFR1	3	R1476J
279.959	28.206	320586	REC_END	n/a	n/a	n/a	n/a	-999	1	[0, 0, 0]	n/a	catFR1	3	R1476J
308.165	10.0	348791	COUNTDOWN_START	n/a	n/a	n/a	n/a	-999	2	[0, 0, 0]	n/a	catFR1	3	R1476J
318.515	0.0	359140	COUNTDOWN_END	n/a	n/a	n/a	n/a	-999	2	[0, 0, 0]	n/a	catFR1	3	R1476J
318.515	2.1	359140	ENCODING_START	n/a	n/a	n/a	n/a	-999	2	[0, 0, 0]	n/a	catFR1	3	R1476J
320.615	1.6	361235	WORD	n/a	wordpools/wordpool_categorized_EN.txt	BEACH	Landscapes	1	2	[0, 0, 0]	n/a	catFR1	3	R1476J
322.232	0.949	362857	WORD_OFF	n/a	n/a	BEACH	Landscapes	1	2	[0, 0, 0]	n/a	catFR1	3	R1476J
323.181	1.6	363804	WORD	n/a	wordpools/wordpool_categorized_EN.txt	FOREST	Landscapes	2	2	[0, 0, 0]	n/a	catFR1	3	R1476J
324.781	1.0	365403	WORD_OFF	n/a	n/a	FOREST	Landscapes	2	2	[0, 0, 0]	n/a	catFR1	3	R1476J
325.781	1.6	366403	WORD	n/a	wordpools/wordpool_categorized_EN.txt	CAULIFLOWER	Vegetables	3	2	[0, 0, 0]	n/a	catFR1	3	R1476J
327.382	0.785	368002	WORD_OFF	n/a	n/a	CAULIFLOWER	Vegetables	3	2	[0, 0, 0]	n/a	catFR1	3	R1476J
328.167	1.6	368786	WORD	n/a	wordpools/wordpool_categorized_EN.txt	CELERY	Vegetables	4	2	[0, 0, 0]	n/a	catFR1	3	R1476J
329.782	0.933	370408	WORD_OFF	n/a	n/a	CELERY	Vegetables	4	2	[0, 0, 0]	n/a	catFR1	3	R1476J
330.715	1.6	371340	WORD	n/a	wordpools/wordpool_categorized_EN.txt	TULIP	Flowers	5	2	[0, 0, 0]	n/a	catFR1	3	R1476J
332.316	0.851	372940	WORD_OFF	n/a	n/a	TULIP	Flowers	5	2	[0, 0, 0]	n/a	catFR1	3	R1476J
333.167	1.6	373791	WORD	n/a	wordpools/wordpool_categorized_EN.txt	VIOLET	Flowers	6	2	[0, 0, 0]	n/a	catFR1	3	R1476J
334.767	0.948	375390	WORD_OFF	n/a	n/a	VIOLET	Flowers	6	2	[0, 0, 0]	n/a	catFR1	3	R1476J
335.715	1.6	376337	WORD	n/a	wordpools/wordpool_categorized_EN.txt	ONION	Vegetables	7	2	[0, 0, 0]	n/a	catFR1	3	R1476J
337.316	0.951	377937	WORD_OFF	n/a	n/a	ONION	Vegetables	7	2	[0, 0, 0]	n/a	catFR1	3	R1476J
338.267	1.6	378892	WORD	n/a	wordpools/wordpool_categorized_EN.txt	BROCCOLI	Vegetables	8	2	[0, 0, 0]	n/a	catFR1	3	R1476J
339.882	0.784	380505	WORD_OFF	n/a	n/a	BROCCOLI	Vegetables	8	2	[0, 0, 0]	n/a	catFR1	3	R1476J
340.666	1.6	381290	WORD	n/a	wordpools/wordpool_categorized_EN.txt	PETUNIA	Flowers	9	2	[0, 0, 0]	n/a	catFR1	3	R1476J
342.281	0.952	382904	WORD_OFF	n/a	n/a	PETUNIA	Flowers	9	2	[0, 0, 0]	n/a	catFR1	3	R1476J
343.233	1.6	383859	WORD	n/a	wordpools/wordpool_categorized_EN.txt	LILY	Flowers	10	2	[0, 0, 0]	n/a	catFR1	3	R1476J
344.848	0.901	385473	WORD_OFF	n/a	n/a	LILY	Flowers	10	2	[0, 0, 0]	n/a	catFR1	3	R1476J
345.749	1.6	386369	WORD	n/a	wordpools/wordpool_categorized_EN.txt	STREAM	Landscapes	11	2	[0, 0, 0]	n/a	catFR1	3	R1476J
347.366	1.0	387990	WORD_OFF	n/a	n/a	STREAM	Landscapes	11	2	[0, 0, 0]	n/a	catFR1	3	R1476J
348.366	1.6	388989	WORD	n/a	wordpools/wordpool_categorized_EN.txt	LAKE	Landscapes	12	2	[0, 0, 0]	n/a	catFR1	3	R1476J
349.982	0.001	390603	WORD_OFF	n/a	n/a	LAKE	Landscapes	12	2	[0, 0, 0]	n/a	catFR1	3	R1476J
349.983	0.0	390604	START	n/a	n/a	n/a	n/a	-999	2	[-999, -999, -999]	n/a	catFR1	3	R1476J
349.983	0.0	390604	PROB	3.383	n/a	n/a	n/a	-999	2	[2, 7, 4]	13.0	catFR1	3	R1476J
349.983	0.0	390610	ENCODING_END	n/a	n/a	n/a	n/a	-999	2	[0, 0, 0]	n/a	catFR1	3	R1476J
349.983	3.4	390610	DISTRACT_START	n/a	n/a	n/a	n/a	-999	2	[0, 0, 0]	n/a	catFR1	3	R1476J
353.383	4.199	394004	PROB	4.182	n/a	n/a	n/a	-999	2	[7, 5, 7]	19.0	catFR1	3	R1476J
357.582	5.233	398203	PROB	5.217	n/a	n/a	n/a	-999	2	[6, 1, 8]	15.0	catFR1	3	R1476J
362.815	4.751	403435	PROB	4.734	n/a	n/a	n/a	-999	2	[3, 6, 5]	14.0	catFR1	3	R1476J
367.566	3.833	408186	PROB	3.817	n/a	n/a	n/a	-999	2	[8, 6, 2]	16.0	catFR1	3	R1476J
371.399	0.0	412019	STOP	n/a	n/a	n/a	n/a	-999	2	[-999, -999, -999]	n/a	catFR1	3	R1476J
371.399	2.382	412020	DISTRACT_END	n/a	n/a	n/a	n/a	-999	2	[0, 0, 0]	n/a	catFR1	3	R1476J
373.781	2.009	414404	REC_START	n/a	n/a	n/a	n/a	-999	2	[0, 0, 0]	n/a	catFR1	3	R1476J
375.79	0.702	416410	REC_WORD	2.009	n/a	PIGEON	Birds	-999	2	[0, 0, 0]	n/a	catFR1	3	R1476J
376.492	0.747	417112	REC_WORD	2.711	n/a	PETUNIA	Flowers	9	2	[0, 0, 0]	n/a	catFR1	3	R1476J
377.239	0.372	417859	REC_WORD	3.458	n/a	LAKE	Landscapes	12	2	[0, 0, 0]	n/a	catFR1	3	R1476J
377.611	0.62	418231	REC_WORD	3.83	n/a	STREAM	Landscapes	11	2	[0, 0, 0]	n/a	catFR1	3	R1476J
378.231	3.438	418851	REC_WORD	4.45	n/a	LILY	Flowers	10	2	[0, 0, 0]	n/a	catFR1	3	R1476J
381.669	1.532	422289	REC_WORD	7.888	n/a	WATER	n/a	-999	2	[0, 0, 0]	n/a	catFR1	3	R1476J
383.201	4.458	423821	REC_WORD	9.42	n/a	CROSS	n/a	-999	2	[0, 0, 0]	n/a	catFR1	3	R1476J
387.659	16.29	428278	REC_WORD	13.878	n/a	FOREST	Landscapes	2	2	[0, 0, 0]	n/a	catFR1	3	R1476J
403.949	4.351	444571	REC_END	n/a	n/a	n/a	n/a	-999	2	[0, 0, 0]	n/a	catFR1	3	R1476J
408.3	10.0	448924	COUNTDOWN_START	n/a	n/a	n/a	n/a	-999	3	[0, 0, 0]	n/a	catFR1	3	R1476J
418.649	0.0	459266	COUNTDOWN_END	n/a	n/a	n/a	n/a	-999	3	[0, 0, 0]	n/a	catFR1	3	R1476J
418.649	1.919	459273	ENCODING_START	n/a	n/a	n/a	n/a	-999	3	[0, 0, 0]	n/a	catFR1	3	R1476J
420.568	1.6	461190	WORD	n/a	wordpools/wordpool_categorized_EN.txt	SKIRT	Clothing	1	3	[0, 0, 0]	n/a	catFR1	3	R1476J
422.166	0.867	462782	WORD_OFF	n/a	n/a	SKIRT	Clothing	1	3	[0, 0, 0]	n/a	catFR1	3	R1476J
423.033	1.6	463656	WORD	n/a	wordpools/wordpool_categorized_EN.txt	JEANS	Clothing	2	3	[0, 0, 0]	n/a	catFR1	3	R1476J
424.648	0.869	465270	WORD_OFF	n/a	n/a	JEANS	Clothing	2	3	[0, 0, 0]	n/a	catFR1	3	R1476J
425.517	1.6	466136	WORD	n/a	wordpools/wordpool_categorized_EN.txt	ROOSTER	FarmAnimals	3	3	[0, 0, 0]	n/a	catFR1	3	R1476J
427.133	1.0	467750	WORD_OFF	n/a	n/a	ROOSTER	FarmAnimals	3	3	[0, 0, 0]	n/a	catFR1	3	R1476J
428.133	1.6	468756	WORD	n/a	wordpools/wordpool_categorized_EN.txt	HORSE	FarmAnimals	4	3	[0, 0, 0]	n/a	catFR1	3	R1476J
429.733	0.867	470355	WORD_OFF	n/a	n/a	HORSE	FarmAnimals	4	3	[0, 0, 0]	n/a	catFR1	3	R1476J
430.6	1.6	471222	WORD	n/a	wordpools/wordpool_categorized_EN.txt	RIVER	Landscapes	5	3	[0, 0, 0]	n/a	catFR1	3	R1476J
432.2	0.833	472821	WORD_OFF	n/a	n/a	RIVER	Landscapes	5	3	[0, 0, 0]	n/a	catFR1	3	R1476J
433.033	1.6	473650	WORD	n/a	wordpools/wordpool_categorized_EN.txt	HILLS	Landscapes	6	3	[0, 0, 0]	n/a	catFR1	3	R1476J
434.633	0.833	475249	WORD_OFF	n/a	n/a	HILLS	Landscapes	6	3	[0, 0, 0]	n/a	catFR1	3	R1476J
435.466	1.6	476085	WORD	n/a	wordpools/wordpool_categorized_EN.txt	TURKEY	FarmAnimals	7	3	[0, 0, 0]	n/a	catFR1	3	R1476J
437.067	1.0	477684	WORD_OFF	n/a	n/a	TURKEY	FarmAnimals	7	3	[0, 0, 0]	n/a	catFR1	3	R1476J
438.067	1.6	478684	WORD	n/a	wordpools/wordpool_categorized_EN.txt	SHEEP	FarmAnimals	8	3	[0, 0, 0]	n/a	catFR1	3	R1476J
439.681	1.002	480298	WORD_OFF	n/a	n/a	SHEEP	FarmAnimals	8	3	[0, 0, 0]	n/a	catFR1	3	R1476J
440.683	1.6	481304	WORD	n/a	wordpools/wordpool_categorized_EN.txt	VALLEY	Landscapes	9	3	[0, 0, 0]	n/a	catFR1	3	R1476J
442.283	0.783	482903	WORD_OFF	n/a	n/a	VALLEY	Landscapes	9	3	[0, 0, 0]	n/a	catFR1	3	R1476J
443.066	1.6	483688	WORD	n/a	wordpools/wordpool_categorized_EN.txt	WOODS	Landscapes	10	3	[0, 0, 0]	n/a	catFR1	3	R1476J
444.666	0.816	485287	WORD_OFF	n/a	n/a	WOODS	Landscapes	10	3	[0, 0, 0]	n/a	catFR1	3	R1476J
445.482	1.6	486101	WORD	n/a	wordpools/wordpool_categorized_EN.txt	BLOUSE	Clothing	11	3	[0, 0, 0]	n/a	catFR1	3	R1476J
447.083	0.767	487701	WORD_OFF	n/a	n/a	BLOUSE	Clothing	11	3	[0, 0, 0]	n/a	catFR1	3	R1476J
447.85	1.6	488470	WORD	n/a	wordpools/wordpool_categorized_EN.txt	COAT	Clothing	12	3	[0, 0, 0]	n/a	catFR1	3	R1476J
449.467	0.001	490084	WORD_OFF	n/a	n/a	COAT	Clothing	12	3	[0, 0, 0]	n/a	catFR1	3	R1476J
449.468	0.0	490084	ENCODING_END	n/a	n/a	n/a	n/a	-999	3	[0, 0, 0]	n/a	catFR1	3	R1476J
449.467	0.001	490084	PROB	3.499	n/a	n/a	n/a	-999	3	[3, 3, 5]	11.0	catFR1	3	R1476J
449.468	0.0	490085	START	n/a	n/a	n/a	n/a	-999	3	[-999, -999, -999]	n/a	catFR1	3	R1476J
449.468	3.516	490092	DISTRACT_START	n/a	n/a	n/a	n/a	-999	3	[0, 0, 0]	n/a	catFR1	3	R1476J
452.984	3.5	493601	PROB	3.482	n/a	n/a	n/a	-999	3	[5, 8, 8]	21.0	catFR1	3	R1476J
456.484	3.816	497100	PROB	3.799	n/a	n/a	n/a	-999	3	[5, 7, 7]	19.0	catFR1	3	R1476J
460.3	4.183	500916	PROB	4.166	n/a	n/a	n/a	-999	3	[6, 6, 1]	13.0	catFR1	3	R1476J
464.483	6.116	505099	PROB	6.1	n/a	n/a	n/a	-999	3	[7, 3, 4]	14.0	catFR1	3	R1476J
470.599	0.0	511212	DISTRACT_END	n/a	n/a	n/a	n/a	-999	3	[0, 0, 0]	n/a	catFR1	3	R1476J
470.599	2.234	511215	STOP	n/a	n/a	n/a	n/a	-999	3	[-999, -999, -999]	n/a	catFR1	3	R1476J
472.833	1.52	513449	REC_START	n/a	n/a	n/a	n/a	-999	3	[0, 0, 0]	n/a	catFR1	3	R1476J
474.353	4.869	514969	REC_WORD_VV	1.52	n/a	<>	n/a	-999	3	[0, 0, 0]	n/a	catFR1	3	R1476J
479.222	3.419	519837	REC_WORD_VV	6.389	n/a	<>	n/a	-999	3	[0, 0, 0]	n/a	catFR1	3	R1476J
482.641	1.737	523256	REC_WORD	9.808	n/a	HILLS	Landscapes	6	3	[0, 0, 0]	n/a	catFR1	3	R1476J
484.378	0.8	524993	REC_WORD	11.545	n/a	LAKE	Landscapes	-999	3	[0, 0, 0]	n/a	catFR1	3	R1476J
485.178	2.551	525793	REC_WORD	12.345	n/a	FOREST	Landscapes	-999	3	[0, 0, 0]	n/a	catFR1	3	R1476J
487.729	1.355	528344	REC_WORD	14.896	n/a	COAT	Clothing	12	3	[0, 0, 0]	n/a	catFR1	3	R1476J
489.084	3.122	529699	REC_WORD	16.251	n/a	PONCHO	n/a	-999	3	[0, 0, 0]	n/a	catFR1	3	R1476J
492.206	4.81	532821	REC_WORD_VV	19.373	n/a	<>	n/a	-999	3	[0, 0, 0]	n/a	catFR1	3	R1476J
497.016	5.992	537631	REC_WORD	24.183	n/a	APRON	n/a	-999	3	[0, 0, 0]	n/a	catFR1	3	R1476J
503.008	20.158	543623	REC_END	n/a	n/a	n/a	n/a	-999	3	[0, 0, 0]	n/a	catFR1	3	R1476J
523.166	10.0	563781	COUNTDOWN_START	n/a	n/a	n/a	n/a	-999	4	[0, 0, 0]	n/a	catFR1	3	R1476J
533.516	0.0	574130	COUNTDOWN_END	n/a	n/a	n/a	n/a	-999	4	[0, 0, 0]	n/a	catFR1	3	R1476J
533.516	2.166	574130	ENCODING_START	n/a	n/a	n/a	n/a	-999	4	[0, 0, 0]	n/a	catFR1	3	R1476J
535.682	1.6	576299	WORD	n/a	wordpools/wordpool_categorized_EN.txt	POTATO	Vegetables	1	4	[0, 0, 0]	n/a	catFR1	3	R1476J
537.283	0.766	577898	WORD_OFF	n/a	n/a	POTATO	Vegetables	1	4	[0, 0, 0]	n/a	catFR1	3	R1476J
538.049	1.6	578661	WORD	n/a	wordpools/wordpool_categorized_EN.txt	CORN	Vegetables	2	4	[0, 0, 0]	n/a	catFR1	3	R1476J
539.649	0.833	580260	WORD_OFF	n/a	n/a	CORN	Vegetables	2	4	[0, 0, 0]	n/a	catFR1	3	R1476J
540.482	1.6	581097	WORD	n/a	wordpools/wordpool_categorized_EN.txt	ORCHID	Flowers	3	4	[0, 0, 0]	n/a	catFR1	3	R1476J
542.082	0.8	582696	WORD_OFF	n/a	n/a	ORCHID	Flowers	3	4	[0, 0, 0]	n/a	catFR1	3	R1476J
542.882	1.6	583495	WORD	n/a	wordpools/wordpool_categorized_EN.txt	CARNATION	Flowers	4	4	[0, 0, 0]	n/a	catFR1	3	R1476J
544.482	0.867	585094	WORD_OFF	n/a	n/a	CARNATION	Flowers	4	4	[0, 0, 0]	n/a	catFR1	3	R1476J
545.349	1.6	585960	WORD	n/a	wordpools/wordpool_categorized_EN.txt	KNEE	BodyParts	5	4	[0, 0, 0]	n/a	catFR1	3	R1476J
546.966	0.848	587582	WORD_OFF	n/a	n/a	KNEE	BodyParts	5	4	[0, 0, 0]	n/a	catFR1	3	R1476J
547.814	1.6	588426	WORD	n/a	wordpools/wordpool_categorized_EN.txt	EAR	BodyParts	6	4	[0, 0, 0]	n/a	catFR1	3	R1476J
549.416	0.867	590032	WORD_OFF	n/a	n/a	EAR	BodyParts	6	4	[0, 0, 0]	n/a	catFR1	3	R1476J
550.283	1.6	590898	WORD	n/a	wordpools/wordpool_categorized_EN.txt	CARROT	Vegetables	7	4	[0, 0, 0]	n/a	catFR1	3	R1476J
551.899	0.783	592512	WORD_OFF	n/a	n/a	CARROT	Vegetables	7	4	[0, 0, 0]	n/a	catFR1	3	R1476J
552.682	1.6	593297	WORD	n/a	wordpools/wordpool_categorized_EN.txt	LETTUCE	Vegetables	8	4	[0, 0, 0]	n/a	catFR1	3	R1476J
554.283	0.898	594896	WORD_OFF	n/a	n/a	LETTUCE	Vegetables	8	4	[0, 0, 0]	n/a	catFR1	3	R1476J
555.181	1.6	595791	WORD	n/a	wordpools/wordpool_categorized_EN.txt	ROSE	Flowers	9	4	[0, 0, 0]	n/a	catFR1	3	R1476J
556.799	0.967	597413	WORD_OFF	n/a	n/a	ROSE	Flowers	9	4	[0, 0, 0]	n/a	catFR1	3	R1476J
557.766	1.6	598383	WORD	n/a	wordpools/wordpool_categorized_EN.txt	DAISY	Flowers	10	4	[0, 0, 0]	n/a	catFR1	3	R1476J
559.381	0.918	599996	WORD_OFF	n/a	n/a	DAISY	Flowers	10	4	[0, 0, 0]	n/a	catFR1	3	R1476J
560.299	1.6	600914	WORD	n/a	wordpools/wordpool_categorized_EN.txt	ARM	BodyParts	11	4	[0, 0, 0]	n/a	catFR1	3	R1476J
561.915	0.917	602528	WORD_OFF	n/a	n/a	ARM	BodyParts	11	4	[0, 0, 0]	n/a	catFR1	3	R1476J
562.832	1.6	603446	WORD	n/a	wordpools/wordpool_categorized_EN.txt	HAND	BodyParts	12	4	[0, 0, 0]	n/a	catFR1	3	R1476J
564.432	0.0	605044	PROB	4.949	n/a	n/a	n/a	-999	4	[6, 5, 2]	13.0	catFR1	3	R1476J
564.432	0.001	605045	WORD_OFF	n/a	n/a	HAND	BodyParts	12	4	[0, 0, 0]	n/a	catFR1	3	R1476J
564.433	0.0	605045	ENCODING_END	n/a	n/a	n/a	n/a	-999	4	[0, 0, 0]	n/a	catFR1	3	R1476J
564.433	0.0	605045	DISTRACT_START	n/a	n/a	n/a	n/a	-999	4	[0, 0, 0]	n/a	catFR1	3	R1476J
564.433	4.966	605045	START	n/a	n/a	n/a	n/a	-999	4	[-999, -999, -999]	n/a	catFR1	3	R1476J
569.399	7.3	610011	PROB	7.284	n/a	n/a	n/a	-999	4	[2, 6, 3]	11.0	catFR1	3	R1476J
576.699	3.785	617310	PROB	3.765	n/a	n/a	n/a	-999	4	[7, 3, 6]	16.0	catFR1	3	R1476J
580.484	4.548	621095	PROB	4.533	n/a	n/a	n/a	-999	4	[8, 3, 7]	18.0	catFR1	3	R1476J
585.032	0.0	625643	STOP	n/a	n/a	n/a	n/a	-999	4	[-999, -999, -999]	n/a	catFR1	3	R1476J
585.032	2.332	625648	DISTRACT_END	n/a	n/a	n/a	n/a	-999	4	[0, 0, 0]	n/a	catFR1	3	R1476J
587.364	1.172	627980	REC_START	n/a	n/a	n/a	n/a	-999	4	[0, 0, 0]	n/a	catFR1	3	R1476J
588.536	1.001	629147	REC_WORD	1.172	n/a	ORCHID	Flowers	3	4	[0, 0, 0]	n/a	catFR1	3	R1476J
589.537	2.468	630148	REC_WORD	2.173	n/a	ROSE	Flowers	9	4	[0, 0, 0]	n/a	catFR1	3	R1476J
592.005	2.011	632616	REC_WORD	4.641	n/a	TORNADO	n/a	-999	4	[0, 0, 0]	n/a	catFR1	3	R1476J
594.016	2.643	634627	REC_WORD	6.652	n/a	TOMATO	n/a	-999	4	[0, 0, 0]	n/a	catFR1	3	R1476J
596.659	3.933	637270	REC_WORD_VV	9.295	n/a	<>	n/a	-999	4	[0, 0, 0]	n/a	catFR1	3	R1476J
600.592	16.956	641202	REC_WORD	13.228	n/a	NATION	n/a	-999	4	[0, 0, 0]	n/a	catFR1	3	R1476J
617.548	2.252	658162	REC_END	n/a	n/a	n/a	n/a	-999	4	[0, 0, 0]	n/a	catFR1	3	R1476J
619.8	10.0	660412	COUNTDOWN_START	n/a	n/a	n/a	n/a	-999	5	[0, 0, 0]	n/a	catFR1	3	R1476J
630.149	0.0	670761	COUNTDOWN_END	n/a	n/a	n/a	n/a	-999	5	[0, 0, 0]	n/a	catFR1	3	R1476J
630.149	1.967	670761	ENCODING_START	n/a	n/a	n/a	n/a	-999	5	[0, 0, 0]	n/a	catFR1	3	R1476J
632.116	1.6	672725	WORD	n/a	wordpools/wordpool_categorized_EN.txt	BINDER	OfficeSupplies	1	5	[0, 0, 0]	n/a	catFR1	3	R1476J
633.717	0.8	674330	WORD_OFF	n/a	n/a	BINDER	OfficeSupplies	1	5	[0, 0, 0]	n/a	catFR1	3	R1476J
634.517	1.6	675129	WORD	n/a	wordpools/wordpool_categorized_EN.txt	PENCIL	OfficeSupplies	2	5	[0, 0, 0]	n/a	catFR1	3	R1476J
636.116	0.867	676728	WORD_OFF	n/a	n/a	PENCIL	OfficeSupplies	2	5	[0, 0, 0]	n/a	catFR1	3	R1476J
636.983	1.6	677594	WORD	n/a	wordpools/wordpool_categorized_EN.txt	BALL	Toys	3	5	[0, 0, 0]	n/a	catFR1	3	R1476J
638.599	0.784	679208	WORD_OFF	n/a	n/a	BALL	Toys	3	5	[0, 0, 0]	n/a	catFR1	3	R1476J
639.383	1.6	679993	WORD	n/a	wordpools/wordpool_categorized_EN.txt	SLINKY	Toys	4	5	[0, 0, 0]	n/a	catFR1	3	R1476J
640.999	0.884	681607	WORD_OFF	n/a	n/a	SLINKY	Toys	4	5	[0, 0, 0]	n/a	catFR1	3	R1476J
641.883	1.6	682495	WORD	n/a	wordpools/wordpool_categorized_EN.txt	SNOW	Weather	5	5	[0, 0, 0]	n/a	catFR1	3	R1476J
643.483	0.917	684094	WORD_OFF	n/a	n/a	SNOW	Weather	5	5	[0, 0, 0]	n/a	catFR1	3	R1476J
644.4	1.6	685012	WORD	n/a	wordpools/wordpool_categorized_EN.txt	THUNDERSTORM	Weather	6	5	[0, 0, 0]	n/a	catFR1	3	R1476J
646.0	0.865	686611	WORD_OFF	n/a	n/a	THUNDERSTORM	Weather	6	5	[0, 0, 0]	n/a	catFR1	3	R1476J
646.865	1.6	687477	WORD	n/a	wordpools/wordpool_categorized_EN.txt	MARKER	OfficeSupplies	7	5	[0, 0, 0]	n/a	catFR1	3	R1476J
648.466	0.768	689076	WORD_OFF	n/a	n/a	MARKER	OfficeSupplies	7	5	[0, 0, 0]	n/a	catFR1	3	R1476J
649.234	1.6	689846	WORD	n/a	wordpools/wordpool_categorized_EN.txt	FOLDER	OfficeSupplies	8	5	[0, 0, 0]	n/a	catFR1	3	R1476J
650.849	0.934	691460	WORD_OFF	n/a	n/a	FOLDER	OfficeSupplies	8	5	[0, 0, 0]	n/a	catFR1	3	R1476J
651.783	1.6	692393	WORD	n/a	wordpools/wordpool_categorized_EN.txt	RAIN	Weather	9	5	[0, 0, 0]	n/a	catFR1	3	R1476J
653.399	0.818	694007	WORD_OFF	n/a	n/a	RAIN	Weather	9	5	[0, 0, 0]	n/a	catFR1	3	R1476J
654.217	1.6	694829	WORD	n/a	wordpools/wordpool_categorized_EN.txt	FOG	Weather	10	5	[0, 0, 0]	n/a	catFR1	3	R1476J
655.833	0.917	696442	WORD_OFF	n/a	n/a	FOG	Weather	10	5	[0, 0, 0]	n/a	catFR1	3	R1476J
656.75	1.6	697360	WORD	n/a	wordpools/wordpool_categorized_EN.txt	MARBLES	Toys	11	5	[0, 0, 0]	n/a	catFR1	3	R1476J
658.366	0.999	698974	WORD_OFF	n/a	n/a	MARBLES	Toys	11	5	[0, 0, 0]	n/a	catFR1	3	R1476J
659.365	1.6	699974	WORD	n/a	wordpools/wordpool_categorized_EN.txt	BASKETBALL	Toys	12	5	[0, 0, 0]	n/a	catFR1	3	R1476J
660.966	0.001	701573	WORD_OFF	n/a	n/a	BASKETBALL	Toys	12	5	[0, 0, 0]	n/a	catFR1	3	R1476J
660.967	0.001	701575	PROB	4.716	n/a	n/a	n/a	-999	5	[2, 8, 3]	13.0	catFR1	3	R1476J
660.968	0.0	701576	START	n/a	n/a	n/a	n/a	-999	5	[-999, -999, -999]	n/a	catFR1	3	R1476J
660.968	0.0	701580	ENCODING_END	n/a	n/a	n/a	n/a	-999	5	[0, 0, 0]	n/a	catFR1	3	R1476J
660.968	4.732	701580	DISTRACT_START	n/a	n/a	n/a	n/a	-999	5	[0, 0, 0]	n/a	catFR1	3	R1476J
665.7	4.866	706308	PROB	4.85	n/a	n/a	n/a	-999	5	[3, 2, 1]	6.0	catFR1	3	R1476J
670.566	3.118	711173	PROB	3.099	n/a	n/a	n/a	-999	5	[5, 1, 6]	12.0	catFR1	3	R1476J
673.684	5.332	714291	PROB	5.315	n/a	n/a	n/a	-999	5	[7, 6, 5]	18.0	catFR1	3	R1476J
679.016	4.067	719623	PROB	4.049	n/a	n/a	n/a	-999	5	[3, 4, 8]	15.0	catFR1	3	R1476J
683.083	0.0	723690	STOP	n/a	n/a	n/a	n/a	-999	5	[-999, -999, -999]	n/a	catFR1	3	R1476J
683.083	2.249	723693	DISTRACT_END	n/a	n/a	n/a	n/a	-999	5	[0, 0, 0]	n/a	catFR1	3	R1476J
685.332	0.638	725944	REC_START	n/a	n/a	n/a	n/a	-999	5	[0, 0, 0]	n/a	catFR1	3	R1476J
685.97	0.678	726577	REC_WORD	0.638	n/a	SNOW	Weather	5	5	[0, 0, 0]	n/a	catFR1	3	R1476J
686.648	0.596	727255	REC_WORD	1.316	n/a	FOG	Weather	10	5	[0, 0, 0]	n/a	catFR1	3	R1476J
687.244	0.491	727851	REC_WORD	1.912	n/a	RAIN	Weather	9	5	[0, 0, 0]	n/a	catFR1	3	R1476J
687.735	1.089	728342	REC_WORD	2.403	n/a	THUNDERSTORM	Weather	6	5	[0, 0, 0]	n/a	catFR1	3	R1476J
688.824	1.287	729431	REC_WORD	3.492	n/a	SLINKY	Toys	4	5	[0, 0, 0]	n/a	catFR1	3	R1476J
690.111	25.42	730718	REC_WORD	4.779	n/a	BALL	Toys	3	5	[0, 0, 0]	n/a	catFR1	3	R1476J
715.531	1.902	756140	REC_END	n/a	n/a	n/a	n/a	-999	5	[0, 0, 0]	n/a	catFR1	3	R1476J
717.433	10.0	758043	COUNTDOWN_START	n/a	n/a	n/a	n/a	-999	6	[0, 0, 0]	n/a	catFR1	3	R1476J
727.781	0.0	768385	COUNTDOWN_END	n/a	n/a	n/a	n/a	-999	6	[0, 0, 0]	n/a	catFR1	3	R1476J
727.781	2.151	768392	ENCODING_START	n/a	n/a	n/a	n/a	-999	6	[0, 0, 0]	n/a	catFR1	3	R1476J
729.932	1.6	770539	WORD	n/a	wordpools/wordpool_categorized_EN.txt	WHALE	OceanAnimals	1	6	[0, 0, 0]	n/a	catFR1	3	R1476J
731.533	0.916	772138	WORD_OFF	n/a	n/a	WHALE	OceanAnimals	1	6	[0, 0, 0]	n/a	catFR1	3	R1476J
732.449	1.6	773056	WORD	n/a	wordpools/wordpool_categorized_EN.txt	PLANKTON	OceanAnimals	2	6	[0, 0, 0]	n/a	catFR1	3	R1476J
734.066	1.0	774670	WORD_OFF	n/a	n/a	PLANKTON	OceanAnimals	2	6	[0, 0, 0]	n/a	catFR1	3	R1476J
735.066	1.6	775669	WORD	n/a	wordpools/wordpool_categorized_EN.txt	PANTS	Clothing	3	6	[0, 0, 0]	n/a	catFR1	3	R1476J
736.667	0.983	777276	WORD_OFF	n/a	n/a	PANTS	Clothing	3	6	[0, 0, 0]	n/a	catFR1	3	R1476J
737.65	1.6	778253	WORD	n/a	wordpools/wordpool_categorized_EN.txt	SHIRT	Clothing	4	6	[0, 0, 0]	n/a	catFR1	3	R1476J
739.267	0.883	779874	WORD_OFF	n/a	n/a	SHIRT	Clothing	4	6	[0, 0, 0]	n/a	catFR1	3	R1476J
740.15	1.6	780755	WORD	n/a	wordpools/wordpool_categorized_EN.txt	TRUCK	Vehicles	5	6	[0, 0, 0]	n/a	catFR1	3	R1476J
741.749	0.819	782354	WORD_OFF	n/a	n/a	TRUCK	Vehicles	5	6	[0, 0, 0]	n/a	catFR1	3	R1476J
742.568	1.6	783176	WORD	n/a	wordpools/wordpool_categorized_EN.txt	CAR	Vehicles	6	6	[0, 0, 0]	n/a	catFR1	3	R1476J
744.167	0.915	784775	WORD_OFF	n/a	n/a	CAR	Vehicles	6	6	[0, 0, 0]	n/a	catFR1	3	R1476J
745.082	1.6	785685	WORD	n/a	wordpools/wordpool_categorized_EN.txt	LOBSTER	OceanAnimals	7	6	[0, 0, 0]	n/a	catFR1	3	R1476J
746.683	0.917	787292	WORD_OFF	n/a	n/a	LOBSTER	OceanAnimals	7	6	[0, 0, 0]	n/a	catFR1	3	R1476J
747.6	1.6	788202	WORD	n/a	wordpools/wordpool_categorized_EN.txt	SQUID	OceanAnimals	8	6	[0, 0, 0]	n/a	catFR1	3	R1476J
749.215	0.852	789824	WORD_OFF	n/a	n/a	SQUID	OceanAnimals	8	6	[0, 0, 0]	n/a	catFR1	3	R1476J
750.067	1.6	790675	WORD	n/a	wordpools/wordpool_categorized_EN.txt	MOPED	Vehicles	9	6	[0, 0, 0]	n/a	catFR1	3	R1476J
751.683	0.782	792289	WORD_OFF	n/a	n/a	MOPED	Vehicles	9	6	[0, 0, 0]	n/a	catFR1	3	R1476J
752.465	1.6	793074	WORD	n/a	wordpools/wordpool_categorized_EN.txt	PLANE	Vehicles	10	6	[0, 0, 0]	n/a	catFR1	3	R1476J
754.066	0.984	794673	WORD_OFF	n/a	n/a	PLANE	Vehicles	10	6	[0, 0, 0]	n/a	catFR1	3	R1476J
755.05	1.6	795657	WORD	n/a	wordpools/wordpool_categorized_EN.txt	DRESS	Clothing	11	6	[0, 0, 0]	n/a	catFR1	3	R1476J
756.65	0.982	797256	WORD_OFF	n/a	n/a	DRESS	Clothing	11	6	[0, 0, 0]	n/a	catFR1	3	R1476J
757.632	1.6	798241	WORD	n/a	wordpools/wordpool_categorized_EN.txt	SHORTS	Clothing	12	6	[0, 0, 0]	n/a	catFR1	3	R1476J
759.25	0.0	799854	PROB	4.1	n/a	n/a	n/a	-999	6	[5, 6, 3]	14.0	catFR1	3	R1476J
759.25	0.001	799855	WORD_OFF	n/a	n/a	SHORTS	Clothing	12	6	[0, 0, 0]	n/a	catFR1	3	R1476J
759.251	0.0	799855	ENCODING_END	n/a	n/a	n/a	n/a	-999	6	[0, 0, 0]	n/a	catFR1	3	R1476J
759.251	0.0	799855	DISTRACT_START	n/a	n/a	n/a	n/a	-999	6	[0, 0, 0]	n/a	catFR1	3	R1476J
759.251	4.116	799855	START	n/a	n/a	n/a	n/a	-999	6	[-999, -999, -999]	n/a	catFR1	3	R1476J
763.367	3.65	803971	PROB	3.632	n/a	n/a	n/a	-999	6	[8, 2, 3]	13.0	catFR1	3	R1476J
767.017	3.048	807620	PROB	3.033	n/a	n/a	n/a	-999	6	[1, 2, 1]	4.0	catFR1	3	R1476J
770.065	4.134	810668	PROB	4.117	n/a	n/a	n/a	-999	6	[7, 3, 7]	17.0	catFR1	3	R1476J
774.199	2.584	814802	PROB	2.567	n/a	n/a	n/a	-999	6	[7, 3, 1]	11.0	catFR1	3	R1476J
776.783	3.933	817386	PROB	3.915	n/a	n/a	n/a	-999	6	[1, 6, 3]	10.0	catFR1	3	R1476J
780.716	0.0	821319	STOP	n/a	n/a	n/a	n/a	-999	6	[-999, -999, -999]	n/a	catFR1	3	R1476J
780.716	2.148	821323	DISTRACT_END	n/a	n/a	n/a	n/a	-999	6	[0, 0, 0]	n/a	catFR1	3	R1476J
782.864	0.808	823471	REC_START	n/a	n/a	n/a	n/a	-999	6	[0, 0, 0]	n/a	catFR1	3	R1476J
783.672	0.281	824275	REC_WORD	0.808	n/a	PANTS	Clothing	3	6	[0, 0, 0]	n/a	catFR1	3	R1476J
783.953	0.767	824556	REC_WORD	1.089	n/a	SHORTS	Clothing	12	6	[0, 0, 0]	n/a	catFR1	3	R1476J
784.72	0.988	825323	REC_WORD	1.856	n/a	TRUCK	Vehicles	5	6	[0, 0, 0]	n/a	catFR1	3	R1476J
785.708	0.469	826311	REC_WORD	2.844	n/a	CAR	Vehicles	6	6	[0, 0, 0]	n/a	catFR1	3	R1476J
786.177	0.874	826780	REC_WORD	3.313	n/a	SHIRT	Clothing	4	6	[0, 0, 0]	n/a	catFR1	3	R1476J
787.051	4.717	827654	REC_WORD	4.187	n/a	PLANKTON	OceanAnimals	2	6	[0, 0, 0]	n/a	catFR1	3	R1476J
791.768	9.432	832370	REC_WORD	8.904	n/a	SHRIMP	n/a	-999	6	[0, 0, 0]	n/a	catFR1	3	R1476J
801.2	11.836	841802	REC_WORD	18.336	n/a	COAT	Clothing	-999	6	[0, 0, 0]	n/a	catFR1	3	R1476J
813.036	2.581	853637	REC_END	n/a	n/a	n/a	n/a	-999	6	[0, 0, 0]	n/a	catFR1	3	R1476J
815.617	10.0	856221	COUNTDOWN_START	n/a	n/a	n/a	n/a	-999	7	[0, 0, 0]	n/a	catFR1	3	R1476J
825.966	0.0	866570	COUNTDOWN_END	n/a	n/a	n/a	n/a	-999	7	[0, 0, 0]	n/a	catFR1	3	R1476J
825.966	2.101	866570	ENCODING_START	n/a	n/a	n/a	n/a	-999	7	[0, 0, 0]	n/a	catFR1	3	R1476J
828.067	1.6	868665	WORD	n/a	wordpools/wordpool_categorized_EN.txt	BARBIE	Toys	1	7	[0, 0, 0]	n/a	catFR1	3	R1476J
829.667	0.782	870272	WORD_OFF	n/a	n/a	BARBIE	Toys	1	7	[0, 0, 0]	n/a	catFR1	3	R1476J
830.449	1.6	871049	WORD	n/a	wordpools/wordpool_categorized_EN.txt	FRISBEE	Toys	2	7	[0, 0, 0]	n/a	catFR1	3	R1476J
832.05	0.817	872656	WORD_OFF	n/a	n/a	FRISBEE	Toys	2	7	[0, 0, 0]	n/a	catFR1	3	R1476J
832.867	1.6	873470	WORD	n/a	wordpools/wordpool_categorized_EN.txt	RECLINER	Furniture	3	7	[0, 0, 0]	n/a	catFR1	3	R1476J
834.483	0.867	875084	WORD_OFF	n/a	n/a	RECLINER	Furniture	3	7	[0, 0, 0]	n/a	catFR1	3	R1476J
835.35	1.6	875950	WORD	n/a	wordpools/wordpool_categorized_EN.txt	DRESSER	Furniture	4	7	[0, 0, 0]	n/a	catFR1	3	R1476J
836.95	0.85	877549	WORD_OFF	n/a	n/a	DRESSER	Furniture	4	7	[0, 0, 0]	n/a	catFR1	3	R1476J
837.8	1.6	878400	WORD	n/a	wordpools/wordpool_categorized_EN.txt	WINDOW	Building	5	7	[0, 0, 0]	n/a	catFR1	3	R1476J
839.416	0.883	880014	WORD_OFF	n/a	n/a	WINDOW	Building	5	7	[0, 0, 0]	n/a	catFR1	3	R1476J
840.299	1.6	880902	WORD	n/a	wordpools/wordpool_categorized_EN.txt	CEILING	Building	6	7	[0, 0, 0]	n/a	catFR1	3	R1476J
841.899	0.851	882502	WORD_OFF	n/a	n/a	CEILING	Building	6	7	[0, 0, 0]	n/a	catFR1	3	R1476J
842.75	1.6	883353	WORD	n/a	wordpools/wordpool_categorized_EN.txt	BLOCKS	Toys	7	7	[0, 0, 0]	n/a	catFR1	3	R1476J
844.35	0.9	884952	WORD_OFF	n/a	n/a	BLOCKS	Toys	7	7	[0, 0, 0]	n/a	catFR1	3	R1476J
845.25	1.6	885855	WORD	n/a	wordpools/wordpool_categorized_EN.txt	FOOTBALL	Toys	8	7	[0, 0, 0]	n/a	catFR1	3	R1476J
846.867	0.833	887469	WORD_OFF	n/a	n/a	FOOTBALL	Toys	8	7	[0, 0, 0]	n/a	catFR1	3	R1476J
847.7	1.6	888298	WORD	n/a	wordpools/wordpool_categorized_EN.txt	TABLE	Furniture	9	7	[0, 0, 0]	n/a	catFR1	3	R1476J
849.316	0.767	889919	WORD_OFF	n/a	n/a	TABLE	Furniture	9	7	[0, 0, 0]	n/a	catFR1	3	R1476J
850.083	1.6	890682	WORD	n/a	wordpools/wordpool_categorized_EN.txt	BED	Furniture	10	7	[0, 0, 0]	n/a	catFR1	3	R1476J
851.683	0.983	892281	WORD_OFF	n/a	n/a	BED	Furniture	10	7	[0, 0, 0]	n/a	catFR1	3	R1476J
852.666	1.6	893265	WORD	n/a	wordpools/wordpool_categorized_EN.txt	ATTIC	Building	11	7	[0, 0, 0]	n/a	catFR1	3	R1476J
854.268	0.831	894872	WORD_OFF	n/a	n/a	ATTIC	Building	11	7	[0, 0, 0]	n/a	catFR1	3	R1476J
855.099	1.6	895701	WORD	n/a	wordpools/wordpool_categorized_EN.txt	WALL	Building	12	7	[0, 0, 0]	n/a	catFR1	3	R1476J
856.699	0.0	897299	PROB	3.467	n/a	n/a	n/a	-999	7	[6, 1, 4]	11.0	catFR1	3	R1476J
856.699	0.001	897300	WORD_OFF	n/a	n/a	WALL	Building	12	7	[0, 0, 0]	n/a	catFR1	3	R1476J
856.7	0.0	897300	ENCODING_END	n/a	n/a	n/a	n/a	-999	7	[0, 0, 0]	n/a	catFR1	3	R1476J
856.7	0.0	897300	DISTRACT_START	n/a	n/a	n/a	n/a	-999	7	[0, 0, 0]	n/a	catFR1	3	R1476J
856.7	3.483	897300	START	n/a	n/a	n/a	n/a	-999	7	[-999, -999, -999]	n/a	catFR1	3	R1476J
860.183	5.25	900782	PROB	5.234	n/a	n/a	n/a	-999	7	[4, 2, 2]	8.0	catFR1	3	R1476J
865.433	7.7	906032	PROB	7.683	n/a	n/a	n/a	-999	7	[7, 6, 8]	21.0	catFR1	3	R1476J
873.133	4.283	913732	PROB	4.266	n/a	n/a	n/a	-999	7	[5, 5, 2]	12.0	catFR1	3	R1476J
877.416	0.0	918014	DISTRACT_END	n/a	n/a	n/a	n/a	-999	7	[0, 0, 0]	n/a	catFR1	3	R1476J
877.416	2.067	918015	STOP	n/a	n/a	n/a	n/a	-999	7	[-999, -999, -999]	n/a	catFR1	3	R1476J
879.483	1.293	920087	REC_START	n/a	n/a	n/a	n/a	-999	7	[0, 0, 0]	n/a	catFR1	3	R1476J
880.776	0.86	921375	REC_WORD	1.293	n/a	WINDOW	Building	5	7	[0, 0, 0]	n/a	catFR1	3	R1476J
881.636	1.368	922235	REC_WORD	2.153	n/a	DRESSER	Furniture	4	7	[0, 0, 0]	n/a	catFR1	3	R1476J
883.004	0.798	923603	REC_WORD	3.521	n/a	BED	Furniture	10	7	[0, 0, 0]	n/a	catFR1	3	R1476J
883.802	0.966	924401	REC_WORD	4.319	n/a	CEILING	Building	6	7	[0, 0, 0]	n/a	catFR1	3	R1476J
884.768	1.385	925366	REC_WORD	5.285	n/a	WALL	Building	12	7	[0, 0, 0]	n/a	catFR1	3	R1476J
886.153	3.443	926751	REC_WORD	6.67	n/a	RECLINER	Furniture	3	7	[0, 0, 0]	n/a	catFR1	3	R1476J
889.596	2.41	930194	REC_WORD	10.113	n/a	TABLE	Furniture	9	7	[0, 0, 0]	n/a	catFR1	3	R1476J
892.006	0.667	932604	REC_WORD	12.523	n/a	FOOTBALL	Toys	8	7	[0, 0, 0]	n/a	catFR1	3	R1476J
892.673	16.988	933271	REC_WORD	13.19	n/a	BASKETBALL	Toys	-999	7	[0, 0, 0]	n/a	catFR1	3	R1476J
909.661	3.206	950261	REC_END	n/a	n/a	n/a	n/a	-999	7	[0, 0, 0]	n/a	catFR1	3	R1476J
912.867	10.0	953467	COUNTDOWN_START	n/a	n/a	n/a	n/a	-999	8	[0, 0, 0]	n/a	catFR1	3	R1476J
923.215	0.0	963816	COUNTDOWN_END	n/a	n/a	n/a	n/a	-999	8	[0, 0, 0]	n/a	catFR1	3	R1476J
923.215	2.018	963816	ENCODING_START	n/a	n/a	n/a	n/a	-999	8	[0, 0, 0]	n/a	catFR1	3	R1476J
925.233	1.6	965829	WORD	n/a	wordpools/wordpool_categorized_EN.txt	PINE	Trees	1	8	[0, 0, 0]	n/a	catFR1	3	R1476J
926.833	0.9	967429	WORD_OFF	n/a	n/a	PINE	Trees	1	8	[0, 0, 0]	n/a	catFR1	3	R1476J
927.733	1.6	968332	WORD	n/a	wordpools/wordpool_categorized_EN.txt	EVERGREEN	Trees	2	8	[0, 0, 0]	n/a	catFR1	3	R1476J
929.35	0.832	969946	WORD_OFF	n/a	n/a	EVERGREEN	Trees	2	8	[0, 0, 0]	n/a	catFR1	3	R1476J
930.182	1.6	970782	WORD	n/a	wordpools/wordpool_categorized_EN.txt	CHAIR	Furniture	3	8	[0, 0, 0]	n/a	catFR1	3	R1476J
931.8	0.914	972403	WORD_OFF	n/a	n/a	CHAIR	Furniture	3	8	[0, 0, 0]	n/a	catFR1	3	R1476J
932.714	1.6	973314	WORD	n/a	wordpools/wordpool_categorized_EN.txt	SHELF	Furniture	4	8	[0, 0, 0]	n/a	catFR1	3	R1476J
934.316	0.983	974913	WORD_OFF	n/a	n/a	SHELF	Furniture	4	8	[0, 0, 0]	n/a	catFR1	3	R1476J
935.299	1.6	975898	WORD	n/a	wordpools/wordpool_categorized_EN.txt	MICROWAVE	Electronics	5	8	[0, 0, 0]	n/a	catFR1	3	R1476J
936.899	1.0	977497	WORD_OFF	n/a	n/a	MICROWAVE	Electronics	5	8	[0, 0, 0]	n/a	catFR1	3	R1476J
937.899	1.6	978496	WORD	n/a	wordpools/wordpool_categorized_EN.txt	COMPUTER	Electronics	6	8	[0, 0, 0]	n/a	catFR1	3	R1476J
939.5	0.849	980095	WORD_OFF	n/a	n/a	COMPUTER	Electronics	6	8	[0, 0, 0]	n/a	catFR1	3	R1476J
940.349	1.6	980946	WORD	n/a	wordpools/wordpool_categorized_EN.txt	CABINET	Furniture	7	8	[0, 0, 0]	n/a	catFR1	3	R1476J
941.949	0.95	982545	WORD_OFF	n/a	n/a	CABINET	Furniture	7	8	[0, 0, 0]	n/a	catFR1	3	R1476J
942.899	1.6	983493	WORD	n/a	wordpools/wordpool_categorized_EN.txt	DESK	Furniture	8	8	[0, 0, 0]	n/a	catFR1	3	R1476J
944.515	1.0	985114	WORD_OFF	n/a	n/a	DESK	Furniture	8	8	[0, 0, 0]	n/a	catFR1	3	R1476J
945.515	1.6	986114	WORD	n/a	wordpools/wordpool_categorized_EN.txt	HEADPHONES	Electronics	9	8	[0, 0, 0]	n/a	catFR1	3	R1476J
947.116	0.85	987713	WORD_OFF	n/a	n/a	HEADPHONES	Electronics	9	8	[0, 0, 0]	n/a	catFR1	3	R1476J
947.966	1.6	988564	WORD	n/a	wordpools/wordpool_categorized_EN.txt	TELEVISION	Electronics	10	8	[0, 0, 0]	n/a	catFR1	3	R1476J
949.582	0.967	990178	WORD_OFF	n/a	n/a	TELEVISION	Electronics	10	8	[0, 0, 0]	n/a	catFR1	3	R1476J
950.549	1.6	991148	WORD	n/a	wordpools/wordpool_categorized_EN.txt	MAPLE	Trees	11	8	[0, 0, 0]	n/a	catFR1	3	R1476J
952.165	0.934	992762	WORD_OFF	n/a	n/a	MAPLE	Trees	11	8	[0, 0, 0]	n/a	catFR1	3	R1476J
953.099	1.6	993694	WORD	n/a	wordpools/wordpool_categorized_EN.txt	WILLOW	Trees	12	8	[0, 0, 0]	n/a	catFR1	3	R1476J
954.716	0.001	995311	PROB	6.082	n/a	n/a	n/a	-999	8	[4, 2, 3]	9.0	catFR1	3	R1476J
954.717	0.0	995312	START	n/a	n/a	n/a	n/a	-999	8	[-999, -999, -999]	n/a	catFR1	3	R1476J
954.716	0.001	995316	WORD_OFF	n/a	n/a	WILLOW	Trees	12	8	[0, 0, 0]	n/a	catFR1	3	R1476J
954.717	0.0	995316	ENCODING_END	n/a	n/a	n/a	n/a	-999	8	[0, 0, 0]	n/a	catFR1	3	R1476J
954.717	6.1	995316	DISTRACT_START	n/a	n/a	n/a	n/a	-999	8	[0, 0, 0]	n/a	catFR1	3	R1476J
960.817	4.749	1001412	PROB	4.733	n/a	n/a	n/a	-999	8	[4, 2, 4]	10.0	catFR1	3	R1476J
965.566	4.199	1006161	PROB	4.184	n/a	n/a	n/a	-999	8	[1, 4, 2]	7.0	catFR1	3	R1476J
969.765	4.485	1010360	PROB	4.466	n/a	n/a	n/a	-999	8	[5, 4, 4]	13.0	catFR1	3	R1476J
974.25	7.533	1014845	PROB	7.515	n/a	n/a	n/a	-999	8	[8, 5, 1]	14.0	catFR1	3	R1476J
981.783	0.0	1022377	STOP	n/a	n/a	n/a	n/a	-999	8	[-999, -999, -999]	n/a	catFR1	3	R1476J
981.783	2.4	1022381	DISTRACT_END	n/a	n/a	n/a	n/a	-999	8	[0, 0, 0]	n/a	catFR1	3	R1476J
984.183	1.483	1024780	REC_START	n/a	n/a	n/a	n/a	-999	8	[0, 0, 0]	n/a	catFR1	3	R1476J
985.666	1.151	1026260	REC_WORD	1.483	n/a	COMPUTER	Electronics	6	8	[0, 0, 0]	n/a	catFR1	3	R1476J
986.817	1.352	1027411	REC_WORD	2.634	n/a	PINE	Trees	1	8	[0, 0, 0]	n/a	catFR1	3	R1476J
988.169	1.066	1028763	REC_WORD	3.986	n/a	TELEVISION	Electronics	10	8	[0, 0, 0]	n/a	catFR1	3	R1476J
989.235	1.251	1029829	REC_WORD	5.052	n/a	EVERGREEN	Trees	2	8	[0, 0, 0]	n/a	catFR1	3	R1476J
990.486	1.117	1031080	REC_WORD	6.303	n/a	WILLOW	Trees	12	8	[0, 0, 0]	n/a	catFR1	3	R1476J
991.603	1.0	1032197	REC_WORD	7.42	n/a	HEADPHONES	Electronics	9	8	[0, 0, 0]	n/a	catFR1	3	R1476J
992.603	4.038	1033197	REC_WORD_VV	8.42	n/a	<>	n/a	-999	8	[0, 0, 0]	n/a	catFR1	3	R1476J
996.641	17.719	1037235	REC_WORD	12.458	n/a	DESK	Furniture	8	8	[0, 0, 0]	n/a	catFR1	3	R1476J
1014.36	2.789	1054954	REC_END	n/a	n/a	n/a	n/a	-999	8	[0, 0, 0]	n/a	catFR1	3	R1476J
1017.149	10.0	1057745	COUNTDOWN_START	n/a	n/a	n/a	n/a	-999	9	[0, 0, 0]	n/a	catFR1	3	R1476J
1027.499	0.0	1068094	COUNTDOWN_END	n/a	n/a	n/a	n/a	-999	9	[0, 0, 0]	n/a	catFR1	3	R1476J
1027.499	1.867	1068094	ENCODING_START	n/a	n/a	n/a	n/a	-999	9	[0, 0, 0]	n/a	catFR1	3	R1476J
1029.366	1.6	1069960	WORD	n/a	wordpools/wordpool_categorized_EN.txt	SCANNER	Electronics	1	9	[0, 0, 0]	n/a	catFR1	3	R1476J
1030.983	0.767	1071574	WORD_OFF	n/a	n/a	SCANNER	Electronics	1	9	[0, 0, 0]	n/a	catFR1	3	R1476J
1031.75	1.6	1072344	WORD	n/a	wordpools/wordpool_categorized_EN.txt	STEREO	Electronics	2	9	[0, 0, 0]	n/a	catFR1	3	R1476J
1033.35	0.866	1073943	WORD_OFF	n/a	n/a	STEREO	Electronics	2	9	[0, 0, 0]	n/a	catFR1	3	R1476J
1034.216	1.6	1074809	WORD	n/a	wordpools/wordpool_categorized_EN.txt	TRUMPET	Instruments	3	9	[0, 0, 0]	n/a	catFR1	3	R1476J
1035.817	0.866	1076408	WORD_OFF	n/a	n/a	TRUMPET	Instruments	3	9	[0, 0, 0]	n/a	catFR1	3	R1476J
1036.683	1.6	1077274	WORD	n/a	wordpools/wordpool_categorized_EN.txt	TUBA	Instruments	4	9	[0, 0, 0]	n/a	catFR1	3	R1476J
1038.283	0.916	1078873	WORD_OFF	n/a	n/a	TUBA	Instruments	4	9	[0, 0, 0]	n/a	catFR1	3	R1476J
1039.199	1.6	1079791	WORD	n/a	wordpools/wordpool_categorized_EN.txt	DRIZZLE	Weather	5	9	[0, 0, 0]	n/a	catFR1	3	R1476J
1040.8	1.0	1081397	WORD_OFF	n/a	n/a	DRIZZLE	Weather	5	9	[0, 0, 0]	n/a	catFR1	3	R1476J
1041.8	1.6	1082397	WORD	n/a	wordpools/wordpool_categorized_EN.txt	THUNDER	Weather	6	9	[0, 0, 0]	n/a	catFR1	3	R1476J
1043.4	0.767	1083996	WORD_OFF	n/a	n/a	THUNDER	Weather	6	9	[0, 0, 0]	n/a	catFR1	3	R1476J
1044.167	1.6	1084758	WORD	n/a	wordpools/wordpool_categorized_EN.txt	CELLO	Instruments	7	9	[0, 0, 0]	n/a	catFR1	3	R1476J
1045.783	0.884	1086380	WORD_OFF	n/a	n/a	CELLO	Instruments	7	9	[0, 0, 0]	n/a	catFR1	3	R1476J
1046.667	1.6	1087261	WORD	n/a	wordpools/wordpool_categorized_EN.txt	ORGAN	Instruments	8	9	[0, 0, 0]	n/a	catFR1	3	R1476J
1048.283	0.984	1088874	WORD_OFF	n/a	n/a	ORGAN	Instruments	8	9	[0, 0, 0]	n/a	catFR1	3	R1476J
1049.267	1.6	1089859	WORD	n/a	wordpools/wordpool_categorized_EN.txt	PHONE	Electronics	9	9	[0, 0, 0]	n/a	catFR1	3	R1476J
1050.866	0.801	1091458	WORD_OFF	n/a	n/a	PHONE	Electronics	9	9	[0, 0, 0]	n/a	catFR1	3	R1476J
1051.667	1.6	1092258	WORD	n/a	wordpools/wordpool_categorized_EN.txt	PRINTER	Electronics	10	9	[0, 0, 0]	n/a	catFR1	3	R1476J
1053.281	0.886	1093871	WORD_OFF	n/a	n/a	PRINTER	Electronics	10	9	[0, 0, 0]	n/a	catFR1	3	R1476J
1054.167	1.6	1094760	WORD	n/a	wordpools/wordpool_categorized_EN.txt	CLOUD	Weather	11	9	[0, 0, 0]	n/a	catFR1	3	R1476J
1055.767	0.833	1096359	WORD_OFF	n/a	n/a	CLOUD	Weather	11	9	[0, 0, 0]	n/a	catFR1	3	R1476J
1056.6	1.6	1097195	WORD	n/a	wordpools/wordpool_categorized_EN.txt	HUMIDITY	Weather	12	9	[0, 0, 0]	n/a	catFR1	3	R1476J
1058.201	0.0	1098792	START	n/a	n/a	n/a	n/a	-999	9	[-999, -999, -999]	n/a	catFR1	3	R1476J
1058.201	0.0	1098792	PROB	3.349	n/a	n/a	n/a	-999	9	[3, 3, 5]	11.0	catFR1	3	R1476J
1058.2	0.001	1098794	WORD_OFF	n/a	n/a	HUMIDITY	Weather	12	9	[0, 0, 0]	n/a	catFR1	3	R1476J
1058.201	0.0	1098794	ENCODING_END	n/a	n/a	n/a	n/a	-999	9	[0, 0, 0]	n/a	catFR1	3	R1476J
1058.201	3.366	1098794	DISTRACT_START	n/a	n/a	n/a	n/a	-999	9	[0, 0, 0]	n/a	catFR1	3	R1476J
1061.567	4.816	1102158	PROB	4.799	n/a	n/a	n/a	-999	9	[8, 3, 4]	15.0	catFR1	3	R1476J
1066.383	7.551	1106974	PROB	7.531	n/a	n/a	n/a	-999	9	[5, 7, 8]	20.0	catFR1	3	R1476J
1073.934	6.081	1114525	PROB	6.066	n/a	n/a	n/a	-999	9	[2, 7, 1]	10.0	catFR1	3	R1476J
1080.015	0.0	1120604	DISTRACT_END	n/a	n/a	n/a	n/a	-999	9	[0, 0, 0]	n/a	catFR1	3	R1476J
1080.015	2.384	1120605	STOP	n/a	n/a	n/a	n/a	-999	9	[-999, -999, -999]	n/a	catFR1	3	R1476J
1082.399	0.954	1122988	REC_START	n/a	n/a	n/a	n/a	-999	9	[0, 0, 0]	n/a	catFR1	3	R1476J
1083.353	0.521	1123943	REC_WORD	0.954	n/a	PRINTER	Electronics	10	9	[0, 0, 0]	n/a	catFR1	3	R1476J
1083.874	2.409	1124464	REC_WORD	1.475	n/a	SCANNER	Electronics	1	9	[0, 0, 0]	n/a	catFR1	3	R1476J
1086.283	1.227	1126873	REC_WORD_VV	3.884	n/a	<>	n/a	-999	9	[0, 0, 0]	n/a	catFR1	3	R1476J
1087.51	7.284	1128100	REC_WORD	5.111	n/a	THUNDER	Weather	6	9	[0, 0, 0]	n/a	catFR1	3	R1476J
1094.794	17.776	1135384	REC_WORD	12.395	n/a	CLOUD	Weather	11	9	[0, 0, 0]	n/a	catFR1	3	R1476J
1112.57	18.697	1153162	REC_END	n/a	n/a	n/a	n/a	-999	9	[0, 0, 0]	n/a	catFR1	3	R1476J
1131.267	10.0	1171854	COUNTDOWN_START	n/a	n/a	n/a	n/a	-999	10	[0, 0, 0]	n/a	catFR1	3	R1476J
1141.617	0.0	1182204	COUNTDOWN_END	n/a	n/a	n/a	n/a	-999	10	[0, 0, 0]	n/a	catFR1	3	R1476J
1141.617	2.216	1182204	ENCODING_START	n/a	n/a	n/a	n/a	-999	10	[0, 0, 0]	n/a	catFR1	3	R1476J
1143.833	1.6	1184425	WORD	n/a	wordpools/wordpool_categorized_EN.txt	CALCULATOR	Electronics	1	10	[0, 0, 0]	n/a	catFR1	3	R1476J
1145.433	0.883	1186024	WORD_OFF	n/a	n/a	CALCULATOR	Electronics	1	10	[0, 0, 0]	n/a	catFR1	3	R1476J
1146.316	1.6	1186905	WORD	n/a	wordpools/wordpool_categorized_EN.txt	SPEAKER	Electronics	2	10	[0, 0, 0]	n/a	catFR1	3	R1476J
1147.933	0.783	1188526	WORD_OFF	n/a	n/a	SPEAKER	Electronics	2	10	[0, 0, 0]	n/a	catFR1	3	R1476J
1148.716	1.6	1189303	WORD	n/a	wordpools/wordpool_categorized_EN.txt	TURTLE	OceanAnimals	3	10	[0, 0, 0]	n/a	catFR1	3	R1476J
1150.333	0.9	1190925	WORD_OFF	n/a	n/a	TURTLE	OceanAnimals	3	10	[0, 0, 0]	n/a	catFR1	3	R1476J
1151.233	1.6	1191820	WORD	n/a	wordpools/wordpool_categorized_EN.txt	CRAB	OceanAnimals	4	10	[0, 0, 0]	n/a	catFR1	3	R1476J
1152.833	0.915	1193419	WORD_OFF	n/a	n/a	CRAB	OceanAnimals	4	10	[0, 0, 0]	n/a	catFR1	3	R1476J
1153.748	1.6	1194337	WORD	n/a	wordpools/wordpool_categorized_EN.txt	LADYBUG	Insects	5	10	[0, 0, 0]	n/a	catFR1	3	R1476J
1155.348	0.767	1195936	WORD_OFF	n/a	n/a	LADYBUG	Insects	5	10	[0, 0, 0]	n/a	catFR1	3	R1476J
1156.115	1.6	1196706	WORD	n/a	wordpools/wordpool_categorized_EN.txt	FLY	Insects	6	10	[0, 0, 0]	n/a	catFR1	3	R1476J
1157.716	0.766	1198305	WORD_OFF	n/a	n/a	FLY	Insects	6	10	[0, 0, 0]	n/a	catFR1	3	R1476J
1158.482	1.6	1199068	WORD	n/a	wordpools/wordpool_categorized_EN.txt	DOLPHIN	OceanAnimals	7	10	[0, 0, 0]	n/a	catFR1	3	R1476J
1160.1	0.933	1200689	WORD_OFF	n/a	n/a	DOLPHIN	OceanAnimals	7	10	[0, 0, 0]	n/a	catFR1	3	R1476J
1161.033	1.6	1201622	WORD	n/a	wordpools/wordpool_categorized_EN.txt	OYSTER	OceanAnimals	8	10	[0, 0, 0]	n/a	catFR1	3	R1476J
1162.648	0.902	1203236	WORD_OFF	n/a	n/a	OYSTER	OceanAnimals	8	10	[0, 0, 0]	n/a	catFR1	3	R1476J
1163.55	1.6	1204139	WORD	n/a	wordpools/wordpool_categorized_EN.txt	TABLET	Electronics	9	10	[0, 0, 0]	n/a	catFR1	3	R1476J
1165.149	0.966	1205738	WORD_OFF	n/a	n/a	TABLET	Electronics	9	10	[0, 0, 0]	n/a	catFR1	3	R1476J
1166.115	1.6	1206700	WORD	n/a	wordpools/wordpool_categorized_EN.txt	RADIO	Electronics	10	10	[0, 0, 0]	n/a	catFR1	3	R1476J
1167.733	0.916	1208322	WORD_OFF	n/a	n/a	RADIO	Electronics	10	10	[0, 0, 0]	n/a	catFR1	3	R1476J
1168.649	1.6	1209240	WORD	n/a	wordpools/wordpool_categorized_EN.txt	SPIDER	Insects	11	10	[0, 0, 0]	n/a	catFR1	3	R1476J
1170.267	0.9	1210853	WORD_OFF	n/a	n/a	SPIDER	Insects	11	10	[0, 0, 0]	n/a	catFR1	3	R1476J
1171.167	1.6	1211757	WORD	n/a	wordpools/wordpool_categorized_EN.txt	ROACH	Insects	12	10	[0, 0, 0]	n/a	catFR1	3	R1476J
1172.782	0.001	1213368	PROB	6.632	n/a	n/a	n/a	-999	10	[2, 8, 3]	13.0	catFR1	3	R1476J
1172.783	0.0	1213369	START	n/a	n/a	n/a	n/a	-999	10	[-999, -999, -999]	n/a	catFR1	3	R1476J
1172.782	0.001	1213370	WORD_OFF	n/a	n/a	ROACH	Insects	12	10	[0, 0, 0]	n/a	catFR1	3	R1476J
1172.783	0.0	1213370	ENCODING_END	n/a	n/a	n/a	n/a	-999	10	[0, 0, 0]	n/a	catFR1	3	R1476J
1172.783	6.651	1213370	DISTRACT_START	n/a	n/a	n/a	n/a	-999	10	[0, 0, 0]	n/a	catFR1	3	R1476J
1179.434	4.349	1220020	PROB	4.332	n/a	n/a	n/a	-999	10	[8, 1, 7]	16.0	catFR1	3	R1476J
1183.783	3.8	1224369	PROB	3.783	n/a	n/a	n/a	-999	10	[3, 1, 1]	5.0	catFR1	3	R1476J
1187.583	3.034	1228169	PROB	3.017	n/a	n/a	n/a	-999	10	[7, 4, 2]	13.0	catFR1	3	R1476J
1190.617	3.497	1231203	PROB	3.483	n/a	n/a	n/a	-999	10	[5, 7, 7]	19.0	catFR1	3	R1476J
1194.114	0.0	1234698	DISTRACT_END	n/a	n/a	n/a	n/a	-999	10	[0, 0, 0]	n/a	catFR1	3	R1476J
1194.114	2.252	1234699	STOP	n/a	n/a	n/a	n/a	-999	10	[-999, -999, -999]	n/a	catFR1	3	R1476J
1196.366	0.159	1236957	REC_START	n/a	n/a	n/a	n/a	-999	10	[0, 0, 0]	n/a	catFR1	3	R1476J
1196.525	1.0	1237110	REC_WORD_VV	0.159	n/a	<>	n/a	-999	10	[0, 0, 0]	n/a	catFR1	3	R1476J
1197.525	0.858	1238110	REC_WORD_VV	1.159	n/a	<>	n/a	-999	10	[0, 0, 0]	n/a	catFR1	3	R1476J
1198.383	1.409	1238968	REC_WORD	2.017	n/a	CALCULATOR	Electronics	1	10	[0, 0, 0]	n/a	catFR1	3	R1476J
1199.792	1.549	1240377	REC_WORD	3.426	n/a	SPIDER	Insects	11	10	[0, 0, 0]	n/a	catFR1	3	R1476J
1201.341	6.454	1241926	REC_WORD	4.975	n/a	SPIDERWEB	n/a	-999	10	[0, 0, 0]	n/a	catFR1	3	R1476J
1207.795	3.209	1248380	REC_WORD_VV	11.429	n/a	<>	n/a	-999	10	[0, 0, 0]	n/a	catFR1	3	R1476J
1211.004	15.558	1251589	REC_WORD_VV	14.638	n/a	<>	n/a	-999	10	[0, 0, 0]	n/a	catFR1	3	R1476J
1226.562	17.988	1267146	REC_END	n/a	n/a	n/a	n/a	-999	10	[0, 0, 0]	n/a	catFR1	3	R1476J
1244.55	10.0	1285135	COUNTDOWN_START	n/a	n/a	n/a	n/a	-999	11	[0, 0, 0]	n/a	catFR1	3	R1476J
1254.898	0.0	1295484	COUNTDOWN_END	n/a	n/a	n/a	n/a	-999	11	[0, 0, 0]	n/a	catFR1	3	R1476J
1254.898	1.968	1295484	ENCODING_START	n/a	n/a	n/a	n/a	-999	11	[0, 0, 0]	n/a	catFR1	3	R1476J
1256.866	1.6	1297453	WORD	n/a	wordpools/wordpool_categorized_EN.txt	AXE	Tools	1	11	[0, 0, 0]	n/a	catFR1	3	R1476J
1258.482	0.901	1299067	WORD_OFF	n/a	n/a	AXE	Tools	1	11	[0, 0, 0]	n/a	catFR1	3	R1476J
1259.383	1.6	1299970	WORD	n/a	wordpools/wordpool_categorized_EN.txt	HAMMER	Tools	2	11	[0, 0, 0]	n/a	catFR1	3	R1476J
1261.0	0.817	1301584	WORD_OFF	n/a	n/a	HAMMER	Tools	2	11	[0, 0, 0]	n/a	catFR1	3	R1476J
1261.817	1.6	1302399	WORD	n/a	wordpools/wordpool_categorized_EN.txt	CHERRY	Fruit	3	11	[0, 0, 0]	n/a	catFR1	3	R1476J
1263.432	0.985	1304020	WORD_OFF	n/a	n/a	CHERRY	Fruit	3	11	[0, 0, 0]	n/a	catFR1	3	R1476J
1264.417	1.6	1305004	WORD	n/a	wordpools/wordpool_categorized_EN.txt	LEMON	Fruit	4	11	[0, 0, 0]	n/a	catFR1	3	R1476J
1266.017	0.8	1306604	WORD_OFF	n/a	n/a	LEMON	Fruit	4	11	[0, 0, 0]	n/a	catFR1	3	R1476J
1266.817	1.6	1307403	WORD	n/a	wordpools/wordpool_categorized_EN.txt	SHRIMP	OceanAnimals	5	11	[0, 0, 0]	n/a	catFR1	3	R1476J
1268.431	0.9	1309017	WORD_OFF	n/a	n/a	SHRIMP	OceanAnimals	5	11	[0, 0, 0]	n/a	catFR1	3	R1476J
1269.331	1.6	1309913	WORD	n/a	wordpools/wordpool_categorized_EN.txt	OCTOPUS	OceanAnimals	6	11	[0, 0, 0]	n/a	catFR1	3	R1476J
1270.932	1.0	1311519	WORD_OFF	n/a	n/a	OCTOPUS	OceanAnimals	6	11	[0, 0, 0]	n/a	catFR1	3	R1476J
1271.932	1.6	1312519	WORD	n/a	wordpools/wordpool_categorized_EN.txt	PEACH	Fruit	7	11	[0, 0, 0]	n/a	catFR1	3	R1476J
1273.532	0.767	1314118	WORD_OFF	n/a	n/a	PEACH	Fruit	7	11	[0, 0, 0]	n/a	catFR1	3	R1476J
1274.299	1.6	1314880	WORD	n/a	wordpools/wordpool_categorized_EN.txt	LIME	Fruit	8	11	[0, 0, 0]	n/a	catFR1	3	R1476J
1275.916	0.783	1316501	WORD_OFF	n/a	n/a	LIME	Fruit	8	11	[0, 0, 0]	n/a	catFR1	3	R1476J
1276.699	1.6	1317286	WORD	n/a	wordpools/wordpool_categorized_EN.txt	FISH	OceanAnimals	9	11	[0, 0, 0]	n/a	catFR1	3	R1476J
1278.299	0.818	1318885	WORD_OFF	n/a	n/a	FISH	OceanAnimals	9	11	[0, 0, 0]	n/a	catFR1	3	R1476J
1279.117	1.6	1319699	WORD	n/a	wordpools/wordpool_categorized_EN.txt	JELLYFISH	OceanAnimals	10	11	[0, 0, 0]	n/a	catFR1	3	R1476J
1280.732	0.966	1321313	WORD_OFF	n/a	n/a	JELLYFISH	OceanAnimals	10	11	[0, 0, 0]	n/a	catFR1	3	R1476J
1281.698	1.6	1322283	WORD	n/a	wordpools/wordpool_categorized_EN.txt	CROWBAR	Tools	11	11	[0, 0, 0]	n/a	catFR1	3	R1476J
1283.299	0.851	1323882	WORD_OFF	n/a	n/a	CROWBAR	Tools	11	11	[0, 0, 0]	n/a	catFR1	3	R1476J
1284.15	1.6	1324733	WORD	n/a	wordpools/wordpool_categorized_EN.txt	DRILL	Tools	12	11	[0, 0, 0]	n/a	catFR1	3	R1476J
1285.75	0.001	1326332	WORD_OFF	n/a	n/a	DRILL	Tools	12	11	[0, 0, 0]	n/a	catFR1	3	R1476J
1285.751	0.0	1326332	ENCODING_END	n/a	n/a	n/a	n/a	-999	11	[0, 0, 0]	n/a	catFR1	3	R1476J
1285.75	0.001	1326332	PROB	3.016	n/a	n/a	n/a	-999	11	[8, 8, 5]	21.0	catFR1	3	R1476J
1285.751	0.0	1326333	START	n/a	n/a	n/a	n/a	-999	11	[-999, -999, -999]	n/a	catFR1	3	R1476J
1285.751	3.032	1326340	DISTRACT_START	n/a	n/a	n/a	n/a	-999	11	[0, 0, 0]	n/a	catFR1	3	R1476J
1288.783	3.883	1329364	PROB	3.866	n/a	n/a	n/a	-999	11	[7, 7, 6]	20.0	catFR1	3	R1476J
1292.666	2.999	1333247	PROB	2.984	n/a	n/a	n/a	-999	11	[2, 6, 4]	12.0	catFR1	3	R1476J
1295.665	3.884	1336246	PROB	3.867	n/a	n/a	n/a	-999	11	[7, 7, 6]	20.0	catFR1	3	R1476J
1299.549	5.435	1340130	PROB	5.415	n/a	n/a	n/a	-999	11	[4, 2, 3]	9.0	catFR1	3	R1476J
1304.984	4.048	1345565	PROB	4.033	n/a	n/a	n/a	-999	11	[1, 6, 5]	12.0	catFR1	3	R1476J
1309.032	0.0	1349613	STOP	n/a	n/a	n/a	n/a	-999	11	[-999, -999, -999]	n/a	catFR1	3	R1476J
1309.032	2.25	1349615	DISTRACT_END	n/a	n/a	n/a	n/a	-999	11	[0, 0, 0]	n/a	catFR1	3	R1476J
1311.282	1.648	1351866	REC_START	n/a	n/a	n/a	n/a	-999	11	[0, 0, 0]	n/a	catFR1	3	R1476J
1312.93	1.138	1353511	REC_WORD	1.648	n/a	SHRIMP	OceanAnimals	5	11	[0, 0, 0]	n/a	catFR1	3	R1476J
1314.068	1.205	1354648	REC_WORD	2.786	n/a	JELLYFISH	OceanAnimals	10	11	[0, 0, 0]	n/a	catFR1	3	R1476J
1315.273	2.747	1355853	REC_WORD	3.991	n/a	CROWBAR	Tools	11	11	[0, 0, 0]	n/a	catFR1	3	R1476J
1318.02	20.261	1358600	REC_WORD_VV	6.738	n/a	<>	n/a	-999	11	[0, 0, 0]	n/a	catFR1	3	R1476J
1338.281	0.412	1378860	REC_WORD	26.999	n/a	LEMON	Fruit	4	11	[0, 0, 0]	n/a	catFR1	3	R1476J
1338.693	2.768	1379272	REC_WORD	27.411	n/a	LIME	Fruit	8	11	[0, 0, 0]	n/a	catFR1	3	R1476J
1341.461	2.771	1382040	REC_END	n/a	n/a	n/a	n/a	-999	11	[0, 0, 0]	n/a	catFR1	3	R1476J
1344.232	10.0	1384816	COUNTDOWN_START	n/a	n/a	n/a	n/a	-999	12	[0, 0, 0]	n/a	catFR1	3	R1476J
1354.582	0.001	1395165	COUNTDOWN_END	n/a	n/a	n/a	n/a	-999	12	[0, 0, 0]	n/a	catFR1	3	R1476J
1354.583	2.299	1395165	ENCODING_START	n/a	n/a	n/a	n/a	-999	12	[0, 0, 0]	n/a	catFR1	3	R1476J
1356.882	1.6	1397468	WORD	n/a	wordpools/wordpool_categorized_EN.txt	BIRCH	Trees	1	12	[0, 0, 0]	n/a	catFR1	3	R1476J
1358.482	0.918	1399059	WORD_OFF	n/a	n/a	BIRCH	Trees	1	12	[0, 0, 0]	n/a	catFR1	3	R1476J
1359.4	1.6	1399977	WORD	n/a	wordpools/wordpool_categorized_EN.txt	ELM	Trees	2	12	[0, 0, 0]	n/a	catFR1	3	R1476J
1361.014	0.951	1401591	WORD_OFF	n/a	n/a	ELM	Trees	2	12	[0, 0, 0]	n/a	catFR1	3	R1476J
1361.965	1.6	1402546	WORD	n/a	wordpools/wordpool_categorized_EN.txt	MOTORCYCLE	Vehicles	3	12	[0, 0, 0]	n/a	catFR1	3	R1476J
1363.567	0.833	1404145	WORD_OFF	n/a	n/a	MOTORCYCLE	Vehicles	3	12	[0, 0, 0]	n/a	catFR1	3	R1476J
1364.4	1.6	1404982	WORD	n/a	wordpools/wordpool_categorized_EN.txt	BOAT	Vehicles	4	12	[0, 0, 0]	n/a	catFR1	3	R1476J
1366.0	0.916	1406581	WORD_OFF	n/a	n/a	BOAT	Vehicles	4	12	[0, 0, 0]	n/a	catFR1	3	R1476J
1366.916	1.6	1407499	WORD	n/a	wordpools/wordpool_categorized_EN.txt	SAW	Tools	5	12	[0, 0, 0]	n/a	catFR1	3	R1476J
1368.533	0.984	1409113	WORD_OFF	n/a	n/a	SAW	Tools	5	12	[0, 0, 0]	n/a	catFR1	3	R1476J
1369.517	1.6	1410097	WORD	n/a	wordpools/wordpool_categorized_EN.txt	RATCHET	Tools	6	12	[0, 0, 0]	n/a	catFR1	3	R1476J
1371.116	0.784	1411696	WORD_OFF	n/a	n/a	RATCHET	Tools	6	12	[0, 0, 0]	n/a	catFR1	3	R1476J
1371.9	1.6	1412481	WORD	n/a	wordpools/wordpool_categorized_EN.txt	CEDAR	Trees	7	12	[0, 0, 0]	n/a	catFR1	3	R1476J
1373.515	0.933	1414095	WORD_OFF	n/a	n/a	CEDAR	Trees	7	12	[0, 0, 0]	n/a	catFR1	3	R1476J
1374.448	1.6	1415028	WORD	n/a	wordpools/wordpool_categorized_EN.txt	OAK	Trees	8	12	[0, 0, 0]	n/a	catFR1	3	R1476J
1376.066	0.784	1416649	WORD_OFF	n/a	n/a	OAK	Trees	8	12	[0, 0, 0]	n/a	catFR1	3	R1476J
1376.85	1.6	1417426	WORD	n/a	wordpools/wordpool_categorized_EN.txt	BUS	Vehicles	9	12	[0, 0, 0]	n/a	catFR1	3	R1476J
1378.45	0.817	1419025	WORD_OFF	n/a	n/a	BUS	Vehicles	9	12	[0, 0, 0]	n/a	catFR1	3	R1476J
1379.267	1.6	1419847	WORD	n/a	wordpools/wordpool_categorized_EN.txt	SCOOTER	Vehicles	10	12	[0, 0, 0]	n/a	catFR1	3	R1476J
1380.867	0.9	1421446	WORD_OFF	n/a	n/a	SCOOTER	Vehicles	10	12	[0, 0, 0]	n/a	catFR1	3	R1476J
1381.767	1.6	1422349	WORD	n/a	wordpools/wordpool_categorized_EN.txt	PLIERS	Tools	11	12	[0, 0, 0]	n/a	catFR1	3	R1476J
1383.382	0.967	1423963	WORD_OFF	n/a	n/a	PLIERS	Tools	11	12	[0, 0, 0]	n/a	catFR1	3	R1476J
1384.349	1.6	1424925	WORD	n/a	wordpools/wordpool_categorized_EN.txt	SHOVEL	Tools	12	12	[0, 0, 0]	n/a	catFR1	3	R1476J
1385.967	0.001	1426544	PROB	4.8	n/a	n/a	n/a	-999	12	[8, 5, 6]	19.0	catFR1	3	R1476J
1385.968	0.0	1426545	START	n/a	n/a	n/a	n/a	-999	12	[-999, -999, -999]	n/a	catFR1	3	R1476J
1385.966	0.002	1426547	WORD_OFF	n/a	n/a	SHOVEL	Tools	12	12	[0, 0, 0]	n/a	catFR1	3	R1476J
1385.968	0.0	1426547	ENCODING_END	n/a	n/a	n/a	n/a	-999	12	[0, 0, 0]	n/a	catFR1	3	R1476J
1385.968	4.814	1426547	DISTRACT_START	n/a	n/a	n/a	n/a	-999	12	[0, 0, 0]	n/a	catFR1	3	R1476J
1390.782	4.117	1431359	PROB	4.099	n/a	n/a	n/a	-999	12	[4, 6, 4]	14.0	catFR1	3	R1476J
1394.899	4.151	1435476	PROB	4.134	n/a	n/a	n/a	-999	12	[8, 3, 4]	15.0	catFR1	3	R1476J
1399.05	2.95	1439627	PROB	2.932	n/a	n/a	n/a	-999	12	[5, 1, 6]	12.0	catFR1	3	R1476J
1402.0	5.848	1442577	PROB	5.833	n/a	n/a	n/a	-999	12	[3, 6, 7]	16.0	catFR1	3	R1476J
1407.848	0.0	1448422	DISTRACT_END	n/a	n/a	n/a	n/a	-999	12	[0, 0, 0]	n/a	catFR1	3	R1476J
1407.848	2.167	1448425	STOP	n/a	n/a	n/a	n/a	-999	12	[-999, -999, -999]	n/a	catFR1	3	R1476J
1410.015	1.187	1450592	REC_START	n/a	n/a	n/a	n/a	-999	12	[0, 0, 0]	n/a	catFR1	3	R1476J
1411.202	0.538	1451778	REC_WORD_VV	1.187	n/a	<>	n/a	-999	12	[0, 0, 0]	n/a	catFR1	3	R1476J
1411.74	0.505	1452316	REC_WORD	1.725	n/a	PLIERS	Tools	11	12	[0, 0, 0]	n/a	catFR1	3	R1476J
1412.245	0.614	1452821	REC_WORD	2.23	n/a	SHOVEL	Tools	12	12	[0, 0, 0]	n/a	catFR1	3	R1476J
1412.859	1.08	1453435	REC_WORD	2.844	n/a	SAW	Tools	5	12	[0, 0, 0]	n/a	catFR1	3	R1476J
1413.939	11.617	1454515	REC_WORD	3.924	n/a	RATCHET	Tools	6	12	[0, 0, 0]	n/a	catFR1	3	R1476J
1425.556	0.603	1466132	REC_WORD_VV	15.541	n/a	<>	n/a	-999	12	[0, 0, 0]	n/a	catFR1	3	R1476J
1426.159	5.912	1466735	REC_WORD	16.144	n/a	CEDAR	Trees	7	12	[0, 0, 0]	n/a	catFR1	3	R1476J
1432.071	4.937	1472647	REC_WORD	22.056	n/a	OAK	Trees	8	12	[0, 0, 0]	n/a	catFR1	3	R1476J
1437.008	3.197	1477583	REC_WORD	26.993	n/a	PINE	Trees	-999	12	[0, 0, 0]	n/a	catFR1	3	R1476J
1440.205	0.0	1480781	REC_END	n/a	n/a	n/a	n/a	-999	12	[0, 0, 0]	n/a	catFR1	3	R1476J
