onset	duration	sample	trial_type	response_time	stim_file	item_name	category	serialpos	list	test	answer	experiment	session	subject
0.0	4.862	31920	INSTRUCT_START	n/a	n/a	n/a	n/a	-999	-999	[0, 0, 0]	n/a	catFR1	3	R1465D
4.862	17.732	36772	INSTRUCT_END	n/a	n/a	n/a	n/a	-999	-999	[0, 0, 0]	n/a	catFR1	3	R1465D
22.594	10.35	54510	COUNTDOWN_START	n/a	n/a	n/a	n/a	-999	-999	[0, 0, 0]	n/a	catFR1	3	R1465D
32.944	0.0	64853	COUNTDOWN_END	n/a	n/a	n/a	n/a	-999	-999	[0, 0, 0]	n/a	catFR1	3	R1465D
32.944	1.885	64853	ENCODING_START	n/a	n/a	n/a	n/a	-999	-1	[0, 0, 0]	n/a	catFR1	3	R1465D
34.829	1.599	66738	WORD	n/a	n/a	FINCH	Birds	1	-1	[0, 0, 0]	n/a	catFR1	3	R1465D
36.428	0.784	68339	WORD_OFF	n/a	n/a	FINCH	Birds	1	-1	[0, 0, 0]	n/a	catFR1	3	R1465D
37.212	1.616	69125	WORD	n/a	n/a	PIGEON	Birds	2	-1	[0, 0, 0]	n/a	catFR1	3	R1465D
38.828	0.883	70746	WORD_OFF	n/a	n/a	PIGEON	Birds	2	-1	[0, 0, 0]	n/a	catFR1	3	R1465D
39.711	1.6	71620	WORD	n/a	n/a	OCEAN	Landscapes	3	-1	[0, 0, 0]	n/a	catFR1	3	R1465D
41.311	1.001	73221	WORD_OFF	n/a	n/a	OCEAN	Landscapes	3	-1	[0, 0, 0]	n/a	catFR1	3	R1465D
42.312	1.6	74223	WORD	n/a	n/a	LAKE	Landscapes	4	-1	[0, 0, 0]	n/a	catFR1	3	R1465D
43.912	0.833	75824	WORD_OFF	n/a	n/a	LAKE	Landscapes	4	-1	[0, 0, 0]	n/a	catFR1	3	R1465D
44.745	1.617	76658	WORD	n/a	n/a	MOTORCYCLE	Vehicles	5	-1	[0, 0, 0]	n/a	catFR1	3	R1465D
46.362	0.833	78269	WORD_OFF	n/a	n/a	MOTORCYCLE	Vehicles	5	-1	[0, 0, 0]	n/a	catFR1	3	R1465D
47.195	1.6	79104	WORD	n/a	n/a	MOPED	Vehicles	6	-1	[0, 0, 0]	n/a	catFR1	3	R1465D
48.795	0.8	80705	WORD_OFF	n/a	n/a	MOPED	Vehicles	6	-1	[0, 0, 0]	n/a	catFR1	3	R1465D
49.595	1.616	81510	WORD	n/a	n/a	CROW	Birds	7	-1	[0, 0, 0]	n/a	catFR1	3	R1465D
51.211	1.0	83121	WORD_OFF	n/a	n/a	CROW	Birds	7	-1	[0, 0, 0]	n/a	catFR1	3	R1465D
52.211	1.617	84123	WORD	n/a	n/a	DUCK	Birds	8	-1	[0, 0, 0]	n/a	catFR1	3	R1465D
53.828	0.783	85744	WORD_OFF	n/a	n/a	DUCK	Birds	8	-1	[0, 0, 0]	n/a	catFR1	3	R1465D
54.611	1.6	86520	WORD	n/a	n/a	TRAIN	Vehicles	9	-1	[0, 0, 0]	n/a	catFR1	3	R1465D
56.211	0.784	88120	WORD_OFF	n/a	n/a	TRAIN	Vehicles	9	-1	[0, 0, 0]	n/a	catFR1	3	R1465D
56.995	1.615	88906	WORD	n/a	n/a	SCOOTER	Vehicles	10	-1	[0, 0, 0]	n/a	catFR1	3	R1465D
58.61	1.001	90517	WORD_OFF	n/a	n/a	SCOOTER	Vehicles	10	-1	[0, 0, 0]	n/a	catFR1	3	R1465D
59.611	1.6	91519	WORD	n/a	n/a	HILLS	Landscapes	11	-1	[0, 0, 0]	n/a	catFR1	3	R1465D
61.211	0.85	93120	WORD_OFF	n/a	n/a	HILLS	Landscapes	11	-1	[0, 0, 0]	n/a	catFR1	3	R1465D
62.061	1.616	93974	WORD	n/a	n/a	MOUNTAIN	Landscapes	12	-1	[0, 0, 0]	n/a	catFR1	3	R1465D
63.677	0.002	95585	WORD_OFF	n/a	n/a	MOUNTAIN	Landscapes	12	-1	[0, 0, 0]	n/a	catFR1	3	R1465D
63.679	0.002	95588	PROB	0.002	n/a	n/a	n/a	-999	-1	[3, 5, 7]	15	catFR1	3	R1465D
63.681	0.0	95590	START	n/a	n/a	n/a	n/a	-999	-1	[-999, -999, -999]	n/a	catFR1	3	R1465D
63.681	0.0	95595	ENCODING_END	n/a	n/a	n/a	n/a	-999	-1	[0, 0, 0]	n/a	catFR1	3	R1465D
63.681	3.379	95595	DISTRACT_START	n/a	n/a	n/a	n/a	-999	-1	[0, 0, 0]	n/a	catFR1	3	R1465D
67.06	1.651	98968	PROB	1.651	n/a	n/a	n/a	-999	-1	[5, 5, 2]	12	catFR1	3	R1465D
68.711	2.034	100619	PROB	2.034	n/a	n/a	n/a	-999	-1	[1, 8, 4]	13	catFR1	3	R1465D
70.745	1.733	102653	PROB	1.733	n/a	n/a	n/a	-999	-1	[7, 1, 1]	9	catFR1	3	R1465D
72.478	1.551	104386	PROB	1.551	n/a	n/a	n/a	-999	-1	[7, 3, 2]	12	catFR1	3	R1465D
74.029	1.899	105937	PROB	1.899	n/a	n/a	n/a	-999	-1	[7, 1, 5]	13	catFR1	3	R1465D
75.928	2.868	107836	PROB	2.868	n/a	n/a	n/a	-999	-1	[8, 5, 6]	19	catFR1	3	R1465D
78.796	1.816	110704	PROB	1.816	n/a	n/a	n/a	-999	-1	[8, 4, 2]	14	catFR1	3	R1465D
80.612	1.65	112520	PROB	1.65	n/a	n/a	n/a	-999	-1	[5, 1, 3]	9	catFR1	3	R1465D
82.262	2.082	114170	PROB	2.082	n/a	n/a	n/a	-999	-1	[3, 7, 2]	12	catFR1	3	R1465D
84.344	0.0	116250	DISTRACT_END	n/a	n/a	n/a	n/a	-999	-1	[0, 0, 0]	n/a	catFR1	3	R1465D
84.344	2.334	116252	STOP	n/a	n/a	n/a	n/a	-999	-1	[-999, -999, -999]	n/a	catFR1	3	R1465D
86.678	2.138	118586	REC_START	n/a	n/a	n/a	n/a	-999	-1	[0, 0, 0]	n/a	catFR1	3	R1465D
88.816	1.0	120723	REC_WORD	1.0	n/a	FINCH	Birds	1	-1	[0, 0, 0]	n/a	catFR1	3	R1465D
89.816	0.71	121723	REC_WORD	0.71	n/a	PIGEON	Birds	2	-1	[0, 0, 0]	n/a	catFR1	3	R1465D
90.526	0.922	122433	REC_WORD	0.922	n/a	OCEAN	Landscapes	3	-1	[0, 0, 0]	n/a	catFR1	3	R1465D
91.448	0.97	123355	REC_WORD	0.97	n/a	LAKE	Landscapes	4	-1	[0, 0, 0]	n/a	catFR1	3	R1465D
92.418	1.855	124325	REC_WORD	1.855	n/a	MOUNTAIN	Landscapes	12	-1	[0, 0, 0]	n/a	catFR1	3	R1465D
94.273	0.882	126180	REC_WORD	0.882	n/a	MOPED	Vehicles	6	-1	[0, 0, 0]	n/a	catFR1	3	R1465D
95.155	8.431	127062	REC_WORD	8.431	n/a	MOTORCYCLE	Vehicles	5	-1	[0, 0, 0]	n/a	catFR1	3	R1465D
103.586	13.315	135493	REC_WORD	13.315	n/a	CROW	Birds	7	-1	[0, 0, 0]	n/a	catFR1	3	R1465D
116.901	12.194	148809	REC_END	n/a	n/a	n/a	n/a	-999	-1	[0, 0, 0]	n/a	catFR1	3	R1465D
129.095	10.35	160998	COUNTDOWN_START	n/a	n/a	n/a	n/a	-999	1	[0, 0, 0]	n/a	catFR1	3	R1465D
139.445	0.0	171350	COUNTDOWN_END	n/a	n/a	n/a	n/a	-999	1	[0, 0, 0]	n/a	catFR1	3	R1465D
139.445	2.016	171350	ENCODING_START	n/a	n/a	n/a	n/a	-999	1	[0, 0, 0]	n/a	catFR1	3	R1465D
141.461	1.601	173364	WORD	n/a	wordpools/wordpool_categorized_EN.txt	COTTON	Fabric	1	1	[0, 0, 0]	n/a	catFR1	3	R1465D
143.062	0.9	174965	WORD_OFF	n/a	n/a	COTTON	Fabric	1	1	[0, 0, 0]	n/a	catFR1	3	R1465D
143.962	1.6	175868	WORD	n/a	wordpools/wordpool_categorized_EN.txt	WOOL	Fabric	2	1	[0, 0, 0]	n/a	catFR1	3	R1465D
145.562	0.834	177469	WORD_OFF	n/a	n/a	WOOL	Fabric	2	1	[0, 0, 0]	n/a	catFR1	3	R1465D
146.396	1.615	178304	WORD	n/a	wordpools/wordpool_categorized_EN.txt	JACKET	Clothing	3	1	[0, 0, 0]	n/a	catFR1	3	R1465D
148.011	0.834	179915	WORD_OFF	n/a	n/a	JACKET	Clothing	3	1	[0, 0, 0]	n/a	catFR1	3	R1465D
148.845	1.616	180750	WORD	n/a	wordpools/wordpool_categorized_EN.txt	SHIRT	Clothing	4	1	[0, 0, 0]	n/a	catFR1	3	R1465D
150.461	0.85	182370	WORD_OFF	n/a	n/a	SHIRT	Clothing	4	1	[0, 0, 0]	n/a	catFR1	3	R1465D
151.311	1.6	183215	WORD	n/a	wordpools/wordpool_categorized_EN.txt	CHEETAH	Zoo	5	1	[0, 0, 0]	n/a	catFR1	3	R1465D
152.911	0.966	184816	WORD_OFF	n/a	n/a	CHEETAH	Zoo	5	1	[0, 0, 0]	n/a	catFR1	3	R1465D
153.877	1.6	185778	WORD	n/a	wordpools/wordpool_categorized_EN.txt	MONKEY	Zoo	6	1	[0, 0, 0]	n/a	catFR1	3	R1465D
155.477	0.817	187379	WORD_OFF	n/a	n/a	MONKEY	Zoo	6	1	[0, 0, 0]	n/a	catFR1	3	R1465D
156.294	1.617	188204	WORD	n/a	wordpools/wordpool_categorized_EN.txt	LINEN	Fabric	7	1	[0, 0, 0]	n/a	catFR1	3	R1465D
157.911	0.817	189815	WORD_OFF	n/a	n/a	LINEN	Fabric	7	1	[0, 0, 0]	n/a	catFR1	3	R1465D
158.728	1.6	190630	WORD	n/a	wordpools/wordpool_categorized_EN.txt	SUEDE	Fabric	8	1	[0, 0, 0]	n/a	catFR1	3	R1465D
160.328	0.95	192231	WORD_OFF	n/a	n/a	SUEDE	Fabric	8	1	[0, 0, 0]	n/a	catFR1	3	R1465D
161.278	1.617	193184	WORD	n/a	wordpools/wordpool_categorized_EN.txt	SHORTS	Clothing	9	1	[0, 0, 0]	n/a	catFR1	3	R1465D
162.895	0.967	194795	WORD_OFF	n/a	n/a	SHORTS	Clothing	9	1	[0, 0, 0]	n/a	catFR1	3	R1465D
163.862	1.6	195767	WORD	n/a	wordpools/wordpool_categorized_EN.txt	COAT	Clothing	10	1	[0, 0, 0]	n/a	catFR1	3	R1465D
165.462	0.816	197368	WORD_OFF	n/a	n/a	COAT	Clothing	10	1	[0, 0, 0]	n/a	catFR1	3	R1465D
166.278	1.6	198183	WORD	n/a	wordpools/wordpool_categorized_EN.txt	GORILLA	Zoo	11	1	[0, 0, 0]	n/a	catFR1	3	R1465D
167.878	0.8	199784	WORD_OFF	n/a	n/a	GORILLA	Zoo	11	1	[0, 0, 0]	n/a	catFR1	3	R1465D
168.678	1.616	200580	WORD	n/a	wordpools/wordpool_categorized_EN.txt	PANDA	Zoo	12	1	[0, 0, 0]	n/a	catFR1	3	R1465D
170.294	0.001	202197	PROB	0.001	n/a	n/a	n/a	-999	1	[8, 4, 6]	18	catFR1	3	R1465D
170.295	0.0	202198	START	n/a	n/a	n/a	n/a	-999	1	[-999, -999, -999]	n/a	catFR1	3	R1465D
170.294	0.001	202200	WORD_OFF	n/a	n/a	PANDA	Zoo	12	1	[0, 0, 0]	n/a	catFR1	3	R1465D
170.295	0.0	202200	ENCODING_END	n/a	n/a	n/a	n/a	-999	1	[0, 0, 0]	n/a	catFR1	3	R1465D
170.295	3.317	202200	DISTRACT_START	n/a	n/a	n/a	n/a	-999	1	[0, 0, 0]	n/a	catFR1	3	R1465D
173.612	1.7	205515	PROB	1.7	n/a	n/a	n/a	-999	1	[2, 2, 3]	7	catFR1	3	R1465D
175.312	2.116	207215	PROB	2.116	n/a	n/a	n/a	-999	1	[5, 6, 8]	19	catFR1	3	R1465D
177.428	1.384	209331	PROB	1.384	n/a	n/a	n/a	-999	1	[1, 6, 1]	8	catFR1	3	R1465D
178.812	1.865	210715	PROB	1.865	n/a	n/a	n/a	-999	1	[2, 5, 7]	14	catFR1	3	R1465D
180.677	1.552	212579	PROB	1.552	n/a	n/a	n/a	-999	1	[1, 1, 4]	6	catFR1	3	R1465D
182.229	1.3	214131	PROB	1.3	n/a	n/a	n/a	-999	1	[3, 1, 1]	5	catFR1	3	R1465D
183.529	1.334	215431	PROB	1.334	n/a	n/a	n/a	-999	1	[5, 1, 5]	11	catFR1	3	R1465D
184.863	1.732	216765	PROB	1.732	n/a	n/a	n/a	-999	1	[5, 4, 5]	14	catFR1	3	R1465D
186.595	2.183	218497	PROB	2.183	n/a	n/a	n/a	-999	1	[7, 7, 5]	19	catFR1	3	R1465D
188.778	1.617	220680	PROB	1.617	n/a	n/a	n/a	-999	1	[4, 1, 6]	11	catFR1	3	R1465D
190.395	0.0	222296	DISTRACT_END	n/a	n/a	n/a	n/a	-999	1	[0, 0, 0]	n/a	catFR1	3	R1465D
190.395	2.133	222297	STOP	n/a	n/a	n/a	n/a	-999	1	[-999, -999, -999]	n/a	catFR1	3	R1465D
192.528	1.359	224435	REC_START	n/a	n/a	n/a	n/a	-999	1	[0, 0, 0]	n/a	catFR1	3	R1465D
193.887	0.722	225789	REC_WORD	0.722	n/a	COTTON	Fabric	1	1	[0, 0, 0]	n/a	catFR1	3	R1465D
194.609	0.984	226511	REC_WORD	0.984	n/a	WOOL	Fabric	2	1	[0, 0, 0]	n/a	catFR1	3	R1465D
195.593	3.022	227495	REC_WORD	3.022	n/a	MONKEY	Zoo	6	1	[0, 0, 0]	n/a	catFR1	3	R1465D
198.615	4.495	230517	REC_WORD	4.495	n/a	SATIN	n/a	-999	1	[0, 0, 0]	n/a	catFR1	3	R1465D
203.11	0.345	235011	REC_WORD_VV	0.345	n/a	<>	n/a	-999	1	[0, 0, 0]	n/a	catFR1	3	R1465D
203.455	1.0	235356	REC_WORD	1.0	n/a	SHIRT	Clothing	4	1	[0, 0, 0]	n/a	catFR1	3	R1465D
204.455	1.0	236356	REC_WORD_VV	1.0	n/a	<>	n/a	-999	1	[0, 0, 0]	n/a	catFR1	3	R1465D
205.455	1.0	237356	REC_WORD_VV	1.0	n/a	<>	n/a	-999	1	[0, 0, 0]	n/a	catFR1	3	R1465D
206.455	8.298	238356	REC_WORD_VV	8.298	n/a	<>	n/a	-999	1	[0, 0, 0]	n/a	catFR1	3	R1465D
214.753	7.964	246654	REC_WORD	7.964	n/a	GOAT	n/a	-999	1	[0, 0, 0]	n/a	catFR1	3	R1465D
222.717	5.611	254619	REC_END	n/a	n/a	n/a	n/a	-999	1	[0, 0, 0]	n/a	catFR1	3	R1465D
228.328	10.35	260237	COUNTDOWN_START	n/a	n/a	n/a	n/a	-999	2	[0, 0, 0]	n/a	catFR1	3	R1465D
238.678	0.0	270580	COUNTDOWN_END	n/a	n/a	n/a	n/a	-999	2	[0, 0, 0]	n/a	catFR1	3	R1465D
238.678	1.9	270580	ENCODING_START	n/a	n/a	n/a	n/a	-999	2	[0, 0, 0]	n/a	catFR1	3	R1465D
240.578	1.616	272475	WORD	n/a	wordpools/wordpool_categorized_EN.txt	WOODS	Landscapes	1	2	[0, 0, 0]	n/a	catFR1	3	R1465D
242.194	0.783	274096	WORD_OFF	n/a	n/a	WOODS	Landscapes	1	2	[0, 0, 0]	n/a	catFR1	3	R1465D
242.977	1.601	274882	WORD	n/a	wordpools/wordpool_categorized_EN.txt	VALLEY	Landscapes	2	2	[0, 0, 0]	n/a	catFR1	3	R1465D
244.578	0.949	276483	WORD_OFF	n/a	n/a	VALLEY	Landscapes	2	2	[0, 0, 0]	n/a	catFR1	3	R1465D
245.527	1.6	277425	WORD	n/a	wordpools/wordpool_categorized_EN.txt	GLUE	OfficeSupplies	3	2	[0, 0, 0]	n/a	catFR1	3	R1465D
247.127	0.834	279026	WORD_OFF	n/a	n/a	GLUE	OfficeSupplies	3	2	[0, 0, 0]	n/a	catFR1	3	R1465D
247.961	1.6	279861	WORD	n/a	wordpools/wordpool_categorized_EN.txt	FOLDER	OfficeSupplies	4	2	[0, 0, 0]	n/a	catFR1	3	R1465D
249.561	0.9	281462	WORD_OFF	n/a	n/a	FOLDER	OfficeSupplies	4	2	[0, 0, 0]	n/a	catFR1	3	R1465D
250.461	1.601	282366	WORD	n/a	wordpools/wordpool_categorized_EN.txt	ELBOW	BodyParts	5	2	[0, 0, 0]	n/a	catFR1	3	R1465D
252.062	0.833	283967	WORD_OFF	n/a	n/a	ELBOW	BodyParts	5	2	[0, 0, 0]	n/a	catFR1	3	R1465D
252.895	1.6	284792	WORD	n/a	wordpools/wordpool_categorized_EN.txt	FINGERS	BodyParts	6	2	[0, 0, 0]	n/a	catFR1	3	R1465D
254.495	0.849	286393	WORD_OFF	n/a	n/a	FINGERS	BodyParts	6	2	[0, 0, 0]	n/a	catFR1	3	R1465D
255.344	1.601	287247	WORD	n/a	wordpools/wordpool_categorized_EN.txt	FOREST	Landscapes	7	2	[0, 0, 0]	n/a	catFR1	3	R1465D
256.945	0.816	288848	WORD_OFF	n/a	n/a	FOREST	Landscapes	7	2	[0, 0, 0]	n/a	catFR1	3	R1465D
257.761	1.617	289663	WORD	n/a	wordpools/wordpool_categorized_EN.txt	ISLAND	Landscapes	8	2	[0, 0, 0]	n/a	catFR1	3	R1465D
259.378	0.967	291274	WORD_OFF	n/a	n/a	ISLAND	Landscapes	8	2	[0, 0, 0]	n/a	catFR1	3	R1465D
260.345	1.615	292246	WORD	n/a	wordpools/wordpool_categorized_EN.txt	PEN	OfficeSupplies	9	2	[0, 0, 0]	n/a	catFR1	3	R1465D
261.96	0.901	293857	WORD_OFF	n/a	n/a	PEN	OfficeSupplies	9	2	[0, 0, 0]	n/a	catFR1	3	R1465D
262.861	1.601	294761	WORD	n/a	wordpools/wordpool_categorized_EN.txt	PAPER	OfficeSupplies	10	2	[0, 0, 0]	n/a	catFR1	3	R1465D
264.462	0.832	296362	WORD_OFF	n/a	n/a	PAPER	OfficeSupplies	10	2	[0, 0, 0]	n/a	catFR1	3	R1465D
265.294	1.601	297197	WORD	n/a	wordpools/wordpool_categorized_EN.txt	EYE	BodyParts	11	2	[0, 0, 0]	n/a	catFR1	3	R1465D
266.895	0.85	298798	WORD_OFF	n/a	n/a	EYE	BodyParts	11	2	[0, 0, 0]	n/a	catFR1	3	R1465D
267.745	1.617	299642	WORD	n/a	wordpools/wordpool_categorized_EN.txt	TOE	BodyParts	12	2	[0, 0, 0]	n/a	catFR1	3	R1465D
269.362	0.001	301260	PROB	0.001	n/a	n/a	n/a	-999	2	[8, 4, 5]	17	catFR1	3	R1465D
269.363	0.0	301261	START	n/a	n/a	n/a	n/a	-999	2	[-999, -999, -999]	n/a	catFR1	3	R1465D
269.361	0.002	301263	WORD_OFF	n/a	n/a	TOE	BodyParts	12	2	[0, 0, 0]	n/a	catFR1	3	R1465D
269.363	0.0	301263	ENCODING_END	n/a	n/a	n/a	n/a	-999	2	[0, 0, 0]	n/a	catFR1	3	R1465D
269.363	2.882	301263	DISTRACT_START	n/a	n/a	n/a	n/a	-999	2	[0, 0, 0]	n/a	catFR1	3	R1465D
272.245	1.633	304143	PROB	1.633	n/a	n/a	n/a	-999	2	[2, 5, 3]	10	catFR1	3	R1465D
273.878	2.116	305776	PROB	2.116	n/a	n/a	n/a	-999	2	[4, 4, 7]	15	catFR1	3	R1465D
275.994	1.618	307891	PROB	1.618	n/a	n/a	n/a	-999	2	[3, 7, 5]	15	catFR1	3	R1465D
277.612	1.466	309509	PROB	1.466	n/a	n/a	n/a	-999	2	[1, 1, 7]	9	catFR1	3	R1465D
279.078	2.718	310975	PROB	2.718	n/a	n/a	n/a	-999	2	[8, 8, 6]	22	catFR1	3	R1465D
281.796	1.982	313693	PROB	1.982	n/a	n/a	n/a	-999	2	[3, 2, 5]	10	catFR1	3	R1465D
283.778	1.618	315675	PROB	1.618	n/a	n/a	n/a	-999	2	[7, 1, 5]	13	catFR1	3	R1465D
285.396	1.616	317293	PROB	1.616	n/a	n/a	n/a	-999	2	[4, 7, 1]	12	catFR1	3	R1465D
287.012	1.633	318909	PROB	1.633	n/a	n/a	n/a	-999	2	[8, 4, 2]	14	catFR1	3	R1465D
288.645	1.733	320542	PROB	1.733	n/a	n/a	n/a	-999	2	[5, 7, 2]	14	catFR1	3	R1465D
290.378	0.0	322275	STOP	n/a	n/a	n/a	n/a	-999	2	[-999, -999, -999]	n/a	catFR1	3	R1465D
290.378	2.3	322281	DISTRACT_END	n/a	n/a	n/a	n/a	-999	2	[0, 0, 0]	n/a	catFR1	3	R1465D
292.678	1.918	324578	REC_START	n/a	n/a	n/a	n/a	-999	2	[0, 0, 0]	n/a	catFR1	3	R1465D
294.596	1.485	326492	REC_WORD	1.485	n/a	PEN	OfficeSupplies	9	2	[0, 0, 0]	n/a	catFR1	3	R1465D
296.081	1.875	327977	REC_WORD	1.875	n/a	PAPER	OfficeSupplies	10	2	[0, 0, 0]	n/a	catFR1	3	R1465D
297.956	1.301	329852	REC_WORD	1.301	n/a	WOODS	Landscapes	1	2	[0, 0, 0]	n/a	catFR1	3	R1465D
299.257	4.477	331153	REC_WORD	4.477	n/a	VALLEY	Landscapes	2	2	[0, 0, 0]	n/a	catFR1	3	R1465D
303.734	10.064	335630	REC_WORD	10.064	n/a	LAKE	Landscapes	-999	2	[0, 0, 0]	n/a	catFR1	3	R1465D
313.798	0.357	345693	REC_WORD	0.357	n/a	PEN	OfficeSupplies	9	2	[0, 0, 0]	n/a	catFR1	3	R1465D
314.155	0.469	346050	REC_WORD	0.469	n/a	PAPER	OfficeSupplies	10	2	[0, 0, 0]	n/a	catFR1	3	R1465D
314.624	8.268	346519	REC_WORD	8.268	n/a	PENCIL	n/a	-999	2	[0, 0, 0]	n/a	catFR1	3	R1465D
322.892	6.986	354792	REC_END	n/a	n/a	n/a	n/a	-999	2	[0, 0, 0]	n/a	catFR1	3	R1465D
329.878	10.349	361775	COUNTDOWN_START	n/a	n/a	n/a	n/a	-999	3	[0, 0, 0]	n/a	catFR1	3	R1465D
340.227	0.0	372127	COUNTDOWN_END	n/a	n/a	n/a	n/a	-999	3	[0, 0, 0]	n/a	catFR1	3	R1465D
340.227	1.901	372127	ENCODING_START	n/a	n/a	n/a	n/a	-999	3	[0, 0, 0]	n/a	catFR1	3	R1465D
342.128	1.6	374023	WORD	n/a	wordpools/wordpool_categorized_EN.txt	VIOLIN	Instruments	1	3	[0, 0, 0]	n/a	catFR1	3	R1465D
343.728	0.849	375624	WORD_OFF	n/a	n/a	VIOLIN	Instruments	1	3	[0, 0, 0]	n/a	catFR1	3	R1465D
344.577	1.601	376468	WORD	n/a	wordpools/wordpool_categorized_EN.txt	PIANO	Instruments	2	3	[0, 0, 0]	n/a	catFR1	3	R1465D
346.178	0.884	378075	WORD_OFF	n/a	n/a	PIANO	Instruments	2	3	[0, 0, 0]	n/a	catFR1	3	R1465D
347.062	1.616	378953	WORD	n/a	wordpools/wordpool_categorized_EN.txt	PRINTER	Electronics	3	3	[0, 0, 0]	n/a	catFR1	3	R1465D
348.678	0.884	380574	WORD_OFF	n/a	n/a	PRINTER	Electronics	3	3	[0, 0, 0]	n/a	catFR1	3	R1465D
349.562	1.615	381458	WORD	n/a	wordpools/wordpool_categorized_EN.txt	PHONE	Electronics	4	3	[0, 0, 0]	n/a	catFR1	3	R1465D
351.177	0.783	383068	WORD_OFF	n/a	n/a	PHONE	Electronics	4	3	[0, 0, 0]	n/a	catFR1	3	R1465D
351.96	1.601	383854	WORD	n/a	wordpools/wordpool_categorized_EN.txt	UNDERWEAR	Clothing	5	3	[0, 0, 0]	n/a	catFR1	3	R1465D
353.561	0.866	385455	WORD_OFF	n/a	n/a	UNDERWEAR	Clothing	5	3	[0, 0, 0]	n/a	catFR1	3	R1465D
354.427	1.601	386319	WORD	n/a	wordpools/wordpool_categorized_EN.txt	SHOES	Clothing	6	3	[0, 0, 0]	n/a	catFR1	3	R1465D
356.028	0.817	387920	WORD_OFF	n/a	n/a	SHOES	Clothing	6	3	[0, 0, 0]	n/a	catFR1	3	R1465D
356.845	1.618	388736	WORD	n/a	wordpools/wordpool_categorized_EN.txt	SCANNER	Electronics	7	3	[0, 0, 0]	n/a	catFR1	3	R1465D
358.463	0.865	390356	WORD_OFF	n/a	n/a	SCANNER	Electronics	7	3	[0, 0, 0]	n/a	catFR1	3	R1465D
359.328	1.6	391220	WORD	n/a	wordpools/wordpool_categorized_EN.txt	STEREO	Electronics	8	3	[0, 0, 0]	n/a	catFR1	3	R1465D
360.928	1.0	392821	WORD_OFF	n/a	n/a	STEREO	Electronics	8	3	[0, 0, 0]	n/a	catFR1	3	R1465D
361.928	1.617	393823	WORD	n/a	wordpools/wordpool_categorized_EN.txt	SOCKS	Clothing	9	3	[0, 0, 0]	n/a	catFR1	3	R1465D
363.545	0.85	395444	WORD_OFF	n/a	n/a	SOCKS	Clothing	9	3	[0, 0, 0]	n/a	catFR1	3	R1465D
364.395	1.616	396289	WORD	n/a	wordpools/wordpool_categorized_EN.txt	DRESS	Clothing	10	3	[0, 0, 0]	n/a	catFR1	3	R1465D
366.011	0.95	397909	WORD_OFF	n/a	n/a	DRESS	Clothing	10	3	[0, 0, 0]	n/a	catFR1	3	R1465D
366.961	1.601	398852	WORD	n/a	wordpools/wordpool_categorized_EN.txt	BASS	Instruments	11	3	[0, 0, 0]	n/a	catFR1	3	R1465D
368.562	0.799	400453	WORD_OFF	n/a	n/a	BASS	Instruments	11	3	[0, 0, 0]	n/a	catFR1	3	R1465D
369.361	1.601	401258	WORD	n/a	wordpools/wordpool_categorized_EN.txt	DRUM	Instruments	12	3	[0, 0, 0]	n/a	catFR1	3	R1465D
370.962	0.001	402854	PROB	0.001	n/a	n/a	n/a	-999	3	[1, 6, 7]	14	catFR1	3	R1465D
370.963	0.0	402855	START	n/a	n/a	n/a	n/a	-999	3	[-999, -999, -999]	n/a	catFR1	3	R1465D
370.962	0.001	402859	WORD_OFF	n/a	n/a	DRUM	Instruments	12	3	[0, 0, 0]	n/a	catFR1	3	R1465D
370.963	0.0	402859	ENCODING_END	n/a	n/a	n/a	n/a	-999	3	[0, 0, 0]	n/a	catFR1	3	R1465D
370.963	3.666	402859	DISTRACT_START	n/a	n/a	n/a	n/a	-999	3	[0, 0, 0]	n/a	catFR1	3	R1465D
374.629	1.733	406521	PROB	1.733	n/a	n/a	n/a	-999	3	[7, 1, 4]	12	catFR1	3	R1465D
376.362	1.7	408254	PROB	1.7	n/a	n/a	n/a	-999	3	[5, 6, 5]	16	catFR1	3	R1465D
378.062	1.632	409954	PROB	1.632	n/a	n/a	n/a	-999	3	[3, 1, 4]	8	catFR1	3	R1465D
379.694	2.751	411586	PROB	2.751	n/a	n/a	n/a	-999	3	[2, 4, 3]	9	catFR1	3	R1465D
382.445	2.167	414337	PROB	2.167	n/a	n/a	n/a	-999	3	[8, 6, 4]	18	catFR1	3	R1465D
384.612	2.2	416504	PROB	2.2	n/a	n/a	n/a	-999	3	[4, 7, 3]	14	catFR1	3	R1465D
386.812	1.333	418704	PROB	1.333	n/a	n/a	n/a	-999	3	[4, 6, 1]	11	catFR1	3	R1465D
388.145	1.784	420036	PROB	1.784	n/a	n/a	n/a	-999	3	[6, 8, 1]	15	catFR1	3	R1465D
389.929	1.682	421820	PROB	1.682	n/a	n/a	n/a	-999	3	[2, 4, 8]	14	catFR1	3	R1465D
391.611	0.0	423502	STOP	n/a	n/a	n/a	n/a	-999	3	[-999, -999, -999]	n/a	catFR1	3	R1465D
391.611	2.016	423505	DISTRACT_END	n/a	n/a	n/a	n/a	-999	3	[0, 0, 0]	n/a	catFR1	3	R1465D
393.627	0.852	425516	REC_START	n/a	n/a	n/a	n/a	-999	3	[0, 0, 0]	n/a	catFR1	3	R1465D
394.479	1.0	426370	REC_WORD	1.0	n/a	SOCKS	Clothing	9	3	[0, 0, 0]	n/a	catFR1	3	R1465D
395.479	0.821	427370	REC_WORD_VV	0.821	n/a	<>	n/a	-999	3	[0, 0, 0]	n/a	catFR1	3	R1465D
396.3	0.932	428191	REC_WORD	0.932	n/a	SOCKS	Clothing	9	3	[0, 0, 0]	n/a	catFR1	3	R1465D
397.232	0.953	429123	REC_WORD	0.953	n/a	SHOES	Clothing	6	3	[0, 0, 0]	n/a	catFR1	3	R1465D
398.185	1.066	430076	REC_WORD	1.066	n/a	BASS	Instruments	11	3	[0, 0, 0]	n/a	catFR1	3	R1465D
399.251	1.383	431142	REC_WORD	1.383	n/a	DRUM	Instruments	12	3	[0, 0, 0]	n/a	catFR1	3	R1465D
400.634	1.555	432525	REC_WORD	1.555	n/a	PIANO	Instruments	2	3	[0, 0, 0]	n/a	catFR1	3	R1465D
402.189	1.712	434080	REC_WORD	1.712	n/a	PRINTER	Electronics	3	3	[0, 0, 0]	n/a	catFR1	3	R1465D
403.901	7.768	435792	REC_WORD	7.768	n/a	VIOLIN	Instruments	1	3	[0, 0, 0]	n/a	catFR1	3	R1465D
411.669	1.0	443559	REC_WORD	1.0	n/a	SOCKS	Clothing	9	3	[0, 0, 0]	n/a	catFR1	3	R1465D
412.669	0.414	444559	REC_WORD_VV	0.414	n/a	<>	n/a	-999	3	[0, 0, 0]	n/a	catFR1	3	R1465D
413.083	1.083	444973	REC_WORD	1.083	n/a	SHOES	Clothing	6	3	[0, 0, 0]	n/a	catFR1	3	R1465D
414.166	0.52	446056	REC_WORD	0.52	n/a	BASS	Instruments	11	3	[0, 0, 0]	n/a	catFR1	3	R1465D
414.686	1.188	446576	REC_WORD	1.188	n/a	DRUM	Instruments	12	3	[0, 0, 0]	n/a	catFR1	3	R1465D
415.874	0.65	447764	REC_WORD	0.65	n/a	VIOLIN	Instruments	1	3	[0, 0, 0]	n/a	catFR1	3	R1465D
416.524	1.077	448414	REC_WORD	1.077	n/a	PIANO	Instruments	2	3	[0, 0, 0]	n/a	catFR1	3	R1465D
417.601	6.267	449491	REC_WORD	6.267	n/a	PRINTER	Electronics	3	3	[0, 0, 0]	n/a	catFR1	3	R1465D
423.868	5.927	455759	REC_END	n/a	n/a	n/a	n/a	-999	3	[0, 0, 0]	n/a	catFR1	3	R1465D
429.795	10.349	461692	COUNTDOWN_START	n/a	n/a	n/a	n/a	-999	4	[0, 0, 0]	n/a	catFR1	3	R1465D
440.144	0.0	472034	COUNTDOWN_END	n/a	n/a	n/a	n/a	-999	4	[0, 0, 0]	n/a	catFR1	3	R1465D
440.144	2.218	472034	ENCODING_START	n/a	n/a	n/a	n/a	-999	4	[0, 0, 0]	n/a	catFR1	3	R1465D
442.362	1.616	474254	WORD	n/a	wordpools/wordpool_categorized_EN.txt	DOOR	Building	1	4	[0, 0, 0]	n/a	catFR1	3	R1465D
443.978	0.917	475865	WORD_OFF	n/a	n/a	DOOR	Building	1	4	[0, 0, 0]	n/a	catFR1	3	R1465D
444.895	1.616	476788	WORD	n/a	wordpools/wordpool_categorized_EN.txt	HALLWAY	Building	2	4	[0, 0, 0]	n/a	catFR1	3	R1465D
446.511	0.834	478399	WORD_OFF	n/a	n/a	HALLWAY	Building	2	4	[0, 0, 0]	n/a	catFR1	3	R1465D
447.345	1.6	479233	WORD	n/a	wordpools/wordpool_categorized_EN.txt	GOOSE	Birds	3	4	[0, 0, 0]	n/a	catFR1	3	R1465D
448.945	0.966	480834	WORD_OFF	n/a	n/a	GOOSE	Birds	3	4	[0, 0, 0]	n/a	catFR1	3	R1465D
449.911	1.601	481797	WORD	n/a	wordpools/wordpool_categorized_EN.txt	SPARROW	Birds	4	4	[0, 0, 0]	n/a	catFR1	3	R1465D
451.512	0.983	483398	WORD_OFF	n/a	n/a	SPARROW	Birds	4	4	[0, 0, 0]	n/a	catFR1	3	R1465D
452.495	1.6	484380	WORD	n/a	wordpools/wordpool_categorized_EN.txt	POTATO	Vegetables	5	4	[0, 0, 0]	n/a	catFR1	3	R1465D
454.095	0.866	485981	WORD_OFF	n/a	n/a	POTATO	Vegetables	5	4	[0, 0, 0]	n/a	catFR1	3	R1465D
454.961	1.617	486855	WORD	n/a	wordpools/wordpool_categorized_EN.txt	PEAS	Vegetables	6	4	[0, 0, 0]	n/a	catFR1	3	R1465D
456.578	0.984	488466	WORD_OFF	n/a	n/a	PEAS	Vegetables	6	4	[0, 0, 0]	n/a	catFR1	3	R1465D
457.562	1.6	489448	WORD	n/a	wordpools/wordpool_categorized_EN.txt	HAWK	Birds	7	4	[0, 0, 0]	n/a	catFR1	3	R1465D
459.162	0.899	491049	WORD_OFF	n/a	n/a	HAWK	Birds	7	4	[0, 0, 0]	n/a	catFR1	3	R1465D
460.061	1.6	491953	WORD	n/a	wordpools/wordpool_categorized_EN.txt	ROBIN	Birds	8	4	[0, 0, 0]	n/a	catFR1	3	R1465D
461.661	0.9	493554	WORD_OFF	n/a	n/a	ROBIN	Birds	8	4	[0, 0, 0]	n/a	catFR1	3	R1465D
462.561	1.618	494447	WORD	n/a	wordpools/wordpool_categorized_EN.txt	CABBAGE	Vegetables	9	4	[0, 0, 0]	n/a	catFR1	3	R1465D
464.179	0.866	496068	WORD_OFF	n/a	n/a	CABBAGE	Vegetables	9	4	[0, 0, 0]	n/a	catFR1	3	R1465D
465.045	1.6	496932	WORD	n/a	wordpools/wordpool_categorized_EN.txt	CUCUMBER	Vegetables	10	4	[0, 0, 0]	n/a	catFR1	3	R1465D
466.645	0.983	498533	WORD_OFF	n/a	n/a	CUCUMBER	Vegetables	10	4	[0, 0, 0]	n/a	catFR1	3	R1465D
467.628	1.6	499515	WORD	n/a	wordpools/wordpool_categorized_EN.txt	ROOF	Building	11	4	[0, 0, 0]	n/a	catFR1	3	R1465D
469.228	0.817	501116	WORD_OFF	n/a	n/a	ROOF	Building	11	4	[0, 0, 0]	n/a	catFR1	3	R1465D
470.045	1.617	501932	WORD	n/a	wordpools/wordpool_categorized_EN.txt	CEILING	Building	12	4	[0, 0, 0]	n/a	catFR1	3	R1465D
471.662	0.0	503549	PROB	0.0	n/a	n/a	n/a	-999	4	[2, 6, 3]	11	catFR1	3	R1465D
471.662	0.0	503549	START	n/a	n/a	n/a	n/a	-999	4	[-999, -999, -999]	n/a	catFR1	3	R1465D
471.661	0.001	503552	WORD_OFF	n/a	n/a	CEILING	Building	12	4	[0, 0, 0]	n/a	catFR1	3	R1465D
471.662	0.0	503552	ENCODING_END	n/a	n/a	n/a	n/a	-999	4	[0, 0, 0]	n/a	catFR1	3	R1465D
471.662	2.5	503552	DISTRACT_START	n/a	n/a	n/a	n/a	-999	4	[0, 0, 0]	n/a	catFR1	3	R1465D
474.162	1.3	506049	PROB	1.3	n/a	n/a	n/a	-999	4	[3, 3, 6]	12	catFR1	3	R1465D
475.462	1.883	507349	PROB	1.883	n/a	n/a	n/a	-999	4	[4, 8, 7]	19	catFR1	3	R1465D
477.345	1.651	509232	PROB	1.651	n/a	n/a	n/a	-999	4	[2, 2, 3]	7	catFR1	3	R1465D
478.996	1.732	510883	PROB	1.732	n/a	n/a	n/a	-999	4	[7, 4, 4]	15	catFR1	3	R1465D
480.728	1.65	512615	PROB	1.65	n/a	n/a	n/a	-999	4	[1, 2, 3]	9	catFR1	3	R1465D
482.378	4.334	514265	PROB	4.334	n/a	n/a	n/a	-999	4	[2, 1, 2]	5	catFR1	3	R1465D
486.712	2.684	518598	PROB	2.684	n/a	n/a	n/a	-999	4	[2, 1, 5]	8	catFR1	3	R1465D
489.396	1.383	521282	PROB	1.383	n/a	n/a	n/a	-999	4	[4, 6, 1]	11	catFR1	3	R1465D
490.779	1.403	522665	PROB	1.403	n/a	n/a	n/a	-999	4	[5, 2, 4]	11	catFR1	3	R1465D
492.182	0.0	524068	STOP	n/a	n/a	n/a	n/a	-999	4	[-999, -999, -999]	n/a	catFR1	3	R1465D
492.182	2.146	524070	DISTRACT_END	n/a	n/a	n/a	n/a	-999	4	[0, 0, 0]	n/a	catFR1	3	R1465D
494.328	1.218	526219	REC_START	n/a	n/a	n/a	n/a	-999	4	[0, 0, 0]	n/a	catFR1	3	R1465D
495.546	0.914	527432	REC_WORD	0.914	n/a	POTATO	Vegetables	5	4	[0, 0, 0]	n/a	catFR1	3	R1465D
496.46	0.928	528346	REC_WORD	0.928	n/a	PEAS	Vegetables	6	4	[0, 0, 0]	n/a	catFR1	3	R1465D
497.388	2.867	529274	REC_WORD	2.867	n/a	CABBAGE	Vegetables	9	4	[0, 0, 0]	n/a	catFR1	3	R1465D
500.255	1.0	532141	REC_WORD	1.0	n/a	SPARROW	Birds	4	4	[0, 0, 0]	n/a	catFR1	3	R1465D
501.255	1.692	533141	REC_WORD_VV	1.692	n/a	<>	n/a	-999	4	[0, 0, 0]	n/a	catFR1	3	R1465D
502.947	0.56	534832	REC_WORD	0.56	n/a	CROW	Birds	-999	4	[0, 0, 0]	n/a	catFR1	3	R1465D
503.507	1.986	535392	REC_WORD	1.986	n/a	FINCH	Birds	-999	4	[0, 0, 0]	n/a	catFR1	3	R1465D
505.493	1.026	537378	REC_WORD	1.026	n/a	CEILING	Building	12	4	[0, 0, 0]	n/a	catFR1	3	R1465D
506.519	16.862	538404	REC_WORD	16.862	n/a	ROOF	Building	11	4	[0, 0, 0]	n/a	catFR1	3	R1465D
523.381	1.175	555265	REC_WORD	1.175	n/a	CORN	n/a	-999	4	[0, 0, 0]	n/a	catFR1	3	R1465D
524.556	4.238	556442	REC_END	n/a	n/a	n/a	n/a	-999	4	[0, 0, 0]	n/a	catFR1	3	R1465D
528.794	10.351	560685	COUNTDOWN_START	n/a	n/a	n/a	n/a	-999	5	[0, 0, 0]	n/a	catFR1	3	R1465D
539.145	0.0	571028	COUNTDOWN_END	n/a	n/a	n/a	n/a	-999	5	[0, 0, 0]	n/a	catFR1	3	R1465D
539.145	2.15	571028	ENCODING_START	n/a	n/a	n/a	n/a	-999	5	[0, 0, 0]	n/a	catFR1	3	R1465D
541.295	1.6	573179	WORD	n/a	wordpools/wordpool_categorized_EN.txt	DAISY	Flowers	1	5	[0, 0, 0]	n/a	catFR1	3	R1465D
542.895	0.966	574780	WORD_OFF	n/a	n/a	DAISY	Flowers	1	5	[0, 0, 0]	n/a	catFR1	3	R1465D
543.861	1.6	575742	WORD	n/a	wordpools/wordpool_categorized_EN.txt	LILY	Flowers	2	5	[0, 0, 0]	n/a	catFR1	3	R1465D
545.461	0.966	577343	WORD_OFF	n/a	n/a	LILY	Flowers	2	5	[0, 0, 0]	n/a	catFR1	3	R1465D
546.427	1.601	578316	WORD	n/a	wordpools/wordpool_categorized_EN.txt	DOVE	Birds	3	5	[0, 0, 0]	n/a	catFR1	3	R1465D
548.028	0.85	579916	WORD_OFF	n/a	n/a	DOVE	Birds	3	5	[0, 0, 0]	n/a	catFR1	3	R1465D
548.878	1.617	580761	WORD	n/a	wordpools/wordpool_categorized_EN.txt	SEAGULL	Birds	4	5	[0, 0, 0]	n/a	catFR1	3	R1465D
550.495	0.933	582382	WORD_OFF	n/a	n/a	SEAGULL	Birds	4	5	[0, 0, 0]	n/a	catFR1	3	R1465D
551.428	1.6	583315	WORD	n/a	wordpools/wordpool_categorized_EN.txt	HEADPHONES	Electronics	5	5	[0, 0, 0]	n/a	catFR1	3	R1465D
553.028	0.967	584916	WORD_OFF	n/a	n/a	HEADPHONES	Electronics	5	5	[0, 0, 0]	n/a	catFR1	3	R1465D
553.995	1.617	585878	WORD	n/a	wordpools/wordpool_categorized_EN.txt	RADIO	Electronics	6	5	[0, 0, 0]	n/a	catFR1	3	R1465D
555.612	0.916	587499	WORD_OFF	n/a	n/a	RADIO	Electronics	6	5	[0, 0, 0]	n/a	catFR1	3	R1465D
556.528	1.617	588412	WORD	n/a	wordpools/wordpool_categorized_EN.txt	BLUEBIRD	Birds	7	5	[0, 0, 0]	n/a	catFR1	3	R1465D
558.145	0.799	590033	WORD_OFF	n/a	n/a	BLUEBIRD	Birds	7	5	[0, 0, 0]	n/a	catFR1	3	R1465D
558.944	1.601	590828	WORD	n/a	wordpools/wordpool_categorized_EN.txt	CARDINAL	Birds	8	5	[0, 0, 0]	n/a	catFR1	3	R1465D
560.545	0.867	592429	WORD_OFF	n/a	n/a	CARDINAL	Birds	8	5	[0, 0, 0]	n/a	catFR1	3	R1465D
561.412	1.616	593294	WORD	n/a	wordpools/wordpool_categorized_EN.txt	MARIGOLD	Flowers	9	5	[0, 0, 0]	n/a	catFR1	3	R1465D
563.028	0.884	594914	WORD_OFF	n/a	n/a	MARIGOLD	Flowers	9	5	[0, 0, 0]	n/a	catFR1	3	R1465D
563.912	1.616	595798	WORD	n/a	wordpools/wordpool_categorized_EN.txt	LILAC	Flowers	10	5	[0, 0, 0]	n/a	catFR1	3	R1465D
565.528	0.933	597409	WORD_OFF	n/a	n/a	LILAC	Flowers	10	5	[0, 0, 0]	n/a	catFR1	3	R1465D
566.461	1.601	598342	WORD	n/a	wordpools/wordpool_categorized_EN.txt	TABLET	Electronics	11	5	[0, 0, 0]	n/a	catFR1	3	R1465D
568.062	0.783	599943	WORD_OFF	n/a	n/a	TABLET	Electronics	11	5	[0, 0, 0]	n/a	catFR1	3	R1465D
568.845	1.601	600729	WORD	n/a	wordpools/wordpool_categorized_EN.txt	MICROWAVE	Electronics	12	5	[0, 0, 0]	n/a	catFR1	3	R1465D
570.446	0.0	602328	START	n/a	n/a	n/a	n/a	-999	5	[-999, -999, -999]	n/a	catFR1	3	R1465D
570.446	0.0	602328	PROB	0.0	n/a	n/a	n/a	-999	5	[5, 6, 8]	19	catFR1	3	R1465D
570.445	0.001	602330	WORD_OFF	n/a	n/a	MICROWAVE	Electronics	12	5	[0, 0, 0]	n/a	catFR1	3	R1465D
570.446	0.0	602330	ENCODING_END	n/a	n/a	n/a	n/a	-999	5	[0, 0, 0]	n/a	catFR1	3	R1465D
570.446	3.333	602330	DISTRACT_START	n/a	n/a	n/a	n/a	-999	5	[0, 0, 0]	n/a	catFR1	3	R1465D
573.779	1.566	605661	PROB	1.566	n/a	n/a	n/a	-999	5	[6, 2, 6]	14	catFR1	3	R1465D
575.345	1.666	607227	PROB	1.666	n/a	n/a	n/a	-999	5	[3, 7, 6]	16	catFR1	3	R1465D
577.011	1.717	608892	PROB	1.717	n/a	n/a	n/a	-999	5	[7, 6, 2]	15	catFR1	3	R1465D
578.728	1.834	610609	PROB	1.834	n/a	n/a	n/a	-999	5	[6, 6, 4]	16	catFR1	3	R1465D
580.562	1.401	612443	PROB	1.401	n/a	n/a	n/a	-999	5	[4, 6, 2]	12	catFR1	3	R1465D
581.963	1.466	613844	PROB	1.466	n/a	n/a	n/a	-999	5	[1, 8, 4]	13	catFR1	3	R1465D
583.429	1.936	615310	PROB	1.936	n/a	n/a	n/a	-999	5	[1, 7, 5]	13	catFR1	3	R1465D
585.365	1.53	617246	PROB	1.53	n/a	n/a	n/a	-999	5	[2, 3, 8]	13	catFR1	3	R1465D
586.895	1.9	618776	PROB	1.9	n/a	n/a	n/a	-999	5	[3, 1, 4]	8	catFR1	3	R1465D
588.795	2.133	620676	PROB	2.133	n/a	n/a	n/a	-999	5	[6, 8, 1]	15	catFR1	3	R1465D
590.928	0.0	622808	DISTRACT_END	n/a	n/a	n/a	n/a	-999	5	[0, 0, 0]	n/a	catFR1	3	R1465D
590.928	2.4	622809	STOP	n/a	n/a	n/a	n/a	-999	5	[-999, -999, -999]	n/a	catFR1	3	R1465D
593.328	2.006	625213	REC_START	n/a	n/a	n/a	n/a	-999	5	[0, 0, 0]	n/a	catFR1	3	R1465D
595.334	9.129	627215	REC_WORD_VV	9.129	n/a	<>	n/a	-999	5	[0, 0, 0]	n/a	catFR1	3	R1465D
604.463	0.845	636343	REC_WORD	0.845	n/a	CABBAGE	Vegetables	-999	5	[0, 0, 0]	n/a	catFR1	3	R1465D
605.308	2.617	637188	REC_WORD	2.617	n/a	SPARROW	Birds	-999	5	[0, 0, 0]	n/a	catFR1	3	R1465D
607.925	2.797	639805	REC_WORD	2.797	n/a	PEAS	Vegetables	-999	5	[0, 0, 0]	n/a	catFR1	3	R1465D
610.722	1.369	642602	REC_WORD	1.369	n/a	FOREST	Landscapes	-999	5	[0, 0, 0]	n/a	catFR1	3	R1465D
612.091	3.395	643971	REC_WORD	3.395	n/a	FINCH	Birds	-999	5	[0, 0, 0]	n/a	catFR1	3	R1465D
615.486	0.684	647366	REC_WORD	0.684	n/a	LEOPARD	n/a	-999	5	[0, 0, 0]	n/a	catFR1	3	R1465D
616.17	3.815	648049	REC_WORD	3.815	n/a	PLUM	n/a	-999	5	[0, 0, 0]	n/a	catFR1	3	R1465D
619.985	1.648	651864	REC_WORD	1.648	n/a	PEACH	n/a	-999	5	[0, 0, 0]	n/a	catFR1	3	R1465D
621.633	1.928	653512	REC_WORD	1.928	n/a	PEACHES	n/a	-999	5	[0, 0, 0]	n/a	catFR1	3	R1465D
623.561	2.867	655446	REC_END	n/a	n/a	n/a	n/a	-999	5	[0, 0, 0]	n/a	catFR1	3	R1465D
626.428	10.35	658314	COUNTDOWN_START	n/a	n/a	n/a	n/a	-999	6	[0, 0, 0]	n/a	catFR1	3	R1465D
636.778	0.0	668656	COUNTDOWN_END	n/a	n/a	n/a	n/a	-999	6	[0, 0, 0]	n/a	catFR1	3	R1465D
636.778	2.283	668656	ENCODING_START	n/a	n/a	n/a	n/a	-999	6	[0, 0, 0]	n/a	catFR1	3	R1465D
639.061	1.601	670945	WORD	n/a	wordpools/wordpool_categorized_EN.txt	WHALE	OceanAnimals	1	6	[0, 0, 0]	n/a	catFR1	3	R1465D
640.662	0.966	672546	WORD_OFF	n/a	n/a	WHALE	OceanAnimals	1	6	[0, 0, 0]	n/a	catFR1	3	R1465D
641.628	1.617	673508	WORD	n/a	wordpools/wordpool_categorized_EN.txt	OYSTER	OceanAnimals	2	6	[0, 0, 0]	n/a	catFR1	3	R1465D
643.245	0.95	675129	WORD_OFF	n/a	n/a	OYSTER	OceanAnimals	2	6	[0, 0, 0]	n/a	catFR1	3	R1465D
644.195	1.616	676072	WORD	n/a	wordpools/wordpool_categorized_EN.txt	FOOT	BodyParts	3	6	[0, 0, 0]	n/a	catFR1	3	R1465D
645.811	0.934	677692	WORD_OFF	n/a	n/a	FOOT	BodyParts	3	6	[0, 0, 0]	n/a	catFR1	3	R1465D
646.745	1.616	678625	WORD	n/a	wordpools/wordpool_categorized_EN.txt	KNEE	BodyParts	4	6	[0, 0, 0]	n/a	catFR1	3	R1465D
648.361	1.0	680236	WORD_OFF	n/a	n/a	KNEE	BodyParts	4	6	[0, 0, 0]	n/a	catFR1	3	R1465D
649.361	1.6	681238	WORD	n/a	wordpools/wordpool_categorized_EN.txt	STRAINER	KitchenTools	5	6	[0, 0, 0]	n/a	catFR1	3	R1465D
650.961	0.801	682839	WORD_OFF	n/a	n/a	STRAINER	KitchenTools	5	6	[0, 0, 0]	n/a	catFR1	3	R1465D
651.762	1.6	683644	WORD	n/a	wordpools/wordpool_categorized_EN.txt	SPATULA	KitchenTools	6	6	[0, 0, 0]	n/a	catFR1	3	R1465D
653.362	0.815	685245	WORD_OFF	n/a	n/a	SPATULA	KitchenTools	6	6	[0, 0, 0]	n/a	catFR1	3	R1465D
654.177	1.601	686060	WORD	n/a	wordpools/wordpool_categorized_EN.txt	LEG	BodyParts	7	6	[0, 0, 0]	n/a	catFR1	3	R1465D
655.778	0.818	687661	WORD_OFF	n/a	n/a	LEG	BodyParts	7	6	[0, 0, 0]	n/a	catFR1	3	R1465D
656.596	1.616	688477	WORD	n/a	wordpools/wordpool_categorized_EN.txt	ARM	BodyParts	8	6	[0, 0, 0]	n/a	catFR1	3	R1465D
658.212	0.815	690087	WORD_OFF	n/a	n/a	ARM	BodyParts	8	6	[0, 0, 0]	n/a	catFR1	3	R1465D
659.027	1.601	690903	WORD	n/a	wordpools/wordpool_categorized_EN.txt	GRATER	KitchenTools	9	6	[0, 0, 0]	n/a	catFR1	3	R1465D
660.628	1.0	692503	WORD_OFF	n/a	n/a	GRATER	KitchenTools	9	6	[0, 0, 0]	n/a	catFR1	3	R1465D
661.628	1.6	693505	WORD	n/a	wordpools/wordpool_categorized_EN.txt	WHISK	KitchenTools	10	6	[0, 0, 0]	n/a	catFR1	3	R1465D
663.228	0.933	695106	WORD_OFF	n/a	n/a	WHISK	KitchenTools	10	6	[0, 0, 0]	n/a	catFR1	3	R1465D
664.161	1.601	696039	WORD	n/a	wordpools/wordpool_categorized_EN.txt	SHRIMP	OceanAnimals	11	6	[0, 0, 0]	n/a	catFR1	3	R1465D
665.762	0.834	697640	WORD_OFF	n/a	n/a	SHRIMP	OceanAnimals	11	6	[0, 0, 0]	n/a	catFR1	3	R1465D
666.596	1.614	698475	WORD	n/a	wordpools/wordpool_categorized_EN.txt	LOBSTER	OceanAnimals	12	6	[0, 0, 0]	n/a	catFR1	3	R1465D
668.21	0.002	700086	WORD_OFF	n/a	n/a	LOBSTER	OceanAnimals	12	6	[0, 0, 0]	n/a	catFR1	3	R1465D
668.212	0.0	700086	ENCODING_END	n/a	n/a	n/a	n/a	-999	6	[0, 0, 0]	n/a	catFR1	3	R1465D
668.211	0.001	700088	PROB	0.001	n/a	n/a	n/a	-999	6	[8, 6, 1]	15	catFR1	3	R1465D
668.212	0.0	700089	START	n/a	n/a	n/a	n/a	-999	6	[-999, -999, -999]	n/a	catFR1	3	R1465D
668.212	3.583	700096	DISTRACT_START	n/a	n/a	n/a	n/a	-999	6	[0, 0, 0]	n/a	catFR1	3	R1465D
671.795	1.948	703671	PROB	1.948	n/a	n/a	n/a	-999	6	[2, 2, 6]	10	catFR1	3	R1465D
673.743	1.652	705619	PROB	1.652	n/a	n/a	n/a	-999	6	[4, 7, 4]	15	catFR1	3	R1465D
675.395	1.8	707271	PROB	1.8	n/a	n/a	n/a	-999	6	[4, 4, 2]	10	catFR1	3	R1465D
677.195	2.701	709071	PROB	2.701	n/a	n/a	n/a	-999	6	[5, 3, 8]	16	catFR1	3	R1465D
679.896	1.633	711772	PROB	1.633	n/a	n/a	n/a	-999	6	[8, 2, 2]	12	catFR1	3	R1465D
681.529	1.699	713405	PROB	1.699	n/a	n/a	n/a	-999	6	[5, 4, 3]	12	catFR1	3	R1465D
683.228	2.034	715104	PROB	2.034	n/a	n/a	n/a	-999	6	[6, 2, 1]	9	catFR1	3	R1465D
685.262	1.15	717138	PROB	1.15	n/a	n/a	n/a	-999	6	[1, 4, 6]	11	catFR1	3	R1465D
686.412	2.049	718288	PROB	2.049	n/a	n/a	n/a	-999	6	[8, 8, 6]	22	catFR1	3	R1465D
688.461	0.0	720337	STOP	n/a	n/a	n/a	n/a	-999	6	[-999, -999, -999]	n/a	catFR1	3	R1465D
688.461	2.166	720338	DISTRACT_END	n/a	n/a	n/a	n/a	-999	6	[0, 0, 0]	n/a	catFR1	3	R1465D
690.627	1.645	722507	REC_START	n/a	n/a	n/a	n/a	-999	6	[0, 0, 0]	n/a	catFR1	3	R1465D
692.272	0.668	724147	REC_WORD	0.668	n/a	LOBSTER	OceanAnimals	12	6	[0, 0, 0]	n/a	catFR1	3	R1465D
692.94	1.056	724815	REC_WORD	1.056	n/a	SHRIMP	OceanAnimals	11	6	[0, 0, 0]	n/a	catFR1	3	R1465D
693.996	1.8	725871	REC_WORD	1.8	n/a	WHALE	OceanAnimals	1	6	[0, 0, 0]	n/a	catFR1	3	R1465D
695.796	1.234	727671	REC_WORD	1.234	n/a	KNEE	BodyParts	4	6	[0, 0, 0]	n/a	catFR1	3	R1465D
697.03	1.717	728905	REC_WORD	1.717	n/a	TOE	BodyParts	-999	6	[0, 0, 0]	n/a	catFR1	3	R1465D
698.747	1.0	730622	REC_WORD_VV	1.0	n/a	<>	n/a	-999	6	[0, 0, 0]	n/a	catFR1	3	R1465D
699.747	1.0	731622	REC_WORD_VV	1.0	n/a	<>	n/a	-999	6	[0, 0, 0]	n/a	catFR1	3	R1465D
700.747	0.138	732622	REC_WORD_VV	0.138	n/a	<>	n/a	-999	6	[0, 0, 0]	n/a	catFR1	3	R1465D
700.885	0.784	732760	REC_WORD	0.784	n/a	KNEE	BodyParts	4	6	[0, 0, 0]	n/a	catFR1	3	R1465D
701.669	6.465	733544	REC_WORD	6.465	n/a	FOOT	BodyParts	3	6	[0, 0, 0]	n/a	catFR1	3	R1465D
708.134	2.189	740009	REC_WORD	2.189	n/a	SHRIMP	OceanAnimals	11	6	[0, 0, 0]	n/a	catFR1	3	R1465D
710.323	0.716	742197	REC_WORD	0.716	n/a	WHALE	OceanAnimals	1	6	[0, 0, 0]	n/a	catFR1	3	R1465D
711.039	1.999	742913	REC_WORD	1.999	n/a	LOBSTER	OceanAnimals	12	6	[0, 0, 0]	n/a	catFR1	3	R1465D
713.038	6.761	744912	REC_WORD	6.761	n/a	CRAB	n/a	-999	6	[0, 0, 0]	n/a	catFR1	3	R1465D
719.799	1.045	751673	REC_WORD	1.045	n/a	ARM	BodyParts	8	6	[0, 0, 0]	n/a	catFR1	3	R1465D
720.844	3.917	752721	REC_END	n/a	n/a	n/a	n/a	-999	6	[0, 0, 0]	n/a	catFR1	3	R1465D
724.761	10.35	756640	COUNTDOWN_START	n/a	n/a	n/a	n/a	-999	7	[0, 0, 0]	n/a	catFR1	3	R1465D
735.111	0.0	766982	COUNTDOWN_END	n/a	n/a	n/a	n/a	-999	7	[0, 0, 0]	n/a	catFR1	3	R1465D
735.111	1.95	766992	ENCODING_START	n/a	n/a	n/a	n/a	-999	7	[0, 0, 0]	n/a	catFR1	3	R1465D
737.061	1.601	768937	WORD	n/a	wordpools/wordpool_categorized_EN.txt	PENCIL	OfficeSupplies	1	7	[0, 0, 0]	n/a	catFR1	3	R1465D
738.662	0.932	770537	WORD_OFF	n/a	n/a	PENCIL	OfficeSupplies	1	7	[0, 0, 0]	n/a	catFR1	3	R1465D
739.594	1.601	771471	WORD	n/a	wordpools/wordpool_categorized_EN.txt	RULER	OfficeSupplies	2	7	[0, 0, 0]	n/a	catFR1	3	R1465D
741.195	0.932	773072	WORD_OFF	n/a	n/a	RULER	OfficeSupplies	2	7	[0, 0, 0]	n/a	catFR1	3	R1465D
742.127	1.601	774005	WORD	n/a	wordpools/wordpool_categorized_EN.txt	CARNATION	Flowers	3	7	[0, 0, 0]	n/a	catFR1	3	R1465D
743.728	0.767	775606	WORD_OFF	n/a	n/a	CARNATION	Flowers	3	7	[0, 0, 0]	n/a	catFR1	3	R1465D
744.495	1.6	776372	WORD	n/a	wordpools/wordpool_categorized_EN.txt	ROSE	Flowers	4	7	[0, 0, 0]	n/a	catFR1	3	R1465D
746.095	0.915	777973	WORD_OFF	n/a	n/a	ROSE	Flowers	4	7	[0, 0, 0]	n/a	catFR1	3	R1465D
747.01	1.618	778886	WORD	n/a	wordpools/wordpool_categorized_EN.txt	COLA	Beverages	5	7	[0, 0, 0]	n/a	catFR1	3	R1465D
748.628	0.95	780497	WORD_OFF	n/a	n/a	COLA	Beverages	5	7	[0, 0, 0]	n/a	catFR1	3	R1465D
749.578	1.6	781449	WORD	n/a	wordpools/wordpool_categorized_EN.txt	COFFEE	Beverages	6	7	[0, 0, 0]	n/a	catFR1	3	R1465D
751.178	0.9	783050	WORD_OFF	n/a	n/a	COFFEE	Beverages	6	7	[0, 0, 0]	n/a	catFR1	3	R1465D
752.078	1.6	783954	WORD	n/a	wordpools/wordpool_categorized_EN.txt	MARKER	OfficeSupplies	7	7	[0, 0, 0]	n/a	catFR1	3	R1465D
753.678	0.832	785555	WORD_OFF	n/a	n/a	MARKER	OfficeSupplies	7	7	[0, 0, 0]	n/a	catFR1	3	R1465D
754.51	1.601	786380	WORD	n/a	wordpools/wordpool_categorized_EN.txt	TAPE	OfficeSupplies	8	7	[0, 0, 0]	n/a	catFR1	3	R1465D
756.111	0.767	787981	WORD_OFF	n/a	n/a	TAPE	OfficeSupplies	8	7	[0, 0, 0]	n/a	catFR1	3	R1465D
756.878	1.6	788747	WORD	n/a	wordpools/wordpool_categorized_EN.txt	VIOLET	Flowers	9	7	[0, 0, 0]	n/a	catFR1	3	R1465D
758.478	0.834	790348	WORD_OFF	n/a	n/a	VIOLET	Flowers	9	7	[0, 0, 0]	n/a	catFR1	3	R1465D
759.312	1.616	791183	WORD	n/a	wordpools/wordpool_categorized_EN.txt	DAFFODIL	Flowers	10	7	[0, 0, 0]	n/a	catFR1	3	R1465D
760.928	0.817	792803	WORD_OFF	n/a	n/a	DAFFODIL	Flowers	10	7	[0, 0, 0]	n/a	catFR1	3	R1465D
761.745	1.6	793619	WORD	n/a	wordpools/wordpool_categorized_EN.txt	TEA	Beverages	11	7	[0, 0, 0]	n/a	catFR1	3	R1465D
763.345	0.817	795220	WORD_OFF	n/a	n/a	TEA	Beverages	11	7	[0, 0, 0]	n/a	catFR1	3	R1465D
764.162	1.601	796035	WORD	n/a	wordpools/wordpool_categorized_EN.txt	WATER	Beverages	12	7	[0, 0, 0]	n/a	catFR1	3	R1465D
765.763	0.0	797634	START	n/a	n/a	n/a	n/a	-999	7	[-999, -999, -999]	n/a	catFR1	3	R1465D
765.763	0.0	797634	PROB	0.0	n/a	n/a	n/a	-999	7	[8, 6, 1]	15	catFR1	3	R1465D
765.762	0.001	797636	WORD_OFF	n/a	n/a	WATER	Beverages	12	7	[0, 0, 0]	n/a	catFR1	3	R1465D
765.763	0.0	797636	ENCODING_END	n/a	n/a	n/a	n/a	-999	7	[0, 0, 0]	n/a	catFR1	3	R1465D
765.763	3.215	797636	DISTRACT_START	n/a	n/a	n/a	n/a	-999	7	[0, 0, 0]	n/a	catFR1	3	R1465D
768.978	2.318	800849	PROB	2.318	n/a	n/a	n/a	-999	7	[6, 8, 1]	15	catFR1	3	R1465D
771.296	2.366	803167	PROB	2.366	n/a	n/a	n/a	-999	7	[6, 7, 6]	19	catFR1	3	R1465D
773.662	2.05	805533	PROB	2.05	n/a	n/a	n/a	-999	7	[4, 5, 1]	10	catFR1	3	R1465D
775.712	1.417	807583	PROB	1.417	n/a	n/a	n/a	-999	7	[1, 6, 6]	13	catFR1	3	R1465D
777.129	2.135	809000	PROB	2.135	n/a	n/a	n/a	-999	7	[8, 7, 1]	16	catFR1	3	R1465D
779.264	1.563	811135	PROB	1.563	n/a	n/a	n/a	-999	7	[8, 8, 5]	21	catFR1	3	R1465D
780.827	2.087	812698	PROB	2.087	n/a	n/a	n/a	-999	7	[5, 1, 2]	8	catFR1	3	R1465D
782.914	1.414	814785	PROB	1.414	n/a	n/a	n/a	-999	7	[4, 7, 1]	12	catFR1	3	R1465D
784.328	1.383	816199	PROB	1.383	n/a	n/a	n/a	-999	7	[6, 5, 1]	12	catFR1	3	R1465D
785.711	2.216	817581	PROB	2.216	n/a	n/a	n/a	-999	7	[4, 8, 4]	16	catFR1	3	R1465D
787.927	0.0	819797	STOP	n/a	n/a	n/a	n/a	-999	7	[-999, -999, -999]	n/a	catFR1	3	R1465D
787.927	2.385	819804	DISTRACT_END	n/a	n/a	n/a	n/a	-999	7	[0, 0, 0]	n/a	catFR1	3	R1465D
790.312	1.428	822188	REC_START	n/a	n/a	n/a	n/a	-999	7	[0, 0, 0]	n/a	catFR1	3	R1465D
791.74	0.793	823610	REC_WORD	0.793	n/a	TEA	Beverages	11	7	[0, 0, 0]	n/a	catFR1	3	R1465D
792.533	0.923	824403	REC_WORD	0.923	n/a	COLA	Beverages	5	7	[0, 0, 0]	n/a	catFR1	3	R1465D
793.456	1.176	825326	REC_WORD	1.176	n/a	COFFEE	Beverages	6	7	[0, 0, 0]	n/a	catFR1	3	R1465D
794.632	5.028	826502	REC_WORD	5.028	n/a	WATER	Beverages	12	7	[0, 0, 0]	n/a	catFR1	3	R1465D
799.66	4.08	831530	REC_WORD	4.08	n/a	DAFFODIL	Flowers	10	7	[0, 0, 0]	n/a	catFR1	3	R1465D
803.74	10.894	835610	REC_WORD	10.894	n/a	ROSE	Flowers	4	7	[0, 0, 0]	n/a	catFR1	3	R1465D
814.634	0.746	846503	REC_WORD	0.746	n/a	WATER	Beverages	12	7	[0, 0, 0]	n/a	catFR1	3	R1465D
815.38	0.348	847249	REC_WORD	0.348	n/a	TEA	Beverages	11	7	[0, 0, 0]	n/a	catFR1	3	R1465D
815.728	0.634	847597	REC_WORD	0.634	n/a	WATER	Beverages	12	7	[0, 0, 0]	n/a	catFR1	3	R1465D
816.362	0.5	848231	REC_WORD	0.5	n/a	COFFEE	Beverages	6	7	[0, 0, 0]	n/a	catFR1	3	R1465D
816.862	3.664	848731	REC_WORD	3.664	n/a	COLA	Beverages	5	7	[0, 0, 0]	n/a	catFR1	3	R1465D
820.526	4.819	852392	REC_END	n/a	n/a	n/a	n/a	-999	7	[0, 0, 0]	n/a	catFR1	3	R1465D
825.345	10.35	857215	COUNTDOWN_START	n/a	n/a	n/a	n/a	-999	8	[0, 0, 0]	n/a	catFR1	3	R1465D
835.695	0.0	867567	COUNTDOWN_END	n/a	n/a	n/a	n/a	-999	8	[0, 0, 0]	n/a	catFR1	3	R1465D
835.695	2.216	867567	ENCODING_START	n/a	n/a	n/a	n/a	-999	8	[0, 0, 0]	n/a	catFR1	3	R1465D
837.911	1.62	869777	WORD	n/a	wordpools/wordpool_categorized_EN.txt	BLOUSE	Clothing	1	8	[0, 0, 0]	n/a	catFR1	3	R1465D
839.531	0.98	871397	WORD_OFF	n/a	n/a	BLOUSE	Clothing	1	8	[0, 0, 0]	n/a	catFR1	3	R1465D
840.511	1.617	872379	WORD	n/a	wordpools/wordpool_categorized_EN.txt	JEANS	Clothing	2	8	[0, 0, 0]	n/a	catFR1	3	R1465D
842.128	1.0	874000	WORD_OFF	n/a	n/a	JEANS	Clothing	2	8	[0, 0, 0]	n/a	catFR1	3	R1465D
843.128	1.6	875002	WORD	n/a	wordpools/wordpool_categorized_EN.txt	TELEVISION	Electronics	3	8	[0, 0, 0]	n/a	catFR1	3	R1465D
844.728	0.917	876593	WORD_OFF	n/a	n/a	TELEVISION	Electronics	3	8	[0, 0, 0]	n/a	catFR1	3	R1465D
845.645	1.617	877516	WORD	n/a	wordpools/wordpool_categorized_EN.txt	SPEAKER	Electronics	4	8	[0, 0, 0]	n/a	catFR1	3	R1465D
847.262	0.85	879127	WORD_OFF	n/a	n/a	SPEAKER	Electronics	4	8	[0, 0, 0]	n/a	catFR1	3	R1465D
848.112	1.615	879982	WORD	n/a	wordpools/wordpool_categorized_EN.txt	CAULIFLOWER	Vegetables	5	8	[0, 0, 0]	n/a	catFR1	3	R1465D
849.727	0.935	881592	WORD_OFF	n/a	n/a	CAULIFLOWER	Vegetables	5	8	[0, 0, 0]	n/a	catFR1	3	R1465D
850.662	1.616	882535	WORD	n/a	wordpools/wordpool_categorized_EN.txt	CORN	Vegetables	6	8	[0, 0, 0]	n/a	catFR1	3	R1465D
852.278	0.917	884146	WORD_OFF	n/a	n/a	CORN	Vegetables	6	8	[0, 0, 0]	n/a	catFR1	3	R1465D
853.195	1.6	885059	WORD	n/a	wordpools/wordpool_categorized_EN.txt	CALCULATOR	Electronics	7	8	[0, 0, 0]	n/a	catFR1	3	R1465D
854.795	0.85	886660	WORD_OFF	n/a	n/a	CALCULATOR	Electronics	7	8	[0, 0, 0]	n/a	catFR1	3	R1465D
855.645	1.6	887515	WORD	n/a	wordpools/wordpool_categorized_EN.txt	COMPUTER	Electronics	8	8	[0, 0, 0]	n/a	catFR1	3	R1465D
857.245	0.833	889116	WORD_OFF	n/a	n/a	COMPUTER	Electronics	8	8	[0, 0, 0]	n/a	catFR1	3	R1465D
858.078	1.6	889951	WORD	n/a	wordpools/wordpool_categorized_EN.txt	BROCCOLI	Vegetables	9	8	[0, 0, 0]	n/a	catFR1	3	R1465D
859.678	0.9	891542	WORD_OFF	n/a	n/a	BROCCOLI	Vegetables	9	8	[0, 0, 0]	n/a	catFR1	3	R1465D
860.578	1.6	892445	WORD	n/a	wordpools/wordpool_categorized_EN.txt	ONION	Vegetables	10	8	[0, 0, 0]	n/a	catFR1	3	R1465D
862.178	0.984	894046	WORD_OFF	n/a	n/a	ONION	Vegetables	10	8	[0, 0, 0]	n/a	catFR1	3	R1465D
863.162	1.615	895028	WORD	n/a	wordpools/wordpool_categorized_EN.txt	PANTS	Clothing	11	8	[0, 0, 0]	n/a	catFR1	3	R1465D
864.777	0.884	896649	WORD_OFF	n/a	n/a	PANTS	Clothing	11	8	[0, 0, 0]	n/a	catFR1	3	R1465D
865.661	1.602	897533	WORD	n/a	wordpools/wordpool_categorized_EN.txt	SKIRT	Clothing	12	8	[0, 0, 0]	n/a	catFR1	3	R1465D
867.263	0.0	899129	PROB	0.0	n/a	n/a	n/a	-999	8	[6, 8, 4]	18	catFR1	3	R1465D
867.263	0.0	899129	START	n/a	n/a	n/a	n/a	-999	8	[-999, -999, -999]	n/a	catFR1	3	R1465D
867.262	0.001	899134	WORD_OFF	n/a	n/a	SKIRT	Clothing	12	8	[0, 0, 0]	n/a	catFR1	3	R1465D
867.263	0.0	899134	ENCODING_END	n/a	n/a	n/a	n/a	-999	8	[0, 0, 0]	n/a	catFR1	3	R1465D
867.263	3.515	899134	DISTRACT_START	n/a	n/a	n/a	n/a	-999	8	[0, 0, 0]	n/a	catFR1	3	R1465D
870.778	1.467	902644	PROB	1.467	n/a	n/a	n/a	-999	8	[1, 3, 1]	5	catFR1	3	R1465D
872.245	1.733	904111	PROB	1.733	n/a	n/a	n/a	-999	8	[5, 3, 4]	12	catFR1	3	R1465D
873.978	1.267	905844	PROB	1.267	n/a	n/a	n/a	-999	8	[4, 5, 3]	12	catFR1	3	R1465D
875.245	2.683	907111	PROB	2.683	n/a	n/a	n/a	-999	8	[5, 8, 6]	19	catFR1	3	R1465D
877.928	2.0	909794	PROB	2.0	n/a	n/a	n/a	-999	8	[4, 7, 8]	19	catFR1	3	R1465D
879.928	1.85	911793	PROB	1.85	n/a	n/a	n/a	-999	8	[3, 2, 1]	6	catFR1	3	R1465D
881.778	2.1	913643	PROB	2.1	n/a	n/a	n/a	-999	8	[3, 8, 7]	18	catFR1	3	R1465D
883.878	1.451	915743	PROB	1.451	n/a	n/a	n/a	-999	8	[6, 2, 4]	12	catFR1	3	R1465D
885.329	1.283	917194	PROB	1.283	n/a	n/a	n/a	-999	8	[1, 8, 4]	13	catFR1	3	R1465D
886.612	2.032	918477	PROB	2.032	n/a	n/a	n/a	-999	8	[7, 7, 5]	19	catFR1	3	R1465D
888.644	0.0	920506	DISTRACT_END	n/a	n/a	n/a	n/a	-999	8	[0, 0, 0]	n/a	catFR1	3	R1465D
888.644	2.351	920509	STOP	n/a	n/a	n/a	n/a	-999	8	[-999, -999, -999]	n/a	catFR1	3	R1465D
890.995	1.461	922862	REC_START	n/a	n/a	n/a	n/a	-999	8	[0, 0, 0]	n/a	catFR1	3	R1465D
892.456	0.859	924321	REC_WORD	0.859	n/a	PANTS	Clothing	11	8	[0, 0, 0]	n/a	catFR1	3	R1465D
893.315	0.911	925180	REC_WORD	0.911	n/a	JEANS	Clothing	2	8	[0, 0, 0]	n/a	catFR1	3	R1465D
894.226	0.893	926091	REC_WORD	0.893	n/a	BLOUSE	Clothing	1	8	[0, 0, 0]	n/a	catFR1	3	R1465D
895.119	11.764	926984	REC_WORD	11.764	n/a	SKIRT	Clothing	12	8	[0, 0, 0]	n/a	catFR1	3	R1465D
906.883	0.361	938747	REC_WORD	0.361	n/a	PANTS	Clothing	11	8	[0, 0, 0]	n/a	catFR1	3	R1465D
907.244	0.448	939108	REC_WORD	0.448	n/a	JEANS	Clothing	2	8	[0, 0, 0]	n/a	catFR1	3	R1465D
907.692	0.345	939556	REC_WORD	0.345	n/a	BLOUSE	Clothing	1	8	[0, 0, 0]	n/a	catFR1	3	R1465D
908.037	2.071	939901	REC_WORD	2.071	n/a	SKIRT	Clothing	12	8	[0, 0, 0]	n/a	catFR1	3	R1465D
910.108	5.612	941972	REC_WORD	5.612	n/a	SHIRT	Clothing	-999	8	[0, 0, 0]	n/a	catFR1	3	R1465D
915.72	1.0	947584	REC_WORD_VV	1.0	n/a	<>	n/a	-999	8	[0, 0, 0]	n/a	catFR1	3	R1465D
916.72	1.0	948584	REC_WORD_VV	1.0	n/a	<>	n/a	-999	8	[0, 0, 0]	n/a	catFR1	3	R1465D
917.72	3.513	949584	REC_WORD_VV	3.513	n/a	<>	n/a	-999	8	[0, 0, 0]	n/a	catFR1	3	R1465D
921.233	4.795	953095	REC_END	n/a	n/a	n/a	n/a	-999	8	[0, 0, 0]	n/a	catFR1	3	R1465D
926.028	10.349	957898	COUNTDOWN_START	n/a	n/a	n/a	n/a	-999	9	[0, 0, 0]	n/a	catFR1	3	R1465D
936.377	0.001	968240	COUNTDOWN_END	n/a	n/a	n/a	n/a	-999	9	[0, 0, 0]	n/a	catFR1	3	R1465D
936.378	2.067	968240	ENCODING_START	n/a	n/a	n/a	n/a	-999	9	[0, 0, 0]	n/a	catFR1	3	R1465D
938.445	1.6	970312	WORD	n/a	wordpools/wordpool_categorized_EN.txt	BASKETBALL	Toys	1	9	[0, 0, 0]	n/a	catFR1	3	R1465D
940.045	0.866	971913	WORD_OFF	n/a	n/a	BASKETBALL	Toys	1	9	[0, 0, 0]	n/a	catFR1	3	R1465D
940.911	1.601	972778	WORD	n/a	wordpools/wordpool_categorized_EN.txt	SLINKY	Toys	2	9	[0, 0, 0]	n/a	catFR1	3	R1465D
942.512	0.766	974379	WORD_OFF	n/a	n/a	SLINKY	Toys	2	9	[0, 0, 0]	n/a	catFR1	3	R1465D
943.278	1.6	975145	WORD	n/a	wordpools/wordpool_categorized_EN.txt	SHEEP	FarmAnimals	3	9	[0, 0, 0]	n/a	catFR1	3	R1465D
944.878	0.983	976746	WORD_OFF	n/a	n/a	SHEEP	FarmAnimals	3	9	[0, 0, 0]	n/a	catFR1	3	R1465D
945.861	1.601	977728	WORD	n/a	wordpools/wordpool_categorized_EN.txt	PIG	FarmAnimals	4	9	[0, 0, 0]	n/a	catFR1	3	R1465D
947.462	0.833	979329	WORD_OFF	n/a	n/a	PIG	FarmAnimals	4	9	[0, 0, 0]	n/a	catFR1	3	R1465D
948.295	1.616	980154	WORD	n/a	wordpools/wordpool_categorized_EN.txt	BLUEBERRY	Fruit	5	9	[0, 0, 0]	n/a	catFR1	3	R1465D
949.911	0.967	981774	WORD_OFF	n/a	n/a	BLUEBERRY	Fruit	5	9	[0, 0, 0]	n/a	catFR1	3	R1465D
950.878	1.617	982737	WORD	n/a	wordpools/wordpool_categorized_EN.txt	LIME	Fruit	6	9	[0, 0, 0]	n/a	catFR1	3	R1465D
952.495	0.917	984358	WORD_OFF	n/a	n/a	LIME	Fruit	6	9	[0, 0, 0]	n/a	catFR1	3	R1465D
953.412	1.616	985271	WORD	n/a	wordpools/wordpool_categorized_EN.txt	MARBLES	Toys	7	9	[0, 0, 0]	n/a	catFR1	3	R1465D
955.028	0.784	986892	WORD_OFF	n/a	n/a	MARBLES	Toys	7	9	[0, 0, 0]	n/a	catFR1	3	R1465D
955.812	1.616	987677	WORD	n/a	wordpools/wordpool_categorized_EN.txt	FOOTBALL	Toys	8	9	[0, 0, 0]	n/a	catFR1	3	R1465D
957.428	0.767	989288	WORD_OFF	n/a	n/a	FOOTBALL	Toys	8	9	[0, 0, 0]	n/a	catFR1	3	R1465D
958.195	1.616	990054	WORD	n/a	wordpools/wordpool_categorized_EN.txt	COW	FarmAnimals	9	9	[0, 0, 0]	n/a	catFR1	3	R1465D
959.811	0.784	991675	WORD_OFF	n/a	n/a	COW	FarmAnimals	9	9	[0, 0, 0]	n/a	catFR1	3	R1465D
960.595	1.617	992460	WORD	n/a	wordpools/wordpool_categorized_EN.txt	BULL	FarmAnimals	10	9	[0, 0, 0]	n/a	catFR1	3	R1465D
962.212	0.883	994071	WORD_OFF	n/a	n/a	BULL	FarmAnimals	10	9	[0, 0, 0]	n/a	catFR1	3	R1465D
963.095	1.616	994955	WORD	n/a	wordpools/wordpool_categorized_EN.txt	GRAPE	Fruit	11	9	[0, 0, 0]	n/a	catFR1	3	R1465D
964.711	0.8	996576	WORD_OFF	n/a	n/a	GRAPE	Fruit	11	9	[0, 0, 0]	n/a	catFR1	3	R1465D
965.511	1.6	997371	WORD	n/a	wordpools/wordpool_categorized_EN.txt	PEACH	Fruit	12	9	[0, 0, 0]	n/a	catFR1	3	R1465D
967.111	0.002	998972	WORD_OFF	n/a	n/a	PEACH	Fruit	12	9	[0, 0, 0]	n/a	catFR1	3	R1465D
967.113	0.0	998972	ENCODING_END	n/a	n/a	n/a	n/a	-999	9	[0, 0, 0]	n/a	catFR1	3	R1465D
967.112	0.001	998973	PROB	0.001	n/a	n/a	n/a	-999	9	[6, 5, 2]	13	catFR1	3	R1465D
967.113	0.0	998974	START	n/a	n/a	n/a	n/a	-999	9	[-999, -999, -999]	n/a	catFR1	3	R1465D
967.113	2.899	998982	DISTRACT_START	n/a	n/a	n/a	n/a	-999	9	[0, 0, 0]	n/a	catFR1	3	R1465D
970.012	2.0	1001873	PROB	2.0	n/a	n/a	n/a	-999	9	[8, 4, 7]	19	catFR1	3	R1465D
972.012	1.651	1003873	PROB	1.651	n/a	n/a	n/a	-999	9	[3, 4, 3]	10	catFR1	3	R1465D
973.663	1.916	1005523	PROB	1.916	n/a	n/a	n/a	-999	9	[7, 3, 6]	16	catFR1	3	R1465D
975.579	2.016	1007439	PROB	2.016	n/a	n/a	n/a	-999	9	[5, 5, 8]	18	catFR1	3	R1465D
977.595	1.751	1009455	PROB	1.751	n/a	n/a	n/a	-999	9	[6, 1, 2]	9	catFR1	3	R1465D
979.346	1.614	1011206	PROB	1.614	n/a	n/a	n/a	-999	9	[5, 2, 3]	10	catFR1	3	R1465D
980.96	1.418	1012820	PROB	1.418	n/a	n/a	n/a	-999	9	[1, 5, 1]	7	catFR1	3	R1465D
982.378	1.451	1014238	PROB	1.451	n/a	n/a	n/a	-999	9	[1, 1, 4]	6	catFR1	3	R1465D
983.829	1.617	1015689	PROB	1.617	n/a	n/a	n/a	-999	9	[4, 8, 2]	14	catFR1	3	R1465D
985.446	1.932	1017306	PROB	1.932	n/a	n/a	n/a	-999	9	[5, 6, 4]	15	catFR1	3	R1465D
987.378	0.0	1019235	DISTRACT_END	n/a	n/a	n/a	n/a	-999	9	[0, 0, 0]	n/a	catFR1	3	R1465D
987.378	2.15	1019238	STOP	n/a	n/a	n/a	n/a	-999	9	[-999, -999, -999]	n/a	catFR1	3	R1465D
989.528	2.069	1021394	REC_START	n/a	n/a	n/a	n/a	-999	9	[0, 0, 0]	n/a	catFR1	3	R1465D
991.597	0.904	1023457	REC_WORD	0.904	n/a	COW	FarmAnimals	9	9	[0, 0, 0]	n/a	catFR1	3	R1465D
992.501	0.849	1024361	REC_WORD	0.849	n/a	BULL	FarmAnimals	10	9	[0, 0, 0]	n/a	catFR1	3	R1465D
993.35	3.123	1025209	REC_WORD	3.123	n/a	PEACH	Fruit	12	9	[0, 0, 0]	n/a	catFR1	3	R1465D
996.473	1.476	1028332	REC_WORD	1.476	n/a	BLUEBERRY	Fruit	5	9	[0, 0, 0]	n/a	catFR1	3	R1465D
997.949	0.863	1029808	REC_WORD	0.863	n/a	BASKETBALL	Toys	1	9	[0, 0, 0]	n/a	catFR1	3	R1465D
998.812	1.0	1030671	REC_WORD	1.0	n/a	FOOTBALL	Toys	8	9	[0, 0, 0]	n/a	catFR1	3	R1465D
999.812	14.782	1031671	REC_WORD_VV	14.782	n/a	<>	n/a	-999	9	[0, 0, 0]	n/a	catFR1	3	R1465D
1014.594	2.878	1046452	REC_WORD	2.878	n/a	PEACH	Fruit	12	9	[0, 0, 0]	n/a	catFR1	3	R1465D
1017.472	1.886	1049330	REC_WORD	1.886	n/a	ORANGE	n/a	-999	9	[0, 0, 0]	n/a	catFR1	3	R1465D
1019.358	0.4	1051216	REC_WORD	0.4	n/a	PLUM	n/a	-999	9	[0, 0, 0]	n/a	catFR1	3	R1465D
1019.758	9.754	1051617	REC_END	n/a	n/a	n/a	n/a	-999	9	[0, 0, 0]	n/a	catFR1	3	R1465D
1029.512	10.349	1061370	COUNTDOWN_START	n/a	n/a	n/a	n/a	-999	10	[0, 0, 0]	n/a	catFR1	3	R1465D
1039.861	0.0	1071722	COUNTDOWN_END	n/a	n/a	n/a	n/a	-999	10	[0, 0, 0]	n/a	catFR1	3	R1465D
1039.861	2.334	1071722	ENCODING_START	n/a	n/a	n/a	n/a	-999	10	[0, 0, 0]	n/a	catFR1	3	R1465D
1042.195	1.6	1074050	WORD	n/a	wordpools/wordpool_categorized_EN.txt	BED	Furniture	1	10	[0, 0, 0]	n/a	catFR1	3	R1465D
1043.795	0.8	1075651	WORD_OFF	n/a	n/a	BED	Furniture	1	10	[0, 0, 0]	n/a	catFR1	3	R1465D
1044.595	1.6	1076456	WORD	n/a	wordpools/wordpool_categorized_EN.txt	TABLE	Furniture	2	10	[0, 0, 0]	n/a	catFR1	3	R1465D
1046.195	0.832	1078057	WORD_OFF	n/a	n/a	TABLE	Furniture	2	10	[0, 0, 0]	n/a	catFR1	3	R1465D
1047.027	1.601	1078882	WORD	n/a	wordpools/wordpool_categorized_EN.txt	HORSE	FarmAnimals	3	10	[0, 0, 0]	n/a	catFR1	3	R1465D
1048.628	0.883	1080493	WORD_OFF	n/a	n/a	HORSE	FarmAnimals	3	10	[0, 0, 0]	n/a	catFR1	3	R1465D
1049.511	1.601	1081367	WORD	n/a	wordpools/wordpool_categorized_EN.txt	ROOSTER	FarmAnimals	4	10	[0, 0, 0]	n/a	catFR1	3	R1465D
1051.112	0.832	1082968	WORD_OFF	n/a	n/a	ROOSTER	FarmAnimals	4	10	[0, 0, 0]	n/a	catFR1	3	R1465D
1051.944	1.617	1083803	WORD	n/a	wordpools/wordpool_categorized_EN.txt	GIRAFFE	Zoo	5	10	[0, 0, 0]	n/a	catFR1	3	R1465D
1053.561	0.8	1085414	WORD_OFF	n/a	n/a	GIRAFFE	Zoo	5	10	[0, 0, 0]	n/a	catFR1	3	R1465D
1054.361	1.6	1086219	WORD	n/a	wordpools/wordpool_categorized_EN.txt	BEAR	Zoo	6	10	[0, 0, 0]	n/a	catFR1	3	R1465D
1055.961	0.817	1087820	WORD_OFF	n/a	n/a	BEAR	Zoo	6	10	[0, 0, 0]	n/a	catFR1	3	R1465D
1056.778	1.617	1088635	WORD	n/a	wordpools/wordpool_categorized_EN.txt	CHAIR	Furniture	7	10	[0, 0, 0]	n/a	catFR1	3	R1465D
1058.395	0.967	1090256	WORD_OFF	n/a	n/a	CHAIR	Furniture	7	10	[0, 0, 0]	n/a	catFR1	3	R1465D
1059.362	1.6	1091218	WORD	n/a	wordpools/wordpool_categorized_EN.txt	DRESSER	Furniture	8	10	[0, 0, 0]	n/a	catFR1	3	R1465D
1060.962	0.866	1092819	WORD_OFF	n/a	n/a	DRESSER	Furniture	8	10	[0, 0, 0]	n/a	catFR1	3	R1465D
1061.828	1.6	1093684	WORD	n/a	wordpools/wordpool_categorized_EN.txt	TURKEY	FarmAnimals	9	10	[0, 0, 0]	n/a	catFR1	3	R1465D
1063.428	0.999	1095285	WORD_OFF	n/a	n/a	TURKEY	FarmAnimals	9	10	[0, 0, 0]	n/a	catFR1	3	R1465D
1064.427	1.601	1096286	WORD	n/a	wordpools/wordpool_categorized_EN.txt	HEN	FarmAnimals	10	10	[0, 0, 0]	n/a	catFR1	3	R1465D
1066.028	0.95	1097887	WORD_OFF	n/a	n/a	HEN	FarmAnimals	10	10	[0, 0, 0]	n/a	catFR1	3	R1465D
1066.978	1.6	1098830	WORD	n/a	wordpools/wordpool_categorized_EN.txt	ORANGUTAN	Zoo	11	10	[0, 0, 0]	n/a	catFR1	3	R1465D
1068.578	0.817	1100431	WORD_OFF	n/a	n/a	ORANGUTAN	Zoo	11	10	[0, 0, 0]	n/a	catFR1	3	R1465D
1069.395	1.617	1101256	WORD	n/a	wordpools/wordpool_categorized_EN.txt	ZEBRA	Zoo	12	10	[0, 0, 0]	n/a	catFR1	3	R1465D
1071.012	0.001	1102867	WORD_OFF	n/a	n/a	ZEBRA	Zoo	12	10	[0, 0, 0]	n/a	catFR1	3	R1465D
1071.013	0.0	1102867	ENCODING_END	n/a	n/a	n/a	n/a	-999	10	[0, 0, 0]	n/a	catFR1	3	R1465D
1071.013	0.0	1102867	DISTRACT_START	n/a	n/a	n/a	n/a	-999	10	[0, 0, 0]	n/a	catFR1	3	R1465D
1071.012	0.001	1102867	PROB	0.001	n/a	n/a	n/a	-999	10	[8, 2, 4]	14	catFR1	3	R1465D
1071.013	2.915	1102868	START	n/a	n/a	n/a	n/a	-999	10	[-999, -999, -999]	n/a	catFR1	3	R1465D
1073.928	1.934	1105783	PROB	1.934	n/a	n/a	n/a	-999	10	[2, 6, 5]	13	catFR1	3	R1465D
1075.862	1.6	1107717	PROB	1.6	n/a	n/a	n/a	-999	10	[1, 2, 6]	9	catFR1	3	R1465D
1077.462	1.6	1109317	PROB	1.6	n/a	n/a	n/a	-999	10	[2, 3, 8]	13	catFR1	3	R1465D
1079.062	1.55	1110917	PROB	1.55	n/a	n/a	n/a	-999	10	[2, 8, 4]	14	catFR1	3	R1465D
1080.612	1.2	1112467	PROB	1.2	n/a	n/a	n/a	-999	10	[2, 1, 2]	5	catFR1	3	R1465D
1081.812	1.366	1113667	PROB	1.366	n/a	n/a	n/a	-999	10	[5, 3, 5]	13	catFR1	3	R1465D
1083.178	1.616	1115033	PROB	1.616	n/a	n/a	n/a	-999	10	[3, 1, 2]	6	catFR1	3	R1465D
1084.794	2.051	1116649	PROB	2.051	n/a	n/a	n/a	-999	10	[5, 3, 7]	15	catFR1	3	R1465D
1086.845	1.767	1118699	PROB	1.767	n/a	n/a	n/a	-999	10	[1, 8, 7]	16	catFR1	3	R1465D
1088.612	1.85	1120466	PROB	1.85	n/a	n/a	n/a	-999	10	[8, 7, 4]	19	catFR1	3	R1465D
1090.462	1.549	1122316	PROB	1.549	n/a	n/a	n/a	-999	10	[2, 4, 2]	8	catFR1	3	R1465D
1092.011	0.0	1123865	STOP	n/a	n/a	n/a	n/a	-999	10	[-999, -999, -999]	n/a	catFR1	3	R1465D
1092.011	2.034	1123866	DISTRACT_END	n/a	n/a	n/a	n/a	-999	10	[0, 0, 0]	n/a	catFR1	3	R1465D
1094.045	0.92	1125897	REC_START	n/a	n/a	n/a	n/a	-999	10	[0, 0, 0]	n/a	catFR1	3	R1465D
1094.965	1.0	1126819	REC_WORD	1.0	n/a	ORANGUTAN	Zoo	11	10	[0, 0, 0]	n/a	catFR1	3	R1465D
1095.965	0.4	1127819	REC_WORD_VV	0.4	n/a	<>	n/a	-999	10	[0, 0, 0]	n/a	catFR1	3	R1465D
1096.365	8.407	1128219	REC_WORD	8.407	n/a	ZEBRA	Zoo	12	10	[0, 0, 0]	n/a	catFR1	3	R1465D
1104.772	1.634	1136626	REC_WORD	1.634	n/a	ROOSTER	FarmAnimals	4	10	[0, 0, 0]	n/a	catFR1	3	R1465D
1106.406	5.902	1138260	REC_WORD	5.902	n/a	HORSE	FarmAnimals	3	10	[0, 0, 0]	n/a	catFR1	3	R1465D
1112.308	11.972	1144161	REC_WORD	11.972	n/a	CROW	Birds	-999	10	[0, 0, 0]	n/a	catFR1	3	R1465D
1124.28	37.03	1156131	REC_END	n/a	n/a	n/a	n/a	-999	10	[0, 0, 0]	n/a	catFR1	3	R1465D
1161.31	10.351	1193168	COUNTDOWN_START	n/a	n/a	n/a	n/a	-999	11	[0, 0, 0]	n/a	catFR1	3	R1465D
1171.661	0.0	1203511	COUNTDOWN_END	n/a	n/a	n/a	n/a	-999	11	[0, 0, 0]	n/a	catFR1	3	R1465D
1171.661	2.067	1203511	ENCODING_START	n/a	n/a	n/a	n/a	-999	11	[0, 0, 0]	n/a	catFR1	3	R1465D
1173.728	1.617	1205583	WORD	n/a	wordpools/wordpool_categorized_EN.txt	CARROT	Vegetables	1	11	[0, 0, 0]	n/a	catFR1	3	R1465D
1175.345	0.866	1207194	WORD_OFF	n/a	n/a	CARROT	Vegetables	1	11	[0, 0, 0]	n/a	catFR1	3	R1465D
1176.211	1.601	1208058	WORD	n/a	wordpools/wordpool_categorized_EN.txt	LETTUCE	Vegetables	2	11	[0, 0, 0]	n/a	catFR1	3	R1465D
1177.812	0.95	1209659	WORD_OFF	n/a	n/a	LETTUCE	Vegetables	2	11	[0, 0, 0]	n/a	catFR1	3	R1465D
1178.762	1.616	1210612	WORD	n/a	wordpools/wordpool_categorized_EN.txt	WALL	Building	3	11	[0, 0, 0]	n/a	catFR1	3	R1465D
1180.378	0.783	1212233	WORD_OFF	n/a	n/a	WALL	Building	3	11	[0, 0, 0]	n/a	catFR1	3	R1465D
1181.161	1.601	1213008	WORD	n/a	wordpools/wordpool_categorized_EN.txt	FLOOR	Building	4	11	[0, 0, 0]	n/a	catFR1	3	R1465D
1182.762	1.0	1214609	WORD_OFF	n/a	n/a	FLOOR	Building	4	11	[0, 0, 0]	n/a	catFR1	3	R1465D
1183.762	1.6	1215611	WORD	n/a	wordpools/wordpool_categorized_EN.txt	SUNFLOWER	Flowers	5	11	[0, 0, 0]	n/a	catFR1	3	R1465D
1185.362	0.916	1217212	WORD_OFF	n/a	n/a	SUNFLOWER	Flowers	5	11	[0, 0, 0]	n/a	catFR1	3	R1465D
1186.278	1.6	1218126	WORD	n/a	wordpools/wordpool_categorized_EN.txt	TULIP	Flowers	6	11	[0, 0, 0]	n/a	catFR1	3	R1465D
1187.878	0.816	1219727	WORD_OFF	n/a	n/a	TULIP	Flowers	6	11	[0, 0, 0]	n/a	catFR1	3	R1465D
1188.694	1.601	1220542	WORD	n/a	wordpools/wordpool_categorized_EN.txt	FOUNDATION	Building	7	11	[0, 0, 0]	n/a	catFR1	3	R1465D
1190.295	0.817	1222143	WORD_OFF	n/a	n/a	FOUNDATION	Building	7	11	[0, 0, 0]	n/a	catFR1	3	R1465D
1191.112	1.6	1222958	WORD	n/a	wordpools/wordpool_categorized_EN.txt	ATTIC	Building	8	11	[0, 0, 0]	n/a	catFR1	3	R1465D
1192.712	0.866	1224559	WORD_OFF	n/a	n/a	ATTIC	Building	8	11	[0, 0, 0]	n/a	catFR1	3	R1465D
1193.578	1.601	1225433	WORD	n/a	wordpools/wordpool_categorized_EN.txt	ORCHID	Flowers	9	11	[0, 0, 0]	n/a	catFR1	3	R1465D
1195.179	0.949	1227034	WORD_OFF	n/a	n/a	ORCHID	Flowers	9	11	[0, 0, 0]	n/a	catFR1	3	R1465D
1196.128	1.6	1227977	WORD	n/a	wordpools/wordpool_categorized_EN.txt	PETUNIA	Flowers	10	11	[0, 0, 0]	n/a	catFR1	3	R1465D
1197.728	0.883	1229578	WORD_OFF	n/a	n/a	PETUNIA	Flowers	10	11	[0, 0, 0]	n/a	catFR1	3	R1465D
1198.611	1.601	1230462	WORD	n/a	wordpools/wordpool_categorized_EN.txt	SPINACH	Vegetables	11	11	[0, 0, 0]	n/a	catFR1	3	R1465D
1200.212	0.766	1232063	WORD_OFF	n/a	n/a	SPINACH	Vegetables	11	11	[0, 0, 0]	n/a	catFR1	3	R1465D
1200.978	1.618	1232829	WORD	n/a	wordpools/wordpool_categorized_EN.txt	CELERY	Vegetables	12	11	[0, 0, 0]	n/a	catFR1	3	R1465D
1202.596	0.0	1234444	START	n/a	n/a	n/a	n/a	-999	11	[-999, -999, -999]	n/a	catFR1	3	R1465D
1202.596	0.0	1234444	PROB	0.0	n/a	n/a	n/a	-999	11	[6, 1, 1]	8	catFR1	3	R1465D
1202.595	0.001	1234449	WORD_OFF	n/a	n/a	CELERY	Vegetables	12	11	[0, 0, 0]	n/a	catFR1	3	R1465D
1202.596	0.0	1234449	ENCODING_END	n/a	n/a	n/a	n/a	-999	11	[0, 0, 0]	n/a	catFR1	3	R1465D
1202.596	2.532	1234449	DISTRACT_START	n/a	n/a	n/a	n/a	-999	11	[0, 0, 0]	n/a	catFR1	3	R1465D
1205.128	2.301	1236976	PROB	2.301	n/a	n/a	n/a	-999	11	[7, 7, 1]	15	catFR1	3	R1465D
1207.429	2.6	1239277	PROB	2.6	n/a	n/a	n/a	-999	11	[5, 4, 6]	15	catFR1	3	R1465D
1210.029	1.95	1241877	PROB	1.95	n/a	n/a	n/a	-999	11	[4, 3, 2]	9	catFR1	3	R1465D
1211.979	2.132	1243827	PROB	2.132	n/a	n/a	n/a	-999	11	[8, 2, 8]	18	catFR1	3	R1465D
1214.111	2.334	1245959	PROB	2.334	n/a	n/a	n/a	-999	11	[8, 2, 4]	14	catFR1	3	R1465D
1216.445	1.933	1248293	PROB	1.933	n/a	n/a	n/a	-999	11	[1, 1, 7]	9	catFR1	3	R1465D
1218.378	2.366	1250226	PROB	2.366	n/a	n/a	n/a	-999	11	[4, 8, 8]	20	catFR1	3	R1465D
1220.744	1.552	1252591	PROB	1.552	n/a	n/a	n/a	-999	11	[2, 6, 5]	13	catFR1	3	R1465D
1222.296	1.832	1254143	PROB	1.832	n/a	n/a	n/a	-999	11	[6, 3, 4]	13	catFR1	3	R1465D
1224.128	0.0	1255975	STOP	n/a	n/a	n/a	n/a	-999	11	[-999, -999, -999]	n/a	catFR1	3	R1465D
1224.128	2.267	1255979	DISTRACT_END	n/a	n/a	n/a	n/a	-999	11	[0, 0, 0]	n/a	catFR1	3	R1465D
1226.395	1.181	1258246	REC_START	n/a	n/a	n/a	n/a	-999	11	[0, 0, 0]	n/a	catFR1	3	R1465D
1227.576	0.848	1259423	REC_WORD	0.848	n/a	CARROT	Vegetables	1	11	[0, 0, 0]	n/a	catFR1	3	R1465D
1228.424	0.854	1260271	REC_WORD	0.854	n/a	LETTUCE	Vegetables	2	11	[0, 0, 0]	n/a	catFR1	3	R1465D
1229.278	0.878	1261125	REC_WORD	0.878	n/a	TULIP	Flowers	6	11	[0, 0, 0]	n/a	catFR1	3	R1465D
1230.156	0.541	1262003	REC_WORD	0.541	n/a	WALL	Building	3	11	[0, 0, 0]	n/a	catFR1	3	R1465D
1230.697	1.233	1262544	REC_WORD	1.233	n/a	FOUNDATION	Building	7	11	[0, 0, 0]	n/a	catFR1	3	R1465D
1231.93	22.018	1263777	REC_WORD	22.018	n/a	ATTIC	Building	8	11	[0, 0, 0]	n/a	catFR1	3	R1465D
1253.948	0.97	1285794	REC_WORD	0.97	n/a	FOUNDATION	Building	7	11	[0, 0, 0]	n/a	catFR1	3	R1465D
1254.918	1.173	1286764	REC_WORD	1.173	n/a	ATTIC	Building	8	11	[0, 0, 0]	n/a	catFR1	3	R1465D
1256.091	0.539	1287937	REC_WORD	0.539	n/a	WALL	Building	3	11	[0, 0, 0]	n/a	catFR1	3	R1465D
1256.63	2.464	1288479	REC_END	n/a	n/a	n/a	n/a	-999	11	[0, 0, 0]	n/a	catFR1	3	R1465D
1259.094	10.35	1290944	COUNTDOWN_START	n/a	n/a	n/a	n/a	-999	12	[0, 0, 0]	n/a	catFR1	3	R1465D
1269.444	0.0	1301287	COUNTDOWN_END	n/a	n/a	n/a	n/a	-999	12	[0, 0, 0]	n/a	catFR1	3	R1465D
1269.444	2.167	1301296	ENCODING_START	n/a	n/a	n/a	n/a	-999	12	[0, 0, 0]	n/a	catFR1	3	R1465D
1271.611	1.601	1303457	WORD	n/a	wordpools/wordpool_categorized_EN.txt	JUICE	Beverages	1	12	[0, 0, 0]	n/a	catFR1	3	R1465D
1273.212	0.966	1305058	WORD_OFF	n/a	n/a	JUICE	Beverages	1	12	[0, 0, 0]	n/a	catFR1	3	R1465D
1274.178	1.617	1306021	WORD	n/a	wordpools/wordpool_categorized_EN.txt	BEER	Beverages	2	12	[0, 0, 0]	n/a	catFR1	3	R1465D
1275.795	0.8	1307641	WORD_OFF	n/a	n/a	BEER	Beverages	2	12	[0, 0, 0]	n/a	catFR1	3	R1465D
1276.595	1.6	1308437	WORD	n/a	wordpools/wordpool_categorized_EN.txt	PLANKTON	OceanAnimals	3	12	[0, 0, 0]	n/a	catFR1	3	R1465D
1278.195	0.883	1310038	WORD_OFF	n/a	n/a	PLANKTON	OceanAnimals	3	12	[0, 0, 0]	n/a	catFR1	3	R1465D
1279.078	1.6	1310922	WORD	n/a	wordpools/wordpool_categorized_EN.txt	FISH	OceanAnimals	4	12	[0, 0, 0]	n/a	catFR1	3	R1465D
1280.678	0.833	1312523	WORD_OFF	n/a	n/a	FISH	OceanAnimals	4	12	[0, 0, 0]	n/a	catFR1	3	R1465D
1281.511	1.601	1313358	WORD	n/a	wordpools/wordpool_categorized_EN.txt	STAIRS	Building	5	12	[0, 0, 0]	n/a	catFR1	3	R1465D
1283.112	0.882	1314959	WORD_OFF	n/a	n/a	STAIRS	Building	5	12	[0, 0, 0]	n/a	catFR1	3	R1465D
1283.994	1.601	1315842	WORD	n/a	wordpools/wordpool_categorized_EN.txt	ROOM	Building	6	12	[0, 0, 0]	n/a	catFR1	3	R1465D
1285.595	0.816	1317443	WORD_OFF	n/a	n/a	ROOM	Building	6	12	[0, 0, 0]	n/a	catFR1	3	R1465D
1286.411	1.601	1318259	WORD	n/a	wordpools/wordpool_categorized_EN.txt	RUM	Beverages	7	12	[0, 0, 0]	n/a	catFR1	3	R1465D
1288.012	0.899	1319860	WORD_OFF	n/a	n/a	RUM	Beverages	7	12	[0, 0, 0]	n/a	catFR1	3	R1465D
1288.911	1.601	1320753	WORD	n/a	wordpools/wordpool_categorized_EN.txt	CIDER	Beverages	8	12	[0, 0, 0]	n/a	catFR1	3	R1465D
1290.512	0.8	1322354	WORD_OFF	n/a	n/a	CIDER	Beverages	8	12	[0, 0, 0]	n/a	catFR1	3	R1465D
1291.312	1.616	1323160	WORD	n/a	wordpools/wordpool_categorized_EN.txt	WINDOW	Building	9	12	[0, 0, 0]	n/a	catFR1	3	R1465D
1292.928	0.95	1324770	WORD_OFF	n/a	n/a	WINDOW	Building	9	12	[0, 0, 0]	n/a	catFR1	3	R1465D
1293.878	1.617	1325723	WORD	n/a	wordpools/wordpool_categorized_EN.txt	BATHROOM	Building	10	12	[0, 0, 0]	n/a	catFR1	3	R1465D
1295.495	0.782	1327344	WORD_OFF	n/a	n/a	BATHROOM	Building	10	12	[0, 0, 0]	n/a	catFR1	3	R1465D
1296.277	1.601	1328120	WORD	n/a	wordpools/wordpool_categorized_EN.txt	CRAB	OceanAnimals	11	12	[0, 0, 0]	n/a	catFR1	3	R1465D
1297.878	0.783	1329721	WORD_OFF	n/a	n/a	CRAB	OceanAnimals	11	12	[0, 0, 0]	n/a	catFR1	3	R1465D
1298.661	1.601	1330506	WORD	n/a	wordpools/wordpool_categorized_EN.txt	DOLPHIN	OceanAnimals	12	12	[0, 0, 0]	n/a	catFR1	3	R1465D
1300.262	0.001	1332105	PROB	0.001	n/a	n/a	n/a	-999	12	[7, 6, 4]	17	catFR1	3	R1465D
1300.263	0.0	1332106	START	n/a	n/a	n/a	n/a	-999	12	[-999, -999, -999]	n/a	catFR1	3	R1465D
1300.262	0.001	1332107	WORD_OFF	n/a	n/a	DOLPHIN	OceanAnimals	12	12	[0, 0, 0]	n/a	catFR1	3	R1465D
1300.263	0.0	1332107	ENCODING_END	n/a	n/a	n/a	n/a	-999	12	[0, 0, 0]	n/a	catFR1	3	R1465D
1300.263	3.415	1332107	DISTRACT_START	n/a	n/a	n/a	n/a	-999	12	[0, 0, 0]	n/a	catFR1	3	R1465D
1303.678	2.883	1335521	PROB	2.883	n/a	n/a	n/a	-999	12	[6, 8, 7]	21	catFR1	3	R1465D
1306.561	1.368	1338404	PROB	1.368	n/a	n/a	n/a	-999	12	[1, 3, 7]	11	catFR1	3	R1465D
1307.929	2.1	1339772	PROB	2.1	n/a	n/a	n/a	-999	12	[7, 4, 8]	19	catFR1	3	R1465D
1310.029	1.766	1341872	PROB	1.766	n/a	n/a	n/a	-999	12	[7, 4, 2]	13	catFR1	3	R1465D
1311.795	1.867	1343638	PROB	1.867	n/a	n/a	n/a	-999	12	[7, 3, 1]	11	catFR1	3	R1465D
1313.662	1.417	1345504	PROB	1.417	n/a	n/a	n/a	-999	12	[3, 1, 3]	7	catFR1	3	R1465D
1315.079	1.8	1346921	PROB	1.8	n/a	n/a	n/a	-999	12	[3, 4, 8]	15	catFR1	3	R1465D
1316.879	1.915	1348721	PROB	1.915	n/a	n/a	n/a	-999	12	[7, 7, 3]	17	catFR1	3	R1465D
1318.794	1.917	1350636	PROB	1.917	n/a	n/a	n/a	-999	12	[1, 5, 3]	9	catFR1	3	R1465D
1320.711	0.0	1352553	STOP	n/a	n/a	n/a	n/a	-999	12	[-999, -999, -999]	n/a	catFR1	3	R1465D
1320.711	2.216	1352556	DISTRACT_END	n/a	n/a	n/a	n/a	-999	12	[0, 0, 0]	n/a	catFR1	3	R1465D
1322.927	1.351	1354774	REC_START	n/a	n/a	n/a	n/a	-999	12	[0, 0, 0]	n/a	catFR1	3	R1465D
1324.278	1.113	1356120	REC_WORD	1.113	n/a	FISH	OceanAnimals	4	12	[0, 0, 0]	n/a	catFR1	3	R1465D
1325.391	1.804	1357233	REC_WORD	1.804	n/a	PLANKTON	OceanAnimals	3	12	[0, 0, 0]	n/a	catFR1	3	R1465D
1327.195	1.118	1359037	REC_WORD	1.118	n/a	JUICE	Beverages	1	12	[0, 0, 0]	n/a	catFR1	3	R1465D
1328.313	1.315	1360155	REC_WORD	1.315	n/a	BEER	Beverages	2	12	[0, 0, 0]	n/a	catFR1	3	R1465D
1329.628	1.373	1361470	REC_WORD	1.373	n/a	RUM	Beverages	7	12	[0, 0, 0]	n/a	catFR1	3	R1465D
1331.001	13.553	1362843	REC_WORD	13.553	n/a	DOLPHIN	OceanAnimals	12	12	[0, 0, 0]	n/a	catFR1	3	R1465D
1344.554	3.886	1376395	REC_WORD	3.886	n/a	FISH	OceanAnimals	4	12	[0, 0, 0]	n/a	catFR1	3	R1465D
1348.44	4.702	1380281	REC_WORD	4.702	n/a	PLANKTON	OceanAnimals	3	12	[0, 0, 0]	n/a	catFR1	3	R1465D
1353.142	0.0	1384988	REC_END	n/a	n/a	n/a	n/a	-999	12	[0, 0, 0]	n/a	catFR1	3	R1465D
