onset	duration	sample	trial_type	response_time	stim_file	item_name	category	serialpos	list	test	answer	experiment	session	subject
0.0	4.783	334117	INSTRUCT_START	n/a	n/a	n/a	n/a	-999	-999	[0, 0, 0]	n/a	catFR1	3	R1617S
4.783	24.498	338900	INSTRUCT_END	n/a	n/a	n/a	n/a	-999	-999	[0, 0, 0]	n/a	catFR1	3	R1617S
29.281	10.0	363405	COUNTDOWN_START	n/a	n/a	n/a	n/a	-999	-999	[0, 0, 0]	n/a	catFR1	3	R1617S
39.631	0.0	373748	COUNTDOWN_END	n/a	n/a	n/a	n/a	-999	-999	[0, 0, 0]	n/a	catFR1	3	R1617S
39.631	1.967	373748	ENCODING_START	n/a	n/a	n/a	n/a	-999	-1	[0, 0, 0]	n/a	catFR1	3	R1617S
41.598	1.6	375712	WORD	n/a	n/a	MARBLES	Toys	1	-1	[0, 0, 0]	n/a	catFR1	3	R1617S
43.214	0.784	377333	WORD_OFF	n/a	n/a	MARBLES	Toys	1	-1	[0, 0, 0]	n/a	catFR1	3	R1617S
43.998	1.6	378118	WORD	n/a	n/a	FRISBEE	Toys	2	-1	[0, 0, 0]	n/a	catFR1	3	R1617S
45.598	0.784	379710	WORD_OFF	n/a	n/a	FRISBEE	Toys	2	-1	[0, 0, 0]	n/a	catFR1	3	R1617S
46.382	1.6	380495	WORD	n/a	n/a	BEETLE	Insects	3	-1	[0, 0, 0]	n/a	catFR1	3	R1617S
47.982	0.816	382096	WORD_OFF	n/a	n/a	BEETLE	Insects	3	-1	[0, 0, 0]	n/a	catFR1	3	R1617S
48.798	1.6	382911	WORD	n/a	n/a	MOSQUITO	Insects	4	-1	[0, 0, 0]	n/a	catFR1	3	R1617S
50.415	1.0	384532	WORD_OFF	n/a	n/a	MOSQUITO	Insects	4	-1	[0, 0, 0]	n/a	catFR1	3	R1617S
51.415	1.6	385534	WORD	n/a	n/a	DOLPHIN	OceanAnimals	5	-1	[0, 0, 0]	n/a	catFR1	3	R1617S
53.032	0.767	387145	WORD_OFF	n/a	n/a	DOLPHIN	OceanAnimals	5	-1	[0, 0, 0]	n/a	catFR1	3	R1617S
53.799	1.6	387911	WORD	n/a	n/a	OYSTER	OceanAnimals	6	-1	[0, 0, 0]	n/a	catFR1	3	R1617S
55.415	0.933	389531	WORD_OFF	n/a	n/a	OYSTER	OceanAnimals	6	-1	[0, 0, 0]	n/a	catFR1	3	R1617S
56.348	1.6	390464	WORD	n/a	n/a	SPIDER	Insects	7	-1	[0, 0, 0]	n/a	catFR1	3	R1617S
57.964	0.967	392075	WORD_OFF	n/a	n/a	SPIDER	Insects	7	-1	[0, 0, 0]	n/a	catFR1	3	R1617S
58.931	1.6	393047	WORD	n/a	n/a	BUTTERFLY	Insects	8	-1	[0, 0, 0]	n/a	catFR1	3	R1617S
60.531	0.801	394648	WORD_OFF	n/a	n/a	BUTTERFLY	Insects	8	-1	[0, 0, 0]	n/a	catFR1	3	R1617S
61.332	1.6	395444	WORD	n/a	n/a	FOOTBALL	Toys	9	-1	[0, 0, 0]	n/a	catFR1	3	R1617S
62.932	0.765	397045	WORD_OFF	n/a	n/a	FOOTBALL	Toys	9	-1	[0, 0, 0]	n/a	catFR1	3	R1617S
63.697	1.6	397811	WORD	n/a	n/a	BASKETBALL	Toys	10	-1	[0, 0, 0]	n/a	catFR1	3	R1617S
65.315	0.933	399432	WORD_OFF	n/a	n/a	BASKETBALL	Toys	10	-1	[0, 0, 0]	n/a	catFR1	3	R1617S
66.248	1.6	400365	WORD	n/a	n/a	WHALE	OceanAnimals	11	-1	[0, 0, 0]	n/a	catFR1	3	R1617S
67.865	1.0	401975	WORD_OFF	n/a	n/a	WHALE	OceanAnimals	11	-1	[0, 0, 0]	n/a	catFR1	3	R1617S
68.865	1.6	402977	WORD	n/a	n/a	LOBSTER	OceanAnimals	12	-1	[0, 0, 0]	n/a	catFR1	3	R1617S
70.483	0.0	404595	START	n/a	n/a	n/a	n/a	-999	-1	[-999, -999, -999]	n/a	catFR1	3	R1617S
70.483	0.0	404595	PROB	8.833	n/a	n/a	n/a	-999	-1	[5, 8, 6]	19.0	catFR1	3	R1617S
70.482	0.001	404598	WORD_OFF	n/a	n/a	LOBSTER	OceanAnimals	12	-1	[0, 0, 0]	n/a	catFR1	3	R1617S
70.483	0.0	404598	ENCODING_END	n/a	n/a	n/a	n/a	-999	-1	[0, 0, 0]	n/a	catFR1	3	R1617S
70.483	8.849	404598	DISTRACT_START	n/a	n/a	n/a	n/a	-999	-1	[0, 0, 0]	n/a	catFR1	3	R1617S
79.332	5.233	413444	PROB	5.216	n/a	n/a	n/a	-999	-1	[6, 2, 2]	10.0	catFR1	3	R1617S
84.565	6.233	418677	PROB	6.216	n/a	n/a	n/a	-999	-1	[1, 5, 8]	14.0	catFR1	3	R1617S
90.798	0.0	424909	DISTRACT_END	n/a	n/a	n/a	n/a	-999	-1	[0, 0, 0]	n/a	catFR1	3	R1617S
90.798	2.117	424909	STOP	n/a	n/a	n/a	n/a	-999	-1	[-999, -999, -999]	n/a	catFR1	3	R1617S
92.915	0.138	427029	REC_START	n/a	n/a	n/a	n/a	-999	-1	[0, 0, 0]	n/a	catFR1	3	R1617S
93.053	1.143	427164	REC_WORD_VV	0.138	n/a	<>	n/a	-999	-1	[0, 0, 0]	n/a	catFR1	3	R1617S
94.196	1.691	428307	REC_WORD	1.281	n/a	MARBLES	Toys	1	-1	[0, 0, 0]	n/a	catFR1	3	R1617S
95.887	2.413	429998	REC_WORD	2.972	n/a	FOOTBALL	Toys	9	-1	[0, 0, 0]	n/a	catFR1	3	R1617S
98.3	1.045	432411	REC_WORD	5.385	n/a	BASKETBALL	Toys	10	-1	[0, 0, 0]	n/a	catFR1	3	R1617S
99.345	3.047	433456	REC_WORD	6.43	n/a	WHALE	OceanAnimals	11	-1	[0, 0, 0]	n/a	catFR1	3	R1617S
102.392	4.794	436503	REC_WORD_VV	9.477	n/a	<>	n/a	-999	-1	[0, 0, 0]	n/a	catFR1	3	R1617S
107.186	2.009	441297	REC_WORD_VV	14.271	n/a	<>	n/a	-999	-1	[0, 0, 0]	n/a	catFR1	3	R1617S
109.195	2.896	443305	REC_WORD_VV	16.28	n/a	<>	n/a	-999	-1	[0, 0, 0]	n/a	catFR1	3	R1617S
112.091	2.601	446201	REC_WORD_VV	19.176	n/a	<>	n/a	-999	-1	[0, 0, 0]	n/a	catFR1	3	R1617S
114.692	1.349	448802	REC_WORD_VV	21.777	n/a	<>	n/a	-999	-1	[0, 0, 0]	n/a	catFR1	3	R1617S
116.041	1.198	450151	REC_WORD	23.126	n/a	FOOTBALL	Toys	9	-1	[0, 0, 0]	n/a	catFR1	3	R1617S
117.239	2.871	451349	REC_WORD	24.324	n/a	BASKETBALL	Toys	10	-1	[0, 0, 0]	n/a	catFR1	3	R1617S
120.11	2.37	454220	REC_WORD	27.195	n/a	WHALE	OceanAnimals	11	-1	[0, 0, 0]	n/a	catFR1	3	R1617S
122.48	0.635	456590	REC_WORD_VV	29.565	n/a	<>	n/a	-999	-1	[0, 0, 0]	n/a	catFR1	3	R1617S
123.115	34.35	457223	REC_END	n/a	n/a	n/a	n/a	-999	-1	[0, 0, 0]	n/a	catFR1	3	R1617S
157.465	10.0	491580	COUNTDOWN_START	n/a	n/a	n/a	n/a	-999	1	[0, 0, 0]	n/a	catFR1	3	R1617S
167.815	0.0	501922	COUNTDOWN_END	n/a	n/a	n/a	n/a	-999	1	[0, 0, 0]	n/a	catFR1	3	R1617S
167.815	2.233	501932	ENCODING_START	n/a	n/a	n/a	n/a	-999	1	[0, 0, 0]	n/a	catFR1	3	R1617S
170.048	1.6	504161	WORD	n/a	wordpools/wordpool_categorized_EN.txt	BLENDER	Appliances	1	1	[0, 0, 0]	n/a	catFR1	3	R1617S
171.649	0.982	505762	WORD_OFF	n/a	n/a	BLENDER	Appliances	1	1	[0, 0, 0]	n/a	catFR1	3	R1617S
172.631	1.6	506744	WORD	n/a	wordpools/wordpool_categorized_EN.txt	DISHWASHER	Appliances	2	1	[0, 0, 0]	n/a	catFR1	3	R1617S
174.232	0.866	508345	WORD_OFF	n/a	n/a	DISHWASHER	Appliances	2	1	[0, 0, 0]	n/a	catFR1	3	R1617S
175.098	1.6	509210	WORD	n/a	wordpools/wordpool_categorized_EN.txt	TULIP	Flowers	3	1	[0, 0, 0]	n/a	catFR1	3	R1617S
176.698	0.85	510811	WORD_OFF	n/a	n/a	TULIP	Flowers	3	1	[0, 0, 0]	n/a	catFR1	3	R1617S
177.548	1.6	511655	WORD	n/a	wordpools/wordpool_categorized_EN.txt	MARIGOLD	Flowers	4	1	[0, 0, 0]	n/a	catFR1	3	R1617S
179.148	0.918	513256	WORD_OFF	n/a	n/a	MARIGOLD	Flowers	4	1	[0, 0, 0]	n/a	catFR1	3	R1617S
180.066	1.6	514179	WORD	n/a	wordpools/wordpool_categorized_EN.txt	CUPCAKE	Desserts	5	1	[0, 0, 0]	n/a	catFR1	3	R1617S
181.681	0.867	515790	WORD_OFF	n/a	n/a	CUPCAKE	Desserts	5	1	[0, 0, 0]	n/a	catFR1	3	R1617S
182.548	1.6	516655	WORD	n/a	wordpools/wordpool_categorized_EN.txt	PUDDING	Desserts	6	1	[0, 0, 0]	n/a	catFR1	3	R1617S
184.165	0.982	518275	WORD_OFF	n/a	n/a	PUDDING	Desserts	6	1	[0, 0, 0]	n/a	catFR1	3	R1617S
185.147	1.6	519257	WORD	n/a	wordpools/wordpool_categorized_EN.txt	PETUNIA	Flowers	7	1	[0, 0, 0]	n/a	catFR1	3	R1617S
186.749	0.849	520858	WORD_OFF	n/a	n/a	PETUNIA	Flowers	7	1	[0, 0, 0]	n/a	catFR1	3	R1617S
187.598	1.6	521703	WORD	n/a	wordpools/wordpool_categorized_EN.txt	LILY	Flowers	8	1	[0, 0, 0]	n/a	catFR1	3	R1617S
189.198	0.85	523304	WORD_OFF	n/a	n/a	LILY	Flowers	8	1	[0, 0, 0]	n/a	catFR1	3	R1617S
190.048	1.6	524158	WORD	n/a	wordpools/wordpool_categorized_EN.txt	DRYER	Appliances	9	1	[0, 0, 0]	n/a	catFR1	3	R1617S
191.648	0.817	525759	WORD_OFF	n/a	n/a	DRYER	Appliances	9	1	[0, 0, 0]	n/a	catFR1	3	R1617S
192.465	1.6	526575	WORD	n/a	wordpools/wordpool_categorized_EN.txt	VACUUM	Appliances	10	1	[0, 0, 0]	n/a	catFR1	3	R1617S
194.082	0.932	528185	WORD_OFF	n/a	n/a	VACUUM	Appliances	10	1	[0, 0, 0]	n/a	catFR1	3	R1617S
195.014	1.6	529118	WORD	n/a	wordpools/wordpool_categorized_EN.txt	BROWNIES	Desserts	11	1	[0, 0, 0]	n/a	catFR1	3	R1617S
196.631	0.934	530739	WORD_OFF	n/a	n/a	BROWNIES	Desserts	11	1	[0, 0, 0]	n/a	catFR1	3	R1617S
197.565	1.6	531672	WORD	n/a	wordpools/wordpool_categorized_EN.txt	MOUSSE	Desserts	12	1	[0, 0, 0]	n/a	catFR1	3	R1617S
199.182	0.0	533288	START	n/a	n/a	n/a	n/a	-999	1	[-999, -999, -999]	n/a	catFR1	3	R1617S
199.182	0.0	533288	PROB	7.083	n/a	n/a	n/a	-999	1	[7, 5, 3]	15.0	catFR1	3	R1617S
199.181	0.001	533293	WORD_OFF	n/a	n/a	MOUSSE	Desserts	12	1	[0, 0, 0]	n/a	catFR1	3	R1617S
199.182	0.0	533293	ENCODING_END	n/a	n/a	n/a	n/a	-999	1	[0, 0, 0]	n/a	catFR1	3	R1617S
199.182	7.102	533293	DISTRACT_START	n/a	n/a	n/a	n/a	-999	1	[0, 0, 0]	n/a	catFR1	3	R1617S
206.284	3.798	540390	PROB	3.783	n/a	n/a	n/a	-999	1	[1, 2, 1]	4.0	catFR1	3	R1617S
210.082	6.483	544188	PROB	6.466	n/a	n/a	n/a	-999	1	[4, 6, 3]	13.0	catFR1	3	R1617S
216.565	6.002	550670	PROB	5.983	n/a	n/a	n/a	-999	1	[3, 2, 7]	12.0	catFR1	3	R1617S
222.567	0.0	556672	STOP	n/a	n/a	n/a	n/a	-999	1	[-999, -999, -999]	n/a	catFR1	3	R1617S
222.567	2.198	556678	DISTRACT_END	n/a	n/a	n/a	n/a	-999	1	[0, 0, 0]	n/a	catFR1	3	R1617S
224.765	1.789	558877	REC_START	n/a	n/a	n/a	n/a	-999	1	[0, 0, 0]	n/a	catFR1	3	R1617S
226.554	1.734	560659	REC_WORD	1.789	n/a	MOUSSE	Desserts	12	1	[0, 0, 0]	n/a	catFR1	3	R1617S
228.288	2.52	562393	REC_WORD	3.523	n/a	TULIP	Flowers	3	1	[0, 0, 0]	n/a	catFR1	3	R1617S
230.808	2.778	564913	REC_WORD_VV	6.043	n/a	<>	n/a	-999	1	[0, 0, 0]	n/a	catFR1	3	R1617S
233.586	8.485	567690	REC_WORD	8.821	n/a	BROWNIES	Desserts	11	1	[0, 0, 0]	n/a	catFR1	3	R1617S
242.071	1.718	576175	REC_WORD_VV	17.306	n/a	<>	n/a	-999	1	[0, 0, 0]	n/a	catFR1	3	R1617S
243.789	0.987	577893	REC_WORD_VV	19.024	n/a	<>	n/a	-999	1	[0, 0, 0]	n/a	catFR1	3	R1617S
244.776	4.669	578880	REC_WORD	20.011	n/a	BROWNIES	Desserts	11	1	[0, 0, 0]	n/a	catFR1	3	R1617S
249.445	5.52	583549	REC_WORD_VV	24.68	n/a	<>	n/a	-999	1	[0, 0, 0]	n/a	catFR1	3	R1617S
254.965	4.367	589070	REC_END	n/a	n/a	n/a	n/a	-999	1	[0, 0, 0]	n/a	catFR1	3	R1617S
259.332	10.0	593441	COUNTDOWN_START	n/a	n/a	n/a	n/a	-999	2	[0, 0, 0]	n/a	catFR1	3	R1617S
269.681	0.0	603783	COUNTDOWN_END	n/a	n/a	n/a	n/a	-999	2	[0, 0, 0]	n/a	catFR1	3	R1617S
269.681	2.1	603783	ENCODING_START	n/a	n/a	n/a	n/a	-999	2	[0, 0, 0]	n/a	catFR1	3	R1617S
271.781	1.6	605885	WORD	n/a	wordpools/wordpool_categorized_EN.txt	VALLEY	Landscapes	1	2	[0, 0, 0]	n/a	catFR1	3	R1617S
273.382	0.95	607486	WORD_OFF	n/a	n/a	VALLEY	Landscapes	1	2	[0, 0, 0]	n/a	catFR1	3	R1617S
274.332	1.6	608439	WORD	n/a	wordpools/wordpool_categorized_EN.txt	FOREST	Landscapes	2	2	[0, 0, 0]	n/a	catFR1	3	R1617S
275.932	0.849	610040	WORD_OFF	n/a	n/a	FOREST	Landscapes	2	2	[0, 0, 0]	n/a	catFR1	3	R1617S
276.781	1.6	610885	WORD	n/a	wordpools/wordpool_categorized_EN.txt	DRILL	Tools	3	2	[0, 0, 0]	n/a	catFR1	3	R1617S
278.382	0.867	612486	WORD_OFF	n/a	n/a	DRILL	Tools	3	2	[0, 0, 0]	n/a	catFR1	3	R1617S
279.249	1.6	613350	WORD	n/a	wordpools/wordpool_categorized_EN.txt	RATCHET	Tools	4	2	[0, 0, 0]	n/a	catFR1	3	R1617S
280.865	0.999	614970	WORD_OFF	n/a	n/a	RATCHET	Tools	4	2	[0, 0, 0]	n/a	catFR1	3	R1617S
281.864	1.6	615972	WORD	n/a	wordpools/wordpool_categorized_EN.txt	PLANKTON	OceanAnimals	5	2	[0, 0, 0]	n/a	catFR1	3	R1617S
283.465	0.833	617573	WORD_OFF	n/a	n/a	PLANKTON	OceanAnimals	5	2	[0, 0, 0]	n/a	catFR1	3	R1617S
284.298	1.6	618398	WORD	n/a	wordpools/wordpool_categorized_EN.txt	FISH	OceanAnimals	6	2	[0, 0, 0]	n/a	catFR1	3	R1617S
285.898	0.999	619999	WORD_OFF	n/a	n/a	FISH	OceanAnimals	6	2	[0, 0, 0]	n/a	catFR1	3	R1617S
286.897	1.6	621001	WORD	n/a	wordpools/wordpool_categorized_EN.txt	BEACH	Landscapes	7	2	[0, 0, 0]	n/a	catFR1	3	R1617S
288.498	0.816	622602	WORD_OFF	n/a	n/a	BEACH	Landscapes	7	2	[0, 0, 0]	n/a	catFR1	3	R1617S
289.314	1.6	623417	WORD	n/a	wordpools/wordpool_categorized_EN.txt	MOUNTAIN	Landscapes	8	2	[0, 0, 0]	n/a	catFR1	3	R1617S
290.915	0.766	625018	WORD_OFF	n/a	n/a	MOUNTAIN	Landscapes	8	2	[0, 0, 0]	n/a	catFR1	3	R1617S
291.681	1.6	625784	WORD	n/a	wordpools/wordpool_categorized_EN.txt	TURTLE	OceanAnimals	9	2	[0, 0, 0]	n/a	catFR1	3	R1617S
293.282	0.833	627385	WORD_OFF	n/a	n/a	TURTLE	OceanAnimals	9	2	[0, 0, 0]	n/a	catFR1	3	R1617S
294.115	1.6	628220	WORD	n/a	wordpools/wordpool_categorized_EN.txt	CRAB	OceanAnimals	10	2	[0, 0, 0]	n/a	catFR1	3	R1617S
295.715	0.767	629821	WORD_OFF	n/a	n/a	CRAB	OceanAnimals	10	2	[0, 0, 0]	n/a	catFR1	3	R1617S
296.482	1.6	630587	WORD	n/a	wordpools/wordpool_categorized_EN.txt	LEVEL	Tools	11	2	[0, 0, 0]	n/a	catFR1	3	R1617S
298.082	0.899	632188	WORD_OFF	n/a	n/a	LEVEL	Tools	11	2	[0, 0, 0]	n/a	catFR1	3	R1617S
298.981	1.6	633082	WORD	n/a	wordpools/wordpool_categorized_EN.txt	SHOVEL	Tools	12	2	[0, 0, 0]	n/a	catFR1	3	R1617S
300.582	0.001	634683	WORD_OFF	n/a	n/a	SHOVEL	Tools	12	2	[0, 0, 0]	n/a	catFR1	3	R1617S
300.583	0.0	634683	ENCODING_END	n/a	n/a	n/a	n/a	-999	2	[0, 0, 0]	n/a	catFR1	3	R1617S
300.582	0.001	634683	PROB	6.016	n/a	n/a	n/a	-999	2	[3, 8, 7]	18.0	catFR1	3	R1617S
300.583	0.0	634684	START	n/a	n/a	n/a	n/a	-999	2	[-999, -999, -999]	n/a	catFR1	3	R1617S
300.583	6.033	634693	DISTRACT_START	n/a	n/a	n/a	n/a	-999	2	[0, 0, 0]	n/a	catFR1	3	R1617S
306.616	6.182	640717	PROB	6.166	n/a	n/a	n/a	-999	2	[3, 8, 8]	19.0	catFR1	3	R1617S
312.798	3.884	646899	PROB	3.867	n/a	n/a	n/a	-999	2	[8, 2, 5]	15.0	catFR1	3	R1617S
316.682	7.85	650782	PROB	7.833	n/a	n/a	n/a	-999	2	[3, 6, 6]	15.0	catFR1	3	R1617S
324.532	0.0	658632	STOP	n/a	n/a	n/a	n/a	-999	2	[-999, -999, -999]	n/a	catFR1	3	R1617S
324.532	2.165	658638	DISTRACT_END	n/a	n/a	n/a	n/a	-999	2	[0, 0, 0]	n/a	catFR1	3	R1617S
326.697	1.822	660797	REC_START	n/a	n/a	n/a	n/a	-999	2	[0, 0, 0]	n/a	catFR1	3	R1617S
328.519	1.354	662619	REC_WORD	1.822	n/a	VALLEY	Landscapes	1	2	[0, 0, 0]	n/a	catFR1	3	R1617S
329.873	1.723	663973	REC_WORD	3.176	n/a	WRENCH	n/a	-999	2	[0, 0, 0]	n/a	catFR1	3	R1617S
331.596	1.309	665696	REC_WORD	4.899	n/a	RATCHET	Tools	4	2	[0, 0, 0]	n/a	catFR1	3	R1617S
332.905	3.008	667005	REC_WORD_VV	6.208	n/a	<>	n/a	-999	2	[0, 0, 0]	n/a	catFR1	3	R1617S
335.913	5.252	670013	REC_WORD	9.216	n/a	THUNDER	n/a	-999	2	[0, 0, 0]	n/a	catFR1	3	R1617S
341.165	1.594	675264	REC_WORD_VV	14.468	n/a	<>	n/a	-999	2	[0, 0, 0]	n/a	catFR1	3	R1617S
342.759	2.948	676858	REC_WORD_VV	16.062	n/a	<>	n/a	-999	2	[0, 0, 0]	n/a	catFR1	3	R1617S
345.707	2.627	679806	REC_WORD_VV	19.01	n/a	<>	n/a	-999	2	[0, 0, 0]	n/a	catFR1	3	R1617S
348.334	3.66	682433	REC_WORD_VV	21.637	n/a	<>	n/a	-999	2	[0, 0, 0]	n/a	catFR1	3	R1617S
351.994	4.439	686093	REC_WORD	25.297	n/a	CHANT	n/a	-999	2	[0, 0, 0]	n/a	catFR1	3	R1617S
356.433	0.5	690532	REC_WORD_VV	29.736	n/a	<>	n/a	-999	2	[0, 0, 0]	n/a	catFR1	3	R1617S
356.933	51.034	691030	REC_END	n/a	n/a	n/a	n/a	-999	2	[0, 0, 0]	n/a	catFR1	3	R1617S
407.967	10.0	742064	COUNTDOWN_START	n/a	n/a	n/a	n/a	-999	3	[0, 0, 0]	n/a	catFR1	3	R1617S
418.315	0.0	752416	COUNTDOWN_END	n/a	n/a	n/a	n/a	-999	3	[0, 0, 0]	n/a	catFR1	3	R1617S
418.315	2.133	752416	ENCODING_START	n/a	n/a	n/a	n/a	-999	3	[0, 0, 0]	n/a	catFR1	3	R1617S
420.448	1.6	754548	WORD	n/a	wordpools/wordpool_categorized_EN.txt	CAKE	Desserts	1	3	[0, 0, 0]	n/a	catFR1	3	R1617S
422.065	0.932	756159	WORD_OFF	n/a	n/a	CAKE	Desserts	1	3	[0, 0, 0]	n/a	catFR1	3	R1617S
422.997	1.6	757092	WORD	n/a	wordpools/wordpool_categorized_EN.txt	PIE	Desserts	2	3	[0, 0, 0]	n/a	catFR1	3	R1617S
424.598	0.883	758693	WORD_OFF	n/a	n/a	PIE	Desserts	2	3	[0, 0, 0]	n/a	catFR1	3	R1617S
425.481	1.6	759577	WORD	n/a	wordpools/wordpool_categorized_EN.txt	RADIO	Electronics	3	3	[0, 0, 0]	n/a	catFR1	3	R1617S
427.081	0.951	761177	WORD_OFF	n/a	n/a	RADIO	Electronics	3	3	[0, 0, 0]	n/a	catFR1	3	R1617S
428.032	1.6	762130	WORD	n/a	wordpools/wordpool_categorized_EN.txt	CALCULATOR	Electronics	4	3	[0, 0, 0]	n/a	catFR1	3	R1617S
429.632	0.783	763731	WORD_OFF	n/a	n/a	CALCULATOR	Electronics	4	3	[0, 0, 0]	n/a	catFR1	3	R1617S
430.415	1.6	764517	WORD	n/a	wordpools/wordpool_categorized_EN.txt	DOLL	Toys	5	3	[0, 0, 0]	n/a	catFR1	3	R1617S
432.032	0.883	766128	WORD_OFF	n/a	n/a	DOLL	Toys	5	3	[0, 0, 0]	n/a	catFR1	3	R1617S
432.915	1.6	767012	WORD	n/a	wordpools/wordpool_categorized_EN.txt	BASEBALL	Toys	6	3	[0, 0, 0]	n/a	catFR1	3	R1617S
434.532	0.866	768632	WORD_OFF	n/a	n/a	BASEBALL	Toys	6	3	[0, 0, 0]	n/a	catFR1	3	R1617S
435.398	1.6	769497	WORD	n/a	wordpools/wordpool_categorized_EN.txt	COBBLER	Desserts	7	3	[0, 0, 0]	n/a	catFR1	3	R1617S
436.998	0.834	771097	WORD_OFF	n/a	n/a	COBBLER	Desserts	7	3	[0, 0, 0]	n/a	catFR1	3	R1617S
437.832	1.6	771932	WORD	n/a	wordpools/wordpool_categorized_EN.txt	JELLO	Desserts	8	3	[0, 0, 0]	n/a	catFR1	3	R1617S
439.431	0.784	773533	WORD_OFF	n/a	n/a	JELLO	Desserts	8	3	[0, 0, 0]	n/a	catFR1	3	R1617S
440.215	1.6	774309	WORD	n/a	wordpools/wordpool_categorized_EN.txt	PRINTER	Electronics	9	3	[0, 0, 0]	n/a	catFR1	3	R1617S
441.832	0.949	775930	WORD_OFF	n/a	n/a	PRINTER	Electronics	9	3	[0, 0, 0]	n/a	catFR1	3	R1617S
442.781	1.6	776873	WORD	n/a	wordpools/wordpool_categorized_EN.txt	COMPUTER	Electronics	10	3	[0, 0, 0]	n/a	catFR1	3	R1617S
444.382	0.899	778474	WORD_OFF	n/a	n/a	COMPUTER	Electronics	10	3	[0, 0, 0]	n/a	catFR1	3	R1617S
445.281	1.6	779377	WORD	n/a	wordpools/wordpool_categorized_EN.txt	PUZZLE	Toys	11	3	[0, 0, 0]	n/a	catFR1	3	R1617S
446.882	0.816	780978	WORD_OFF	n/a	n/a	PUZZLE	Toys	11	3	[0, 0, 0]	n/a	catFR1	3	R1617S
447.698	1.6	781793	WORD	n/a	wordpools/wordpool_categorized_EN.txt	BALL	Toys	12	3	[0, 0, 0]	n/a	catFR1	3	R1617S
449.315	0.001	783409	PROB	12.033	n/a	n/a	n/a	-999	3	[5, 4, 8]	17.0	catFR1	3	R1617S
449.316	0.0	783410	START	n/a	n/a	n/a	n/a	-999	3	[-999, -999, -999]	n/a	catFR1	3	R1617S
449.315	0.001	783414	WORD_OFF	n/a	n/a	BALL	Toys	12	3	[0, 0, 0]	n/a	catFR1	3	R1617S
449.316	0.0	783414	ENCODING_END	n/a	n/a	n/a	n/a	-999	3	[0, 0, 0]	n/a	catFR1	3	R1617S
449.316	12.048	783414	DISTRACT_START	n/a	n/a	n/a	n/a	-999	3	[0, 0, 0]	n/a	catFR1	3	R1617S
461.364	5.767	795458	PROB	5.75	n/a	n/a	n/a	-999	3	[4, 3, 2]	9.0	catFR1	3	R1617S
467.131	5.401	801224	PROB	5.384	n/a	n/a	n/a	-999	3	[2, 5, 1]	8.0	catFR1	3	R1617S
472.532	0.0	806623	DISTRACT_END	n/a	n/a	n/a	n/a	-999	3	[0, 0, 0]	n/a	catFR1	3	R1617S
472.532	2.15	806625	STOP	n/a	n/a	n/a	n/a	-999	3	[-999, -999, -999]	n/a	catFR1	3	R1617S
474.682	0.0	808772	REC_START	n/a	n/a	n/a	n/a	-999	3	[0, 0, 0]	n/a	catFR1	3	R1617S
474.682	1.649	808775	REC_WORD_VV	0.0	n/a	<>	n/a	-999	3	[0, 0, 0]	n/a	catFR1	3	R1617S
476.331	3.487	810424	REC_WORD	1.649	n/a	BALL	Toys	12	3	[0, 0, 0]	n/a	catFR1	3	R1617S
479.818	2.858	813911	REC_WORD	5.136	n/a	BASEBALL	Toys	6	3	[0, 0, 0]	n/a	catFR1	3	R1617S
482.676	1.998	816769	REC_WORD_VV	7.994	n/a	<>	n/a	-999	3	[0, 0, 0]	n/a	catFR1	3	R1617S
484.674	7.539	818766	REC_WORD	9.992	n/a	COBBLER	Desserts	7	3	[0, 0, 0]	n/a	catFR1	3	R1617S
492.213	6.671	826305	REC_WORD_VV	17.531	n/a	<>	n/a	-999	3	[0, 0, 0]	n/a	catFR1	3	R1617S
498.884	2.613	832976	REC_WORD_VV	24.202	n/a	<>	n/a	-999	3	[0, 0, 0]	n/a	catFR1	3	R1617S
501.497	3.434	835589	REC_WORD_VV	26.815	n/a	<>	n/a	-999	3	[0, 0, 0]	n/a	catFR1	3	R1617S
504.931	39.668	839025	REC_END	n/a	n/a	n/a	n/a	-999	3	[0, 0, 0]	n/a	catFR1	3	R1617S
544.599	10.0	878695	COUNTDOWN_START	n/a	n/a	n/a	n/a	-999	4	[0, 0, 0]	n/a	catFR1	3	R1617S
554.948	0.0	889037	COUNTDOWN_END	n/a	n/a	n/a	n/a	-999	4	[0, 0, 0]	n/a	catFR1	3	R1617S
554.948	1.85	889037	ENCODING_START	n/a	n/a	n/a	n/a	-999	4	[0, 0, 0]	n/a	catFR1	3	R1617S
556.798	1.6	890894	WORD	n/a	wordpools/wordpool_categorized_EN.txt	PAPER	OfficeSupplies	1	4	[0, 0, 0]	n/a	catFR1	3	R1617S
558.415	0.933	892504	WORD_OFF	n/a	n/a	PAPER	OfficeSupplies	1	4	[0, 0, 0]	n/a	catFR1	3	R1617S
559.348	1.6	893438	WORD	n/a	wordpools/wordpool_categorized_EN.txt	GLUE	OfficeSupplies	2	4	[0, 0, 0]	n/a	catFR1	3	R1617S
560.948	0.767	895038	WORD_OFF	n/a	n/a	GLUE	OfficeSupplies	2	4	[0, 0, 0]	n/a	catFR1	3	R1617S
561.715	1.6	895805	WORD	n/a	wordpools/wordpool_categorized_EN.txt	COUCH	Furniture	3	4	[0, 0, 0]	n/a	catFR1	3	R1617S
563.331	0.868	897425	WORD_OFF	n/a	n/a	COUCH	Furniture	3	4	[0, 0, 0]	n/a	catFR1	3	R1617S
564.199	1.6	898289	WORD	n/a	wordpools/wordpool_categorized_EN.txt	TABLE	Furniture	4	4	[0, 0, 0]	n/a	catFR1	3	R1617S
565.798	0.916	899890	WORD_OFF	n/a	n/a	TABLE	Furniture	4	4	[0, 0, 0]	n/a	catFR1	3	R1617S
566.714	1.6	900804	WORD	n/a	wordpools/wordpool_categorized_EN.txt	BLOUSE	Clothing	5	4	[0, 0, 0]	n/a	catFR1	3	R1617S
568.315	0.816	902405	WORD_OFF	n/a	n/a	BLOUSE	Clothing	5	4	[0, 0, 0]	n/a	catFR1	3	R1617S
569.131	1.6	903220	WORD	n/a	wordpools/wordpool_categorized_EN.txt	SHIRT	Clothing	6	4	[0, 0, 0]	n/a	catFR1	3	R1617S
570.732	0.766	904821	WORD_OFF	n/a	n/a	SHIRT	Clothing	6	4	[0, 0, 0]	n/a	catFR1	3	R1617S
571.498	1.6	905587	WORD	n/a	wordpools/wordpool_categorized_EN.txt	ERASER	OfficeSupplies	7	4	[0, 0, 0]	n/a	catFR1	3	R1617S
573.114	0.801	907208	WORD_OFF	n/a	n/a	ERASER	OfficeSupplies	7	4	[0, 0, 0]	n/a	catFR1	3	R1617S
573.915	1.6	908003	WORD	n/a	wordpools/wordpool_categorized_EN.txt	NOTEBOOK	OfficeSupplies	8	4	[0, 0, 0]	n/a	catFR1	3	R1617S
575.532	0.882	909624	WORD_OFF	n/a	n/a	NOTEBOOK	OfficeSupplies	8	4	[0, 0, 0]	n/a	catFR1	3	R1617S
576.414	1.6	910508	WORD	n/a	wordpools/wordpool_categorized_EN.txt	CABINET	Furniture	9	4	[0, 0, 0]	n/a	catFR1	3	R1617S
578.015	0.917	912109	WORD_OFF	n/a	n/a	CABINET	Furniture	9	4	[0, 0, 0]	n/a	catFR1	3	R1617S
578.932	1.6	913022	WORD	n/a	wordpools/wordpool_categorized_EN.txt	DRESSER	Furniture	10	4	[0, 0, 0]	n/a	catFR1	3	R1617S
580.532	0.833	914623	WORD_OFF	n/a	n/a	DRESSER	Furniture	10	4	[0, 0, 0]	n/a	catFR1	3	R1617S
581.365	1.6	915458	WORD	n/a	wordpools/wordpool_categorized_EN.txt	SOCKS	Clothing	11	4	[0, 0, 0]	n/a	catFR1	3	R1617S
582.982	0.816	917069	WORD_OFF	n/a	n/a	SOCKS	Clothing	11	4	[0, 0, 0]	n/a	catFR1	3	R1617S
583.798	1.6	917884	WORD	n/a	wordpools/wordpool_categorized_EN.txt	SHORTS	Clothing	12	4	[0, 0, 0]	n/a	catFR1	3	R1617S
585.415	0.0	919503	PROB	17.966	n/a	n/a	n/a	-999	4	[6, 8, 7]	23.0	catFR1	3	R1617S
585.415	0.001	919504	WORD_OFF	n/a	n/a	SHORTS	Clothing	12	4	[0, 0, 0]	n/a	catFR1	3	R1617S
585.416	0.0	919504	ENCODING_END	n/a	n/a	n/a	n/a	-999	4	[0, 0, 0]	n/a	catFR1	3	R1617S
585.416	0.0	919504	DISTRACT_START	n/a	n/a	n/a	n/a	-999	4	[0, 0, 0]	n/a	catFR1	3	R1617S
585.416	17.983	919504	START	n/a	n/a	n/a	n/a	-999	4	[-999, -999, -999]	n/a	catFR1	3	R1617S
603.399	6.782	937486	PROB	6.766	n/a	n/a	n/a	-999	4	[4, 3, 6]	13.0	catFR1	3	R1617S
610.181	0.0	944265	DISTRACT_END	n/a	n/a	n/a	n/a	-999	4	[0, 0, 0]	n/a	catFR1	3	R1617S
610.181	2.018	944267	STOP	n/a	n/a	n/a	n/a	-999	4	[-999, -999, -999]	n/a	catFR1	3	R1617S
612.199	0.045	946287	REC_START	n/a	n/a	n/a	n/a	-999	4	[0, 0, 0]	n/a	catFR1	3	R1617S
612.244	1.349	946330	REC_WORD_VV	0.045	n/a	<>	n/a	-999	4	[0, 0, 0]	n/a	catFR1	3	R1617S
613.593	0.986	947679	REC_WORD	1.394	n/a	GLUE	OfficeSupplies	2	4	[0, 0, 0]	n/a	catFR1	3	R1617S
614.579	1.69	948665	REC_WORD	2.38	n/a	BOOK	n/a	-999	4	[0, 0, 0]	n/a	catFR1	3	R1617S
616.269	1.957	950355	REC_WORD	4.07	n/a	BLOUSE	Clothing	5	4	[0, 0, 0]	n/a	catFR1	3	R1617S
618.226	0.913	952312	REC_WORD	6.027	n/a	COUCH	Furniture	3	4	[0, 0, 0]	n/a	catFR1	3	R1617S
619.139	1.314	953225	REC_WORD	6.94	n/a	TABLE	Furniture	4	4	[0, 0, 0]	n/a	catFR1	3	R1617S
620.453	4.389	954539	REC_WORD	8.254	n/a	NOTEBOOK	OfficeSupplies	8	4	[0, 0, 0]	n/a	catFR1	3	R1617S
624.842	2.155	958928	REC_WORD_VV	12.643	n/a	<>	n/a	-999	4	[0, 0, 0]	n/a	catFR1	3	R1617S
626.997	4.618	961083	REC_WORD_VV	14.798	n/a	<>	n/a	-999	4	[0, 0, 0]	n/a	catFR1	3	R1617S
631.615	1.342	965700	REC_WORD_VV	19.416	n/a	<>	n/a	-999	4	[0, 0, 0]	n/a	catFR1	3	R1617S
632.957	6.403	967042	REC_WORD_VV	20.758	n/a	<>	n/a	-999	4	[0, 0, 0]	n/a	catFR1	3	R1617S
639.36	1.202	973445	REC_WORD	27.161	n/a	COUCH	Furniture	3	4	[0, 0, 0]	n/a	catFR1	3	R1617S
640.562	1.884	974647	REC_WORD	28.363	n/a	TABLE	Furniture	4	4	[0, 0, 0]	n/a	catFR1	3	R1617S
642.446	60.102	976530	REC_END	n/a	n/a	n/a	n/a	-999	4	[0, 0, 0]	n/a	catFR1	3	R1617S
702.548	10.0	1036629	COUNTDOWN_START	n/a	n/a	n/a	n/a	-999	5	[0, 0, 0]	n/a	catFR1	3	R1617S
712.898	0.0	1046981	COUNTDOWN_END	n/a	n/a	n/a	n/a	-999	5	[0, 0, 0]	n/a	catFR1	3	R1617S
712.898	2.017	1046981	ENCODING_START	n/a	n/a	n/a	n/a	-999	5	[0, 0, 0]	n/a	catFR1	3	R1617S
714.915	1.6	1048995	WORD	n/a	wordpools/wordpool_categorized_EN.txt	VELVET	Fabric	1	5	[0, 0, 0]	n/a	catFR1	3	R1617S
716.515	0.983	1050596	WORD_OFF	n/a	n/a	VELVET	Fabric	1	5	[0, 0, 0]	n/a	catFR1	3	R1617S
717.498	1.6	1051578	WORD	n/a	wordpools/wordpool_categorized_EN.txt	SUEDE	Fabric	2	5	[0, 0, 0]	n/a	catFR1	3	R1617S
719.115	0.882	1053198	WORD_OFF	n/a	n/a	SUEDE	Fabric	2	5	[0, 0, 0]	n/a	catFR1	3	R1617S
719.997	1.6	1054082	WORD	n/a	wordpools/wordpool_categorized_EN.txt	HAND	BodyParts	3	5	[0, 0, 0]	n/a	catFR1	3	R1617S
721.597	0.8	1055683	WORD_OFF	n/a	n/a	HAND	BodyParts	3	5	[0, 0, 0]	n/a	catFR1	3	R1617S
722.397	1.6	1056479	WORD	n/a	wordpools/wordpool_categorized_EN.txt	ARM	BodyParts	4	5	[0, 0, 0]	n/a	catFR1	3	R1617S
723.998	0.883	1058080	WORD_OFF	n/a	n/a	ARM	BodyParts	4	5	[0, 0, 0]	n/a	catFR1	3	R1617S
724.881	1.6	1058964	WORD	n/a	wordpools/wordpool_categorized_EN.txt	SHOES	Clothing	5	5	[0, 0, 0]	n/a	catFR1	3	R1617S
726.497	0.951	1060584	WORD_OFF	n/a	n/a	SHOES	Clothing	5	5	[0, 0, 0]	n/a	catFR1	3	R1617S
727.448	1.6	1061527	WORD	n/a	wordpools/wordpool_categorized_EN.txt	PANTS	Clothing	6	5	[0, 0, 0]	n/a	catFR1	3	R1617S
729.048	0.817	1063128	WORD_OFF	n/a	n/a	PANTS	Clothing	6	5	[0, 0, 0]	n/a	catFR1	3	R1617S
729.865	1.6	1063944	WORD	n/a	wordpools/wordpool_categorized_EN.txt	LEATHER	Fabric	7	5	[0, 0, 0]	n/a	catFR1	3	R1617S
731.481	0.917	1065564	WORD_OFF	n/a	n/a	LEATHER	Fabric	7	5	[0, 0, 0]	n/a	catFR1	3	R1617S
732.398	1.6	1066478	WORD	n/a	wordpools/wordpool_categorized_EN.txt	COTTON	Fabric	8	5	[0, 0, 0]	n/a	catFR1	3	R1617S
733.998	0.884	1068078	WORD_OFF	n/a	n/a	COTTON	Fabric	8	5	[0, 0, 0]	n/a	catFR1	3	R1617S
734.882	1.6	1068962	WORD	n/a	wordpools/wordpool_categorized_EN.txt	DRESS	Clothing	9	5	[0, 0, 0]	n/a	catFR1	3	R1617S
736.482	0.966	1070563	WORD_OFF	n/a	n/a	DRESS	Clothing	9	5	[0, 0, 0]	n/a	catFR1	3	R1617S
737.448	1.6	1071536	WORD	n/a	wordpools/wordpool_categorized_EN.txt	COAT	Clothing	10	5	[0, 0, 0]	n/a	catFR1	3	R1617S
739.048	0.984	1073127	WORD_OFF	n/a	n/a	COAT	Clothing	10	5	[0, 0, 0]	n/a	catFR1	3	R1617S
740.032	1.6	1074119	WORD	n/a	wordpools/wordpool_categorized_EN.txt	FINGERS	BodyParts	11	5	[0, 0, 0]	n/a	catFR1	3	R1617S
741.632	0.849	1075710	WORD_OFF	n/a	n/a	FINGERS	BodyParts	11	5	[0, 0, 0]	n/a	catFR1	3	R1617S
742.481	1.6	1076565	WORD	n/a	wordpools/wordpool_categorized_EN.txt	FOOT	BodyParts	12	5	[0, 0, 0]	n/a	catFR1	3	R1617S
744.081	0.002	1078161	PROB	6.417	n/a	n/a	n/a	-999	5	[2, 2, 1]	5.0	catFR1	3	R1617S
744.083	0.0	1078163	START	n/a	n/a	n/a	n/a	-999	5	[-999, -999, -999]	n/a	catFR1	3	R1617S
744.081	0.002	1078165	WORD_OFF	n/a	n/a	FOOT	BodyParts	12	5	[0, 0, 0]	n/a	catFR1	3	R1617S
744.083	0.0	1078165	ENCODING_END	n/a	n/a	n/a	n/a	-999	5	[0, 0, 0]	n/a	catFR1	3	R1617S
744.083	6.432	1078165	DISTRACT_START	n/a	n/a	n/a	n/a	-999	5	[0, 0, 0]	n/a	catFR1	3	R1617S
750.515	8.834	1084595	PROB	8.816	n/a	n/a	n/a	-999	5	[3, 6, 8]	17.0	catFR1	3	R1617S
759.349	7.282	1093428	PROB	7.266	n/a	n/a	n/a	-999	5	[8, 4, 2]	14.0	catFR1	3	R1617S
766.631	0.0	1100710	STOP	n/a	n/a	n/a	n/a	-999	5	[-999, -999, -999]	n/a	catFR1	3	R1617S
766.631	2.334	1100716	DISTRACT_END	n/a	n/a	n/a	n/a	-999	5	[0, 0, 0]	n/a	catFR1	3	R1617S
768.965	0.546	1103042	REC_START	n/a	n/a	n/a	n/a	-999	5	[0, 0, 0]	n/a	catFR1	3	R1617S
769.511	1.104	1103590	REC_WORD_VV	0.546	n/a	<>	n/a	-999	5	[0, 0, 0]	n/a	catFR1	3	R1617S
770.615	0.954	1104694	REC_WORD	1.65	n/a	VELVET	Fabric	1	5	[0, 0, 0]	n/a	catFR1	3	R1617S
771.569	3.377	1105648	REC_WORD	2.604	n/a	ARM	BodyParts	4	5	[0, 0, 0]	n/a	catFR1	3	R1617S
774.946	0.468	1109025	REC_WORD_VV	5.981	n/a	<>	n/a	-999	5	[0, 0, 0]	n/a	catFR1	3	R1617S
775.414	3.928	1109493	REC_WORD	6.449	n/a	FINGERS	BodyParts	11	5	[0, 0, 0]	n/a	catFR1	3	R1617S
779.342	0.645	1113420	REC_WORD_VV	10.377	n/a	<>	n/a	-999	5	[0, 0, 0]	n/a	catFR1	3	R1617S
779.987	5.979	1114065	REC_WORD	11.022	n/a	SUEDE	Fabric	2	5	[0, 0, 0]	n/a	catFR1	3	R1617S
785.966	5.78	1120044	REC_WORD_VV	17.001	n/a	<>	n/a	-999	5	[0, 0, 0]	n/a	catFR1	3	R1617S
791.746	4.512	1125824	REC_WORD_VV	22.781	n/a	<>	n/a	-999	5	[0, 0, 0]	n/a	catFR1	3	R1617S
796.258	2.939	1130336	REC_WORD	27.293	n/a	HEELS	n/a	-999	5	[0, 0, 0]	n/a	catFR1	3	R1617S
799.197	27.901	1133275	REC_END	n/a	n/a	n/a	n/a	-999	5	[0, 0, 0]	n/a	catFR1	3	R1617S
827.098	10.0	1161179	COUNTDOWN_START	n/a	n/a	n/a	n/a	-999	6	[0, 0, 0]	n/a	catFR1	3	R1617S
837.448	0.0	1171521	COUNTDOWN_END	n/a	n/a	n/a	n/a	-999	6	[0, 0, 0]	n/a	catFR1	3	R1617S
837.448	1.883	1171531	ENCODING_START	n/a	n/a	n/a	n/a	-999	6	[0, 0, 0]	n/a	catFR1	3	R1617S
839.331	1.6	1173407	WORD	n/a	wordpools/wordpool_categorized_EN.txt	LADYBUG	Insects	1	6	[0, 0, 0]	n/a	catFR1	3	R1617S
840.932	0.999	1175008	WORD_OFF	n/a	n/a	LADYBUG	Insects	1	6	[0, 0, 0]	n/a	catFR1	3	R1617S
841.931	1.6	1176010	WORD	n/a	wordpools/wordpool_categorized_EN.txt	MOTH	Insects	2	6	[0, 0, 0]	n/a	catFR1	3	R1617S
843.531	0.867	1177611	WORD_OFF	n/a	n/a	MOTH	Insects	2	6	[0, 0, 0]	n/a	catFR1	3	R1617S
844.398	1.6	1178475	WORD	n/a	wordpools/wordpool_categorized_EN.txt	WASHER	Appliances	3	6	[0, 0, 0]	n/a	catFR1	3	R1617S
845.998	0.8	1180076	WORD_OFF	n/a	n/a	WASHER	Appliances	3	6	[0, 0, 0]	n/a	catFR1	3	R1617S
846.798	1.6	1180872	WORD	n/a	wordpools/wordpool_categorized_EN.txt	REFRIGERATOR	Appliances	4	6	[0, 0, 0]	n/a	catFR1	3	R1617S
848.415	0.781	1182492	WORD_OFF	n/a	n/a	REFRIGERATOR	Appliances	4	6	[0, 0, 0]	n/a	catFR1	3	R1617S
849.196	1.6	1183268	WORD	n/a	wordpools/wordpool_categorized_EN.txt	COLANDER	KitchenTools	5	6	[0, 0, 0]	n/a	catFR1	3	R1617S
850.798	0.95	1184879	WORD_OFF	n/a	n/a	COLANDER	KitchenTools	5	6	[0, 0, 0]	n/a	catFR1	3	R1617S
851.748	1.6	1185822	WORD	n/a	wordpools/wordpool_categorized_EN.txt	STRAINER	KitchenTools	6	6	[0, 0, 0]	n/a	catFR1	3	R1617S
853.365	0.966	1187443	WORD_OFF	n/a	n/a	STRAINER	KitchenTools	6	6	[0, 0, 0]	n/a	catFR1	3	R1617S
854.331	1.6	1188405	WORD	n/a	wordpools/wordpool_categorized_EN.txt	GNAT	Insects	7	6	[0, 0, 0]	n/a	catFR1	3	R1617S
855.932	0.983	1190006	WORD_OFF	n/a	n/a	GNAT	Insects	7	6	[0, 0, 0]	n/a	catFR1	3	R1617S
856.915	1.6	1190988	WORD	n/a	wordpools/wordpool_categorized_EN.txt	ANT	Insects	8	6	[0, 0, 0]	n/a	catFR1	3	R1617S
858.515	0.9	1192589	WORD_OFF	n/a	n/a	ANT	Insects	8	6	[0, 0, 0]	n/a	catFR1	3	R1617S
859.415	1.6	1193493	WORD	n/a	wordpools/wordpool_categorized_EN.txt	LADLE	KitchenTools	9	6	[0, 0, 0]	n/a	catFR1	3	R1617S
861.032	0.949	1195113	WORD_OFF	n/a	n/a	LADLE	KitchenTools	9	6	[0, 0, 0]	n/a	catFR1	3	R1617S
861.981	1.6	1196056	WORD	n/a	wordpools/wordpool_categorized_EN.txt	GRATER	KitchenTools	10	6	[0, 0, 0]	n/a	catFR1	3	R1617S
863.581	0.917	1197657	WORD_OFF	n/a	n/a	GRATER	KitchenTools	10	6	[0, 0, 0]	n/a	catFR1	3	R1617S
864.498	1.6	1198571	WORD	n/a	wordpools/wordpool_categorized_EN.txt	FREEZER	Appliances	11	6	[0, 0, 0]	n/a	catFR1	3	R1617S
866.098	0.85	1200172	WORD_OFF	n/a	n/a	FREEZER	Appliances	11	6	[0, 0, 0]	n/a	catFR1	3	R1617S
866.948	1.6	1201026	WORD	n/a	wordpools/wordpool_categorized_EN.txt	MIXER	Appliances	12	6	[0, 0, 0]	n/a	catFR1	3	R1617S
868.549	0.001	1202623	PROB	11.816	n/a	n/a	n/a	-999	6	[8, 5, 5]	18.0	catFR1	3	R1617S
868.55	0.0	1202624	START	n/a	n/a	n/a	n/a	-999	6	[-999, -999, -999]	n/a	catFR1	3	R1617S
868.548	0.002	1202627	WORD_OFF	n/a	n/a	MIXER	Appliances	12	6	[0, 0, 0]	n/a	catFR1	3	R1617S
868.55	0.0	1202627	ENCODING_END	n/a	n/a	n/a	n/a	-999	6	[0, 0, 0]	n/a	catFR1	3	R1617S
868.55	11.832	1202637	DISTRACT_START	n/a	n/a	n/a	n/a	-999	6	[0, 0, 0]	n/a	catFR1	3	R1617S
880.382	4.8	1214455	PROB	4.783	n/a	n/a	n/a	-999	6	[4, 6, 7]	17.0	catFR1	3	R1617S
885.182	4.266	1219255	PROB	4.249	n/a	n/a	n/a	-999	6	[1, 8, 1]	10.0	catFR1	3	R1617S
889.448	0.0	1223521	STOP	n/a	n/a	n/a	n/a	-999	6	[-999, -999, -999]	n/a	catFR1	3	R1617S
889.448	2.4	1223528	DISTRACT_END	n/a	n/a	n/a	n/a	-999	6	[0, 0, 0]	n/a	catFR1	3	R1617S
891.848	0.913	1225922	REC_START	n/a	n/a	n/a	n/a	-999	6	[0, 0, 0]	n/a	catFR1	3	R1617S
892.761	1.276	1226834	REC_WORD	0.913	n/a	LADYBUG	Insects	1	6	[0, 0, 0]	n/a	catFR1	3	R1617S
894.037	1.854	1228110	REC_WORD	2.189	n/a	GNAT	Insects	7	6	[0, 0, 0]	n/a	catFR1	3	R1617S
895.891	2.921	1229964	REC_WORD	4.043	n/a	COLANDER	KitchenTools	5	6	[0, 0, 0]	n/a	catFR1	3	R1617S
898.812	3.74	1232885	REC_WORD	6.964	n/a	DISHWASHER	Appliances	-999	6	[0, 0, 0]	n/a	catFR1	3	R1617S
902.552	8.438	1236624	REC_WORD_VV	10.704	n/a	<>	n/a	-999	6	[0, 0, 0]	n/a	catFR1	3	R1617S
910.99	1.859	1245062	REC_WORD	19.142	n/a	MIXER	Appliances	12	6	[0, 0, 0]	n/a	catFR1	3	R1617S
912.849	3.357	1246921	REC_WORD	21.001	n/a	KITCHEN	n/a	-999	6	[0, 0, 0]	n/a	catFR1	3	R1617S
916.206	5.308	1250278	REC_WORD_VV	24.358	n/a	<>	n/a	-999	6	[0, 0, 0]	n/a	catFR1	3	R1617S
921.514	0.575	1255586	REC_WORD_VV	29.666	n/a	<>	n/a	-999	6	[0, 0, 0]	n/a	catFR1	3	R1617S
922.089	42.643	1256166	REC_END	n/a	n/a	n/a	n/a	-999	6	[0, 0, 0]	n/a	catFR1	3	R1617S
964.732	10.0	1298802	COUNTDOWN_START	n/a	n/a	n/a	n/a	-999	7	[0, 0, 0]	n/a	catFR1	3	R1617S
975.082	0.0	1309154	COUNTDOWN_END	n/a	n/a	n/a	n/a	-999	7	[0, 0, 0]	n/a	catFR1	3	R1617S
975.082	2.083	1309154	ENCODING_START	n/a	n/a	n/a	n/a	-999	7	[0, 0, 0]	n/a	catFR1	3	R1617S
977.165	1.6	1311236	WORD	n/a	wordpools/wordpool_categorized_EN.txt	VIOLET	Flowers	1	7	[0, 0, 0]	n/a	catFR1	3	R1617S
978.782	0.966	1312854	WORD_OFF	n/a	n/a	VIOLET	Flowers	1	7	[0, 0, 0]	n/a	catFR1	3	R1617S
979.748	1.6	1313819	WORD	n/a	wordpools/wordpool_categorized_EN.txt	ROSE	Flowers	2	7	[0, 0, 0]	n/a	catFR1	3	R1617S
981.349	0.899	1315420	WORD_OFF	n/a	n/a	ROSE	Flowers	2	7	[0, 0, 0]	n/a	catFR1	3	R1617S
982.248	1.6	1316324	WORD	n/a	wordpools/wordpool_categorized_EN.txt	NIGHTSTAND	Furniture	3	7	[0, 0, 0]	n/a	catFR1	3	R1617S
983.865	0.849	1317935	WORD_OFF	n/a	n/a	NIGHTSTAND	Furniture	3	7	[0, 0, 0]	n/a	catFR1	3	R1617S
984.714	1.6	1318789	WORD	n/a	wordpools/wordpool_categorized_EN.txt	CHAIR	Furniture	4	7	[0, 0, 0]	n/a	catFR1	3	R1617S
986.314	0.932	1320380	WORD_OFF	n/a	n/a	CHAIR	Furniture	4	7	[0, 0, 0]	n/a	catFR1	3	R1617S
987.246	1.6	1321313	WORD	n/a	wordpools/wordpool_categorized_EN.txt	CEDAR	Trees	5	7	[0, 0, 0]	n/a	catFR1	3	R1617S
988.848	0.95	1322914	WORD_OFF	n/a	n/a	CEDAR	Trees	5	7	[0, 0, 0]	n/a	catFR1	3	R1617S
989.798	1.6	1323867	WORD	n/a	wordpools/wordpool_categorized_EN.txt	EVERGREEN	Trees	6	7	[0, 0, 0]	n/a	catFR1	3	R1617S
991.415	0.982	1325488	WORD_OFF	n/a	n/a	EVERGREEN	Trees	6	7	[0, 0, 0]	n/a	catFR1	3	R1617S
992.397	1.6	1326470	WORD	n/a	wordpools/wordpool_categorized_EN.txt	CARNATION	Flowers	7	7	[0, 0, 0]	n/a	catFR1	3	R1617S
993.999	0.866	1328071	WORD_OFF	n/a	n/a	CARNATION	Flowers	7	7	[0, 0, 0]	n/a	catFR1	3	R1617S
994.865	1.6	1328935	WORD	n/a	wordpools/wordpool_categorized_EN.txt	SUNFLOWER	Flowers	8	7	[0, 0, 0]	n/a	catFR1	3	R1617S
996.465	0.9	1330536	WORD_OFF	n/a	n/a	SUNFLOWER	Flowers	8	7	[0, 0, 0]	n/a	catFR1	3	R1617S
997.365	1.6	1331440	WORD	n/a	wordpools/wordpool_categorized_EN.txt	SOFA	Furniture	9	7	[0, 0, 0]	n/a	catFR1	3	R1617S
998.982	0.983	1333050	WORD_OFF	n/a	n/a	SOFA	Furniture	9	7	[0, 0, 0]	n/a	catFR1	3	R1617S
999.965	1.6	1334033	WORD	n/a	wordpools/wordpool_categorized_EN.txt	BED	Furniture	10	7	[0, 0, 0]	n/a	catFR1	3	R1617S
1001.582	0.783	1335653	WORD_OFF	n/a	n/a	BED	Furniture	10	7	[0, 0, 0]	n/a	catFR1	3	R1617S
1002.365	1.6	1336439	WORD	n/a	wordpools/wordpool_categorized_EN.txt	CYPRESS	Trees	11	7	[0, 0, 0]	n/a	catFR1	3	R1617S
1003.965	0.932	1338030	WORD_OFF	n/a	n/a	CYPRESS	Trees	11	7	[0, 0, 0]	n/a	catFR1	3	R1617S
1004.897	1.6	1338963	WORD	n/a	wordpools/wordpool_categorized_EN.txt	OAK	Trees	12	7	[0, 0, 0]	n/a	catFR1	3	R1617S
1006.499	0.0	1340564	WORD_OFF	n/a	n/a	OAK	Trees	12	7	[0, 0, 0]	n/a	catFR1	3	R1617S
1006.499	0.003	1340566	PROB	6.95	n/a	n/a	n/a	-999	7	[6, 1, 3]	10.0	catFR1	3	R1617S
1006.502	0.0	1340569	START	n/a	n/a	n/a	n/a	-999	7	[-999, -999, -999]	n/a	catFR1	3	R1617S
1006.502	0.0	1340574	ENCODING_END	n/a	n/a	n/a	n/a	-999	7	[0, 0, 0]	n/a	catFR1	3	R1617S
1006.502	6.964	1340574	DISTRACT_START	n/a	n/a	n/a	n/a	-999	7	[0, 0, 0]	n/a	catFR1	3	R1617S
1013.466	5.133	1347533	PROB	5.115	n/a	n/a	n/a	-999	7	[3, 2, 7]	12.0	catFR1	3	R1617S
1018.599	5.45	1352666	PROB	5.433	n/a	n/a	n/a	-999	7	[3, 2, 2]	7.0	catFR1	3	R1617S
1024.049	6.483	1358116	PROB	6.466	n/a	n/a	n/a	-999	7	[3, 3, 5]	11.0	catFR1	3	R1617S
1030.532	0.0	1364598	DISTRACT_END	n/a	n/a	n/a	n/a	-999	7	[0, 0, 0]	n/a	catFR1	3	R1617S
1030.532	2.233	1364598	STOP	n/a	n/a	n/a	n/a	-999	7	[-999, -999, -999]	n/a	catFR1	3	R1617S
1032.765	1.558	1366835	REC_START	n/a	n/a	n/a	n/a	-999	7	[0, 0, 0]	n/a	catFR1	3	R1617S
1034.323	1.065	1368389	REC_WORD	1.558	n/a	CARNATION	Flowers	7	7	[0, 0, 0]	n/a	catFR1	3	R1617S
1035.388	3.375	1369454	REC_WORD	2.623	n/a	ROSE	Flowers	2	7	[0, 0, 0]	n/a	catFR1	3	R1617S
1038.763	4.319	1372829	REC_WORD	5.998	n/a	CEDAR	Trees	5	7	[0, 0, 0]	n/a	catFR1	3	R1617S
1043.082	0.97	1377148	REC_WORD_VV	10.317	n/a	<>	n/a	-999	7	[0, 0, 0]	n/a	catFR1	3	R1617S
1044.052	6.778	1378118	REC_WORD	11.287	n/a	ELM	n/a	-999	7	[0, 0, 0]	n/a	catFR1	3	R1617S
1050.83	12.153	1384895	REC_WORD	18.065	n/a	CYPRESS	Trees	11	7	[0, 0, 0]	n/a	catFR1	3	R1617S
1062.983	18.632	1397049	REC_END	n/a	n/a	n/a	n/a	-999	7	[0, 0, 0]	n/a	catFR1	3	R1617S
1081.615	10.0	1415681	COUNTDOWN_START	n/a	n/a	n/a	n/a	-999	8	[0, 0, 0]	n/a	catFR1	3	R1617S
1091.965	0.0	1426033	COUNTDOWN_END	n/a	n/a	n/a	n/a	-999	8	[0, 0, 0]	n/a	catFR1	3	R1617S
1091.965	1.95	1426033	ENCODING_START	n/a	n/a	n/a	n/a	-999	8	[0, 0, 0]	n/a	catFR1	3	R1617S
1093.915	1.6	1427978	WORD	n/a	wordpools/wordpool_categorized_EN.txt	WALNUT	Trees	1	8	[0, 0, 0]	n/a	catFR1	3	R1617S
1095.531	1.0	1429598	WORD_OFF	n/a	n/a	WALNUT	Trees	1	8	[0, 0, 0]	n/a	catFR1	3	R1617S
1096.531	1.6	1430600	WORD	n/a	wordpools/wordpool_categorized_EN.txt	HICKORY	Trees	2	8	[0, 0, 0]	n/a	catFR1	3	R1617S
1098.132	0.85	1432201	WORD_OFF	n/a	n/a	HICKORY	Trees	2	8	[0, 0, 0]	n/a	catFR1	3	R1617S
1098.982	1.6	1433046	WORD	n/a	wordpools/wordpool_categorized_EN.txt	TONGS	KitchenTools	3	8	[0, 0, 0]	n/a	catFR1	3	R1617S
1100.582	0.783	1434647	WORD_OFF	n/a	n/a	TONGS	KitchenTools	3	8	[0, 0, 0]	n/a	catFR1	3	R1617S
1101.365	1.6	1435433	WORD	n/a	wordpools/wordpool_categorized_EN.txt	CORKSCREW	KitchenTools	4	8	[0, 0, 0]	n/a	catFR1	3	R1617S
1102.982	0.766	1437043	WORD_OFF	n/a	n/a	CORKSCREW	KitchenTools	4	8	[0, 0, 0]	n/a	catFR1	3	R1617S
1103.748	1.6	1437809	WORD	n/a	wordpools/wordpool_categorized_EN.txt	STAPLER	OfficeSupplies	5	8	[0, 0, 0]	n/a	catFR1	3	R1617S
1105.365	0.85	1439430	WORD_OFF	n/a	n/a	STAPLER	OfficeSupplies	5	8	[0, 0, 0]	n/a	catFR1	3	R1617S
1106.215	1.6	1440282	WORD	n/a	wordpools/wordpool_categorized_EN.txt	MARKER	OfficeSupplies	6	8	[0, 0, 0]	n/a	catFR1	3	R1617S
1107.815	0.834	1441876	WORD_OFF	n/a	n/a	MARKER	OfficeSupplies	6	8	[0, 0, 0]	n/a	catFR1	3	R1617S
1108.649	1.6	1442710	WORD	n/a	wordpools/wordpool_categorized_EN.txt	WILLOW	Trees	7	8	[0, 0, 0]	n/a	catFR1	3	R1617S
1110.265	0.983	1444331	WORD_OFF	n/a	n/a	WILLOW	Trees	7	8	[0, 0, 0]	n/a	catFR1	3	R1617S
1111.248	1.6	1445313	WORD	n/a	wordpools/wordpool_categorized_EN.txt	MAPLE	Trees	8	8	[0, 0, 0]	n/a	catFR1	3	R1617S
1112.848	0.767	1446914	WORD_OFF	n/a	n/a	MAPLE	Trees	8	8	[0, 0, 0]	n/a	catFR1	3	R1617S
1113.615	1.6	1447680	WORD	n/a	wordpools/wordpool_categorized_EN.txt	SPATULA	KitchenTools	9	8	[0, 0, 0]	n/a	catFR1	3	R1617S
1115.231	0.917	1449291	WORD_OFF	n/a	n/a	SPATULA	KitchenTools	9	8	[0, 0, 0]	n/a	catFR1	3	R1617S
1116.148	1.6	1450214	WORD	n/a	wordpools/wordpool_categorized_EN.txt	FORK	KitchenTools	10	8	[0, 0, 0]	n/a	catFR1	3	R1617S
1117.748	0.917	1451815	WORD_OFF	n/a	n/a	FORK	KitchenTools	10	8	[0, 0, 0]	n/a	catFR1	3	R1617S
1118.665	1.6	1452729	WORD	n/a	wordpools/wordpool_categorized_EN.txt	RULER	OfficeSupplies	11	8	[0, 0, 0]	n/a	catFR1	3	R1617S
1120.282	0.966	1454349	WORD_OFF	n/a	n/a	RULER	OfficeSupplies	11	8	[0, 0, 0]	n/a	catFR1	3	R1617S
1121.248	1.6	1455312	WORD	n/a	wordpools/wordpool_categorized_EN.txt	FOLDER	OfficeSupplies	12	8	[0, 0, 0]	n/a	catFR1	3	R1617S
1122.849	0.001	1456911	PROB	5.233	n/a	n/a	n/a	-999	8	[6, 2, 1]	9.0	catFR1	3	R1617S
1122.85	0.0	1456912	START	n/a	n/a	n/a	n/a	-999	8	[-999, -999, -999]	n/a	catFR1	3	R1617S
1122.848	0.002	1456913	WORD_OFF	n/a	n/a	FOLDER	OfficeSupplies	12	8	[0, 0, 0]	n/a	catFR1	3	R1617S
1122.85	0.0	1456913	ENCODING_END	n/a	n/a	n/a	n/a	-999	8	[0, 0, 0]	n/a	catFR1	3	R1617S
1122.85	5.249	1456913	DISTRACT_START	n/a	n/a	n/a	n/a	-999	8	[0, 0, 0]	n/a	catFR1	3	R1617S
1128.099	10.25	1462161	PROB	10.233	n/a	n/a	n/a	-999	8	[8, 7, 4]	19.0	catFR1	3	R1617S
1138.349	6.499	1472410	PROB	6.483	n/a	n/a	n/a	-999	8	[8, 1, 7]	16.0	catFR1	3	R1617S
1144.848	0.0	1478909	STOP	n/a	n/a	n/a	n/a	-999	8	[-999, -999, -999]	n/a	catFR1	3	R1617S
1144.848	2.133	1478914	DISTRACT_END	n/a	n/a	n/a	n/a	-999	8	[0, 0, 0]	n/a	catFR1	3	R1617S
1146.981	0.0	1481042	REC_WORD_VV	0.0	n/a	<>	n/a	-999	8	[0, 0, 0]	n/a	catFR1	3	R1617S
1146.981	1.121	1481043	REC_START	n/a	n/a	n/a	n/a	-999	8	[0, 0, 0]	n/a	catFR1	3	R1617S
1148.102	1.515	1482163	REC_WORD	1.121	n/a	CORKSCREW	KitchenTools	4	8	[0, 0, 0]	n/a	catFR1	3	R1617S
1149.617	3.895	1483678	REC_WORD	2.636	n/a	SPATULA	KitchenTools	9	8	[0, 0, 0]	n/a	catFR1	3	R1617S
1153.512	5.152	1487572	REC_WORD_VV	6.531	n/a	<>	n/a	-999	8	[0, 0, 0]	n/a	catFR1	3	R1617S
1158.664	1.9	1492724	REC_WORD_VV	11.683	n/a	<>	n/a	-999	8	[0, 0, 0]	n/a	catFR1	3	R1617S
1160.564	4.37	1494624	REC_WORD	13.583	n/a	MARKER	OfficeSupplies	6	8	[0, 0, 0]	n/a	catFR1	3	R1617S
1164.934	4.482	1498994	REC_WORD_VV	17.953	n/a	<>	n/a	-999	8	[0, 0, 0]	n/a	catFR1	3	R1617S
1169.416	7.783	1503476	REC_WORD	22.435	n/a	SPATULA	KitchenTools	9	8	[0, 0, 0]	n/a	catFR1	3	R1617S
1177.199	49.466	1511257	REC_END	n/a	n/a	n/a	n/a	-999	8	[0, 0, 0]	n/a	catFR1	3	R1617S
1226.665	10.0	1560729	COUNTDOWN_START	n/a	n/a	n/a	n/a	-999	9	[0, 0, 0]	n/a	catFR1	3	R1617S
1237.014	0.001	1571071	COUNTDOWN_END	n/a	n/a	n/a	n/a	-999	9	[0, 0, 0]	n/a	catFR1	3	R1617S
1237.015	2.283	1571071	ENCODING_START	n/a	n/a	n/a	n/a	-999	9	[0, 0, 0]	n/a	catFR1	3	R1617S
1239.298	1.6	1573360	WORD	n/a	wordpools/wordpool_categorized_EN.txt	CIDER	Beverages	1	9	[0, 0, 0]	n/a	catFR1	3	R1617S
1240.915	0.817	1574970	WORD_OFF	n/a	n/a	CIDER	Beverages	1	9	[0, 0, 0]	n/a	catFR1	3	R1617S
1241.732	1.6	1575786	WORD	n/a	wordpools/wordpool_categorized_EN.txt	WATER	Beverages	2	9	[0, 0, 0]	n/a	catFR1	3	R1617S
1243.348	0.833	1577406	WORD_OFF	n/a	n/a	WATER	Beverages	2	9	[0, 0, 0]	n/a	catFR1	3	R1617S
1244.181	1.6	1578241	WORD	n/a	wordpools/wordpool_categorized_EN.txt	TELEVISION	Electronics	3	9	[0, 0, 0]	n/a	catFR1	3	R1617S
1245.782	0.766	1579842	WORD_OFF	n/a	n/a	TELEVISION	Electronics	3	9	[0, 0, 0]	n/a	catFR1	3	R1617S
1246.548	1.6	1580608	WORD	n/a	wordpools/wordpool_categorized_EN.txt	PHONE	Electronics	4	9	[0, 0, 0]	n/a	catFR1	3	R1617S
1248.164	0.818	1582219	WORD_OFF	n/a	n/a	PHONE	Electronics	4	9	[0, 0, 0]	n/a	catFR1	3	R1617S
1248.982	1.6	1583044	WORD	n/a	wordpools/wordpool_categorized_EN.txt	LIME	Fruit	5	9	[0, 0, 0]	n/a	catFR1	3	R1617S
1250.598	0.933	1584655	WORD_OFF	n/a	n/a	LIME	Fruit	5	9	[0, 0, 0]	n/a	catFR1	3	R1617S
1251.531	1.6	1585588	WORD	n/a	wordpools/wordpool_categorized_EN.txt	STRAWBERRY	Fruit	6	9	[0, 0, 0]	n/a	catFR1	3	R1617S
1253.131	0.884	1587189	WORD_OFF	n/a	n/a	STRAWBERRY	Fruit	6	9	[0, 0, 0]	n/a	catFR1	3	R1617S
1254.015	1.6	1588073	WORD	n/a	wordpools/wordpool_categorized_EN.txt	COLA	Beverages	7	9	[0, 0, 0]	n/a	catFR1	3	R1617S
1255.615	0.833	1589674	WORD_OFF	n/a	n/a	COLA	Beverages	7	9	[0, 0, 0]	n/a	catFR1	3	R1617S
1256.448	1.6	1590509	WORD	n/a	wordpools/wordpool_categorized_EN.txt	COFFEE	Beverages	8	9	[0, 0, 0]	n/a	catFR1	3	R1617S
1258.048	0.816	1592110	WORD_OFF	n/a	n/a	COFFEE	Beverages	8	9	[0, 0, 0]	n/a	catFR1	3	R1617S
1258.864	1.6	1592925	WORD	n/a	wordpools/wordpool_categorized_EN.txt	SPEAKER	Electronics	9	9	[0, 0, 0]	n/a	catFR1	3	R1617S
1260.465	0.883	1594526	WORD_OFF	n/a	n/a	SPEAKER	Electronics	9	9	[0, 0, 0]	n/a	catFR1	3	R1617S
1261.348	1.6	1595410	WORD	n/a	wordpools/wordpool_categorized_EN.txt	STEREO	Electronics	10	9	[0, 0, 0]	n/a	catFR1	3	R1617S
1262.965	0.9	1597020	WORD_OFF	n/a	n/a	STEREO	Electronics	10	9	[0, 0, 0]	n/a	catFR1	3	R1617S
1263.865	1.6	1597924	WORD	n/a	wordpools/wordpool_categorized_EN.txt	PEACH	Fruit	11	9	[0, 0, 0]	n/a	catFR1	3	R1617S
1265.48	0.885	1599535	WORD_OFF	n/a	n/a	PEACH	Fruit	11	9	[0, 0, 0]	n/a	catFR1	3	R1617S
1266.365	1.6	1600419	WORD	n/a	wordpools/wordpool_categorized_EN.txt	PEAR	Fruit	12	9	[0, 0, 0]	n/a	catFR1	3	R1617S
1267.982	0.001	1602037	PROB	12.566	n/a	n/a	n/a	-999	9	[6, 2, 4]	12.0	catFR1	3	R1617S
1267.983	0.0	1602038	START	n/a	n/a	n/a	n/a	-999	9	[-999, -999, -999]	n/a	catFR1	3	R1617S
1267.982	0.001	1602039	WORD_OFF	n/a	n/a	PEAR	Fruit	12	9	[0, 0, 0]	n/a	catFR1	3	R1617S
1267.983	0.0	1602039	ENCODING_END	n/a	n/a	n/a	n/a	-999	9	[0, 0, 0]	n/a	catFR1	3	R1617S
1267.983	12.582	1602039	DISTRACT_START	n/a	n/a	n/a	n/a	-999	9	[0, 0, 0]	n/a	catFR1	3	R1617S
1280.565	4.7	1614619	PROB	4.682	n/a	n/a	n/a	-999	9	[5, 4, 6]	15.0	catFR1	3	R1617S
1285.265	3.883	1619319	PROB	3.866	n/a	n/a	n/a	-999	9	[6, 3, 4]	13.0	catFR1	3	R1617S
1289.148	0.0	1623202	STOP	n/a	n/a	n/a	n/a	-999	9	[-999, -999, -999]	n/a	catFR1	3	R1617S
1289.148	2.334	1623205	DISTRACT_END	n/a	n/a	n/a	n/a	-999	9	[0, 0, 0]	n/a	catFR1	3	R1617S
1291.482	0.647	1625541	REC_START	n/a	n/a	n/a	n/a	-999	9	[0, 0, 0]	n/a	catFR1	3	R1617S
1292.129	0.948	1626183	REC_WORD	0.647	n/a	PEACH	Fruit	11	9	[0, 0, 0]	n/a	catFR1	3	R1617S
1293.077	2.582	1627131	REC_WORD	1.595	n/a	PEAR	Fruit	12	9	[0, 0, 0]	n/a	catFR1	3	R1617S
1295.659	1.441	1629713	REC_WORD_VV	4.177	n/a	<>	n/a	-999	9	[0, 0, 0]	n/a	catFR1	3	R1617S
1297.1	4.123	1631154	REC_WORD	5.618	n/a	CIDER	Beverages	1	9	[0, 0, 0]	n/a	catFR1	3	R1617S
1301.223	4.309	1635276	REC_WORD	9.741	n/a	TELEVISION	Electronics	3	9	[0, 0, 0]	n/a	catFR1	3	R1617S
1305.532	3.939	1639585	REC_WORD	14.05	n/a	STRAWBERRY	Fruit	6	9	[0, 0, 0]	n/a	catFR1	3	R1617S
1309.471	5.942	1643524	REC_WORD	17.989	n/a	COUCH	Furniture	-999	9	[0, 0, 0]	n/a	catFR1	3	R1617S
1315.413	6.3	1649466	REC_WORD	23.931	n/a	RADIO	Electronics	-999	9	[0, 0, 0]	n/a	catFR1	3	R1617S
1321.713	45.119	1655764	REC_END	n/a	n/a	n/a	n/a	-999	9	[0, 0, 0]	n/a	catFR1	3	R1617S
1366.832	10.0	1700886	COUNTDOWN_START	n/a	n/a	n/a	n/a	-999	10	[0, 0, 0]	n/a	catFR1	3	R1617S
1377.182	0.0	1711238	COUNTDOWN_END	n/a	n/a	n/a	n/a	-999	10	[0, 0, 0]	n/a	catFR1	3	R1617S
1377.182	2.167	1711238	ENCODING_START	n/a	n/a	n/a	n/a	-999	10	[0, 0, 0]	n/a	catFR1	3	R1617S
1379.349	1.6	1713399	WORD	n/a	wordpools/wordpool_categorized_EN.txt	CHERRY	Fruit	1	10	[0, 0, 0]	n/a	catFR1	3	R1617S
1380.965	0.949	1715019	WORD_OFF	n/a	n/a	CHERRY	Fruit	1	10	[0, 0, 0]	n/a	catFR1	3	R1617S
1381.914	1.6	1715962	WORD	n/a	wordpools/wordpool_categorized_EN.txt	PLUM	Fruit	2	10	[0, 0, 0]	n/a	catFR1	3	R1617S
1383.532	0.766	1717583	WORD_OFF	n/a	n/a	PLUM	Fruit	2	10	[0, 0, 0]	n/a	catFR1	3	R1617S
1384.298	1.6	1718349	WORD	n/a	wordpools/wordpool_categorized_EN.txt	CARROT	Vegetables	3	10	[0, 0, 0]	n/a	catFR1	3	R1617S
1385.915	0.9	1719969	WORD_OFF	n/a	n/a	CARROT	Vegetables	3	10	[0, 0, 0]	n/a	catFR1	3	R1617S
1386.815	1.6	1720863	WORD	n/a	wordpools/wordpool_categorized_EN.txt	ONION	Vegetables	4	10	[0, 0, 0]	n/a	catFR1	3	R1617S
1388.415	0.817	1722464	WORD_OFF	n/a	n/a	ONION	Vegetables	4	10	[0, 0, 0]	n/a	catFR1	3	R1617S
1389.232	1.6	1723279	WORD	n/a	wordpools/wordpool_categorized_EN.txt	PINE	Trees	5	10	[0, 0, 0]	n/a	catFR1	3	R1617S
1390.832	0.95	1724880	WORD_OFF	n/a	n/a	PINE	Trees	5	10	[0, 0, 0]	n/a	catFR1	3	R1617S
1391.782	1.6	1725833	WORD	n/a	wordpools/wordpool_categorized_EN.txt	ELM	Trees	6	10	[0, 0, 0]	n/a	catFR1	3	R1617S
1393.398	0.8	1727454	WORD_OFF	n/a	n/a	ELM	Trees	6	10	[0, 0, 0]	n/a	catFR1	3	R1617S
1394.198	1.6	1728249	WORD	n/a	wordpools/wordpool_categorized_EN.txt	APPLE	Fruit	7	10	[0, 0, 0]	n/a	catFR1	3	R1617S
1395.815	0.8	1729870	WORD_OFF	n/a	n/a	APPLE	Fruit	7	10	[0, 0, 0]	n/a	catFR1	3	R1617S
1396.615	1.6	1730665	WORD	n/a	wordpools/wordpool_categorized_EN.txt	BANANA	Fruit	8	10	[0, 0, 0]	n/a	catFR1	3	R1617S
1398.232	0.883	1732286	WORD_OFF	n/a	n/a	BANANA	Fruit	8	10	[0, 0, 0]	n/a	catFR1	3	R1617S
1399.115	1.6	1733170	WORD	n/a	wordpools/wordpool_categorized_EN.txt	BROCCOLI	Vegetables	9	10	[0, 0, 0]	n/a	catFR1	3	R1617S
1400.715	1.0	1734771	WORD_OFF	n/a	n/a	BROCCOLI	Vegetables	9	10	[0, 0, 0]	n/a	catFR1	3	R1617S
1401.715	1.6	1735763	WORD	n/a	wordpools/wordpool_categorized_EN.txt	CELERY	Vegetables	10	10	[0, 0, 0]	n/a	catFR1	3	R1617S
1403.315	0.897	1737364	WORD_OFF	n/a	n/a	CELERY	Vegetables	10	10	[0, 0, 0]	n/a	catFR1	3	R1617S
1404.212	1.6	1738267	WORD	n/a	wordpools/wordpool_categorized_EN.txt	SPRUCE	Trees	11	10	[0, 0, 0]	n/a	catFR1	3	R1617S
1405.815	0.8	1739868	WORD_OFF	n/a	n/a	SPRUCE	Trees	11	10	[0, 0, 0]	n/a	catFR1	3	R1617S
1406.615	1.6	1740664	WORD	n/a	wordpools/wordpool_categorized_EN.txt	BIRCH	Trees	12	10	[0, 0, 0]	n/a	catFR1	3	R1617S
1408.215	0.001	1742263	PROB	15.148	n/a	n/a	n/a	-999	10	[7, 4, 7]	18.0	catFR1	3	R1617S
1408.216	0.0	1742264	START	n/a	n/a	n/a	n/a	-999	10	[-999, -999, -999]	n/a	catFR1	3	R1617S
1408.215	0.001	1742265	WORD_OFF	n/a	n/a	BIRCH	Trees	12	10	[0, 0, 0]	n/a	catFR1	3	R1617S
1408.216	0.0	1742265	ENCODING_END	n/a	n/a	n/a	n/a	-999	10	[0, 0, 0]	n/a	catFR1	3	R1617S
1408.216	15.164	1742265	DISTRACT_START	n/a	n/a	n/a	n/a	-999	10	[0, 0, 0]	n/a	catFR1	3	R1617S
1423.38	5.718	1757427	PROB	5.701	n/a	n/a	n/a	-999	10	[2, 4, 6]	12.0	catFR1	3	R1617S
1429.098	0.0	1763145	STOP	n/a	n/a	n/a	n/a	-999	10	[-999, -999, -999]	n/a	catFR1	3	R1617S
1429.098	2.367	1763146	DISTRACT_END	n/a	n/a	n/a	n/a	-999	10	[0, 0, 0]	n/a	catFR1	3	R1617S
1431.465	0.21	1765511	REC_START	n/a	n/a	n/a	n/a	-999	10	[0, 0, 0]	n/a	catFR1	3	R1617S
1431.675	0.952	1765722	REC_WORD_VV	0.21	n/a	<>	n/a	-999	10	[0, 0, 0]	n/a	catFR1	3	R1617S
1432.627	2.163	1766674	REC_WORD	1.162	n/a	BIRCH	Trees	12	10	[0, 0, 0]	n/a	catFR1	3	R1617S
1434.79	2.595	1768837	REC_WORD	3.325	n/a	APPLE	Fruit	7	10	[0, 0, 0]	n/a	catFR1	3	R1617S
1437.385	4.164	1771432	REC_WORD_VV	5.92	n/a	<>	n/a	-999	10	[0, 0, 0]	n/a	catFR1	3	R1617S
1441.549	3.525	1775596	REC_WORD	10.084	n/a	BROCCOLI	Vegetables	9	10	[0, 0, 0]	n/a	catFR1	3	R1617S
1445.074	3.718	1779120	REC_WORD	13.609	n/a	CELERY	Vegetables	10	10	[0, 0, 0]	n/a	catFR1	3	R1617S
1448.792	5.566	1782838	REC_WORD_VV	17.327	n/a	<>	n/a	-999	10	[0, 0, 0]	n/a	catFR1	3	R1617S
1454.358	1.827	1788404	REC_WORD_VV	22.893	n/a	<>	n/a	-999	10	[0, 0, 0]	n/a	catFR1	3	R1617S
1456.185	2.552	1790231	REC_WORD	24.72	n/a	PLUM	Fruit	2	10	[0, 0, 0]	n/a	catFR1	3	R1617S
1458.737	1.912	1792783	REC_WORD_VV	27.272	n/a	<>	n/a	-999	10	[0, 0, 0]	n/a	catFR1	3	R1617S
1460.649	1.032	1794695	REC_WORD_VV	29.184	n/a	<>	n/a	-999	10	[0, 0, 0]	n/a	catFR1	3	R1617S
1461.681	37.784	1795725	REC_END	n/a	n/a	n/a	n/a	-999	10	[0, 0, 0]	n/a	catFR1	3	R1617S
1499.465	10.0	1833509	COUNTDOWN_START	n/a	n/a	n/a	n/a	-999	11	[0, 0, 0]	n/a	catFR1	3	R1617S
1509.815	0.0	1843861	COUNTDOWN_END	n/a	n/a	n/a	n/a	-999	11	[0, 0, 0]	n/a	catFR1	3	R1617S
1509.815	2.25	1843861	ENCODING_START	n/a	n/a	n/a	n/a	-999	11	[0, 0, 0]	n/a	catFR1	3	R1617S
1512.065	1.6	1846110	WORD	n/a	wordpools/wordpool_categorized_EN.txt	MILK	Beverages	1	11	[0, 0, 0]	n/a	catFR1	3	R1617S
1513.682	0.799	1847731	WORD_OFF	n/a	n/a	MILK	Beverages	1	11	[0, 0, 0]	n/a	catFR1	3	R1617S
1514.481	1.6	1848527	WORD	n/a	wordpools/wordpool_categorized_EN.txt	SODA	Beverages	2	11	[0, 0, 0]	n/a	catFR1	3	R1617S
1516.081	0.867	1850128	WORD_OFF	n/a	n/a	SODA	Beverages	2	11	[0, 0, 0]	n/a	catFR1	3	R1617S
1516.948	1.6	1850992	WORD	n/a	wordpools/wordpool_categorized_EN.txt	DAFFODIL	Flowers	3	11	[0, 0, 0]	n/a	catFR1	3	R1617S
1518.548	0.967	1852593	WORD_OFF	n/a	n/a	DAFFODIL	Flowers	3	11	[0, 0, 0]	n/a	catFR1	3	R1617S
1519.515	1.6	1853555	WORD	n/a	wordpools/wordpool_categorized_EN.txt	ORCHID	Flowers	4	11	[0, 0, 0]	n/a	catFR1	3	R1617S
1521.131	0.967	1855176	WORD_OFF	n/a	n/a	ORCHID	Flowers	4	11	[0, 0, 0]	n/a	catFR1	3	R1617S
1522.098	1.6	1856138	WORD	n/a	wordpools/wordpool_categorized_EN.txt	LEG	BodyParts	5	11	[0, 0, 0]	n/a	catFR1	3	R1617S
1523.698	0.85	1857739	WORD_OFF	n/a	n/a	LEG	BodyParts	5	11	[0, 0, 0]	n/a	catFR1	3	R1617S
1524.548	1.6	1858594	WORD	n/a	wordpools/wordpool_categorized_EN.txt	EYE	BodyParts	6	11	[0, 0, 0]	n/a	catFR1	3	R1617S
1526.148	0.85	1860195	WORD_OFF	n/a	n/a	EYE	BodyParts	6	11	[0, 0, 0]	n/a	catFR1	3	R1617S
1526.998	1.6	1861040	WORD	n/a	wordpools/wordpool_categorized_EN.txt	LILAC	Flowers	7	11	[0, 0, 0]	n/a	catFR1	3	R1617S
1528.598	0.767	1862640	WORD_OFF	n/a	n/a	LILAC	Flowers	7	11	[0, 0, 0]	n/a	catFR1	3	R1617S
1529.365	1.6	1863407	WORD	n/a	wordpools/wordpool_categorized_EN.txt	DAISY	Flowers	8	11	[0, 0, 0]	n/a	catFR1	3	R1617S
1530.982	0.899	1865027	WORD_OFF	n/a	n/a	DAISY	Flowers	8	11	[0, 0, 0]	n/a	catFR1	3	R1617S
1531.881	1.6	1865921	WORD	n/a	wordpools/wordpool_categorized_EN.txt	NOSE	BodyParts	9	11	[0, 0, 0]	n/a	catFR1	3	R1617S
1533.498	0.95	1867542	WORD_OFF	n/a	n/a	NOSE	BodyParts	9	11	[0, 0, 0]	n/a	catFR1	3	R1617S
1534.448	1.6	1868494	WORD	n/a	wordpools/wordpool_categorized_EN.txt	TOE	BodyParts	10	11	[0, 0, 0]	n/a	catFR1	3	R1617S
1536.048	0.8	1870095	WORD_OFF	n/a	n/a	TOE	BodyParts	10	11	[0, 0, 0]	n/a	catFR1	3	R1617S
1536.848	1.6	1870891	WORD	n/a	wordpools/wordpool_categorized_EN.txt	RUM	Beverages	11	11	[0, 0, 0]	n/a	catFR1	3	R1617S
1538.465	0.817	1872511	WORD_OFF	n/a	n/a	RUM	Beverages	11	11	[0, 0, 0]	n/a	catFR1	3	R1617S
1539.282	1.6	1873327	WORD	n/a	wordpools/wordpool_categorized_EN.txt	BEER	Beverages	12	11	[0, 0, 0]	n/a	catFR1	3	R1617S
1540.898	0.003	1874940	PROB	8.15	n/a	n/a	n/a	-999	11	[3, 7, 7]	13.0	catFR1	3	R1617S
1540.901	0.0	1874943	START	n/a	n/a	n/a	n/a	-999	11	[-999, -999, -999]	n/a	catFR1	3	R1617S
1540.898	0.003	1874947	WORD_OFF	n/a	n/a	BEER	Beverages	12	11	[0, 0, 0]	n/a	catFR1	3	R1617S
1540.901	0.0	1874947	ENCODING_END	n/a	n/a	n/a	n/a	-999	11	[0, 0, 0]	n/a	catFR1	3	R1617S
1540.901	8.165	1874947	DISTRACT_START	n/a	n/a	n/a	n/a	-999	11	[0, 0, 0]	n/a	catFR1	3	R1617S
1549.066	9.717	1883107	PROB	9.7	n/a	n/a	n/a	-999	11	[2, 5, 3]	10.0	catFR1	3	R1617S
1558.783	7.065	1892824	PROB	7.049	n/a	n/a	n/a	-999	11	[4, 4, 2]	10.0	catFR1	3	R1617S
1565.848	0.0	1899889	STOP	n/a	n/a	n/a	n/a	-999	11	[-999, -999, -999]	n/a	catFR1	3	R1617S
1565.848	2.167	1899894	DISTRACT_END	n/a	n/a	n/a	n/a	-999	11	[0, 0, 0]	n/a	catFR1	3	R1617S
1568.015	1.925	1902053	REC_START	n/a	n/a	n/a	n/a	-999	11	[0, 0, 0]	n/a	catFR1	3	R1617S
1569.94	2.414	1903980	REC_WORD	1.925	n/a	DAFFODIL	Flowers	3	11	[0, 0, 0]	n/a	catFR1	3	R1617S
1572.354	1.875	1906394	REC_WORD	4.339	n/a	NOISY	n/a	-999	11	[0, 0, 0]	n/a	catFR1	3	R1617S
1574.229	3.026	1908269	REC_WORD	6.214	n/a	LILAC	Flowers	7	11	[0, 0, 0]	n/a	catFR1	3	R1617S
1577.255	2.096	1911295	REC_WORD	9.24	n/a	BEER	Beverages	12	11	[0, 0, 0]	n/a	catFR1	3	R1617S
1579.351	6.291	1913391	REC_WORD	11.336	n/a	TOE	BodyParts	10	11	[0, 0, 0]	n/a	catFR1	3	R1617S
1585.642	10.747	1919682	REC_WORD_VV	17.627	n/a	<>	n/a	-999	11	[0, 0, 0]	n/a	catFR1	3	R1617S
1596.389	1.875	1930428	REC_WORD_VV	28.374	n/a	<>	n/a	-999	11	[0, 0, 0]	n/a	catFR1	3	R1617S
1598.264	35.284	1932306	REC_END	n/a	n/a	n/a	n/a	-999	11	[0, 0, 0]	n/a	catFR1	3	R1617S
1633.548	10.0	1967586	COUNTDOWN_START	n/a	n/a	n/a	n/a	-999	12	[0, 0, 0]	n/a	catFR1	3	R1617S
1643.897	0.0	1977938	COUNTDOWN_END	n/a	n/a	n/a	n/a	-999	12	[0, 0, 0]	n/a	catFR1	3	R1617S
1643.897	1.968	1977938	ENCODING_START	n/a	n/a	n/a	n/a	-999	12	[0, 0, 0]	n/a	catFR1	3	R1617S
1645.865	1.6	1979903	WORD	n/a	wordpools/wordpool_categorized_EN.txt	EAR	BodyParts	1	12	[0, 0, 0]	n/a	catFR1	3	R1617S
1647.465	0.966	1981504	WORD_OFF	n/a	n/a	EAR	BodyParts	1	12	[0, 0, 0]	n/a	catFR1	3	R1617S
1648.431	1.6	1982466	WORD	n/a	wordpools/wordpool_categorized_EN.txt	ELBOW	BodyParts	2	12	[0, 0, 0]	n/a	catFR1	3	R1617S
1650.032	0.999	1984067	WORD_OFF	n/a	n/a	ELBOW	BodyParts	2	12	[0, 0, 0]	n/a	catFR1	3	R1617S
1651.031	1.6	1985069	WORD	n/a	wordpools/wordpool_categorized_EN.txt	THUNDERSTORM	Weather	3	12	[0, 0, 0]	n/a	catFR1	3	R1617S
1652.632	0.866	1986670	WORD_OFF	n/a	n/a	THUNDERSTORM	Weather	3	12	[0, 0, 0]	n/a	catFR1	3	R1617S
1653.498	1.6	1987534	WORD	n/a	wordpools/wordpool_categorized_EN.txt	FOG	Weather	4	12	[0, 0, 0]	n/a	catFR1	3	R1617S
1655.113	0.985	1989155	WORD_OFF	n/a	n/a	FOG	Weather	4	12	[0, 0, 0]	n/a	catFR1	3	R1617S
1656.098	1.6	1990137	WORD	n/a	wordpools/wordpool_categorized_EN.txt	SPINACH	Vegetables	5	12	[0, 0, 0]	n/a	catFR1	3	R1617S
1657.698	1.0	1991738	WORD_OFF	n/a	n/a	SPINACH	Vegetables	5	12	[0, 0, 0]	n/a	catFR1	3	R1617S
1658.698	1.6	1992740	WORD	n/a	wordpools/wordpool_categorized_EN.txt	LETTUCE	Vegetables	6	12	[0, 0, 0]	n/a	catFR1	3	R1617S
1660.298	0.884	1994341	WORD_OFF	n/a	n/a	LETTUCE	Vegetables	6	12	[0, 0, 0]	n/a	catFR1	3	R1617S
1661.182	1.6	1995225	WORD	n/a	wordpools/wordpool_categorized_EN.txt	KNEE	BodyParts	7	12	[0, 0, 0]	n/a	catFR1	3	R1617S
1662.782	0.966	1996816	WORD_OFF	n/a	n/a	KNEE	BodyParts	7	12	[0, 0, 0]	n/a	catFR1	3	R1617S
1663.748	1.6	1997788	WORD	n/a	wordpools/wordpool_categorized_EN.txt	HEAD	BodyParts	8	12	[0, 0, 0]	n/a	catFR1	3	R1617S
1665.349	0.833	1999389	WORD_OFF	n/a	n/a	HEAD	BodyParts	8	12	[0, 0, 0]	n/a	catFR1	3	R1617S
1666.182	1.6	2000224	WORD	n/a	wordpools/wordpool_categorized_EN.txt	POTATO	Vegetables	9	12	[0, 0, 0]	n/a	catFR1	3	R1617S
1667.798	0.984	2001835	WORD_OFF	n/a	n/a	POTATO	Vegetables	9	12	[0, 0, 0]	n/a	catFR1	3	R1617S
1668.782	1.6	2002817	WORD	n/a	wordpools/wordpool_categorized_EN.txt	CORN	Vegetables	10	12	[0, 0, 0]	n/a	catFR1	3	R1617S
1670.382	0.933	2004418	WORD_OFF	n/a	n/a	CORN	Vegetables	10	12	[0, 0, 0]	n/a	catFR1	3	R1617S
1671.315	1.6	2005351	WORD	n/a	wordpools/wordpool_categorized_EN.txt	SNOW	Weather	11	12	[0, 0, 0]	n/a	catFR1	3	R1617S
1672.914	0.784	2006952	WORD_OFF	n/a	n/a	SNOW	Weather	11	12	[0, 0, 0]	n/a	catFR1	3	R1617S
1673.698	1.6	2007738	WORD	n/a	wordpools/wordpool_categorized_EN.txt	HUMIDITY	Weather	12	12	[0, 0, 0]	n/a	catFR1	3	R1617S
1675.315	0.001	2009348	WORD_OFF	n/a	n/a	HUMIDITY	Weather	12	12	[0, 0, 0]	n/a	catFR1	3	R1617S
1675.316	0.003	2009351	PROB	6.449	n/a	n/a	n/a	-999	12	[3, 2, 5]	10.0	catFR1	3	R1617S
1675.319	0.0	2009354	START	n/a	n/a	n/a	n/a	-999	12	[-999, -999, -999]	n/a	catFR1	3	R1617S
1675.319	0.0	2009358	ENCODING_END	n/a	n/a	n/a	n/a	-999	12	[0, 0, 0]	n/a	catFR1	3	R1617S
1675.319	6.463	2009358	DISTRACT_START	n/a	n/a	n/a	n/a	-999	12	[0, 0, 0]	n/a	catFR1	3	R1617S
1681.782	10.116	2015817	PROB	10.099	n/a	n/a	n/a	-999	12	[4, 7, 4]	15.0	catFR1	3	R1617S
1691.898	6.684	2025933	PROB	6.666	n/a	n/a	n/a	-999	12	[3, 1, 7]	11.0	catFR1	3	R1617S
1698.582	0.0	2032616	DISTRACT_END	n/a	n/a	n/a	n/a	-999	12	[0, 0, 0]	n/a	catFR1	3	R1617S
1698.582	2.166	2032616	STOP	n/a	n/a	n/a	n/a	-999	12	[-999, -999, -999]	n/a	catFR1	3	R1617S
1700.748	1.612	2034785	REC_START	n/a	n/a	n/a	n/a	-999	12	[0, 0, 0]	n/a	catFR1	3	R1617S
1702.36	1.445	2036394	REC_WORD_VV	1.612	n/a	<>	n/a	-999	12	[0, 0, 0]	n/a	catFR1	3	R1617S
1703.805	1.099	2037839	REC_WORD_VV	3.057	n/a	<>	n/a	-999	12	[0, 0, 0]	n/a	catFR1	3	R1617S
1704.904	2.692	2038938	REC_WORD_VV	4.156	n/a	<>	n/a	-999	12	[0, 0, 0]	n/a	catFR1	3	R1617S
1707.596	1.197	2041630	REC_WORD_VV	6.848	n/a	<>	n/a	-999	12	[0, 0, 0]	n/a	catFR1	3	R1617S
1708.793	1.95	2042827	REC_WORD_VV	8.045	n/a	<>	n/a	-999	12	[0, 0, 0]	n/a	catFR1	3	R1617S
1710.743	10.66	2044777	REC_WORD_VV	9.995	n/a	<>	n/a	-999	12	[0, 0, 0]	n/a	catFR1	3	R1617S
1721.403	2.219	2055436	REC_WORD_VV	20.655	n/a	<>	n/a	-999	12	[0, 0, 0]	n/a	catFR1	3	R1617S
1723.622	6.085	2057655	REC_WORD_VV	22.874	n/a	<>	n/a	-999	12	[0, 0, 0]	n/a	catFR1	3	R1617S
1729.707	1.277	2063740	REC_WORD_VV	28.959	n/a	<>	n/a	-999	12	[0, 0, 0]	n/a	catFR1	3	R1617S
1730.984	0.0	2065018	REC_END	n/a	n/a	n/a	n/a	-999	12	[0, 0, 0]	n/a	catFR1	3	R1617S
