onset	duration	sample	trial_type	response_time	stim_file	item_name	category	serialpos	list	test	answer	experiment	session	subject
0.0	0.0	6538	INSTRUCT_START	n/a	n/a	n/a	n/a	-999	-999	[0, 0, 0]	n/a	catFR1	0	R1229M
0.0	11.264	6538	INSTRUCT_END	n/a	n/a	n/a	n/a	-999	-999	[0, 0, 0]	n/a	catFR1	0	R1229M
11.264	0.0	17801	SESS_START	n/a	n/a	n/a	n/a	-999	-999	[0, 0, 0]	n/a	catFR1	0	R1229M
11.264	221.067	17801	MIC_TEST	n/a	n/a	n/a	n/a	-999	-999	[0, 0, 0]	n/a	catFR1	0	R1229M
232.331	42.306	238856	PRACTICE_TRIAL	n/a	n/a	n/a	n/a	-999	-1	[0, 0, 0]	n/a	catFR1	0	R1229M
274.637	10.428	281159	COUNTDOWN_START	n/a	n/a	n/a	n/a	-999	-1	[0, 0, 0]	n/a	catFR1	0	R1229M
285.065	0.007	291587	COUNTDOWN_END	n/a	n/a	n/a	n/a	-999	-1	[0, 0, 0]	n/a	catFR1	0	R1229M
285.072	1.617	291594	PRACTICE_ORIENT	n/a	n/a	n/a	n/a	-999	-1	[0, 0, 0]	n/a	catFR1	0	R1229M
286.689	1.967	293211	PRACTICE_ORIENT_OFF	n/a	n/a	n/a	n/a	-999	-1	[0, 0, 0]	n/a	catFR1	0	R1229M
288.656	1.616	295178	PRACTICE_WORD	n/a	n/a	FLOOD	n/a	-1	-1	[0, 0, 0]	n/a	catFR1	0	R1229M
290.272	0.835	296794	PRACTICE_WORD_OFF	n/a	n/a	FLOOD	n/a	-999	-1	[0, 0, 0]	n/a	catFR1	0	R1229M
291.107	1.617	297629	PRACTICE_WORD	n/a	n/a	COTTON	n/a	-1	-1	[0, 0, 0]	n/a	catFR1	0	R1229M
292.724	0.799	299245	PRACTICE_WORD_OFF	n/a	n/a	COTTON	n/a	-999	-1	[0, 0, 0]	n/a	catFR1	0	R1229M
293.523	1.618	300044	PRACTICE_WORD	n/a	n/a	RHINO	n/a	-1	-1	[0, 0, 0]	n/a	catFR1	0	R1229M
295.141	0.933	301662	PRACTICE_WORD_OFF	n/a	n/a	RHINO	n/a	-999	-1	[0, 0, 0]	n/a	catFR1	0	R1229M
296.074	1.617	302595	PRACTICE_WORD	n/a	n/a	ATTIC	n/a	-1	-1	[0, 0, 0]	n/a	catFR1	0	R1229M
297.691	0.8	304212	PRACTICE_WORD_OFF	n/a	n/a	ATTIC	n/a	-999	-1	[0, 0, 0]	n/a	catFR1	0	R1229M
298.491	1.617	305012	PRACTICE_WORD	n/a	n/a	IRON	n/a	-1	-1	[0, 0, 0]	n/a	catFR1	0	R1229M
300.108	0.934	306629	PRACTICE_WORD_OFF	n/a	n/a	IRON	n/a	-999	-1	[0, 0, 0]	n/a	catFR1	0	R1229M
301.042	1.617	307563	PRACTICE_WORD	n/a	n/a	CAMEL	n/a	-1	-1	[0, 0, 0]	n/a	catFR1	0	R1229M
302.659	0.782	309180	PRACTICE_WORD_OFF	n/a	n/a	CAMEL	n/a	-999	-1	[0, 0, 0]	n/a	catFR1	0	R1229M
303.441	1.618	309962	PRACTICE_WORD	n/a	n/a	RING	n/a	-1	-1	[0, 0, 0]	n/a	catFR1	0	R1229M
305.059	0.901	311580	PRACTICE_WORD_OFF	n/a	n/a	RING	n/a	-999	-1	[0, 0, 0]	n/a	catFR1	0	R1229M
305.96	1.616	312481	PRACTICE_WORD	n/a	n/a	BEAM	n/a	-1	-1	[0, 0, 0]	n/a	catFR1	0	R1229M
307.576	0.933	314097	PRACTICE_WORD_OFF	n/a	n/a	BEAM	n/a	-999	-1	[0, 0, 0]	n/a	catFR1	0	R1229M
308.509	1.601	315030	PRACTICE_WORD	n/a	n/a	WAGON	n/a	-1	-1	[0, 0, 0]	n/a	catFR1	0	R1229M
310.11	0.984	316630	PRACTICE_WORD_OFF	n/a	n/a	WAGON	n/a	-999	-1	[0, 0, 0]	n/a	catFR1	0	R1229M
311.094	1.617	317614	PRACTICE_WORD	n/a	n/a	CHEST	n/a	-1	-1	[0, 0, 0]	n/a	catFR1	0	R1229M
312.711	0.883	319231	PRACTICE_WORD_OFF	n/a	n/a	CHEST	n/a	-999	-1	[0, 0, 0]	n/a	catFR1	0	R1229M
313.594	1.616	320114	PRACTICE_WORD	n/a	n/a	TONGUE	n/a	-1	-1	[0, 0, 0]	n/a	catFR1	0	R1229M
315.21	1.001	321730	PRACTICE_WORD_OFF	n/a	n/a	TONGUE	n/a	-999	-1	[0, 0, 0]	n/a	catFR1	0	R1229M
316.211	1.618	322731	PRACTICE_WORD	n/a	n/a	WATCH	n/a	-1	-1	[0, 0, 0]	n/a	catFR1	0	R1229M
317.829	0.0	324349	PRACTICE_WORD_OFF	n/a	n/a	WATCH	n/a	-999	-1	[0, 0, 0]	n/a	catFR1	0	R1229M
317.829	0.0	324349	DISTRACT_START	n/a	n/a	n/a	n/a	-999	-1	[0, 0, 0]	n/a	catFR1	0	R1229M
317.829	0.0	324349	ENCODING_END	n/a	n/a	n/a	n/a	-999	-1	[0, 0, 0]	n/a	catFR1	0	R1229M
317.829	0.016	324349	START	n/a	n/a	n/a	n/a	-999	-1	[-999, -999, -999]	n/a	catFR1	0	R1229M
317.845	18.67	324365	PROB	18.633	n/a	n/a	n/a	-999	-1	[2, 7, 4]	13.0	catFR1	0	R1229M
336.515	31.843	343034	PROB	31.843	n/a	n/a	n/a	-999	-1	[9, 9, 8]	26.0	catFR1	0	R1229M
368.358	0.013	374875	STOP	n/a	n/a	n/a	n/a	-999	-1	[-999, -999, -999]	n/a	catFR1	0	R1229M
368.371	0.584	374888	DISTRACT_END	n/a	n/a	n/a	n/a	-999	-1	[0, 0, 0]	n/a	catFR1	0	R1229M
368.955	0.52	375472	RETRIEVAL_ORIENT	n/a	n/a	n/a	n/a	-999	-1	[0, 0, 0]	n/a	catFR1	0	R1229M
369.475	30.009	375992	PRACTICE_REC_START	n/a	n/a	n/a	n/a	-999	-1	[0, 0, 0]	n/a	catFR1	0	R1229M
399.484	50.919	405999	PRACTICE_REC_END	n/a	n/a	n/a	n/a	-999	-1	[0, 0, 0]	n/a	catFR1	0	R1229M
450.403	0.5	456916	TRIAL	n/a	n/a	n/a	n/a	-999	1	[0, 0, 0]	n/a	catFR1	0	R1229M
450.903	10.428	457415	COUNTDOWN_START	n/a	n/a	n/a	n/a	-999	1	[0, 0, 0]	n/a	catFR1	0	R1229M
461.331	0.008	467843	COUNTDOWN_END	n/a	n/a	n/a	n/a	-999	1	[0, 0, 0]	n/a	catFR1	0	R1229M
461.339	1.618	467851	ORIENT	n/a	n/a	n/a	n/a	-999	1	[0, 0, 0]	n/a	catFR1	0	R1229M
462.957	1.817	469469	ORIENT_OFF	n/a	n/a	n/a	n/a	-999	1	[0, 0, 0]	n/a	catFR1	0	R1229M
464.774	1.616	471286	WORD	n/a	wordpools/wordpool_categorized_EN.txt	TONGS	KitchenTools	1	1	[0, 0, 0]	n/a	catFR1	0	R1229M
466.39	0.933	472902	WORD_OFF	n/a	n/a	TONGS	n/a	1	1	[0, 0, 0]	n/a	catFR1	0	R1229M
467.323	1.601	473835	WORD	n/a	wordpools/wordpool_categorized_EN.txt	KNIFE	KitchenTools	2	1	[0, 0, 0]	n/a	catFR1	0	R1229M
468.924	0.951	475435	WORD_OFF	n/a	n/a	KNIFE	n/a	2	1	[0, 0, 0]	n/a	catFR1	0	R1229M
469.875	1.616	476386	WORD	n/a	wordpools/wordpool_categorized_EN.txt	MOPED	Vehicles	3	1	[0, 0, 0]	n/a	catFR1	0	R1229M
471.491	0.933	478002	WORD_OFF	n/a	n/a	MOPED	n/a	3	1	[0, 0, 0]	n/a	catFR1	0	R1229M
472.424	1.618	478935	WORD	n/a	wordpools/wordpool_categorized_EN.txt	BUS	Vehicles	4	1	[0, 0, 0]	n/a	catFR1	0	R1229M
474.042	0.984	480553	WORD_OFF	n/a	n/a	BUS	n/a	4	1	[0, 0, 0]	n/a	catFR1	0	R1229M
475.026	1.617	481537	WORD	n/a	wordpools/wordpool_categorized_EN.txt	LIGHTNING	Weather	5	1	[0, 0, 0]	n/a	catFR1	0	R1229M
476.643	0.916	483154	WORD_OFF	n/a	n/a	LIGHTNING	n/a	5	1	[0, 0, 0]	n/a	catFR1	0	R1229M
477.559	1.617	484070	WORD	n/a	wordpools/wordpool_categorized_EN.txt	FOG	Weather	6	1	[0, 0, 0]	n/a	catFR1	0	R1229M
479.176	0.817	485687	WORD_OFF	n/a	n/a	FOG	n/a	6	1	[0, 0, 0]	n/a	catFR1	0	R1229M
479.993	1.617	486504	WORD	n/a	wordpools/wordpool_categorized_EN.txt	WHISK	KitchenTools	7	1	[0, 0, 0]	n/a	catFR1	0	R1229M
481.61	0.95	488121	WORD_OFF	n/a	n/a	WHISK	n/a	7	1	[0, 0, 0]	n/a	catFR1	0	R1229M
482.56	1.617	489071	WORD	n/a	wordpools/wordpool_categorized_EN.txt	CORKSCREW	KitchenTools	8	1	[0, 0, 0]	n/a	catFR1	0	R1229M
484.177	0.967	490688	WORD_OFF	n/a	n/a	CORKSCREW	n/a	8	1	[0, 0, 0]	n/a	catFR1	0	R1229M
485.144	1.617	491655	WORD	n/a	wordpools/wordpool_categorized_EN.txt	JEEP	Vehicles	9	1	[0, 0, 0]	n/a	catFR1	0	R1229M
486.761	0.783	493271	WORD_OFF	n/a	n/a	JEEP	n/a	9	1	[0, 0, 0]	n/a	catFR1	0	R1229M
487.544	1.618	494054	WORD	n/a	wordpools/wordpool_categorized_EN.txt	TRAIN	Vehicles	10	1	[0, 0, 0]	n/a	catFR1	0	R1229M
489.162	0.867	495672	WORD_OFF	n/a	n/a	TRAIN	n/a	10	1	[0, 0, 0]	n/a	catFR1	0	R1229M
490.029	1.617	496539	WORD	n/a	wordpools/wordpool_categorized_EN.txt	HUMIDITY	Weather	11	1	[0, 0, 0]	n/a	catFR1	0	R1229M
491.646	0.832	498156	WORD_OFF	n/a	n/a	HUMIDITY	n/a	11	1	[0, 0, 0]	n/a	catFR1	0	R1229M
492.478	1.618	498988	WORD	n/a	wordpools/wordpool_categorized_EN.txt	TORNADO	Weather	12	1	[0, 0, 0]	n/a	catFR1	0	R1229M
494.096	0.0	500606	ENCODING_END	n/a	n/a	n/a	n/a	-999	1	[0, 0, 0]	n/a	catFR1	0	R1229M
494.096	0.135	500606	WORD_OFF	n/a	n/a	TORNADO	n/a	12	1	[0, 0, 0]	n/a	catFR1	0	R1229M
494.231	0.0	500741	DISTRACT_START	n/a	n/a	n/a	n/a	-999	1	[0, 0, 0]	n/a	catFR1	0	R1229M
494.231	0.014	500741	START	n/a	n/a	n/a	n/a	-999	1	[-999, -999, -999]	n/a	catFR1	0	R1229M
494.245	9.62	500755	PROB	9.587	n/a	n/a	n/a	-999	1	[8, 3, 9]	20.0	catFR1	0	R1229M
503.865	12.237	510374	PROB	12.237	n/a	n/a	n/a	-999	1	[8, 6, 1]	15.0	catFR1	0	R1229M
516.102	0.015	522611	STOP	n/a	n/a	n/a	n/a	-999	1	[-999, -999, -999]	n/a	catFR1	0	R1229M
516.117	0.65	522626	DISTRACT_END	n/a	n/a	n/a	n/a	-999	1	[0, 0, 0]	n/a	catFR1	0	R1229M
516.767	0.517	523276	RETRIEVAL_ORIENT	n/a	n/a	n/a	n/a	-999	1	[0, 0, 0]	n/a	catFR1	0	R1229M
517.284	2.731	523793	REC_START	n/a	n/a	n/a	n/a	-999	1	[0, 0, 0]	n/a	catFR1	0	R1229M
520.015	0.961	526524	REC_WORD	2.731	n/a	TONGS	KitchenTools	1	1	[0, 0, 0]	n/a	catFR1	0	R1229M
520.976	1.01	527485	REC_WORD	3.692	n/a	LIGHTNING	Weather	5	1	[0, 0, 0]	n/a	catFR1	0	R1229M
521.986	1.158	528494	REC_WORD	4.702	n/a	HUMIDITY	Weather	11	1	[0, 0, 0]	n/a	catFR1	0	R1229M
523.144	4.596	529652	REC_WORD	5.86	n/a	TORNADO	Weather	12	1	[0, 0, 0]	n/a	catFR1	0	R1229M
527.74	1.69	534248	REC_WORD	10.456	n/a	MOPED	Vehicles	3	1	[0, 0, 0]	n/a	catFR1	0	R1229M
529.43	1.496	535938	REC_WORD	12.146	n/a	TRAIN	Vehicles	10	1	[0, 0, 0]	n/a	catFR1	0	R1229M
530.926	4.828	537434	REC_WORD	13.642	n/a	BUS	Vehicles	4	1	[0, 0, 0]	n/a	catFR1	0	R1229M
535.754	11.54	542262	REC_WORD	18.47	n/a	WHISK	KitchenTools	7	1	[0, 0, 0]	n/a	catFR1	0	R1229M
547.294	14.732	553801	REC_END	n/a	n/a	n/a	n/a	-999	1	[0, 0, 0]	n/a	catFR1	0	R1229M
562.026	0.5	568532	TRIAL	n/a	n/a	n/a	n/a	-999	2	[0, 0, 0]	n/a	catFR1	0	R1229M
562.526	10.428	569032	COUNTDOWN_START	n/a	n/a	n/a	n/a	-999	2	[0, 0, 0]	n/a	catFR1	0	R1229M
572.954	0.007	579460	COUNTDOWN_END	n/a	n/a	n/a	n/a	-999	2	[0, 0, 0]	n/a	catFR1	0	R1229M
572.961	1.616	579467	ORIENT	n/a	n/a	n/a	n/a	-999	2	[0, 0, 0]	n/a	catFR1	0	R1229M
574.577	1.951	581082	ORIENT_OFF	n/a	n/a	n/a	n/a	-999	2	[0, 0, 0]	n/a	catFR1	0	R1229M
576.528	1.618	583033	WORD	n/a	wordpools/wordpool_categorized_EN.txt	DESK	Furniture	1	2	[0, 0, 0]	n/a	catFR1	0	R1229M
578.146	0.8	584651	WORD_OFF	n/a	n/a	DESK	n/a	1	2	[0, 0, 0]	n/a	catFR1	0	R1229M
578.946	1.616	585451	WORD	n/a	wordpools/wordpool_categorized_EN.txt	SHELF	Furniture	2	2	[0, 0, 0]	n/a	catFR1	0	R1229M
580.562	0.967	587067	WORD_OFF	n/a	n/a	SHELF	n/a	2	2	[0, 0, 0]	n/a	catFR1	0	R1229M
581.529	1.618	588034	WORD	n/a	wordpools/wordpool_categorized_EN.txt	LEVEL	Tools	3	2	[0, 0, 0]	n/a	catFR1	0	R1229M
583.147	0.85	589652	WORD_OFF	n/a	n/a	LEVEL	n/a	3	2	[0, 0, 0]	n/a	catFR1	0	R1229M
583.997	1.617	590502	WORD	n/a	wordpools/wordpool_categorized_EN.txt	PLIERS	Tools	4	2	[0, 0, 0]	n/a	catFR1	0	R1229M
585.614	0.799	592119	WORD_OFF	n/a	n/a	PLIERS	n/a	4	2	[0, 0, 0]	n/a	catFR1	0	R1229M
586.413	1.618	592918	WORD	n/a	wordpools/wordpool_categorized_EN.txt	CHEETAH	Zoo	5	2	[0, 0, 0]	n/a	catFR1	0	R1229M
588.031	0.784	594536	WORD_OFF	n/a	n/a	CHEETAH	n/a	5	2	[0, 0, 0]	n/a	catFR1	0	R1229M
588.815	1.616	595320	WORD	n/a	wordpools/wordpool_categorized_EN.txt	ELEPHANT	Zoo	6	2	[0, 0, 0]	n/a	catFR1	0	R1229M
590.431	0.833	596936	WORD_OFF	n/a	n/a	ELEPHANT	n/a	6	2	[0, 0, 0]	n/a	catFR1	0	R1229M
591.264	1.618	597769	WORD	n/a	wordpools/wordpool_categorized_EN.txt	CROWBAR	Tools	7	2	[0, 0, 0]	n/a	catFR1	0	R1229M
592.882	0.817	599386	WORD_OFF	n/a	n/a	CROWBAR	n/a	7	2	[0, 0, 0]	n/a	catFR1	0	R1229M
593.699	1.616	600203	WORD	n/a	wordpools/wordpool_categorized_EN.txt	SHOVEL	Tools	8	2	[0, 0, 0]	n/a	catFR1	0	R1229M
595.315	0.801	601819	WORD_OFF	n/a	n/a	SHOVEL	n/a	8	2	[0, 0, 0]	n/a	catFR1	0	R1229M
596.116	1.617	602620	WORD	n/a	wordpools/wordpool_categorized_EN.txt	BED	Furniture	9	2	[0, 0, 0]	n/a	catFR1	0	R1229M
597.733	0.983	604237	WORD_OFF	n/a	n/a	BED	n/a	9	2	[0, 0, 0]	n/a	catFR1	0	R1229M
598.716	1.616	605220	WORD	n/a	wordpools/wordpool_categorized_EN.txt	NIGHTSTAND	Furniture	10	2	[0, 0, 0]	n/a	catFR1	0	R1229M
600.332	0.802	606836	WORD_OFF	n/a	n/a	NIGHTSTAND	n/a	10	2	[0, 0, 0]	n/a	catFR1	0	R1229M
601.134	1.617	607638	WORD	n/a	wordpools/wordpool_categorized_EN.txt	TIGER	Zoo	11	2	[0, 0, 0]	n/a	catFR1	0	R1229M
602.751	0.916	609255	WORD_OFF	n/a	n/a	TIGER	n/a	11	2	[0, 0, 0]	n/a	catFR1	0	R1229M
603.667	1.616	610171	WORD	n/a	wordpools/wordpool_categorized_EN.txt	GIRAFFE	Zoo	12	2	[0, 0, 0]	n/a	catFR1	0	R1229M
605.283	0.001	611787	WORD_OFF	n/a	n/a	GIRAFFE	n/a	12	2	[0, 0, 0]	n/a	catFR1	0	R1229M
605.284	0.103	611788	ENCODING_END	n/a	n/a	n/a	n/a	-999	2	[0, 0, 0]	n/a	catFR1	0	R1229M
605.387	0.001	611891	DISTRACT_START	n/a	n/a	n/a	n/a	-999	2	[0, 0, 0]	n/a	catFR1	0	R1229M
605.388	0.012	611892	START	n/a	n/a	n/a	n/a	-999	2	[-999, -999, -999]	n/a	catFR1	0	R1229M
605.4	8.868	611904	PROB	8.831	n/a	n/a	n/a	-999	2	[9, 9, 4]	22.0	catFR1	0	R1229M
614.268	10.77	620771	PROB	10.748	n/a	n/a	n/a	-999	2	[7, 3, 9]	21.0	catFR1	0	R1229M
625.038	10.657	631541	PROB	10.657	n/a	n/a	n/a	-999	2	[7, 2, 8]	17.0	catFR1	0	R1229M
635.695	0.012	642197	STOP	n/a	n/a	n/a	n/a	-999	2	[-999, -999, -999]	n/a	catFR1	0	R1229M
635.707	0.716	642209	DISTRACT_END	n/a	n/a	n/a	n/a	-999	2	[0, 0, 0]	n/a	catFR1	0	R1229M
636.423	0.518	642925	RETRIEVAL_ORIENT	n/a	n/a	n/a	n/a	-999	2	[0, 0, 0]	n/a	catFR1	0	R1229M
636.941	1.954	643443	REC_START	n/a	n/a	n/a	n/a	-999	2	[0, 0, 0]	n/a	catFR1	0	R1229M
638.895	1.087	645397	REC_WORD_VV	1.954	n/a	<>	n/a	-999	2	[0, 0, 0]	n/a	catFR1	0	R1229M
639.982	0.619	646484	REC_WORD	3.041	n/a	PLIERS	Tools	4	2	[0, 0, 0]	n/a	catFR1	0	R1229M
640.601	4.729	647103	REC_WORD	3.66	n/a	CROWBAR	Tools	7	2	[0, 0, 0]	n/a	catFR1	0	R1229M
645.33	4.408	651831	REC_WORD	8.389	n/a	SHOVEL	Tools	8	2	[0, 0, 0]	n/a	catFR1	0	R1229M
649.738	1.041	656239	REC_WORD	12.797	n/a	ELEPHANT	Zoo	6	2	[0, 0, 0]	n/a	catFR1	0	R1229M
650.779	2.937	657280	REC_WORD	13.838	n/a	CHEETAH	Zoo	5	2	[0, 0, 0]	n/a	catFR1	0	R1229M
653.716	7.017	660217	REC_WORD	16.775	n/a	SHELF	Furniture	2	2	[0, 0, 0]	n/a	catFR1	0	R1229M
660.733	6.217	667234	REC_WORD	23.792	n/a	GIRAFFE	Zoo	12	2	[0, 0, 0]	n/a	catFR1	0	R1229M
666.95	35.787	673450	REC_END	n/a	n/a	n/a	n/a	-999	2	[0, 0, 0]	n/a	catFR1	0	R1229M
702.737	0.5	709235	TRIAL	n/a	n/a	n/a	n/a	-999	3	[0, 0, 0]	n/a	catFR1	0	R1229M
703.237	10.428	709735	COUNTDOWN_START	n/a	n/a	n/a	n/a	-999	3	[0, 0, 0]	n/a	catFR1	0	R1229M
713.665	0.007	720163	COUNTDOWN_END	n/a	n/a	n/a	n/a	-999	3	[0, 0, 0]	n/a	catFR1	0	R1229M
713.672	1.616	720170	ORIENT	n/a	n/a	n/a	n/a	-999	3	[0, 0, 0]	n/a	catFR1	0	R1229M
715.288	2.117	721786	ORIENT_OFF	n/a	n/a	n/a	n/a	-999	3	[0, 0, 0]	n/a	catFR1	0	R1229M
717.405	1.618	723902	WORD	n/a	wordpools/wordpool_categorized_EN.txt	DRUM	Instruments	1	3	[0, 0, 0]	n/a	catFR1	0	R1229M
719.023	0.834	725520	WORD_OFF	n/a	n/a	DRUM	n/a	1	3	[0, 0, 0]	n/a	catFR1	0	R1229M
719.857	1.616	726354	WORD	n/a	wordpools/wordpool_categorized_EN.txt	GUITAR	Instruments	2	3	[0, 0, 0]	n/a	catFR1	0	R1229M
721.473	0.933	727970	WORD_OFF	n/a	n/a	GUITAR	n/a	2	3	[0, 0, 0]	n/a	catFR1	0	R1229M
722.406	1.618	728903	WORD	n/a	wordpools/wordpool_categorized_EN.txt	RECLINER	Furniture	3	3	[0, 0, 0]	n/a	catFR1	0	R1229M
724.024	0.833	730521	WORD_OFF	n/a	n/a	RECLINER	n/a	3	3	[0, 0, 0]	n/a	catFR1	0	R1229M
724.857	1.617	731354	WORD	n/a	wordpools/wordpool_categorized_EN.txt	CABINET	Furniture	4	3	[0, 0, 0]	n/a	catFR1	0	R1229M
726.474	0.966	732971	WORD_OFF	n/a	n/a	CABINET	n/a	4	3	[0, 0, 0]	n/a	catFR1	0	R1229M
727.44	1.618	733937	WORD	n/a	wordpools/wordpool_categorized_EN.txt	SCANNER	Electronics	5	3	[0, 0, 0]	n/a	catFR1	0	R1229M
729.058	0.867	735555	WORD_OFF	n/a	n/a	SCANNER	n/a	5	3	[0, 0, 0]	n/a	catFR1	0	R1229M
729.925	1.616	736422	WORD	n/a	wordpools/wordpool_categorized_EN.txt	PHONE	Electronics	6	3	[0, 0, 0]	n/a	catFR1	0	R1229M
731.541	0.85	738038	WORD_OFF	n/a	n/a	PHONE	n/a	6	3	[0, 0, 0]	n/a	catFR1	0	R1229M
732.391	1.601	738888	WORD	n/a	wordpools/wordpool_categorized_EN.txt	TABLE	Furniture	7	3	[0, 0, 0]	n/a	catFR1	0	R1229M
733.992	0.801	740488	WORD_OFF	n/a	n/a	TABLE	n/a	7	3	[0, 0, 0]	n/a	catFR1	0	R1229M
734.793	1.616	741289	WORD	n/a	wordpools/wordpool_categorized_EN.txt	BOOKCASE	Furniture	8	3	[0, 0, 0]	n/a	catFR1	0	R1229M
736.409	0.867	742905	WORD_OFF	n/a	n/a	BOOKCASE	n/a	8	3	[0, 0, 0]	n/a	catFR1	0	R1229M
737.276	1.618	743772	WORD	n/a	wordpools/wordpool_categorized_EN.txt	BASS	Instruments	9	3	[0, 0, 0]	n/a	catFR1	0	R1229M
738.894	0.967	745390	WORD_OFF	n/a	n/a	BASS	n/a	9	3	[0, 0, 0]	n/a	catFR1	0	R1229M
739.861	1.616	746357	WORD	n/a	wordpools/wordpool_categorized_EN.txt	VIOLIN	Instruments	10	3	[0, 0, 0]	n/a	catFR1	0	R1229M
741.477	0.933	747973	WORD_OFF	n/a	n/a	VIOLIN	n/a	10	3	[0, 0, 0]	n/a	catFR1	0	R1229M
742.41	1.618	748906	WORD	n/a	wordpools/wordpool_categorized_EN.txt	PRINTER	Electronics	11	3	[0, 0, 0]	n/a	catFR1	0	R1229M
744.028	0.767	750524	WORD_OFF	n/a	n/a	PRINTER	n/a	11	3	[0, 0, 0]	n/a	catFR1	0	R1229M
744.795	1.616	751291	WORD	n/a	wordpools/wordpool_categorized_EN.txt	TELEVISION	Electronics	12	3	[0, 0, 0]	n/a	catFR1	0	R1229M
746.411	0.0	752907	ENCODING_END	n/a	n/a	n/a	n/a	-999	3	[0, 0, 0]	n/a	catFR1	0	R1229M
746.411	0.108	752907	WORD_OFF	n/a	n/a	TELEVISION	n/a	12	3	[0, 0, 0]	n/a	catFR1	0	R1229M
746.519	0.0	753015	DISTRACT_START	n/a	n/a	n/a	n/a	-999	3	[0, 0, 0]	n/a	catFR1	0	R1229M
746.519	0.008	753015	START	n/a	n/a	n/a	n/a	-999	3	[-999, -999, -999]	n/a	catFR1	0	R1229M
746.527	15.97	753023	PROB	15.934	n/a	n/a	n/a	-999	3	[3, 1, 5]	9.0	catFR1	0	R1229M
762.497	7.375	768992	PROB	7.375	n/a	n/a	n/a	-999	3	[6, 6, 4]	16.0	catFR1	0	R1229M
769.872	0.011	776366	STOP	n/a	n/a	n/a	n/a	-999	3	[-999, -999, -999]	n/a	catFR1	0	R1229M
769.883	0.549	776377	DISTRACT_END	n/a	n/a	n/a	n/a	-999	3	[0, 0, 0]	n/a	catFR1	0	R1229M
770.432	0.519	776926	RETRIEVAL_ORIENT	n/a	n/a	n/a	n/a	-999	3	[0, 0, 0]	n/a	catFR1	0	R1229M
770.951	2.089	777445	REC_START	n/a	n/a	n/a	n/a	-999	3	[0, 0, 0]	n/a	catFR1	0	R1229M
773.04	0.748	779534	REC_WORD	2.089	n/a	DRUM	Instruments	1	3	[0, 0, 0]	n/a	catFR1	0	R1229M
773.788	1.357	780282	REC_WORD	2.837	n/a	GUITAR	Instruments	2	3	[0, 0, 0]	n/a	catFR1	0	R1229M
775.145	3.979	781639	REC_WORD	4.194	n/a	VIOLIN	Instruments	10	3	[0, 0, 0]	n/a	catFR1	0	R1229M
779.124	1.096	785618	REC_WORD	8.173	n/a	CABINET	Furniture	4	3	[0, 0, 0]	n/a	catFR1	0	R1229M
780.22	20.74	786714	REC_WORD	9.269	n/a	SCANNER	Electronics	5	3	[0, 0, 0]	n/a	catFR1	0	R1229M
800.96	18.966	807453	REC_END	n/a	n/a	n/a	n/a	-999	3	[0, 0, 0]	n/a	catFR1	0	R1229M
819.926	0.5	826418	TRIAL	n/a	n/a	n/a	n/a	-999	4	[0, 0, 0]	n/a	catFR1	0	R1229M
820.426	10.428	826918	COUNTDOWN_START	n/a	n/a	n/a	n/a	-999	4	[0, 0, 0]	n/a	catFR1	0	R1229M
830.854	0.007	837345	COUNTDOWN_END	n/a	n/a	n/a	n/a	-999	4	[0, 0, 0]	n/a	catFR1	0	R1229M
830.861	1.617	837352	ORIENT	n/a	n/a	n/a	n/a	-999	4	[0, 0, 0]	n/a	catFR1	0	R1229M
832.478	1.983	838969	ORIENT_OFF	n/a	n/a	n/a	n/a	-999	4	[0, 0, 0]	n/a	catFR1	0	R1229M
834.461	1.618	840952	WORD	n/a	wordpools/wordpool_categorized_EN.txt	GOOSE	Birds	1	4	[0, 0, 0]	n/a	catFR1	0	R1229M
836.079	0.95	842570	WORD_OFF	n/a	n/a	GOOSE	n/a	1	4	[0, 0, 0]	n/a	catFR1	0	R1229M
837.029	1.617	843520	WORD	n/a	wordpools/wordpool_categorized_EN.txt	PIGEON	Birds	2	4	[0, 0, 0]	n/a	catFR1	0	R1229M
838.646	0.9	845137	WORD_OFF	n/a	n/a	PIGEON	n/a	2	4	[0, 0, 0]	n/a	catFR1	0	R1229M
839.546	1.618	846036	WORD	n/a	wordpools/wordpool_categorized_EN.txt	WALL	Building	3	4	[0, 0, 0]	n/a	catFR1	0	R1229M
841.164	0.966	847654	WORD_OFF	n/a	n/a	WALL	n/a	3	4	[0, 0, 0]	n/a	catFR1	0	R1229M
842.13	1.617	848620	WORD	n/a	wordpools/wordpool_categorized_EN.txt	DOOR	Building	4	4	[0, 0, 0]	n/a	catFR1	0	R1229M
843.747	0.867	850237	WORD_OFF	n/a	n/a	DOOR	n/a	4	4	[0, 0, 0]	n/a	catFR1	0	R1229M
844.614	1.616	851104	WORD	n/a	wordpools/wordpool_categorized_EN.txt	LILAC	Flowers	5	4	[0, 0, 0]	n/a	catFR1	0	R1229M
846.23	1.017	852720	WORD_OFF	n/a	n/a	LILAC	n/a	5	4	[0, 0, 0]	n/a	catFR1	0	R1229M
847.247	1.618	853737	WORD	n/a	wordpools/wordpool_categorized_EN.txt	DAFFODIL	Flowers	6	4	[0, 0, 0]	n/a	catFR1	0	R1229M
848.865	0.984	855355	WORD_OFF	n/a	n/a	DAFFODIL	n/a	6	4	[0, 0, 0]	n/a	catFR1	0	R1229M
849.849	1.616	856339	WORD	n/a	wordpools/wordpool_categorized_EN.txt	WINDOW	Building	7	4	[0, 0, 0]	n/a	catFR1	0	R1229M
851.465	0.983	857955	WORD_OFF	n/a	n/a	WINDOW	n/a	7	4	[0, 0, 0]	n/a	catFR1	0	R1229M
852.448	1.601	858938	WORD	n/a	wordpools/wordpool_categorized_EN.txt	STAIRS	Building	8	4	[0, 0, 0]	n/a	catFR1	0	R1229M
854.049	0.85	860539	WORD_OFF	n/a	n/a	STAIRS	n/a	8	4	[0, 0, 0]	n/a	catFR1	0	R1229M
854.899	1.617	861389	WORD	n/a	wordpools/wordpool_categorized_EN.txt	BLUEBIRD	Birds	9	4	[0, 0, 0]	n/a	catFR1	0	R1229M
856.516	0.766	863006	WORD_OFF	n/a	n/a	BLUEBIRD	n/a	9	4	[0, 0, 0]	n/a	catFR1	0	R1229M
857.282	1.618	863771	WORD	n/a	wordpools/wordpool_categorized_EN.txt	DUCK	Birds	10	4	[0, 0, 0]	n/a	catFR1	0	R1229M
858.9	0.967	865389	WORD_OFF	n/a	n/a	DUCK	n/a	10	4	[0, 0, 0]	n/a	catFR1	0	R1229M
859.867	1.616	866356	WORD	n/a	wordpools/wordpool_categorized_EN.txt	MARIGOLD	Flowers	11	4	[0, 0, 0]	n/a	catFR1	0	R1229M
861.483	1.0	867972	WORD_OFF	n/a	n/a	MARIGOLD	n/a	11	4	[0, 0, 0]	n/a	catFR1	0	R1229M
862.483	1.601	868972	WORD	n/a	wordpools/wordpool_categorized_EN.txt	LILY	Flowers	12	4	[0, 0, 0]	n/a	catFR1	0	R1229M
864.084	0.001	870573	WORD_OFF	n/a	n/a	LILY	n/a	12	4	[0, 0, 0]	n/a	catFR1	0	R1229M
864.085	0.133	870574	ENCODING_END	n/a	n/a	n/a	n/a	-999	4	[0, 0, 0]	n/a	catFR1	0	R1229M
864.218	0.0	870707	DISTRACT_START	n/a	n/a	n/a	n/a	-999	4	[0, 0, 0]	n/a	catFR1	0	R1229M
864.218	0.016	870707	START	n/a	n/a	n/a	n/a	-999	4	[-999, -999, -999]	n/a	catFR1	0	R1229M
864.234	28.332	870723	PROB	28.332	n/a	n/a	n/a	-999	4	[8, 5, 1]	14.0	catFR1	0	R1229M
892.566	0.006	899053	STOP	n/a	n/a	n/a	n/a	-999	4	[-999, -999, -999]	n/a	catFR1	0	R1229M
892.572	0.651	899059	DISTRACT_END	n/a	n/a	n/a	n/a	-999	4	[0, 0, 0]	n/a	catFR1	0	R1229M
893.223	0.518	899710	RETRIEVAL_ORIENT	n/a	n/a	n/a	n/a	-999	4	[0, 0, 0]	n/a	catFR1	0	R1229M
893.741	2.585	900228	REC_START	n/a	n/a	n/a	n/a	-999	4	[0, 0, 0]	n/a	catFR1	0	R1229M
896.326	0.988	902813	REC_WORD	2.585	n/a	LILAC	Flowers	5	4	[0, 0, 0]	n/a	catFR1	0	R1229M
897.314	3.047	903801	REC_WORD	3.573	n/a	DAFFODIL	Flowers	6	4	[0, 0, 0]	n/a	catFR1	0	R1229M
900.361	1.755	906848	REC_WORD	6.62	n/a	MARIGOLD	Flowers	11	4	[0, 0, 0]	n/a	catFR1	0	R1229M
902.116	21.634	908603	REC_WORD	8.375	n/a	WINDOW	Building	7	4	[0, 0, 0]	n/a	catFR1	0	R1229M
923.75	413.943	930236	REC_END	n/a	n/a	n/a	n/a	-999	4	[0, 0, 0]	n/a	catFR1	0	R1229M
1337.693	0.5	1344155	TRIAL	n/a	n/a	n/a	n/a	-999	5	[0, 0, 0]	n/a	catFR1	0	R1229M
1338.193	10.428	1344655	COUNTDOWN_START	n/a	n/a	n/a	n/a	-999	5	[0, 0, 0]	n/a	catFR1	0	R1229M
1348.621	0.008	1355083	COUNTDOWN_END	n/a	n/a	n/a	n/a	-999	5	[0, 0, 0]	n/a	catFR1	0	R1229M
1348.629	1.616	1355091	ORIENT	n/a	n/a	n/a	n/a	-999	5	[0, 0, 0]	n/a	catFR1	0	R1229M
1350.245	2.317	1356707	ORIENT_OFF	n/a	n/a	n/a	n/a	-999	5	[0, 0, 0]	n/a	catFR1	0	R1229M
1352.562	1.617	1359023	WORD	n/a	wordpools/wordpool_categorized_EN.txt	CALF	FarmAnimals	1	5	[0, 0, 0]	n/a	catFR1	0	R1229M
1354.179	0.901	1360640	WORD_OFF	n/a	n/a	CALF	n/a	1	5	[0, 0, 0]	n/a	catFR1	0	R1229M
1355.08	1.617	1361541	WORD	n/a	wordpools/wordpool_categorized_EN.txt	TURKEY	FarmAnimals	2	5	[0, 0, 0]	n/a	catFR1	0	R1229M
1356.697	0.815	1363158	WORD_OFF	n/a	n/a	TURKEY	n/a	2	5	[0, 0, 0]	n/a	catFR1	0	R1229M
1357.512	1.602	1363973	WORD	n/a	wordpools/wordpool_categorized_EN.txt	JACKET	Clothing	3	5	[0, 0, 0]	n/a	catFR1	0	R1229M
1359.114	0.917	1365575	WORD_OFF	n/a	n/a	JACKET	n/a	3	5	[0, 0, 0]	n/a	catFR1	0	R1229M
1360.031	1.617	1366492	WORD	n/a	wordpools/wordpool_categorized_EN.txt	SKIRT	Clothing	4	5	[0, 0, 0]	n/a	catFR1	0	R1229M
1361.648	1.0	1368109	WORD_OFF	n/a	n/a	SKIRT	n/a	4	5	[0, 0, 0]	n/a	catFR1	0	R1229M
1362.648	1.616	1369109	WORD	n/a	wordpools/wordpool_categorized_EN.txt	PIE	Desserts	5	5	[0, 0, 0]	n/a	catFR1	0	R1229M
1364.264	0.851	1370725	WORD_OFF	n/a	n/a	PIE	n/a	5	5	[0, 0, 0]	n/a	catFR1	0	R1229M
1365.115	1.617	1371576	WORD	n/a	wordpools/wordpool_categorized_EN.txt	CUPCAKE	Desserts	6	5	[0, 0, 0]	n/a	catFR1	0	R1229M
1366.732	0.95	1373193	WORD_OFF	n/a	n/a	CUPCAKE	n/a	6	5	[0, 0, 0]	n/a	catFR1	0	R1229M
1367.682	1.616	1374143	WORD	n/a	wordpools/wordpool_categorized_EN.txt	SHOES	Clothing	7	5	[0, 0, 0]	n/a	catFR1	0	R1229M
1369.298	0.785	1375758	WORD_OFF	n/a	n/a	SHOES	n/a	7	5	[0, 0, 0]	n/a	catFR1	0	R1229M
1370.083	1.617	1376543	WORD	n/a	wordpools/wordpool_categorized_EN.txt	JEANS	Clothing	8	5	[0, 0, 0]	n/a	catFR1	0	R1229M
1371.7	0.95	1378160	WORD_OFF	n/a	n/a	JEANS	n/a	8	5	[0, 0, 0]	n/a	catFR1	0	R1229M
1372.65	1.616	1379110	WORD	n/a	wordpools/wordpool_categorized_EN.txt	GOAT	FarmAnimals	9	5	[0, 0, 0]	n/a	catFR1	0	R1229M
1374.266	0.851	1380726	WORD_OFF	n/a	n/a	GOAT	n/a	9	5	[0, 0, 0]	n/a	catFR1	0	R1229M
1375.117	1.617	1381577	WORD	n/a	wordpools/wordpool_categorized_EN.txt	SHEEP	FarmAnimals	10	5	[0, 0, 0]	n/a	catFR1	0	R1229M
1376.734	0.816	1383194	WORD_OFF	n/a	n/a	SHEEP	n/a	10	5	[0, 0, 0]	n/a	catFR1	0	R1229M
1377.55	1.618	1384010	WORD	n/a	wordpools/wordpool_categorized_EN.txt	CHEESECAKE	Desserts	11	5	[0, 0, 0]	n/a	catFR1	0	R1229M
1379.168	1.0	1385628	WORD_OFF	n/a	n/a	CHEESECAKE	n/a	11	5	[0, 0, 0]	n/a	catFR1	0	R1229M
1380.168	1.617	1386628	WORD	n/a	wordpools/wordpool_categorized_EN.txt	COOKIE	Desserts	12	5	[0, 0, 0]	n/a	catFR1	0	R1229M
1381.785	0.001	1388245	WORD_OFF	n/a	n/a	COOKIE	n/a	12	5	[0, 0, 0]	n/a	catFR1	0	R1229M
1381.786	0.104	1388246	ENCODING_END	n/a	n/a	n/a	n/a	-999	5	[0, 0, 0]	n/a	catFR1	0	R1229M
1381.89	0.0	1388350	DISTRACT_START	n/a	n/a	n/a	n/a	-999	5	[0, 0, 0]	n/a	catFR1	0	R1229M
1381.89	0.012	1388350	START	n/a	n/a	n/a	n/a	-999	5	[-999, -999, -999]	n/a	catFR1	0	R1229M
1381.902	5.466	1388362	PROB	5.439	n/a	n/a	n/a	-999	5	[1, 6, 1]	8.0	catFR1	0	R1229M
1387.368	6.902	1393827	PROB	6.871	n/a	n/a	n/a	-999	5	[9, 9, 1]	19.0	catFR1	0	R1229M
1394.27	5.569	1400729	PROB	5.538	n/a	n/a	n/a	-999	5	[5, 7, 1]	13.0	catFR1	0	R1229M
1399.839	6.63	1406298	PROB	6.63	n/a	n/a	n/a	-999	5	[4, 6, 6]	16.0	catFR1	0	R1229M
1406.469	0.02	1412927	STOP	n/a	n/a	n/a	n/a	-999	5	[-999, -999, -999]	n/a	catFR1	0	R1229M
1406.489	0.651	1412947	DISTRACT_END	n/a	n/a	n/a	n/a	-999	5	[0, 0, 0]	n/a	catFR1	0	R1229M
1407.14	0.517	1413598	RETRIEVAL_ORIENT	n/a	n/a	n/a	n/a	-999	5	[0, 0, 0]	n/a	catFR1	0	R1229M
1407.657	2.769	1414115	REC_START	n/a	n/a	n/a	n/a	-999	5	[0, 0, 0]	n/a	catFR1	0	R1229M
1410.426	0.598	1416884	REC_WORD_VV	2.769	n/a	<>	n/a	-999	5	[0, 0, 0]	n/a	catFR1	0	R1229M
1411.024	0.7	1417482	REC_WORD	3.367	n/a	CALF	FarmAnimals	1	5	[0, 0, 0]	n/a	catFR1	0	R1229M
1411.724	1.153	1418182	REC_WORD	4.067	n/a	SHEEP	FarmAnimals	10	5	[0, 0, 0]	n/a	catFR1	0	R1229M
1412.877	2.264	1419335	REC_WORD	5.22	n/a	TURKEY	FarmAnimals	2	5	[0, 0, 0]	n/a	catFR1	0	R1229M
1415.141	9.545	1421599	REC_WORD	7.484	n/a	CHEESECAKE	Desserts	11	5	[0, 0, 0]	n/a	catFR1	0	R1229M
1424.686	12.981	1431143	REC_WORD	17.029	n/a	PIE	Desserts	5	5	[0, 0, 0]	n/a	catFR1	0	R1229M
1437.667	43.82	1444124	REC_END	n/a	n/a	n/a	n/a	-999	5	[0, 0, 0]	n/a	catFR1	0	R1229M
1481.487	0.5	1487941	TRIAL	n/a	n/a	n/a	n/a	-999	6	[0, 0, 0]	n/a	catFR1	0	R1229M
1481.987	10.428	1488441	COUNTDOWN_START	n/a	n/a	n/a	n/a	-999	6	[0, 0, 0]	n/a	catFR1	0	R1229M
1492.415	0.007	1498868	COUNTDOWN_END	n/a	n/a	n/a	n/a	-999	6	[0, 0, 0]	n/a	catFR1	0	R1229M
1492.422	1.618	1498875	ORIENT	n/a	n/a	n/a	n/a	-999	6	[0, 0, 0]	n/a	catFR1	0	R1229M
1494.04	2.166	1500493	ORIENT_OFF	n/a	n/a	n/a	n/a	-999	6	[0, 0, 0]	n/a	catFR1	0	R1229M
1496.206	1.601	1502659	WORD	n/a	wordpools/wordpool_categorized_EN.txt	PEELER	KitchenTools	1	6	[0, 0, 0]	n/a	catFR1	0	R1229M
1497.807	0.968	1504260	WORD_OFF	n/a	n/a	PEELER	n/a	1	6	[0, 0, 0]	n/a	catFR1	0	R1229M
1498.775	1.615	1505228	WORD	n/a	wordpools/wordpool_categorized_EN.txt	FORK	KitchenTools	2	6	[0, 0, 0]	n/a	catFR1	0	R1229M
1500.39	0.867	1506843	WORD_OFF	n/a	n/a	FORK	n/a	2	6	[0, 0, 0]	n/a	catFR1	0	R1229M
1501.257	1.618	1507710	WORD	n/a	wordpools/wordpool_categorized_EN.txt	POTATO	Vegetables	3	6	[0, 0, 0]	n/a	catFR1	0	R1229M
1502.875	0.95	1509328	WORD_OFF	n/a	n/a	POTATO	n/a	3	6	[0, 0, 0]	n/a	catFR1	0	R1229M
1503.825	1.616	1510278	WORD	n/a	wordpools/wordpool_categorized_EN.txt	CELERY	Vegetables	4	6	[0, 0, 0]	n/a	catFR1	0	R1229M
1505.441	1.001	1511894	WORD_OFF	n/a	n/a	CELERY	n/a	4	6	[0, 0, 0]	n/a	catFR1	0	R1229M
1506.442	1.618	1512895	WORD	n/a	wordpools/wordpool_categorized_EN.txt	TOASTER	Appliances	5	6	[0, 0, 0]	n/a	catFR1	0	R1229M
1508.06	0.883	1514513	WORD_OFF	n/a	n/a	TOASTER	n/a	5	6	[0, 0, 0]	n/a	catFR1	0	R1229M
1508.943	1.616	1515396	WORD	n/a	wordpools/wordpool_categorized_EN.txt	STOVE	Appliances	6	6	[0, 0, 0]	n/a	catFR1	0	R1229M
1510.559	0.984	1517011	WORD_OFF	n/a	n/a	STOVE	n/a	6	6	[0, 0, 0]	n/a	catFR1	0	R1229M
1511.543	1.618	1517995	WORD	n/a	wordpools/wordpool_categorized_EN.txt	GRATER	KitchenTools	7	6	[0, 0, 0]	n/a	catFR1	0	R1229M
1513.161	0.8	1519613	WORD_OFF	n/a	n/a	GRATER	n/a	7	6	[0, 0, 0]	n/a	catFR1	0	R1229M
1513.961	1.616	1520413	WORD	n/a	wordpools/wordpool_categorized_EN.txt	SPOON	KitchenTools	8	6	[0, 0, 0]	n/a	catFR1	0	R1229M
1515.577	0.817	1522029	WORD_OFF	n/a	n/a	SPOON	n/a	8	6	[0, 0, 0]	n/a	catFR1	0	R1229M
1516.394	1.617	1522846	WORD	n/a	wordpools/wordpool_categorized_EN.txt	BROCCOLI	Vegetables	9	6	[0, 0, 0]	n/a	catFR1	0	R1229M
1518.011	0.984	1524463	WORD_OFF	n/a	n/a	BROCCOLI	n/a	9	6	[0, 0, 0]	n/a	catFR1	0	R1229M
1518.995	1.617	1525447	WORD	n/a	wordpools/wordpool_categorized_EN.txt	ONION	Vegetables	10	6	[0, 0, 0]	n/a	catFR1	0	R1229M
1520.612	0.849	1527064	WORD_OFF	n/a	n/a	ONION	n/a	10	6	[0, 0, 0]	n/a	catFR1	0	R1229M
1521.461	1.618	1527913	WORD	n/a	wordpools/wordpool_categorized_EN.txt	BLENDER	Appliances	11	6	[0, 0, 0]	n/a	catFR1	0	R1229M
1523.079	0.95	1529531	WORD_OFF	n/a	n/a	BLENDER	n/a	11	6	[0, 0, 0]	n/a	catFR1	0	R1229M
1524.029	1.617	1530481	WORD	n/a	wordpools/wordpool_categorized_EN.txt	FREEZER	Appliances	12	6	[0, 0, 0]	n/a	catFR1	0	R1229M
1525.646	0.0	1532098	ENCODING_END	n/a	n/a	n/a	n/a	-999	6	[0, 0, 0]	n/a	catFR1	0	R1229M
1525.646	0.135	1532098	WORD_OFF	n/a	n/a	FREEZER	n/a	12	6	[0, 0, 0]	n/a	catFR1	0	R1229M
1525.781	0.001	1532233	DISTRACT_START	n/a	n/a	n/a	n/a	-999	6	[0, 0, 0]	n/a	catFR1	0	R1229M
1525.782	0.014	1532234	START	n/a	n/a	n/a	n/a	-999	6	[-999, -999, -999]	n/a	catFR1	0	R1229M
1525.796	6.135	1532248	PROB	6.099	n/a	n/a	n/a	-999	6	[3, 4, 1]	8.0	catFR1	0	R1229M
1531.931	5.383	1538382	PROB	5.356	n/a	n/a	n/a	-999	6	[3, 2, 4]	9.0	catFR1	0	R1229M
1537.314	6.803	1543765	PROB	6.773	n/a	n/a	n/a	-999	6	[5, 1, 2]	8.0	catFR1	0	R1229M
1544.117	8.354	1550568	PROB	8.354	n/a	n/a	n/a	-999	6	[3, 5, 8]	16.0	catFR1	0	R1229M
1552.471	0.013	1558921	STOP	n/a	n/a	n/a	n/a	-999	6	[-999, -999, -999]	n/a	catFR1	0	R1229M
1552.484	0.7	1558934	DISTRACT_END	n/a	n/a	n/a	n/a	-999	6	[0, 0, 0]	n/a	catFR1	0	R1229M
1553.184	0.519	1559634	RETRIEVAL_ORIENT	n/a	n/a	n/a	n/a	-999	6	[0, 0, 0]	n/a	catFR1	0	R1229M
1553.703	2.729	1560153	REC_START	n/a	n/a	n/a	n/a	-999	6	[0, 0, 0]	n/a	catFR1	0	R1229M
1556.432	1.058	1562882	REC_WORD_VV	2.729	n/a	<>	n/a	-999	6	[0, 0, 0]	n/a	catFR1	0	R1229M
1557.49	0.959	1563940	REC_WORD	3.787	n/a	FORK	KitchenTools	2	6	[0, 0, 0]	n/a	catFR1	0	R1229M
1558.449	1.029	1564899	REC_WORD	4.746	n/a	PEELER	KitchenTools	1	6	[0, 0, 0]	n/a	catFR1	0	R1229M
1559.478	1.24	1565928	REC_WORD	5.775	n/a	POTATO	Vegetables	3	6	[0, 0, 0]	n/a	catFR1	0	R1229M
1560.718	1.975	1567168	REC_WORD	7.015	n/a	CELERY	Vegetables	4	6	[0, 0, 0]	n/a	catFR1	0	R1229M
1562.693	14.569	1569143	REC_WORD	8.99	n/a	ONION	Vegetables	10	6	[0, 0, 0]	n/a	catFR1	0	R1229M
1577.262	6.451	1583711	REC_WORD	23.559	n/a	BROCCOLI	Vegetables	9	6	[0, 0, 0]	n/a	catFR1	0	R1229M
1583.713	155.59	1590161	REC_END	n/a	n/a	n/a	n/a	-999	6	[0, 0, 0]	n/a	catFR1	0	R1229M
1739.303	0.5	1745743	TRIAL	n/a	n/a	n/a	n/a	-999	7	[0, 0, 0]	n/a	catFR1	0	R1229M
1739.803	10.428	1746242	COUNTDOWN_START	n/a	n/a	n/a	n/a	-999	7	[0, 0, 0]	n/a	catFR1	0	R1229M
1750.231	0.008	1756670	COUNTDOWN_END	n/a	n/a	n/a	n/a	-999	7	[0, 0, 0]	n/a	catFR1	0	R1229M
1750.239	1.618	1756678	ORIENT	n/a	n/a	n/a	n/a	-999	7	[0, 0, 0]	n/a	catFR1	0	R1229M
1751.857	2.067	1758296	ORIENT_OFF	n/a	n/a	n/a	n/a	-999	7	[0, 0, 0]	n/a	catFR1	0	R1229M
1753.924	1.616	1760363	WORD	n/a	wordpools/wordpool_categorized_EN.txt	MOTH	Insects	1	7	[0, 0, 0]	n/a	catFR1	0	R1229M
1755.54	0.767	1761979	WORD_OFF	n/a	n/a	MOTH	n/a	1	7	[0, 0, 0]	n/a	catFR1	0	R1229M
1756.307	1.618	1762746	WORD	n/a	wordpools/wordpool_categorized_EN.txt	ROACH	Insects	2	7	[0, 0, 0]	n/a	catFR1	0	R1229M
1757.925	0.9	1764363	WORD_OFF	n/a	n/a	ROACH	n/a	2	7	[0, 0, 0]	n/a	catFR1	0	R1229M
1758.825	1.616	1765263	WORD	n/a	wordpools/wordpool_categorized_EN.txt	ATTIC	Building	3	7	[0, 0, 0]	n/a	catFR1	0	R1229M
1760.441	0.983	1766879	WORD_OFF	n/a	n/a	ATTIC	n/a	3	7	[0, 0, 0]	n/a	catFR1	0	R1229M
1761.424	1.602	1767862	WORD	n/a	wordpools/wordpool_categorized_EN.txt	FLOOR	Building	4	7	[0, 0, 0]	n/a	catFR1	0	R1229M
1763.026	0.883	1769464	WORD_OFF	n/a	n/a	FLOOR	n/a	4	7	[0, 0, 0]	n/a	catFR1	0	R1229M
1763.909	1.616	1770347	WORD	n/a	wordpools/wordpool_categorized_EN.txt	LEG	BodyParts	5	7	[0, 0, 0]	n/a	catFR1	0	R1229M
1765.525	0.8	1771963	WORD_OFF	n/a	n/a	LEG	n/a	5	7	[0, 0, 0]	n/a	catFR1	0	R1229M
1766.325	1.618	1772763	WORD	n/a	wordpools/wordpool_categorized_EN.txt	ELBOW	BodyParts	6	7	[0, 0, 0]	n/a	catFR1	0	R1229M
1767.943	0.917	1774381	WORD_OFF	n/a	n/a	ELBOW	n/a	6	7	[0, 0, 0]	n/a	catFR1	0	R1229M
1768.86	1.616	1775298	WORD	n/a	wordpools/wordpool_categorized_EN.txt	CEILING	Building	7	7	[0, 0, 0]	n/a	catFR1	0	R1229M
1770.476	0.833	1776914	WORD_OFF	n/a	n/a	CEILING	n/a	7	7	[0, 0, 0]	n/a	catFR1	0	R1229M
1771.309	1.602	1777747	WORD	n/a	wordpools/wordpool_categorized_EN.txt	FOUNDATION	Building	8	7	[0, 0, 0]	n/a	catFR1	0	R1229M
1772.911	0.85	1779349	WORD_OFF	n/a	n/a	FOUNDATION	n/a	8	7	[0, 0, 0]	n/a	catFR1	0	R1229M
1773.761	1.616	1780199	WORD	n/a	wordpools/wordpool_categorized_EN.txt	SPIDER	Insects	9	7	[0, 0, 0]	n/a	catFR1	0	R1229M
1775.377	0.984	1781814	WORD_OFF	n/a	n/a	SPIDER	n/a	9	7	[0, 0, 0]	n/a	catFR1	0	R1229M
1776.361	1.618	1782798	WORD	n/a	wordpools/wordpool_categorized_EN.txt	GNAT	Insects	10	7	[0, 0, 0]	n/a	catFR1	0	R1229M
1777.979	0.866	1784416	WORD_OFF	n/a	n/a	GNAT	n/a	10	7	[0, 0, 0]	n/a	catFR1	0	R1229M
1778.845	1.616	1785282	WORD	n/a	wordpools/wordpool_categorized_EN.txt	HAND	BodyParts	11	7	[0, 0, 0]	n/a	catFR1	0	R1229M
1780.461	0.851	1786898	WORD_OFF	n/a	n/a	HAND	n/a	11	7	[0, 0, 0]	n/a	catFR1	0	R1229M
1781.312	1.618	1787749	WORD	n/a	wordpools/wordpool_categorized_EN.txt	TOE	BodyParts	12	7	[0, 0, 0]	n/a	catFR1	0	R1229M
1782.93	0.0	1789367	WORD_OFF	n/a	n/a	TOE	n/a	12	7	[0, 0, 0]	n/a	catFR1	0	R1229M
1782.93	0.13	1789367	ENCODING_END	n/a	n/a	n/a	n/a	-999	7	[0, 0, 0]	n/a	catFR1	0	R1229M
1783.06	0.0	1789497	DISTRACT_START	n/a	n/a	n/a	n/a	-999	7	[0, 0, 0]	n/a	catFR1	0	R1229M
1783.06	0.02	1789497	START	n/a	n/a	n/a	n/a	-999	7	[-999, -999, -999]	n/a	catFR1	0	R1229M
1783.08	8.535	1789517	PROB	8.511	n/a	n/a	n/a	-999	7	[5, 7, 3]	15.0	catFR1	0	R1229M
1791.615	9.701	1798052	PROB	9.663	n/a	n/a	n/a	-999	7	[9, 7, 1]	17.0	catFR1	0	R1229M
1801.316	5.962	1807752	PROB	5.962	n/a	n/a	n/a	-999	7	[1, 7, 5]	13.0	catFR1	0	R1229M
1807.278	0.022	1813714	STOP	n/a	n/a	n/a	n/a	-999	7	[-999, -999, -999]	n/a	catFR1	0	R1229M
1807.3	0.534	1813736	DISTRACT_END	n/a	n/a	n/a	n/a	-999	7	[0, 0, 0]	n/a	catFR1	0	R1229M
1807.834	0.517	1814270	RETRIEVAL_ORIENT	n/a	n/a	n/a	n/a	-999	7	[0, 0, 0]	n/a	catFR1	0	R1229M
1808.351	2.122	1814787	REC_START	n/a	n/a	n/a	n/a	-999	7	[0, 0, 0]	n/a	catFR1	0	R1229M
1810.473	1.132	1816908	REC_WORD	2.122	n/a	MOTH	Insects	1	7	[0, 0, 0]	n/a	catFR1	0	R1229M
1811.605	0.996	1818040	REC_WORD	3.254	n/a	ROACH	Insects	2	7	[0, 0, 0]	n/a	catFR1	0	R1229M
1812.601	1.031	1819036	REC_WORD	4.25	n/a	ATTIC	Building	3	7	[0, 0, 0]	n/a	catFR1	0	R1229M
1813.632	3.091	1820067	REC_WORD	5.281	n/a	FLOOR	Building	4	7	[0, 0, 0]	n/a	catFR1	0	R1229M
1816.723	21.638	1823158	REC_WORD	8.372	n/a	LEG	BodyParts	5	7	[0, 0, 0]	n/a	catFR1	0	R1229M
1838.361	17.082	1844795	REC_END	n/a	n/a	n/a	n/a	-999	7	[0, 0, 0]	n/a	catFR1	0	R1229M
1855.443	0.5	1861876	TRIAL	n/a	n/a	n/a	n/a	-999	8	[0, 0, 0]	n/a	catFR1	0	R1229M
1855.943	10.428	1862376	COUNTDOWN_START	n/a	n/a	n/a	n/a	-999	8	[0, 0, 0]	n/a	catFR1	0	R1229M
1866.371	0.007	1872803	COUNTDOWN_END	n/a	n/a	n/a	n/a	-999	8	[0, 0, 0]	n/a	catFR1	0	R1229M
1866.378	1.618	1872810	ORIENT	n/a	n/a	n/a	n/a	-999	8	[0, 0, 0]	n/a	catFR1	0	R1229M
1867.996	2.084	1874428	ORIENT_OFF	n/a	n/a	n/a	n/a	-999	8	[0, 0, 0]	n/a	catFR1	0	R1229M
1870.08	1.617	1876512	WORD	n/a	wordpools/wordpool_categorized_EN.txt	STRAINER	KitchenTools	1	8	[0, 0, 0]	n/a	catFR1	0	R1229M
1871.697	0.983	1878129	WORD_OFF	n/a	n/a	STRAINER	n/a	1	8	[0, 0, 0]	n/a	catFR1	0	R1229M
1872.68	1.616	1879112	WORD	n/a	wordpools/wordpool_categorized_EN.txt	LADLE	KitchenTools	2	8	[0, 0, 0]	n/a	catFR1	0	R1229M
1874.296	0.768	1880728	WORD_OFF	n/a	n/a	LADLE	n/a	2	8	[0, 0, 0]	n/a	catFR1	0	R1229M
1875.064	1.617	1881496	WORD	n/a	wordpools/wordpool_categorized_EN.txt	GRAPE	Fruit	3	8	[0, 0, 0]	n/a	catFR1	0	R1229M
1876.681	0.833	1883113	WORD_OFF	n/a	n/a	GRAPE	n/a	3	8	[0, 0, 0]	n/a	catFR1	0	R1229M
1877.514	1.618	1883946	WORD	n/a	wordpools/wordpool_categorized_EN.txt	ORANGE	Fruit	4	8	[0, 0, 0]	n/a	catFR1	0	R1229M
1879.132	0.883	1885564	WORD_OFF	n/a	n/a	ORANGE	n/a	4	8	[0, 0, 0]	n/a	catFR1	0	R1229M
1880.015	1.617	1886447	WORD	n/a	wordpools/wordpool_categorized_EN.txt	TULIP	Flowers	5	8	[0, 0, 0]	n/a	catFR1	0	R1229M
1881.632	0.766	1888063	WORD_OFF	n/a	n/a	TULIP	n/a	5	8	[0, 0, 0]	n/a	catFR1	0	R1229M
1882.398	1.601	1888829	WORD	n/a	wordpools/wordpool_categorized_EN.txt	VIOLET	Flowers	6	8	[0, 0, 0]	n/a	catFR1	0	R1229M
1883.999	0.917	1890430	WORD_OFF	n/a	n/a	VIOLET	n/a	6	8	[0, 0, 0]	n/a	catFR1	0	R1229M
1884.916	1.616	1891347	WORD	n/a	wordpools/wordpool_categorized_EN.txt	COLANDER	KitchenTools	7	8	[0, 0, 0]	n/a	catFR1	0	R1229M
1886.532	0.967	1892963	WORD_OFF	n/a	n/a	COLANDER	n/a	7	8	[0, 0, 0]	n/a	catFR1	0	R1229M
1887.499	1.618	1893930	WORD	n/a	wordpools/wordpool_categorized_EN.txt	SPATULA	KitchenTools	8	8	[0, 0, 0]	n/a	catFR1	0	R1229M
1889.117	0.967	1895548	WORD_OFF	n/a	n/a	SPATULA	n/a	8	8	[0, 0, 0]	n/a	catFR1	0	R1229M
1890.084	1.617	1896515	WORD	n/a	wordpools/wordpool_categorized_EN.txt	BLUEBERRY	Fruit	9	8	[0, 0, 0]	n/a	catFR1	0	R1229M
1891.701	1.0	1898132	WORD_OFF	n/a	n/a	BLUEBERRY	n/a	9	8	[0, 0, 0]	n/a	catFR1	0	R1229M
1892.701	1.616	1899132	WORD	n/a	wordpools/wordpool_categorized_EN.txt	LIME	Fruit	10	8	[0, 0, 0]	n/a	catFR1	0	R1229M
1894.317	0.851	1900748	WORD_OFF	n/a	n/a	LIME	n/a	10	8	[0, 0, 0]	n/a	catFR1	0	R1229M
1895.168	1.617	1901599	WORD	n/a	wordpools/wordpool_categorized_EN.txt	PETUNIA	Flowers	11	8	[0, 0, 0]	n/a	catFR1	0	R1229M
1896.785	1.0	1903216	WORD_OFF	n/a	n/a	PETUNIA	n/a	11	8	[0, 0, 0]	n/a	catFR1	0	R1229M
1897.785	1.616	1904216	WORD	n/a	wordpools/wordpool_categorized_EN.txt	ROSE	Flowers	12	8	[0, 0, 0]	n/a	catFR1	0	R1229M
1899.401	0.0	1905831	ENCODING_END	n/a	n/a	n/a	n/a	-999	8	[0, 0, 0]	n/a	catFR1	0	R1229M
1899.401	0.102	1905831	WORD_OFF	n/a	n/a	ROSE	n/a	12	8	[0, 0, 0]	n/a	catFR1	0	R1229M
1899.503	0.0	1905933	DISTRACT_START	n/a	n/a	n/a	n/a	-999	8	[0, 0, 0]	n/a	catFR1	0	R1229M
1899.503	0.015	1905933	START	n/a	n/a	n/a	n/a	-999	8	[-999, -999, -999]	n/a	catFR1	0	R1229M
1899.518	8.852	1905948	PROB	8.817	n/a	n/a	n/a	-999	8	[5, 4, 3]	12.0	catFR1	0	R1229M
1908.37	10.653	1914800	PROB	10.621	n/a	n/a	n/a	-999	8	[2, 6, 5]	13.0	catFR1	0	R1229M
1919.023	4.665	1925452	PROB	4.665	n/a	n/a	n/a	-999	8	[8, 4, 3]	15.0	catFR1	0	R1229M
1923.688	0.019	1930117	STOP	n/a	n/a	n/a	n/a	-999	8	[-999, -999, -999]	n/a	catFR1	0	R1229M
1923.707	0.549	1930136	DISTRACT_END	n/a	n/a	n/a	n/a	-999	8	[0, 0, 0]	n/a	catFR1	0	R1229M
1924.256	0.519	1930685	RETRIEVAL_ORIENT	n/a	n/a	n/a	n/a	-999	8	[0, 0, 0]	n/a	catFR1	0	R1229M
1924.775	7.887	1931204	REC_START	n/a	n/a	n/a	n/a	-999	8	[0, 0, 0]	n/a	catFR1	0	R1229M
1932.662	1.499	1939091	REC_WORD	7.887	n/a	PETUNIA	Flowers	11	8	[0, 0, 0]	n/a	catFR1	0	R1229M
1934.161	3.768	1940589	REC_WORD	9.386	n/a	COLANDER	KitchenTools	7	8	[0, 0, 0]	n/a	catFR1	0	R1229M
1937.929	1.851	1944357	REC_WORD	13.154	n/a	STRAINER	KitchenTools	1	8	[0, 0, 0]	n/a	catFR1	0	R1229M
1939.78	15.003	1946208	REC_WORD	15.005	n/a	SPATULA	KitchenTools	8	8	[0, 0, 0]	n/a	catFR1	0	R1229M
1954.783	15.916	1961210	REC_END	n/a	n/a	n/a	n/a	-999	8	[0, 0, 0]	n/a	catFR1	0	R1229M
1970.699	0.5	1977125	TRIAL	n/a	n/a	n/a	n/a	-999	9	[0, 0, 0]	n/a	catFR1	0	R1229M
1971.199	10.428	1977625	COUNTDOWN_START	n/a	n/a	n/a	n/a	-999	9	[0, 0, 0]	n/a	catFR1	0	R1229M
1981.627	0.008	1988053	COUNTDOWN_END	n/a	n/a	n/a	n/a	-999	9	[0, 0, 0]	n/a	catFR1	0	R1229M
1981.635	1.616	1988061	ORIENT	n/a	n/a	n/a	n/a	-999	9	[0, 0, 0]	n/a	catFR1	0	R1229M
1983.251	2.184	1989677	ORIENT_OFF	n/a	n/a	n/a	n/a	-999	9	[0, 0, 0]	n/a	catFR1	0	R1229M
1985.435	1.618	1991861	WORD	n/a	wordpools/wordpool_categorized_EN.txt	REFRIGERATOR	Appliances	1	9	[0, 0, 0]	n/a	catFR1	0	R1229M
1987.053	0.916	1993478	WORD_OFF	n/a	n/a	REFRIGERATOR	n/a	1	9	[0, 0, 0]	n/a	catFR1	0	R1229M
1987.969	1.617	1994394	WORD	n/a	wordpools/wordpool_categorized_EN.txt	MIXER	Appliances	2	9	[0, 0, 0]	n/a	catFR1	0	R1229M
1989.586	0.883	1996011	WORD_OFF	n/a	n/a	MIXER	n/a	2	9	[0, 0, 0]	n/a	catFR1	0	R1229M
1990.469	1.601	1996894	WORD	n/a	wordpools/wordpool_categorized_EN.txt	BASEBALL	Toys	3	9	[0, 0, 0]	n/a	catFR1	0	R1229M
1992.07	0.867	1998495	WORD_OFF	n/a	n/a	BASEBALL	n/a	3	9	[0, 0, 0]	n/a	catFR1	0	R1229M
1992.937	1.616	1999362	WORD	n/a	wordpools/wordpool_categorized_EN.txt	BLOCKS	Toys	4	9	[0, 0, 0]	n/a	catFR1	0	R1229M
1994.553	0.817	2000978	WORD_OFF	n/a	n/a	BLOCKS	n/a	4	9	[0, 0, 0]	n/a	catFR1	0	R1229M
1995.37	1.618	2001795	WORD	n/a	wordpools/wordpool_categorized_EN.txt	SOFA	Furniture	5	9	[0, 0, 0]	n/a	catFR1	0	R1229M
1996.988	0.933	2003413	WORD_OFF	n/a	n/a	SOFA	n/a	5	9	[0, 0, 0]	n/a	catFR1	0	R1229M
1997.921	1.616	2004346	WORD	n/a	wordpools/wordpool_categorized_EN.txt	DRESSER	Furniture	6	9	[0, 0, 0]	n/a	catFR1	0	R1229M
1999.537	0.95	2005962	WORD_OFF	n/a	n/a	DRESSER	n/a	6	9	[0, 0, 0]	n/a	catFR1	0	R1229M
2000.487	1.602	2006912	WORD	n/a	wordpools/wordpool_categorized_EN.txt	DISHWASHER	Appliances	7	9	[0, 0, 0]	n/a	catFR1	0	R1229M
2002.089	0.783	2008514	WORD_OFF	n/a	n/a	DISHWASHER	n/a	7	9	[0, 0, 0]	n/a	catFR1	0	R1229M
2002.872	1.616	2009297	WORD	n/a	wordpools/wordpool_categorized_EN.txt	IRON	Appliances	8	9	[0, 0, 0]	n/a	catFR1	0	R1229M
2004.488	0.85	2010912	WORD_OFF	n/a	n/a	IRON	n/a	8	9	[0, 0, 0]	n/a	catFR1	0	R1229M
2005.338	1.601	2011762	WORD	n/a	wordpools/wordpool_categorized_EN.txt	MARBLES	Toys	9	9	[0, 0, 0]	n/a	catFR1	0	R1229M
2006.939	0.951	2013363	WORD_OFF	n/a	n/a	MARBLES	n/a	9	9	[0, 0, 0]	n/a	catFR1	0	R1229M
2007.89	1.616	2014314	WORD	n/a	wordpools/wordpool_categorized_EN.txt	FOOTBALL	Toys	10	9	[0, 0, 0]	n/a	catFR1	0	R1229M
2009.506	0.867	2015930	WORD_OFF	n/a	n/a	FOOTBALL	n/a	10	9	[0, 0, 0]	n/a	catFR1	0	R1229M
2010.373	1.618	2016797	WORD	n/a	wordpools/wordpool_categorized_EN.txt	CHAIR	Furniture	11	9	[0, 0, 0]	n/a	catFR1	0	R1229M
2011.991	0.9	2018415	WORD_OFF	n/a	n/a	CHAIR	n/a	11	9	[0, 0, 0]	n/a	catFR1	0	R1229M
2012.891	1.616	2019315	WORD	n/a	wordpools/wordpool_categorized_EN.txt	COUCH	Furniture	12	9	[0, 0, 0]	n/a	catFR1	0	R1229M
2014.507	0.0	2020931	ENCODING_END	n/a	n/a	n/a	n/a	-999	9	[0, 0, 0]	n/a	catFR1	0	R1229M
2014.507	0.141	2020931	WORD_OFF	n/a	n/a	COUCH	n/a	12	9	[0, 0, 0]	n/a	catFR1	0	R1229M
2014.648	0.0	2021072	DISTRACT_START	n/a	n/a	n/a	n/a	-999	9	[0, 0, 0]	n/a	catFR1	0	R1229M
2014.648	0.01	2021072	START	n/a	n/a	n/a	n/a	-999	9	[-999, -999, -999]	n/a	catFR1	0	R1229M
2014.658	8.152	2021082	PROB	8.116	n/a	n/a	n/a	-999	9	[8, 6, 5]	19.0	catFR1	0	R1229M
2022.81	5.583	2029233	PROB	5.556	n/a	n/a	n/a	-999	9	[2, 2, 5]	9.0	catFR1	0	R1229M
2028.393	9.124	2034816	PROB	9.124	n/a	n/a	n/a	-999	9	[9, 4, 3]	16.0	catFR1	0	R1229M
2037.517	0.011	2043940	STOP	n/a	n/a	n/a	n/a	-999	9	[-999, -999, -999]	n/a	catFR1	0	R1229M
2037.528	0.65	2043951	DISTRACT_END	n/a	n/a	n/a	n/a	-999	9	[0, 0, 0]	n/a	catFR1	0	R1229M
2038.178	0.519	2044601	RETRIEVAL_ORIENT	n/a	n/a	n/a	n/a	-999	9	[0, 0, 0]	n/a	catFR1	0	R1229M
2038.697	1.727	2045120	REC_START	n/a	n/a	n/a	n/a	-999	9	[0, 0, 0]	n/a	catFR1	0	R1229M
2040.424	17.189	2046846	REC_WORD	1.727	n/a	REFRIGERATOR	Appliances	1	9	[0, 0, 0]	n/a	catFR1	0	R1229M
2057.613	4.508	2064034	REC_WORD	18.916	n/a	BASEBALL	Toys	3	9	[0, 0, 0]	n/a	catFR1	0	R1229M
2062.121	3.574	2068542	REC_WORD	23.424	n/a	DRESSER	Furniture	6	9	[0, 0, 0]	n/a	catFR1	0	R1229M
2065.695	3.013	2072116	REC_WORD	26.998	n/a	CHAIR	Furniture	11	9	[0, 0, 0]	n/a	catFR1	0	R1229M
2068.708	18.381	2075129	REC_END	n/a	n/a	n/a	n/a	-999	9	[0, 0, 0]	n/a	catFR1	0	R1229M
2087.089	0.5	2093509	TRIAL	n/a	n/a	n/a	n/a	-999	10	[0, 0, 0]	n/a	catFR1	0	R1229M
2087.589	10.428	2094009	COUNTDOWN_START	n/a	n/a	n/a	n/a	-999	10	[0, 0, 0]	n/a	catFR1	0	R1229M
2098.017	0.007	2104436	COUNTDOWN_END	n/a	n/a	n/a	n/a	-999	10	[0, 0, 0]	n/a	catFR1	0	R1229M
2098.024	1.617	2104443	ORIENT	n/a	n/a	n/a	n/a	-999	10	[0, 0, 0]	n/a	catFR1	0	R1229M
2099.641	2.084	2106060	ORIENT_OFF	n/a	n/a	n/a	n/a	-999	10	[0, 0, 0]	n/a	catFR1	0	R1229M
2101.725	1.616	2108144	WORD	n/a	wordpools/wordpool_categorized_EN.txt	BEAR	Zoo	1	10	[0, 0, 0]	n/a	catFR1	0	R1229M
2103.341	0.916	2109760	WORD_OFF	n/a	n/a	BEAR	n/a	1	10	[0, 0, 0]	n/a	catFR1	0	R1229M
2104.257	1.602	2110676	WORD	n/a	wordpools/wordpool_categorized_EN.txt	CHIMPANZEE	Zoo	2	10	[0, 0, 0]	n/a	catFR1	0	R1229M
2105.859	0.9	2112278	WORD_OFF	n/a	n/a	CHIMPANZEE	n/a	2	10	[0, 0, 0]	n/a	catFR1	0	R1229M
2106.759	1.616	2113178	WORD	n/a	wordpools/wordpool_categorized_EN.txt	ORCHID	Flowers	3	10	[0, 0, 0]	n/a	catFR1	0	R1229M
2108.375	0.967	2114794	WORD_OFF	n/a	n/a	ORCHID	n/a	3	10	[0, 0, 0]	n/a	catFR1	0	R1229M
2109.342	1.618	2115761	WORD	n/a	wordpools/wordpool_categorized_EN.txt	CARNATION	Flowers	4	10	[0, 0, 0]	n/a	catFR1	0	R1229M
2110.96	0.883	2117378	WORD_OFF	n/a	n/a	CARNATION	n/a	4	10	[0, 0, 0]	n/a	catFR1	0	R1229M
2111.843	1.617	2118261	WORD	n/a	wordpools/wordpool_categorized_EN.txt	FOREST	Landscapes	5	10	[0, 0, 0]	n/a	catFR1	0	R1229M
2113.46	0.983	2119878	WORD_OFF	n/a	n/a	FOREST	n/a	5	10	[0, 0, 0]	n/a	catFR1	0	R1229M
2114.443	1.618	2120861	WORD	n/a	wordpools/wordpool_categorized_EN.txt	VALLEY	Landscapes	6	10	[0, 0, 0]	n/a	catFR1	0	R1229M
2116.061	0.867	2122479	WORD_OFF	n/a	n/a	VALLEY	n/a	6	10	[0, 0, 0]	n/a	catFR1	0	R1229M
2116.928	1.616	2123346	WORD	n/a	wordpools/wordpool_categorized_EN.txt	LION	Zoo	7	10	[0, 0, 0]	n/a	catFR1	0	R1229M
2118.544	0.967	2124962	WORD_OFF	n/a	n/a	LION	n/a	7	10	[0, 0, 0]	n/a	catFR1	0	R1229M
2119.511	1.618	2125929	WORD	n/a	wordpools/wordpool_categorized_EN.txt	MONKEY	Zoo	8	10	[0, 0, 0]	n/a	catFR1	0	R1229M
2121.129	0.9	2127547	WORD_OFF	n/a	n/a	MONKEY	n/a	8	10	[0, 0, 0]	n/a	catFR1	0	R1229M
2122.029	1.617	2128447	WORD	n/a	wordpools/wordpool_categorized_EN.txt	DAISY	Flowers	9	10	[0, 0, 0]	n/a	catFR1	0	R1229M
2123.646	0.916	2130064	WORD_OFF	n/a	n/a	DAISY	n/a	9	10	[0, 0, 0]	n/a	catFR1	0	R1229M
2124.562	1.617	2130980	WORD	n/a	wordpools/wordpool_categorized_EN.txt	SUNFLOWER	Flowers	10	10	[0, 0, 0]	n/a	catFR1	0	R1229M
2126.179	1.0	2132597	WORD_OFF	n/a	n/a	SUNFLOWER	n/a	10	10	[0, 0, 0]	n/a	catFR1	0	R1229M
2127.179	1.618	2133597	WORD	n/a	wordpools/wordpool_categorized_EN.txt	CREEK	Landscapes	11	10	[0, 0, 0]	n/a	catFR1	0	R1229M
2128.797	0.766	2135214	WORD_OFF	n/a	n/a	CREEK	n/a	11	10	[0, 0, 0]	n/a	catFR1	0	R1229M
2129.563	1.617	2135980	WORD	n/a	wordpools/wordpool_categorized_EN.txt	BEACH	Landscapes	12	10	[0, 0, 0]	n/a	catFR1	0	R1229M
2131.18	0.0	2137597	WORD_OFF	n/a	n/a	BEACH	n/a	12	10	[0, 0, 0]	n/a	catFR1	0	R1229M
2131.18	0.102	2137597	ENCODING_END	n/a	n/a	n/a	n/a	-999	10	[0, 0, 0]	n/a	catFR1	0	R1229M
2131.282	0.0	2137699	DISTRACT_START	n/a	n/a	n/a	n/a	-999	10	[0, 0, 0]	n/a	catFR1	0	R1229M
2131.282	0.014	2137699	START	n/a	n/a	n/a	n/a	-999	10	[-999, -999, -999]	n/a	catFR1	0	R1229M
2131.296	11.103	2137713	PROB	11.07	n/a	n/a	n/a	-999	10	[8, 2, 8]	18.0	catFR1	0	R1229M
2142.399	6.435	2148816	PROB	6.4	n/a	n/a	n/a	-999	10	[1, 1, 8]	11.0	catFR1	0	R1229M
2148.834	9.949	2155250	PROB	9.949	n/a	n/a	n/a	-999	10	[4, 1, 9]	14.0	catFR1	0	R1229M
2158.783	0.02	2165199	STOP	n/a	n/a	n/a	n/a	-999	10	[-999, -999, -999]	n/a	catFR1	0	R1229M
2158.803	0.649	2165219	DISTRACT_END	n/a	n/a	n/a	n/a	-999	10	[0, 0, 0]	n/a	catFR1	0	R1229M
2159.452	0.518	2165868	RETRIEVAL_ORIENT	n/a	n/a	n/a	n/a	-999	10	[0, 0, 0]	n/a	catFR1	0	R1229M
2159.97	2.252	2166386	REC_START	n/a	n/a	n/a	n/a	-999	10	[0, 0, 0]	n/a	catFR1	0	R1229M
2162.222	8.472	2168638	REC_WORD	2.252	n/a	CHIMPANZEE	Zoo	2	10	[0, 0, 0]	n/a	catFR1	0	R1229M
2170.694	5.708	2177109	REC_WORD	10.724	n/a	FOREST	Landscapes	5	10	[0, 0, 0]	n/a	catFR1	0	R1229M
2176.402	8.235	2182817	REC_WORD	16.432	n/a	CREEK	Landscapes	11	10	[0, 0, 0]	n/a	catFR1	0	R1229M
2184.637	5.344	2191051	REC_WORD	24.667	n/a	ORCHID	Flowers	3	10	[0, 0, 0]	n/a	catFR1	0	R1229M
2189.981	33.701	2196395	REC_END	n/a	n/a	n/a	n/a	-999	10	[0, 0, 0]	n/a	catFR1	0	R1229M
2223.682	0.5	2230094	TRIAL	n/a	n/a	n/a	n/a	-999	11	[0, 0, 0]	n/a	catFR1	0	R1229M
2224.182	10.428	2230594	COUNTDOWN_START	n/a	n/a	n/a	n/a	-999	11	[0, 0, 0]	n/a	catFR1	0	R1229M
2234.61	0.007	2241021	COUNTDOWN_END	n/a	n/a	n/a	n/a	-999	11	[0, 0, 0]	n/a	catFR1	0	R1229M
2234.617	1.616	2241028	ORIENT	n/a	n/a	n/a	n/a	-999	11	[0, 0, 0]	n/a	catFR1	0	R1229M
2236.233	2.001	2242644	ORIENT_OFF	n/a	n/a	n/a	n/a	-999	11	[0, 0, 0]	n/a	catFR1	0	R1229M
2238.234	1.618	2244645	WORD	n/a	wordpools/wordpool_categorized_EN.txt	BATHROOM	Building	1	11	[0, 0, 0]	n/a	catFR1	0	R1229M
2239.852	0.95	2246263	WORD_OFF	n/a	n/a	BATHROOM	n/a	1	11	[0, 0, 0]	n/a	catFR1	0	R1229M
2240.802	1.616	2247213	WORD	n/a	wordpools/wordpool_categorized_EN.txt	ROOF	Building	2	11	[0, 0, 0]	n/a	catFR1	0	R1229M
2242.418	0.933	2248829	WORD_OFF	n/a	n/a	ROOF	n/a	2	11	[0, 0, 0]	n/a	catFR1	0	R1229M
2243.351	1.601	2249762	WORD	n/a	wordpools/wordpool_categorized_EN.txt	GLUE	OfficeSupplies	3	11	[0, 0, 0]	n/a	catFR1	0	R1229M
2244.952	0.901	2251363	WORD_OFF	n/a	n/a	GLUE	n/a	3	11	[0, 0, 0]	n/a	catFR1	0	R1229M
2245.853	1.616	2252264	WORD	n/a	wordpools/wordpool_categorized_EN.txt	PENCIL	OfficeSupplies	4	11	[0, 0, 0]	n/a	catFR1	0	R1229M
2247.469	1.0	2253880	WORD_OFF	n/a	n/a	PENCIL	n/a	4	11	[0, 0, 0]	n/a	catFR1	0	R1229M
2248.469	1.618	2254880	WORD	n/a	wordpools/wordpool_categorized_EN.txt	TRUMPET	Instruments	5	11	[0, 0, 0]	n/a	catFR1	0	R1229M
2250.087	0.783	2256498	WORD_OFF	n/a	n/a	TRUMPET	n/a	5	11	[0, 0, 0]	n/a	catFR1	0	R1229M
2250.87	1.616	2257281	WORD	n/a	wordpools/wordpool_categorized_EN.txt	CELLO	Instruments	6	11	[0, 0, 0]	n/a	catFR1	0	R1229M
2252.486	0.851	2258896	WORD_OFF	n/a	n/a	CELLO	n/a	6	11	[0, 0, 0]	n/a	catFR1	0	R1229M
2253.337	1.618	2259747	WORD	n/a	wordpools/wordpool_categorized_EN.txt	MARKER	OfficeSupplies	7	11	[0, 0, 0]	n/a	catFR1	0	R1229M
2254.955	0.933	2261365	WORD_OFF	n/a	n/a	MARKER	n/a	7	11	[0, 0, 0]	n/a	catFR1	0	R1229M
2255.888	1.616	2262298	WORD	n/a	wordpools/wordpool_categorized_EN.txt	PAPER	OfficeSupplies	8	11	[0, 0, 0]	n/a	catFR1	0	R1229M
2257.504	0.917	2263914	WORD_OFF	n/a	n/a	PAPER	n/a	8	11	[0, 0, 0]	n/a	catFR1	0	R1229M
2258.421	1.618	2264831	WORD	n/a	wordpools/wordpool_categorized_EN.txt	HALLWAY	Building	9	11	[0, 0, 0]	n/a	catFR1	0	R1229M
2260.039	0.8	2266449	WORD_OFF	n/a	n/a	HALLWAY	n/a	9	11	[0, 0, 0]	n/a	catFR1	0	R1229M
2260.839	1.616	2267249	WORD	n/a	wordpools/wordpool_categorized_EN.txt	ROOM	Building	10	11	[0, 0, 0]	n/a	catFR1	0	R1229M
2262.455	0.967	2268865	WORD_OFF	n/a	n/a	ROOM	n/a	10	11	[0, 0, 0]	n/a	catFR1	0	R1229M
2263.422	1.618	2269832	WORD	n/a	wordpools/wordpool_categorized_EN.txt	TUBA	Instruments	11	11	[0, 0, 0]	n/a	catFR1	0	R1229M
2265.04	0.8	2271450	WORD_OFF	n/a	n/a	TUBA	n/a	11	11	[0, 0, 0]	n/a	catFR1	0	R1229M
2265.84	1.616	2272250	WORD	n/a	wordpools/wordpool_categorized_EN.txt	FLUTE	Instruments	12	11	[0, 0, 0]	n/a	catFR1	0	R1229M
2267.456	0.0	2273866	ENCODING_END	n/a	n/a	n/a	n/a	-999	11	[0, 0, 0]	n/a	catFR1	0	R1229M
2267.456	0.103	2273866	WORD_OFF	n/a	n/a	FLUTE	n/a	12	11	[0, 0, 0]	n/a	catFR1	0	R1229M
2267.559	0.001	2273969	DISTRACT_START	n/a	n/a	n/a	n/a	-999	11	[0, 0, 0]	n/a	catFR1	0	R1229M
2267.56	0.013	2273970	START	n/a	n/a	n/a	n/a	-999	11	[-999, -999, -999]	n/a	catFR1	0	R1229M
2267.573	6.419	2273983	PROB	6.395	n/a	n/a	n/a	-999	11	[7, 5, 6]	18.0	catFR1	0	R1229M
2273.992	4.15	2280401	PROB	4.119	n/a	n/a	n/a	-999	11	[2, 4, 3]	9.0	catFR1	0	R1229M
2278.142	6.434	2284551	PROB	6.4	n/a	n/a	n/a	-999	11	[9, 1, 3]	12.0	catFR1	0	R1229M
2284.576	8.448	2290985	PROB	8.448	n/a	n/a	n/a	-999	11	[1, 7, 6]	14.0	catFR1	0	R1229M
2293.024	0.022	2299432	STOP	n/a	n/a	n/a	n/a	-999	11	[-999, -999, -999]	n/a	catFR1	0	R1229M
2293.046	0.666	2299454	DISTRACT_END	n/a	n/a	n/a	n/a	-999	11	[0, 0, 0]	n/a	catFR1	0	R1229M
2293.712	0.517	2300120	RETRIEVAL_ORIENT	n/a	n/a	n/a	n/a	-999	11	[0, 0, 0]	n/a	catFR1	0	R1229M
2294.229	2.534	2300637	REC_START	n/a	n/a	n/a	n/a	-999	11	[0, 0, 0]	n/a	catFR1	0	R1229M
2296.763	1.453	2303171	REC_WORD	2.534	n/a	TUBA	Instruments	11	11	[0, 0, 0]	n/a	catFR1	0	R1229M
2298.216	3.819	2304624	REC_WORD	3.987	n/a	TRUMPET	Instruments	5	11	[0, 0, 0]	n/a	catFR1	0	R1229M
2302.035	22.204	2308443	REC_WORD	7.806	n/a	FLUTE	Instruments	12	11	[0, 0, 0]	n/a	catFR1	0	R1229M
2324.239	12.064	2330645	REC_END	n/a	n/a	n/a	n/a	-999	11	[0, 0, 0]	n/a	catFR1	0	R1229M
2336.303	0.5	2342709	TRIAL	n/a	n/a	n/a	n/a	-999	12	[0, 0, 0]	n/a	catFR1	0	R1229M
2336.803	10.428	2343209	COUNTDOWN_START	n/a	n/a	n/a	n/a	-999	12	[0, 0, 0]	n/a	catFR1	0	R1229M
2347.231	0.007	2353636	COUNTDOWN_END	n/a	n/a	n/a	n/a	-999	12	[0, 0, 0]	n/a	catFR1	0	R1229M
2347.238	1.601	2353643	ORIENT	n/a	n/a	n/a	n/a	-999	12	[0, 0, 0]	n/a	catFR1	0	R1229M
2348.839	2.001	2355244	ORIENT_OFF	n/a	n/a	n/a	n/a	-999	12	[0, 0, 0]	n/a	catFR1	0	R1229M
2350.84	1.616	2357245	WORD	n/a	wordpools/wordpool_categorized_EN.txt	BOAT	Vehicles	1	12	[0, 0, 0]	n/a	catFR1	0	R1229M
2352.456	0.867	2358861	WORD_OFF	n/a	n/a	BOAT	n/a	1	12	[0, 0, 0]	n/a	catFR1	0	R1229M
2353.323	1.618	2359728	WORD	n/a	wordpools/wordpool_categorized_EN.txt	PLANE	Vehicles	2	12	[0, 0, 0]	n/a	catFR1	0	R1229M
2354.941	0.95	2361346	WORD_OFF	n/a	n/a	PLANE	n/a	2	12	[0, 0, 0]	n/a	catFR1	0	R1229M
2355.891	1.616	2362296	WORD	n/a	wordpools/wordpool_categorized_EN.txt	BEETLE	Insects	3	12	[0, 0, 0]	n/a	catFR1	0	R1229M
2357.507	0.9	2363911	WORD_OFF	n/a	n/a	BEETLE	n/a	3	12	[0, 0, 0]	n/a	catFR1	0	R1229M
2358.407	1.618	2364811	WORD	n/a	wordpools/wordpool_categorized_EN.txt	BUTTERFLY	Insects	4	12	[0, 0, 0]	n/a	catFR1	0	R1229M
2360.025	0.834	2366429	WORD_OFF	n/a	n/a	BUTTERFLY	n/a	4	12	[0, 0, 0]	n/a	catFR1	0	R1229M
2360.859	1.615	2367263	WORD	n/a	wordpools/wordpool_categorized_EN.txt	HAMMER	Tools	5	12	[0, 0, 0]	n/a	catFR1	0	R1229M
2362.474	0.784	2368878	WORD_OFF	n/a	n/a	HAMMER	n/a	5	12	[0, 0, 0]	n/a	catFR1	0	R1229M
2363.258	1.618	2369662	WORD	n/a	wordpools/wordpool_categorized_EN.txt	SAW	Tools	6	12	[0, 0, 0]	n/a	catFR1	0	R1229M
2364.876	0.917	2371280	WORD_OFF	n/a	n/a	SAW	n/a	6	12	[0, 0, 0]	n/a	catFR1	0	R1229M
2365.793	1.616	2372197	WORD	n/a	wordpools/wordpool_categorized_EN.txt	CAR	Vehicles	7	12	[0, 0, 0]	n/a	catFR1	0	R1229M
2367.409	0.817	2373813	WORD_OFF	n/a	n/a	CAR	n/a	7	12	[0, 0, 0]	n/a	catFR1	0	R1229M
2368.226	1.618	2374630	WORD	n/a	wordpools/wordpool_categorized_EN.txt	BIKE	Vehicles	8	12	[0, 0, 0]	n/a	catFR1	0	R1229M
2369.844	0.8	2376248	WORD_OFF	n/a	n/a	BIKE	n/a	8	12	[0, 0, 0]	n/a	catFR1	0	R1229M
2370.644	1.616	2377048	WORD	n/a	wordpools/wordpool_categorized_EN.txt	LADYBUG	Insects	9	12	[0, 0, 0]	n/a	catFR1	0	R1229M
2372.26	0.933	2378664	WORD_OFF	n/a	n/a	LADYBUG	n/a	9	12	[0, 0, 0]	n/a	catFR1	0	R1229M
2373.193	1.618	2379597	WORD	n/a	wordpools/wordpool_categorized_EN.txt	ANT	Insects	10	12	[0, 0, 0]	n/a	catFR1	0	R1229M
2374.811	0.884	2381215	WORD_OFF	n/a	n/a	ANT	n/a	10	12	[0, 0, 0]	n/a	catFR1	0	R1229M
2375.695	1.616	2382098	WORD	n/a	wordpools/wordpool_categorized_EN.txt	SCREWDRIVER	Tools	11	12	[0, 0, 0]	n/a	catFR1	0	R1229M
2377.311	0.851	2383714	WORD_OFF	n/a	n/a	SCREWDRIVER	n/a	11	12	[0, 0, 0]	n/a	catFR1	0	R1229M
2378.162	1.617	2384565	WORD	n/a	wordpools/wordpool_categorized_EN.txt	SANDER	Tools	12	12	[0, 0, 0]	n/a	catFR1	0	R1229M
2379.779	0.0	2386182	ENCODING_END	n/a	n/a	n/a	n/a	-999	12	[0, 0, 0]	n/a	catFR1	0	R1229M
2379.779	0.141	2386182	WORD_OFF	n/a	n/a	SANDER	n/a	12	12	[0, 0, 0]	n/a	catFR1	0	R1229M
2379.92	0.0	2386323	DISTRACT_START	n/a	n/a	n/a	n/a	-999	12	[0, 0, 0]	n/a	catFR1	0	R1229M
2379.92	0.009	2386323	START	n/a	n/a	n/a	n/a	-999	12	[-999, -999, -999]	n/a	catFR1	0	R1229M
2379.929	14.669	2386332	PROB	14.646	n/a	n/a	n/a	-999	12	[8, 7, 2]	17.0	catFR1	0	R1229M
2394.598	5.301	2401000	PROB	5.274	n/a	n/a	n/a	-999	12	[4, 7, 1]	12.0	catFR1	0	R1229M
2399.899	6.149	2406301	PROB	6.149	n/a	n/a	n/a	-999	12	[3, 5, 1]	9.0	catFR1	0	R1229M
2406.048	0.02	2412450	STOP	n/a	n/a	n/a	n/a	-999	12	[-999, -999, -999]	n/a	catFR1	0	R1229M
2406.068	0.666	2412470	DISTRACT_END	n/a	n/a	n/a	n/a	-999	12	[0, 0, 0]	n/a	catFR1	0	R1229M
2406.734	0.516	2413136	RETRIEVAL_ORIENT	n/a	n/a	n/a	n/a	-999	12	[0, 0, 0]	n/a	catFR1	0	R1229M
2407.25	3.792	2413652	REC_START	n/a	n/a	n/a	n/a	-999	12	[0, 0, 0]	n/a	catFR1	0	R1229M
2411.042	1.127	2417443	REC_WORD	3.792	n/a	BOAT	Vehicles	1	12	[0, 0, 0]	n/a	catFR1	0	R1229M
2412.169	1.215	2418570	REC_WORD	4.919	n/a	HAMMER	Tools	5	12	[0, 0, 0]	n/a	catFR1	0	R1229M
2413.384	2.807	2419785	REC_WORD	6.134	n/a	SAW	Tools	6	12	[0, 0, 0]	n/a	catFR1	0	R1229M
2416.191	4.3	2422592	REC_WORD	8.941	n/a	BEETLE	Insects	3	12	[0, 0, 0]	n/a	catFR1	0	R1229M
2420.491	16.769	2426892	REC_WORD	13.241	n/a	BUTTERFLY	Insects	4	12	[0, 0, 0]	n/a	catFR1	0	R1229M
2437.26	14.333	2443660	REC_END	n/a	n/a	n/a	n/a	-999	12	[0, 0, 0]	n/a	catFR1	0	R1229M
2451.593	0.5	2457992	TRIAL	n/a	n/a	n/a	n/a	-999	13	[0, 0, 0]	n/a	catFR1	0	R1229M
2452.093	10.428	2458492	COUNTDOWN_START	n/a	n/a	n/a	n/a	-999	13	[0, 0, 0]	n/a	catFR1	0	R1229M
2462.521	0.006	2468920	COUNTDOWN_END	n/a	n/a	n/a	n/a	-999	13	[0, 0, 0]	n/a	catFR1	0	R1229M
2462.527	1.602	2468926	ORIENT	n/a	n/a	n/a	n/a	-999	13	[0, 0, 0]	n/a	catFR1	0	R1229M
2464.129	2.066	2470527	ORIENT_OFF	n/a	n/a	n/a	n/a	-999	13	[0, 0, 0]	n/a	catFR1	0	R1229M
2466.195	1.618	2472593	WORD	n/a	wordpools/wordpool_categorized_EN.txt	BARBIE	Toys	1	13	[0, 0, 0]	n/a	catFR1	0	R1229M
2467.813	1.017	2474211	WORD_OFF	n/a	n/a	BARBIE	n/a	1	13	[0, 0, 0]	n/a	catFR1	0	R1229M
2468.83	1.615	2475228	WORD	n/a	wordpools/wordpool_categorized_EN.txt	FRISBEE	Toys	2	13	[0, 0, 0]	n/a	catFR1	0	R1229M
2470.445	0.817	2476843	WORD_OFF	n/a	n/a	FRISBEE	n/a	2	13	[0, 0, 0]	n/a	catFR1	0	R1229M
2471.262	1.618	2477660	WORD	n/a	wordpools/wordpool_categorized_EN.txt	WIND	Weather	3	13	[0, 0, 0]	n/a	catFR1	0	R1229M
2472.88	0.951	2479278	WORD_OFF	n/a	n/a	WIND	n/a	3	13	[0, 0, 0]	n/a	catFR1	0	R1229M
2473.831	1.615	2480229	WORD	n/a	wordpools/wordpool_categorized_EN.txt	THUNDER	Weather	4	13	[0, 0, 0]	n/a	catFR1	0	R1229M
2475.446	0.817	2481844	WORD_OFF	n/a	n/a	THUNDER	n/a	4	13	[0, 0, 0]	n/a	catFR1	0	R1229M
2476.263	1.618	2482661	WORD	n/a	wordpools/wordpool_categorized_EN.txt	CEDAR	Trees	5	13	[0, 0, 0]	n/a	catFR1	0	R1229M
2477.881	0.934	2484279	WORD_OFF	n/a	n/a	CEDAR	n/a	5	13	[0, 0, 0]	n/a	catFR1	0	R1229M
2478.815	1.616	2485213	WORD	n/a	wordpools/wordpool_categorized_EN.txt	WALNUT	Trees	6	13	[0, 0, 0]	n/a	catFR1	0	R1229M
2480.431	0.85	2486829	WORD_OFF	n/a	n/a	WALNUT	n/a	6	13	[0, 0, 0]	n/a	catFR1	0	R1229M
2481.281	1.618	2487678	WORD	n/a	wordpools/wordpool_categorized_EN.txt	SNOW	Weather	7	13	[0, 0, 0]	n/a	catFR1	0	R1229M
2482.899	1.017	2489296	WORD_OFF	n/a	n/a	SNOW	n/a	7	13	[0, 0, 0]	n/a	catFR1	0	R1229M
2483.916	1.616	2490313	WORD	n/a	wordpools/wordpool_categorized_EN.txt	DRIZZLE	Weather	8	13	[0, 0, 0]	n/a	catFR1	0	R1229M
2485.532	0.983	2491929	WORD_OFF	n/a	n/a	DRIZZLE	n/a	8	13	[0, 0, 0]	n/a	catFR1	0	R1229M
2486.515	1.601	2492912	WORD	n/a	wordpools/wordpool_categorized_EN.txt	PUZZLE	Toys	9	13	[0, 0, 0]	n/a	catFR1	0	R1229M
2488.116	0.968	2494513	WORD_OFF	n/a	n/a	PUZZLE	n/a	9	13	[0, 0, 0]	n/a	catFR1	0	R1229M
2489.084	1.616	2495481	WORD	n/a	wordpools/wordpool_categorized_EN.txt	SLINKY	Toys	10	13	[0, 0, 0]	n/a	catFR1	0	R1229M
2490.7	0.783	2497097	WORD_OFF	n/a	n/a	SLINKY	n/a	10	13	[0, 0, 0]	n/a	catFR1	0	R1229M
2491.483	1.618	2497880	WORD	n/a	wordpools/wordpool_categorized_EN.txt	MAPLE	Trees	11	13	[0, 0, 0]	n/a	catFR1	0	R1229M
2493.101	0.967	2499498	WORD_OFF	n/a	n/a	MAPLE	n/a	11	13	[0, 0, 0]	n/a	catFR1	0	R1229M
2494.068	1.617	2500465	WORD	n/a	wordpools/wordpool_categorized_EN.txt	BIRCH	Trees	12	13	[0, 0, 0]	n/a	catFR1	0	R1229M
2495.685	0.0	2502082	WORD_OFF	n/a	n/a	BIRCH	n/a	12	13	[0, 0, 0]	n/a	catFR1	0	R1229M
2495.685	0.108	2502082	ENCODING_END	n/a	n/a	n/a	n/a	-999	13	[0, 0, 0]	n/a	catFR1	0	R1229M
2495.793	0.0	2502190	DISTRACT_START	n/a	n/a	n/a	n/a	-999	13	[0, 0, 0]	n/a	catFR1	0	R1229M
2495.793	0.008	2502190	START	n/a	n/a	n/a	n/a	-999	13	[-999, -999, -999]	n/a	catFR1	0	R1229M
2495.801	5.484	2502198	PROB	5.461	n/a	n/a	n/a	-999	13	[1, 6, 4]	11.0	catFR1	0	R1229M
2501.285	7.218	2507681	PROB	7.184	n/a	n/a	n/a	-999	13	[7, 8, 8]	23.0	catFR1	0	R1229M
2508.503	4.851	2514899	PROB	4.814	n/a	n/a	n/a	-999	13	[6, 1, 4]	11.0	catFR1	0	R1229M
2513.354	4.574	2519750	PROB	4.574	n/a	n/a	n/a	-999	13	[3, 4, 4]	11.0	catFR1	0	R1229M
2517.928	0.011	2524323	STOP	n/a	n/a	n/a	n/a	-999	13	[-999, -999, -999]	n/a	catFR1	0	R1229M
2517.939	0.582	2524334	DISTRACT_END	n/a	n/a	n/a	n/a	-999	13	[0, 0, 0]	n/a	catFR1	0	R1229M
2518.521	0.519	2524916	RETRIEVAL_ORIENT	n/a	n/a	n/a	n/a	-999	13	[0, 0, 0]	n/a	catFR1	0	R1229M
2519.04	6.147	2525435	REC_START	n/a	n/a	n/a	n/a	-999	13	[0, 0, 0]	n/a	catFR1	0	R1229M
2525.187	23.862	2531582	REC_WORD	6.147	n/a	CEDAR	Trees	5	13	[0, 0, 0]	n/a	catFR1	0	R1229M
2549.049	11.231	2555443	REC_END	n/a	n/a	n/a	n/a	-999	13	[0, 0, 0]	n/a	catFR1	0	R1229M
2560.28	0.5	2566673	TRIAL	n/a	n/a	n/a	n/a	-999	14	[0, 0, 0]	n/a	catFR1	0	R1229M
2560.78	10.428	2567173	COUNTDOWN_START	n/a	n/a	n/a	n/a	-999	14	[0, 0, 0]	n/a	catFR1	0	R1229M
2571.208	0.007	2577600	COUNTDOWN_END	n/a	n/a	n/a	n/a	-999	14	[0, 0, 0]	n/a	catFR1	0	R1229M
2571.215	1.601	2577607	ORIENT	n/a	n/a	n/a	n/a	-999	14	[0, 0, 0]	n/a	catFR1	0	R1229M
2572.816	2.084	2579208	ORIENT_OFF	n/a	n/a	n/a	n/a	-999	14	[0, 0, 0]	n/a	catFR1	0	R1229M
2574.9	1.616	2581292	WORD	n/a	wordpools/wordpool_categorized_EN.txt	TRUCK	Vehicles	1	14	[0, 0, 0]	n/a	catFR1	0	R1229M
2576.516	0.884	2582908	WORD_OFF	n/a	n/a	TRUCK	n/a	1	14	[0, 0, 0]	n/a	catFR1	0	R1229M
2577.4	1.618	2583792	WORD	n/a	wordpools/wordpool_categorized_EN.txt	SCOOTER	Vehicles	2	14	[0, 0, 0]	n/a	catFR1	0	R1229M
2579.018	0.833	2585410	WORD_OFF	n/a	n/a	SCOOTER	n/a	2	14	[0, 0, 0]	n/a	catFR1	0	R1229M
2579.851	1.616	2586243	WORD	n/a	wordpools/wordpool_categorized_EN.txt	LOBSTER	OceanAnimals	3	14	[0, 0, 0]	n/a	catFR1	0	R1229M
2581.467	1.0	2587859	WORD_OFF	n/a	n/a	LOBSTER	n/a	3	14	[0, 0, 0]	n/a	catFR1	0	R1229M
2582.467	1.601	2588859	WORD	n/a	wordpools/wordpool_categorized_EN.txt	TURTLE	OceanAnimals	4	14	[0, 0, 0]	n/a	catFR1	0	R1229M
2584.068	1.001	2590460	WORD_OFF	n/a	n/a	TURTLE	n/a	4	14	[0, 0, 0]	n/a	catFR1	0	R1229M
2585.069	1.617	2591461	WORD	n/a	wordpools/wordpool_categorized_EN.txt	SPEAKER	Electronics	5	14	[0, 0, 0]	n/a	catFR1	0	R1229M
2586.686	0.95	2593078	WORD_OFF	n/a	n/a	SPEAKER	n/a	5	14	[0, 0, 0]	n/a	catFR1	0	R1229M
2587.636	1.616	2594027	WORD	n/a	wordpools/wordpool_categorized_EN.txt	HEADPHONES	Electronics	6	14	[0, 0, 0]	n/a	catFR1	0	R1229M
2589.252	0.933	2595643	WORD_OFF	n/a	n/a	HEADPHONES	n/a	6	14	[0, 0, 0]	n/a	catFR1	0	R1229M
2590.185	1.601	2596576	WORD	n/a	wordpools/wordpool_categorized_EN.txt	PLANKTON	OceanAnimals	7	14	[0, 0, 0]	n/a	catFR1	0	R1229M
2591.786	0.918	2598177	WORD_OFF	n/a	n/a	PLANKTON	n/a	7	14	[0, 0, 0]	n/a	catFR1	0	R1229M
2592.704	1.615	2599095	WORD	n/a	wordpools/wordpool_categorized_EN.txt	WHALE	OceanAnimals	8	14	[0, 0, 0]	n/a	catFR1	0	R1229M
2594.319	0.884	2600710	WORD_OFF	n/a	n/a	WHALE	n/a	8	14	[0, 0, 0]	n/a	catFR1	0	R1229M
2595.203	1.618	2601594	WORD	n/a	wordpools/wordpool_categorized_EN.txt	MOTORCYCLE	Vehicles	9	14	[0, 0, 0]	n/a	catFR1	0	R1229M
2596.821	0.95	2603212	WORD_OFF	n/a	n/a	MOTORCYCLE	n/a	9	14	[0, 0, 0]	n/a	catFR1	0	R1229M
2597.771	1.616	2604162	WORD	n/a	wordpools/wordpool_categorized_EN.txt	VAN	Vehicles	10	14	[0, 0, 0]	n/a	catFR1	0	R1229M
2599.387	0.934	2605778	WORD_OFF	n/a	n/a	VAN	n/a	10	14	[0, 0, 0]	n/a	catFR1	0	R1229M
2600.321	1.601	2606712	WORD	n/a	wordpools/wordpool_categorized_EN.txt	CALCULATOR	Electronics	11	14	[0, 0, 0]	n/a	catFR1	0	R1229M
2601.922	0.85	2608313	WORD_OFF	n/a	n/a	CALCULATOR	n/a	11	14	[0, 0, 0]	n/a	catFR1	0	R1229M
2602.772	1.616	2609163	WORD	n/a	wordpools/wordpool_categorized_EN.txt	TABLET	Electronics	12	14	[0, 0, 0]	n/a	catFR1	0	R1229M
2604.388	0.0	2610779	WORD_OFF	n/a	n/a	TABLET	n/a	12	14	[0, 0, 0]	n/a	catFR1	0	R1229M
2604.388	0.102	2610779	ENCODING_END	n/a	n/a	n/a	n/a	-999	14	[0, 0, 0]	n/a	catFR1	0	R1229M
2604.49	0.0	2610881	DISTRACT_START	n/a	n/a	n/a	n/a	-999	14	[0, 0, 0]	n/a	catFR1	0	R1229M
2604.49	0.015	2610881	START	n/a	n/a	n/a	n/a	-999	14	[-999, -999, -999]	n/a	catFR1	0	R1229M
2604.505	5.934	2610896	PROB	5.902	n/a	n/a	n/a	-999	14	[1, 6, 2]	9.0	catFR1	0	R1229M
2610.439	4.768	2616829	PROB	4.735	n/a	n/a	n/a	-999	14	[4, 3, 1]	8.0	catFR1	0	R1229M
2615.207	7.852	2621597	PROB	7.817	n/a	n/a	n/a	-999	14	[6, 7, 1]	14.0	catFR1	0	R1229M
2623.059	7.164	2629448	PROB	7.164	n/a	n/a	n/a	-999	14	[8, 5, 6]	19.0	catFR1	0	R1229M
2630.223	0.02	2636612	STOP	n/a	n/a	n/a	n/a	-999	14	[-999, -999, -999]	n/a	catFR1	0	R1229M
2630.243	0.535	2636632	DISTRACT_END	n/a	n/a	n/a	n/a	-999	14	[0, 0, 0]	n/a	catFR1	0	R1229M
2630.778	0.516	2637167	RETRIEVAL_ORIENT	n/a	n/a	n/a	n/a	-999	14	[0, 0, 0]	n/a	catFR1	0	R1229M
2631.294	1.849	2637683	REC_START	n/a	n/a	n/a	n/a	-999	14	[0, 0, 0]	n/a	catFR1	0	R1229M
2633.143	0.843	2639532	REC_WORD	1.849	n/a	TRUCK	Vehicles	1	14	[0, 0, 0]	n/a	catFR1	0	R1229M
2633.986	1.321	2640375	REC_WORD	2.692	n/a	SCOOTER	Vehicles	2	14	[0, 0, 0]	n/a	catFR1	0	R1229M
2635.307	3.701	2641696	REC_WORD	4.013	n/a	MOTORCYCLE	Vehicles	9	14	[0, 0, 0]	n/a	catFR1	0	R1229M
2639.008	22.294	2645397	REC_WORD	7.714	n/a	PLANKTON	OceanAnimals	7	14	[0, 0, 0]	n/a	catFR1	0	R1229M
2661.302	33.605	2667689	REC_END	n/a	n/a	n/a	n/a	-999	14	[0, 0, 0]	n/a	catFR1	0	R1229M
2694.907	0.5	2701292	TRIAL	n/a	n/a	n/a	n/a	-999	15	[0, 0, 0]	n/a	catFR1	0	R1229M
2695.407	10.428	2701792	COUNTDOWN_START	n/a	n/a	n/a	n/a	-999	15	[0, 0, 0]	n/a	catFR1	0	R1229M
2705.835	0.007	2712220	COUNTDOWN_END	n/a	n/a	n/a	n/a	-999	15	[0, 0, 0]	n/a	catFR1	0	R1229M
2705.842	1.616	2712227	ORIENT	n/a	n/a	n/a	n/a	-999	15	[0, 0, 0]	n/a	catFR1	0	R1229M
2707.458	2.067	2713843	ORIENT_OFF	n/a	n/a	n/a	n/a	-999	15	[0, 0, 0]	n/a	catFR1	0	R1229M
2709.525	1.602	2715910	WORD	n/a	wordpools/wordpool_categorized_EN.txt	RAIN	Weather	1	15	[0, 0, 0]	n/a	catFR1	0	R1229M
2711.127	0.916	2717511	WORD_OFF	n/a	n/a	RAIN	n/a	1	15	[0, 0, 0]	n/a	catFR1	0	R1229M
2712.043	1.617	2718427	WORD	n/a	wordpools/wordpool_categorized_EN.txt	HURRICANE	Weather	2	15	[0, 0, 0]	n/a	catFR1	0	R1229M
2713.66	0.85	2720044	WORD_OFF	n/a	n/a	HURRICANE	n/a	2	15	[0, 0, 0]	n/a	catFR1	0	R1229M
2714.51	1.618	2720894	WORD	n/a	wordpools/wordpool_categorized_EN.txt	DRILL	Tools	3	15	[0, 0, 0]	n/a	catFR1	0	R1229M
2716.128	1.016	2722512	WORD_OFF	n/a	n/a	DRILL	n/a	3	15	[0, 0, 0]	n/a	catFR1	0	R1229M
2717.144	1.617	2723528	WORD	n/a	wordpools/wordpool_categorized_EN.txt	WRENCH	Tools	4	15	[0, 0, 0]	n/a	catFR1	0	R1229M
2718.761	0.967	2725145	WORD_OFF	n/a	n/a	WRENCH	n/a	4	15	[0, 0, 0]	n/a	catFR1	0	R1229M
2719.728	1.616	2726112	WORD	n/a	wordpools/wordpool_categorized_EN.txt	TAPE	OfficeSupplies	5	15	[0, 0, 0]	n/a	catFR1	0	R1229M
2721.344	0.834	2727728	WORD_OFF	n/a	n/a	TAPE	n/a	5	15	[0, 0, 0]	n/a	catFR1	0	R1229M
2722.178	1.618	2728562	WORD	n/a	wordpools/wordpool_categorized_EN.txt	BINDER	OfficeSupplies	6	15	[0, 0, 0]	n/a	catFR1	0	R1229M
2723.796	0.8	2730180	WORD_OFF	n/a	n/a	BINDER	n/a	6	15	[0, 0, 0]	n/a	catFR1	0	R1229M
2724.596	1.616	2730980	WORD	n/a	wordpools/wordpool_categorized_EN.txt	CLOUD	Weather	7	15	[0, 0, 0]	n/a	catFR1	0	R1229M
2726.212	0.834	2732596	WORD_OFF	n/a	n/a	CLOUD	n/a	7	15	[0, 0, 0]	n/a	catFR1	0	R1229M
2727.046	1.617	2733430	WORD	n/a	wordpools/wordpool_categorized_EN.txt	THUNDERSTORM	Weather	8	15	[0, 0, 0]	n/a	catFR1	0	R1229M
2728.663	0.849	2735046	WORD_OFF	n/a	n/a	THUNDERSTORM	n/a	8	15	[0, 0, 0]	n/a	catFR1	0	R1229M
2729.512	1.602	2735895	WORD	n/a	wordpools/wordpool_categorized_EN.txt	RATCHET	Tools	9	15	[0, 0, 0]	n/a	catFR1	0	R1229M
2731.114	0.817	2737497	WORD_OFF	n/a	n/a	RATCHET	n/a	9	15	[0, 0, 0]	n/a	catFR1	0	R1229M
2731.931	1.616	2738314	WORD	n/a	wordpools/wordpool_categorized_EN.txt	AXE	Tools	10	15	[0, 0, 0]	n/a	catFR1	0	R1229M
2733.547	0.916	2739930	WORD_OFF	n/a	n/a	AXE	n/a	10	15	[0, 0, 0]	n/a	catFR1	0	R1229M
2734.463	1.602	2740846	WORD	n/a	wordpools/wordpool_categorized_EN.txt	FOLDER	OfficeSupplies	11	15	[0, 0, 0]	n/a	catFR1	0	R1229M
2736.065	1.0	2742448	WORD_OFF	n/a	n/a	FOLDER	n/a	11	15	[0, 0, 0]	n/a	catFR1	0	R1229M
2737.065	1.617	2743448	WORD	n/a	wordpools/wordpool_categorized_EN.txt	ERASER	OfficeSupplies	12	15	[0, 0, 0]	n/a	catFR1	0	R1229M
2738.682	0.0	2745065	ENCODING_END	n/a	n/a	n/a	n/a	-999	15	[0, 0, 0]	n/a	catFR1	0	R1229M
2738.682	0.146	2745065	WORD_OFF	n/a	n/a	ERASER	n/a	12	15	[0, 0, 0]	n/a	catFR1	0	R1229M
2738.828	0.0	2745211	DISTRACT_START	n/a	n/a	n/a	n/a	-999	15	[0, 0, 0]	n/a	catFR1	0	R1229M
2738.828	0.021	2745211	START	n/a	n/a	n/a	n/a	-999	15	[-999, -999, -999]	n/a	catFR1	0	R1229M
2738.849	8.835	2745232	PROB	8.798	n/a	n/a	n/a	-999	15	[7, 2, 3]	12.0	catFR1	0	R1229M
2747.684	7.234	2754066	PROB	7.211	n/a	n/a	n/a	-999	15	[4, 1, 1]	6.0	catFR1	0	R1229M
2754.918	5.591	2761300	PROB	5.591	n/a	n/a	n/a	-999	15	[1, 8, 9]	18.0	catFR1	0	R1229M
2760.509	0.01	2766891	STOP	n/a	n/a	n/a	n/a	-999	15	[-999, -999, -999]	n/a	catFR1	0	R1229M
2760.519	0.617	2766901	DISTRACT_END	n/a	n/a	n/a	n/a	-999	15	[0, 0, 0]	n/a	catFR1	0	R1229M
2761.136	0.518	2767518	RETRIEVAL_ORIENT	n/a	n/a	n/a	n/a	-999	15	[0, 0, 0]	n/a	catFR1	0	R1229M
2761.654	8.923	2768036	REC_START	n/a	n/a	n/a	n/a	-999	15	[0, 0, 0]	n/a	catFR1	0	R1229M
2770.577	1.219	2776958	REC_WORD	8.923	n/a	RAIN	Weather	1	15	[0, 0, 0]	n/a	catFR1	0	R1229M
2771.796	19.868	2778177	REC_WORD	10.142	n/a	HURRICANE	Weather	2	15	[0, 0, 0]	n/a	catFR1	0	R1229M
2791.664	16.597	2798044	REC_END	n/a	n/a	n/a	n/a	-999	15	[0, 0, 0]	n/a	catFR1	0	R1229M
2808.261	0.5	2814640	TRIAL	n/a	n/a	n/a	n/a	-999	16	[0, 0, 0]	n/a	catFR1	0	R1229M
2808.761	10.428	2815140	COUNTDOWN_START	n/a	n/a	n/a	n/a	-999	16	[0, 0, 0]	n/a	catFR1	0	R1229M
2819.189	0.008	2825567	COUNTDOWN_END	n/a	n/a	n/a	n/a	-999	16	[0, 0, 0]	n/a	catFR1	0	R1229M
2819.197	1.618	2825575	ORIENT	n/a	n/a	n/a	n/a	-999	16	[0, 0, 0]	n/a	catFR1	0	R1229M
2820.815	2.133	2827193	ORIENT_OFF	n/a	n/a	n/a	n/a	-999	16	[0, 0, 0]	n/a	catFR1	0	R1229M
2822.948	1.616	2829326	WORD	n/a	wordpools/wordpool_categorized_EN.txt	FINGERS	BodyParts	1	16	[0, 0, 0]	n/a	catFR1	0	R1229M
2824.564	0.951	2830942	WORD_OFF	n/a	n/a	FINGERS	n/a	1	16	[0, 0, 0]	n/a	catFR1	0	R1229M
2825.515	1.617	2831893	WORD	n/a	wordpools/wordpool_categorized_EN.txt	HEAD	BodyParts	2	16	[0, 0, 0]	n/a	catFR1	0	R1229M
2827.132	1.001	2833510	WORD_OFF	n/a	n/a	HEAD	n/a	2	16	[0, 0, 0]	n/a	catFR1	0	R1229M
2828.133	1.617	2834511	WORD	n/a	wordpools/wordpool_categorized_EN.txt	DOLLHOUSE	Toys	3	16	[0, 0, 0]	n/a	catFR1	0	R1229M
2829.75	0.85	2836128	WORD_OFF	n/a	n/a	DOLLHOUSE	n/a	3	16	[0, 0, 0]	n/a	catFR1	0	R1229M
2830.6	1.616	2836978	WORD	n/a	wordpools/wordpool_categorized_EN.txt	BASKETBALL	Toys	4	16	[0, 0, 0]	n/a	catFR1	0	R1229M
2832.216	0.934	2838594	WORD_OFF	n/a	n/a	BASKETBALL	n/a	4	16	[0, 0, 0]	n/a	catFR1	0	R1229M
2833.15	1.617	2839528	WORD	n/a	wordpools/wordpool_categorized_EN.txt	SPARROW	Birds	5	16	[0, 0, 0]	n/a	catFR1	0	R1229M
2834.767	0.817	2841144	WORD_OFF	n/a	n/a	SPARROW	n/a	5	16	[0, 0, 0]	n/a	catFR1	0	R1229M
2835.584	1.616	2841961	WORD	n/a	wordpools/wordpool_categorized_EN.txt	ROBIN	Birds	6	16	[0, 0, 0]	n/a	catFR1	0	R1229M
2837.2	0.868	2843577	WORD_OFF	n/a	n/a	ROBIN	n/a	6	16	[0, 0, 0]	n/a	catFR1	0	R1229M
2838.068	1.617	2844445	WORD	n/a	wordpools/wordpool_categorized_EN.txt	BALL	Toys	7	16	[0, 0, 0]	n/a	catFR1	0	R1229M
2839.685	1.0	2846062	WORD_OFF	n/a	n/a	BALL	n/a	7	16	[0, 0, 0]	n/a	catFR1	0	R1229M
2840.685	1.616	2847062	WORD	n/a	wordpools/wordpool_categorized_EN.txt	DOLL	Toys	8	16	[0, 0, 0]	n/a	catFR1	0	R1229M
2842.301	0.868	2848678	WORD_OFF	n/a	n/a	DOLL	n/a	8	16	[0, 0, 0]	n/a	catFR1	0	R1229M
2843.169	1.617	2849546	WORD	n/a	wordpools/wordpool_categorized_EN.txt	KNEE	BodyParts	9	16	[0, 0, 0]	n/a	catFR1	0	R1229M
2844.786	0.867	2851163	WORD_OFF	n/a	n/a	KNEE	n/a	9	16	[0, 0, 0]	n/a	catFR1	0	R1229M
2845.653	1.616	2852030	WORD	n/a	wordpools/wordpool_categorized_EN.txt	FOOT	BodyParts	10	16	[0, 0, 0]	n/a	catFR1	0	R1229M
2847.269	0.917	2853646	WORD_OFF	n/a	n/a	FOOT	n/a	10	16	[0, 0, 0]	n/a	catFR1	0	R1229M
2848.186	1.618	2854563	WORD	n/a	wordpools/wordpool_categorized_EN.txt	CARDINAL	Birds	11	16	[0, 0, 0]	n/a	catFR1	0	R1229M
2849.804	0.866	2856181	WORD_OFF	n/a	n/a	CARDINAL	n/a	11	16	[0, 0, 0]	n/a	catFR1	0	R1229M
2850.67	1.616	2857047	WORD	n/a	wordpools/wordpool_categorized_EN.txt	SEAGULL	Birds	12	16	[0, 0, 0]	n/a	catFR1	0	R1229M
2852.286	0.001	2858662	WORD_OFF	n/a	n/a	SEAGULL	n/a	12	16	[0, 0, 0]	n/a	catFR1	0	R1229M
2852.287	0.102	2858663	ENCODING_END	n/a	n/a	n/a	n/a	-999	16	[0, 0, 0]	n/a	catFR1	0	R1229M
2852.389	0.0	2858765	DISTRACT_START	n/a	n/a	n/a	n/a	-999	16	[0, 0, 0]	n/a	catFR1	0	R1229M
2852.389	0.014	2858765	START	n/a	n/a	n/a	n/a	-999	16	[-999, -999, -999]	n/a	catFR1	0	R1229M
2852.403	5.669	2858779	PROB	5.644	n/a	n/a	n/a	-999	16	[3, 1, 2]	6.0	catFR1	0	R1229M
2858.072	9.117	2864448	PROB	9.088	n/a	n/a	n/a	-999	16	[9, 2, 3]	4.0	catFR1	0	R1229M
2867.189	11.699	2873565	PROB	11.699	n/a	n/a	n/a	-999	16	[5, 8, 8]	21.0	catFR1	0	R1229M
2878.888	0.021	2885263	STOP	n/a	n/a	n/a	n/a	-999	16	[-999, -999, -999]	n/a	catFR1	0	R1229M
2878.909	0.649	2885284	DISTRACT_END	n/a	n/a	n/a	n/a	-999	16	[0, 0, 0]	n/a	catFR1	0	R1229M
2879.558	0.519	2885933	RETRIEVAL_ORIENT	n/a	n/a	n/a	n/a	-999	16	[0, 0, 0]	n/a	catFR1	0	R1229M
2880.077	3.739	2886452	REC_START	n/a	n/a	n/a	n/a	-999	16	[0, 0, 0]	n/a	catFR1	0	R1229M
2883.816	0.842	2890191	REC_WORD	3.739	n/a	DOLL	Toys	8	16	[0, 0, 0]	n/a	catFR1	0	R1229M
2884.658	9.302	2891033	REC_WORD	4.581	n/a	SPARROW	Birds	5	16	[0, 0, 0]	n/a	catFR1	0	R1229M
2893.96	16.126	2900334	REC_WORD	13.883	n/a	CARDINAL	Birds	11	16	[0, 0, 0]	n/a	catFR1	0	R1229M
2910.086	34.836	2916459	REC_END	n/a	n/a	n/a	n/a	-999	16	[0, 0, 0]	n/a	catFR1	0	R1229M
2944.922	0.5	2951293	TRIAL	n/a	n/a	n/a	n/a	-999	17	[0, 0, 0]	n/a	catFR1	0	R1229M
2945.422	10.428	2951793	COUNTDOWN_START	n/a	n/a	n/a	n/a	-999	17	[0, 0, 0]	n/a	catFR1	0	R1229M
2955.85	0.008	2962221	COUNTDOWN_END	n/a	n/a	n/a	n/a	-999	17	[0, 0, 0]	n/a	catFR1	0	R1229M
2955.858	1.615	2962229	ORIENT	n/a	n/a	n/a	n/a	-999	17	[0, 0, 0]	n/a	catFR1	0	R1229M
2957.473	1.951	2963844	ORIENT_OFF	n/a	n/a	n/a	n/a	-999	17	[0, 0, 0]	n/a	catFR1	0	R1229M
2959.424	1.618	2965794	WORD	n/a	wordpools/wordpool_categorized_EN.txt	DRESS	Clothing	1	17	[0, 0, 0]	n/a	catFR1	0	R1229M
2961.042	0.8	2967412	WORD_OFF	n/a	n/a	DRESS	n/a	1	17	[0, 0, 0]	n/a	catFR1	0	R1229M
2961.842	1.616	2968212	WORD	n/a	wordpools/wordpool_categorized_EN.txt	COAT	Clothing	2	17	[0, 0, 0]	n/a	catFR1	0	R1229M
2963.458	0.817	2969828	WORD_OFF	n/a	n/a	COAT	n/a	2	17	[0, 0, 0]	n/a	catFR1	0	R1229M
2964.275	1.618	2970645	WORD	n/a	wordpools/wordpool_categorized_EN.txt	APPLE	Fruit	3	17	[0, 0, 0]	n/a	catFR1	0	R1229M
2965.893	0.783	2972263	WORD_OFF	n/a	n/a	APPLE	n/a	3	17	[0, 0, 0]	n/a	catFR1	0	R1229M
2966.676	1.616	2973046	WORD	n/a	wordpools/wordpool_categorized_EN.txt	STRAWBERRY	Fruit	4	17	[0, 0, 0]	n/a	catFR1	0	R1229M
2968.292	0.851	2974662	WORD_OFF	n/a	n/a	STRAWBERRY	n/a	4	17	[0, 0, 0]	n/a	catFR1	0	R1229M
2969.143	1.617	2975513	WORD	n/a	wordpools/wordpool_categorized_EN.txt	COLA	Beverages	5	17	[0, 0, 0]	n/a	catFR1	0	R1229M
2970.76	0.917	2977130	WORD_OFF	n/a	n/a	COLA	n/a	5	17	[0, 0, 0]	n/a	catFR1	0	R1229M
2971.677	1.616	2978047	WORD	n/a	wordpools/wordpool_categorized_EN.txt	WATER	Beverages	6	17	[0, 0, 0]	n/a	catFR1	0	R1229M
2973.293	0.801	2979663	WORD_OFF	n/a	n/a	WATER	n/a	6	17	[0, 0, 0]	n/a	catFR1	0	R1229M
2974.094	1.617	2980464	WORD	n/a	wordpools/wordpool_categorized_EN.txt	SOCKS	Clothing	7	17	[0, 0, 0]	n/a	catFR1	0	R1229M
2975.711	0.783	2982080	WORD_OFF	n/a	n/a	SOCKS	n/a	7	17	[0, 0, 0]	n/a	catFR1	0	R1229M
2976.494	1.618	2982863	WORD	n/a	wordpools/wordpool_categorized_EN.txt	PANTS	Clothing	8	17	[0, 0, 0]	n/a	catFR1	0	R1229M
2978.112	0.85	2984481	WORD_OFF	n/a	n/a	PANTS	n/a	8	17	[0, 0, 0]	n/a	catFR1	0	R1229M
2978.962	1.617	2985331	WORD	n/a	wordpools/wordpool_categorized_EN.txt	CHERRY	Fruit	9	17	[0, 0, 0]	n/a	catFR1	0	R1229M
2980.579	0.799	2986948	WORD_OFF	n/a	n/a	CHERRY	n/a	9	17	[0, 0, 0]	n/a	catFR1	0	R1229M
2981.378	1.601	2987747	WORD	n/a	wordpools/wordpool_categorized_EN.txt	PEAR	Fruit	10	17	[0, 0, 0]	n/a	catFR1	0	R1229M
2982.979	0.884	2989348	WORD_OFF	n/a	n/a	PEAR	n/a	10	17	[0, 0, 0]	n/a	catFR1	0	R1229M
2983.863	1.616	2990232	WORD	n/a	wordpools/wordpool_categorized_EN.txt	BEER	Beverages	11	17	[0, 0, 0]	n/a	catFR1	0	R1229M
2985.479	0.783	2991848	WORD_OFF	n/a	n/a	BEER	n/a	11	17	[0, 0, 0]	n/a	catFR1	0	R1229M
2986.262	1.618	2992631	WORD	n/a	wordpools/wordpool_categorized_EN.txt	LEMONADE	Beverages	12	17	[0, 0, 0]	n/a	catFR1	0	R1229M
2987.88	0.001	2994249	WORD_OFF	n/a	n/a	LEMONADE	n/a	12	17	[0, 0, 0]	n/a	catFR1	0	R1229M
2987.881	0.101	2994250	ENCODING_END	n/a	n/a	n/a	n/a	-999	17	[0, 0, 0]	n/a	catFR1	0	R1229M
2987.982	0.0	2994351	DISTRACT_START	n/a	n/a	n/a	n/a	-999	17	[0, 0, 0]	n/a	catFR1	0	R1229M
2987.982	0.015	2994351	START	n/a	n/a	n/a	n/a	-999	17	[-999, -999, -999]	n/a	catFR1	0	R1229M
2987.997	5.918	2994366	PROB	5.883	n/a	n/a	n/a	-999	17	[2, 3, 1]	6.0	catFR1	0	R1229M
2993.915	6.051	3000283	PROB	6.02	n/a	n/a	n/a	-999	17	[8, 2, 2]	12.0	catFR1	0	R1229M
2999.966	7.935	3006334	PROB	7.897	n/a	n/a	n/a	-999	17	[2, 9, 5]	16.0	catFR1	0	R1229M
3007.901	11.77	3014269	PROB	11.77	n/a	n/a	n/a	-999	17	[2, 9, 6]	17.0	catFR1	0	R1229M
3019.671	0.016	3026038	STOP	n/a	n/a	n/a	n/a	-999	17	[-999, -999, -999]	n/a	catFR1	0	R1229M
3019.687	0.615	3026054	DISTRACT_END	n/a	n/a	n/a	n/a	-999	17	[0, 0, 0]	n/a	catFR1	0	R1229M
3020.302	0.519	3026669	RETRIEVAL_ORIENT	n/a	n/a	n/a	n/a	-999	17	[0, 0, 0]	n/a	catFR1	0	R1229M
3020.821	2.741	3027188	REC_START	n/a	n/a	n/a	n/a	-999	17	[0, 0, 0]	n/a	catFR1	0	R1229M
3023.562	0.947	3029929	REC_WORD	2.741	n/a	COLA	Beverages	5	17	[0, 0, 0]	n/a	catFR1	0	R1229M
3024.509	3.623	3030876	REC_WORD	3.688	n/a	CHERRY	Fruit	9	17	[0, 0, 0]	n/a	catFR1	0	R1229M
3028.132	22.698	3034499	REC_WORD	7.311	n/a	BEER	Beverages	11	17	[0, 0, 0]	n/a	catFR1	0	R1229M
3050.83	13.414	3057195	REC_END	n/a	n/a	n/a	n/a	-999	17	[0, 0, 0]	n/a	catFR1	0	R1229M
3064.244	0.5	3070608	TRIAL	n/a	n/a	n/a	n/a	-999	18	[0, 0, 0]	n/a	catFR1	0	R1229M
3064.744	10.428	3071108	COUNTDOWN_START	n/a	n/a	n/a	n/a	-999	18	[0, 0, 0]	n/a	catFR1	0	R1229M
3075.172	0.008	3081536	COUNTDOWN_END	n/a	n/a	n/a	n/a	-999	18	[0, 0, 0]	n/a	catFR1	0	R1229M
3075.18	1.618	3081544	ORIENT	n/a	n/a	n/a	n/a	-999	18	[0, 0, 0]	n/a	catFR1	0	R1229M
3076.798	1.917	3083162	ORIENT_OFF	n/a	n/a	n/a	n/a	-999	18	[0, 0, 0]	n/a	catFR1	0	R1229M
3078.715	1.616	3085079	WORD	n/a	wordpools/wordpool_categorized_EN.txt	COW	FarmAnimals	1	18	[0, 0, 0]	n/a	catFR1	0	R1229M
3080.331	0.866	3086695	WORD_OFF	n/a	n/a	COW	n/a	1	18	[0, 0, 0]	n/a	catFR1	0	R1229M
3081.197	1.619	3087560	WORD	n/a	wordpools/wordpool_categorized_EN.txt	HEN	FarmAnimals	2	18	[0, 0, 0]	n/a	catFR1	0	R1229M
3082.816	0.816	3089179	WORD_OFF	n/a	n/a	HEN	n/a	2	18	[0, 0, 0]	n/a	catFR1	0	R1229M
3083.632	1.616	3089995	WORD	n/a	wordpools/wordpool_categorized_EN.txt	NOTEBOOK	OfficeSupplies	3	18	[0, 0, 0]	n/a	catFR1	0	R1229M
3085.248	0.785	3091611	WORD_OFF	n/a	n/a	NOTEBOOK	n/a	3	18	[0, 0, 0]	n/a	catFR1	0	R1229M
3086.033	1.617	3092396	WORD	n/a	wordpools/wordpool_categorized_EN.txt	PEN	OfficeSupplies	4	18	[0, 0, 0]	n/a	catFR1	0	R1229M
3087.65	0.983	3094013	WORD_OFF	n/a	n/a	PEN	n/a	4	18	[0, 0, 0]	n/a	catFR1	0	R1229M
3088.633	1.616	3094996	WORD	n/a	wordpools/wordpool_categorized_EN.txt	WILLOW	Trees	5	18	[0, 0, 0]	n/a	catFR1	0	R1229M
3090.249	0.967	3096612	WORD_OFF	n/a	n/a	WILLOW	n/a	5	18	[0, 0, 0]	n/a	catFR1	0	R1229M
3091.216	1.618	3097579	WORD	n/a	wordpools/wordpool_categorized_EN.txt	PINE	Trees	6	18	[0, 0, 0]	n/a	catFR1	0	R1229M
3092.834	0.9	3099197	WORD_OFF	n/a	n/a	PINE	n/a	6	18	[0, 0, 0]	n/a	catFR1	0	R1229M
3093.734	1.616	3100097	WORD	n/a	wordpools/wordpool_categorized_EN.txt	LAMB	FarmAnimals	7	18	[0, 0, 0]	n/a	catFR1	0	R1229M
3095.35	0.984	3101713	WORD_OFF	n/a	n/a	LAMB	n/a	7	18	[0, 0, 0]	n/a	catFR1	0	R1229M
3096.334	1.618	3102697	WORD	n/a	wordpools/wordpool_categorized_EN.txt	CHICKEN	FarmAnimals	8	18	[0, 0, 0]	n/a	catFR1	0	R1229M
3097.952	0.783	3104315	WORD_OFF	n/a	n/a	CHICKEN	n/a	8	18	[0, 0, 0]	n/a	catFR1	0	R1229M
3098.735	1.616	3105098	WORD	n/a	wordpools/wordpool_categorized_EN.txt	RULER	OfficeSupplies	9	18	[0, 0, 0]	n/a	catFR1	0	R1229M
3100.351	0.934	3106713	WORD_OFF	n/a	n/a	RULER	n/a	9	18	[0, 0, 0]	n/a	catFR1	0	R1229M
3101.285	1.618	3107647	WORD	n/a	wordpools/wordpool_categorized_EN.txt	STAPLER	OfficeSupplies	10	18	[0, 0, 0]	n/a	catFR1	0	R1229M
3102.903	1.0	3109265	WORD_OFF	n/a	n/a	STAPLER	n/a	10	18	[0, 0, 0]	n/a	catFR1	0	R1229M
3103.903	1.616	3110265	WORD	n/a	wordpools/wordpool_categorized_EN.txt	CYPRESS	Trees	11	18	[0, 0, 0]	n/a	catFR1	0	R1229M
3105.519	0.917	3111881	WORD_OFF	n/a	n/a	CYPRESS	n/a	11	18	[0, 0, 0]	n/a	catFR1	0	R1229M
3106.436	1.618	3112798	WORD	n/a	wordpools/wordpool_categorized_EN.txt	EVERGREEN	Trees	12	18	[0, 0, 0]	n/a	catFR1	0	R1229M
3108.054	0.0	3114416	WORD_OFF	n/a	n/a	EVERGREEN	n/a	12	18	[0, 0, 0]	n/a	catFR1	0	R1229M
3108.054	0.136	3114416	ENCODING_END	n/a	n/a	n/a	n/a	-999	18	[0, 0, 0]	n/a	catFR1	0	R1229M
3108.19	0.0	3114552	DISTRACT_START	n/a	n/a	n/a	n/a	-999	18	[0, 0, 0]	n/a	catFR1	0	R1229M
3108.19	0.013	3114552	START	n/a	n/a	n/a	n/a	-999	18	[-999, -999, -999]	n/a	catFR1	0	R1229M
3108.203	19.655	3114565	PROB	19.628	n/a	n/a	n/a	-999	18	[8, 8, 5]	22.0	catFR1	0	R1229M
3127.858	9.214	3134219	PROB	9.214	n/a	n/a	n/a	-999	18	[5, 7, 5]	18.0	catFR1	0	R1229M
3137.072	0.021	3143432	STOP	n/a	n/a	n/a	n/a	-999	18	[-999, -999, -999]	n/a	catFR1	0	R1229M
3137.093	0.567	3143453	DISTRACT_END	n/a	n/a	n/a	n/a	-999	18	[0, 0, 0]	n/a	catFR1	0	R1229M
3137.66	0.516	3144020	RETRIEVAL_ORIENT	n/a	n/a	n/a	n/a	-999	18	[0, 0, 0]	n/a	catFR1	0	R1229M
3138.176	2.428	3144536	REC_START	n/a	n/a	n/a	n/a	-999	18	[0, 0, 0]	n/a	catFR1	0	R1229M
3140.604	1.199	3146964	REC_WORD_VV	2.428	n/a	<>	n/a	-999	18	[0, 0, 0]	n/a	catFR1	0	R1229M
3141.803	2.736	3148163	REC_WORD	3.627	n/a	EVERGREEN	Trees	12	18	[0, 0, 0]	n/a	catFR1	0	R1229M
3144.539	2.331	3150899	REC_WORD	6.363	n/a	WILLOW	Trees	5	18	[0, 0, 0]	n/a	catFR1	0	R1229M
3146.87	9.74	3153230	REC_WORD	8.694	n/a	CYPRESS	Trees	11	18	[0, 0, 0]	n/a	catFR1	0	R1229M
3156.61	11.575	3162969	REC_WORD	18.434	n/a	PINE	Trees	6	18	[0, 0, 0]	n/a	catFR1	0	R1229M
3168.185	108.935	3174544	REC_END	n/a	n/a	n/a	n/a	-999	18	[0, 0, 0]	n/a	catFR1	0	R1229M
3277.12	0.0	3283472	TRIAL	n/a	n/a	n/a	n/a	-999	19	[0, 0, 0]	n/a	catFR1	0	R1229M
