onset	duration	sample	trial_type	response_time	stim_file	item_name	category	serialpos	list	test	answer	experiment	session	subject
0.0	0.714	9531	INSTRUCT_START	n/a	n/a	n/a	n/a	-999	-999	[0, 0, 0]	n/a	catFR1	1	R1387E
0.714	28.817	10250	INSTRUCT_END	n/a	n/a	n/a	n/a	-999	-999	[0, 0, 0]	n/a	catFR1	1	R1387E
29.531	10.35	39061	COUNTDOWN_START	n/a	n/a	n/a	n/a	-999	-999	[0, 0, 0]	n/a	catFR1	1	R1387E
39.881	0.001	49413	COUNTDOWN_END	n/a	n/a	n/a	n/a	-999	-999	[0, 0, 0]	n/a	catFR1	1	R1387E
39.882	1.999	49413	ENCODING_START	n/a	n/a	n/a	n/a	-999	-1	[0, 0, 0]	n/a	catFR1	1	R1387E
41.881	1.599	51411	WORD	n/a	n/a	WOOL	Materials	1	-1	[0, 0, 0]	n/a	catFR1	1	R1387E
43.48	0.966	53007	WORD_OFF	n/a	n/a	WOOL	Materials	1	-1	[0, 0, 0]	n/a	catFR1	1	R1387E
44.446	1.601	53984	WORD	n/a	n/a	LEATHER	Materials	2	-1	[0, 0, 0]	n/a	catFR1	1	R1387E
46.047	0.969	55580	WORD_OFF	n/a	n/a	LEATHER	Materials	2	-1	[0, 0, 0]	n/a	catFR1	1	R1387E
47.016	1.614	56544	WORD	n/a	n/a	FIREMAN	Professions	3	-1	[0, 0, 0]	n/a	catFR1	1	R1387E
48.63	1.0	58168	WORD_OFF	n/a	n/a	FIREMAN	Professions	3	-1	[0, 0, 0]	n/a	catFR1	1	R1387E
49.63	1.617	59160	WORD	n/a	n/a	PLUMBER	Professions	4	-1	[0, 0, 0]	n/a	catFR1	1	R1387E
51.247	0.8	60785	WORD_OFF	n/a	n/a	PLUMBER	Professions	4	-1	[0, 0, 0]	n/a	catFR1	1	R1387E
52.047	1.616	61575	WORD	n/a	n/a	HOUR	Times	5	-1	[0, 0, 0]	n/a	catFR1	1	R1387E
53.663	0.95	63200	WORD_OFF	n/a	n/a	HOUR	Times	5	-1	[0, 0, 0]	n/a	catFR1	1	R1387E
54.613	1.617	64149	WORD	n/a	n/a	DAY	Times	6	-1	[0, 0, 0]	n/a	catFR1	1	R1387E
56.23	0.766	65759	WORD_OFF	n/a	n/a	DAY	Times	6	-1	[0, 0, 0]	n/a	catFR1	1	R1387E
56.996	1.617	66535	WORD	n/a	n/a	DENIM	Materials	7	-1	[0, 0, 0]	n/a	catFR1	1	R1387E
58.613	0.967	68146	WORD_OFF	n/a	n/a	DENIM	Materials	7	-1	[0, 0, 0]	n/a	catFR1	1	R1387E
59.58	1.616	69109	WORD	n/a	n/a	SILK	Materials	8	-1	[0, 0, 0]	n/a	catFR1	1	R1387E
61.196	0.8	70733	WORD_OFF	n/a	n/a	SILK	Materials	8	-1	[0, 0, 0]	n/a	catFR1	1	R1387E
61.996	1.6	71524	WORD	n/a	n/a	MINUTE	Times	9	-1	[0, 0, 0]	n/a	catFR1	1	R1387E
63.596	0.984	73134	WORD_OFF	n/a	n/a	MINUTE	Times	9	-1	[0, 0, 0]	n/a	catFR1	1	R1387E
64.58	1.616	74112	WORD	n/a	n/a	SECOND	Times	10	-1	[0, 0, 0]	n/a	catFR1	1	R1387E
66.196	1.0	75722	WORD_OFF	n/a	n/a	SECOND	Times	10	-1	[0, 0, 0]	n/a	catFR1	1	R1387E
67.196	1.617	76728	WORD	n/a	n/a	FARMER	Professions	11	-1	[0, 0, 0]	n/a	catFR1	1	R1387E
68.813	0.866	78339	WORD_OFF	n/a	n/a	FARMER	Professions	11	-1	[0, 0, 0]	n/a	catFR1	1	R1387E
69.679	1.617	79216	WORD	n/a	n/a	TEACHER	Professions	12	-1	[0, 0, 0]	n/a	catFR1	1	R1387E
71.296	0.002	80826	WORD_OFF	n/a	n/a	TEACHER	Professions	12	-1	[0, 0, 0]	n/a	catFR1	1	R1387E
71.298	0.001	80826	ENCODING_END	n/a	n/a	n/a	n/a	-999	-1	[0, 0, 0]	n/a	catFR1	1	R1387E
71.299	0.0	80826	DISTRACT_START	n/a	n/a	n/a	n/a	-999	-1	[0, 0, 0]	n/a	catFR1	1	R1387E
71.297	0.002	80828	PROB	0.002	n/a	n/a	n/a	-999	-1	[3, 7, 5]	15	catFR1	1	R1387E
71.299	3.681	80830	START	n/a	n/a	n/a	n/a	-999	-1	[-999, -999, -999]	n/a	catFR1	1	R1387E
74.98	3.467	84511	PROB	3.467	n/a	n/a	n/a	-999	-1	[1, 5, 4]	10	catFR1	1	R1387E
78.447	3.016	87978	PROB	3.016	n/a	n/a	n/a	-999	-1	[4, 2, 3]	9	catFR1	1	R1387E
81.463	7.352	90994	PROB	7.352	n/a	n/a	n/a	-999	-1	[6, 8, 3]	17	catFR1	1	R1387E
88.815	6.615	98345	PROB	6.615	n/a	n/a	n/a	-999	-1	[8, 2, 5]	15	catFR1	1	R1387E
95.43	0.0	104960	STOP	n/a	n/a	n/a	n/a	-999	-1	[-999, -999, -999]	n/a	catFR1	1	R1387E
95.43	1.867	104965	DISTRACT_END	n/a	n/a	n/a	n/a	-999	-1	[0, 0, 0]	n/a	catFR1	1	R1387E
97.297	1.608	106830	REC_START	n/a	n/a	n/a	n/a	-999	-1	[0, 0, 0]	n/a	catFR1	1	R1387E
98.905	1.199	108435	REC_WORD	1.199	n/a	WOOL	Materials	1	-1	[0, 0, 0]	n/a	catFR1	1	R1387E
100.104	1.09	109634	REC_WORD	1.09	n/a	LEATHER	Materials	2	-1	[0, 0, 0]	n/a	catFR1	1	R1387E
101.194	1.595	110724	REC_WORD	1.595	n/a	FIREMAN	Professions	3	-1	[0, 0, 0]	n/a	catFR1	1	R1387E
102.789	1.284	112319	REC_WORD	1.284	n/a	TEACHER	Professions	12	-1	[0, 0, 0]	n/a	catFR1	1	R1387E
104.073	3.733	113603	REC_WORD	3.733	n/a	PLUMBER	Professions	4	-1	[0, 0, 0]	n/a	catFR1	1	R1387E
107.806	1.0	117336	REC_WORD	1.0	n/a	SILK	Materials	8	-1	[0, 0, 0]	n/a	catFR1	1	R1387E
108.806	18.79	118336	REC_WORD_VV	18.79	n/a	<>	n/a	-999	-1	[0, 0, 0]	n/a	catFR1	1	R1387E
127.596	9.867	137122	REC_END	n/a	n/a	n/a	n/a	-999	-1	[0, 0, 0]	n/a	catFR1	1	R1387E
137.463	10.351	146988	COUNTDOWN_START	n/a	n/a	n/a	n/a	-999	1	[0, 0, 0]	n/a	catFR1	1	R1387E
147.814	0.0	157339	COUNTDOWN_END	n/a	n/a	n/a	n/a	-999	1	[0, 0, 0]	n/a	catFR1	1	R1387E
147.814	1.832	157339	ENCODING_START	n/a	n/a	n/a	n/a	-999	1	[0, 0, 0]	n/a	catFR1	1	R1387E
149.646	1.617	159179	WORD	n/a	wordpools/wordpool_categorized_EN.txt	WHALE	Oceananimals	1	1	[0, 0, 0]	n/a	catFR1	1	R1387E
151.263	0.95	160790	WORD_OFF	n/a	n/a	WHALE	Oceananimals	1	1	[0, 0, 0]	n/a	catFR1	1	R1387E
152.213	1.616	161739	WORD	n/a	wordpools/wordpool_categorized_EN.txt	OCTOPUS	Oceananimals	2	1	[0, 0, 0]	n/a	catFR1	1	R1387E
153.829	0.8	163363	WORD_OFF	n/a	n/a	OCTOPUS	Oceananimals	2	1	[0, 0, 0]	n/a	catFR1	1	R1387E
154.629	1.601	164154	WORD	n/a	wordpools/wordpool_categorized_EN.txt	SUNFLOWER	Flowers	3	1	[0, 0, 0]	n/a	catFR1	1	R1387E
156.23	0.833	165764	WORD_OFF	n/a	n/a	SUNFLOWER	Flowers	3	1	[0, 0, 0]	n/a	catFR1	1	R1387E
157.063	1.6	166598	WORD	n/a	wordpools/wordpool_categorized_EN.txt	LILAC	Flowers	4	1	[0, 0, 0]	n/a	catFR1	1	R1387E
158.663	0.8	168194	WORD_OFF	n/a	n/a	LILAC	Flowers	4	1	[0, 0, 0]	n/a	catFR1	1	R1387E
159.463	1.6	168999	WORD	n/a	wordpools/wordpool_categorized_EN.txt	CABBAGE	Vegetables	5	1	[0, 0, 0]	n/a	catFR1	1	R1387E
161.063	0.916	170595	WORD_OFF	n/a	n/a	CABBAGE	Vegetables	5	1	[0, 0, 0]	n/a	catFR1	1	R1387E
161.979	1.6	171515	WORD	n/a	wordpools/wordpool_categorized_EN.txt	BROCCOLI	Vegetables	6	1	[0, 0, 0]	n/a	catFR1	1	R1387E
163.579	0.9	173111	WORD_OFF	n/a	n/a	BROCCOLI	Vegetables	6	1	[0, 0, 0]	n/a	catFR1	1	R1387E
164.479	1.6	174002	WORD	n/a	wordpools/wordpool_categorized_EN.txt	PLANKTON	Oceananimals	7	1	[0, 0, 0]	n/a	catFR1	1	R1387E
166.079	0.867	175612	WORD_OFF	n/a	n/a	PLANKTON	Oceananimals	7	1	[0, 0, 0]	n/a	catFR1	1	R1387E
166.946	1.616	176475	WORD	n/a	wordpools/wordpool_categorized_EN.txt	OYSTER	Oceananimals	8	1	[0, 0, 0]	n/a	catFR1	1	R1387E
168.562	0.767	178085	WORD_OFF	n/a	n/a	OYSTER	Oceananimals	8	1	[0, 0, 0]	n/a	catFR1	1	R1387E
169.329	1.617	178861	WORD	n/a	wordpools/wordpool_categorized_EN.txt	LETTUCE	Vegetables	9	1	[0, 0, 0]	n/a	catFR1	1	R1387E
170.946	0.966	180472	WORD_OFF	n/a	n/a	LETTUCE	Vegetables	9	1	[0, 0, 0]	n/a	catFR1	1	R1387E
171.912	1.617	181435	WORD	n/a	wordpools/wordpool_categorized_EN.txt	CAULIFLOWER	Vegetables	10	1	[0, 0, 0]	n/a	catFR1	1	R1387E
173.529	0.784	183059	WORD_OFF	n/a	n/a	CAULIFLOWER	Vegetables	10	1	[0, 0, 0]	n/a	catFR1	1	R1387E
174.313	1.616	183836	WORD	n/a	wordpools/wordpool_categorized_EN.txt	ROSE	Flowers	11	1	[0, 0, 0]	n/a	catFR1	1	R1387E
175.929	0.867	185460	WORD_OFF	n/a	n/a	ROSE	Flowers	11	1	[0, 0, 0]	n/a	catFR1	1	R1387E
176.796	1.601	186323	WORD	n/a	wordpools/wordpool_categorized_EN.txt	VIOLET	Flowers	12	1	[0, 0, 0]	n/a	catFR1	1	R1387E
178.397	0.0	187919	WORD_OFF	n/a	n/a	VIOLET	Flowers	12	1	[0, 0, 0]	n/a	catFR1	1	R1387E
178.397	0.001	187924	PROB	0.001	n/a	n/a	n/a	-999	1	[5, 6, 5]	16	catFR1	1	R1387E
178.398	0.0	187925	START	n/a	n/a	n/a	n/a	-999	1	[-999, -999, -999]	n/a	catFR1	1	R1387E
178.398	0.0	187933	ENCODING_END	n/a	n/a	n/a	n/a	-999	1	[0, 0, 0]	n/a	catFR1	1	R1387E
178.398	3.683	187933	DISTRACT_START	n/a	n/a	n/a	n/a	-999	1	[0, 0, 0]	n/a	catFR1	1	R1387E
182.081	7.799	191608	PROB	7.799	n/a	n/a	n/a	-999	1	[8, 6, 7]	21	catFR1	1	R1387E
189.88	4.917	199407	PROB	4.917	n/a	n/a	n/a	-999	1	[6, 5, 4]	15	catFR1	1	R1387E
194.797	4.85	204324	PROB	4.85	n/a	n/a	n/a	-999	1	[1, 6, 6]	13	catFR1	1	R1387E
199.647	0.0	209168	DISTRACT_END	n/a	n/a	n/a	n/a	-999	1	[0, 0, 0]	n/a	catFR1	1	R1387E
199.647	1.633	209174	STOP	n/a	n/a	n/a	n/a	-999	1	[-999, -999, -999]	n/a	catFR1	1	R1387E
201.28	2.208	210803	REC_START	n/a	n/a	n/a	n/a	-999	1	[0, 0, 0]	n/a	catFR1	1	R1387E
203.488	1.0	213015	REC_WORD	1.0	n/a	SUNFLOWER	Flowers	3	1	[0, 0, 0]	n/a	catFR1	1	R1387E
204.488	1.037	214014	REC_WORD_VV	1.037	n/a	<>	n/a	-999	1	[0, 0, 0]	n/a	catFR1	1	R1387E
205.525	2.95	215051	REC_WORD	2.95	n/a	VIOLET	Flowers	12	1	[0, 0, 0]	n/a	catFR1	1	R1387E
208.475	8.62	218001	REC_WORD	8.62	n/a	CABBAGE	Vegetables	5	1	[0, 0, 0]	n/a	catFR1	1	R1387E
217.095	1.0	226621	REC_WORD	1.0	n/a	CAULIFLOWER	Vegetables	10	1	[0, 0, 0]	n/a	catFR1	1	R1387E
218.095	1.573	227621	REC_WORD_VV	1.573	n/a	<>	n/a	-999	1	[0, 0, 0]	n/a	catFR1	1	R1387E
219.668	1.0	229194	REC_WORD	1.0	n/a	LILAC	Flowers	4	1	[0, 0, 0]	n/a	catFR1	1	R1387E
220.668	7.312	230194	REC_WORD_VV	7.312	n/a	<>	n/a	-999	1	[0, 0, 0]	n/a	catFR1	1	R1387E
227.98	3.602	237506	REC_WORD	3.602	n/a	ROSE	Flowers	11	1	[0, 0, 0]	n/a	catFR1	1	R1387E
231.582	3.198	241110	REC_END	n/a	n/a	n/a	n/a	-999	1	[0, 0, 0]	n/a	catFR1	1	R1387E
234.78	10.351	244304	COUNTDOWN_START	n/a	n/a	n/a	n/a	-999	2	[0, 0, 0]	n/a	catFR1	1	R1387E
245.131	0.0	254656	COUNTDOWN_END	n/a	n/a	n/a	n/a	-999	2	[0, 0, 0]	n/a	catFR1	1	R1387E
245.131	2.149	254656	ENCODING_START	n/a	n/a	n/a	n/a	-999	2	[0, 0, 0]	n/a	catFR1	1	R1387E
247.28	1.617	256812	WORD	n/a	wordpools/wordpool_categorized_EN.txt	ROOSTER	Farmanimals	1	2	[0, 0, 0]	n/a	catFR1	1	R1387E
248.897	0.783	258422	WORD_OFF	n/a	n/a	ROOSTER	Farmanimals	1	2	[0, 0, 0]	n/a	catFR1	1	R1387E
249.68	1.617	259213	WORD	n/a	wordpools/wordpool_categorized_EN.txt	CHICKEN	Farmanimals	2	2	[0, 0, 0]	n/a	catFR1	1	R1387E
251.297	0.832	260823	WORD_OFF	n/a	n/a	CHICKEN	Farmanimals	2	2	[0, 0, 0]	n/a	catFR1	1	R1387E
252.129	1.601	261657	WORD	n/a	wordpools/wordpool_categorized_EN.txt	RATCHET	Tools	3	2	[0, 0, 0]	n/a	catFR1	1	R1387E
253.73	0.767	263253	WORD_OFF	n/a	n/a	RATCHET	Tools	3	2	[0, 0, 0]	n/a	catFR1	1	R1387E
254.497	1.616	264029	WORD	n/a	wordpools/wordpool_categorized_EN.txt	CROWBAR	Tools	4	2	[0, 0, 0]	n/a	catFR1	1	R1387E
256.113	0.934	265640	WORD_OFF	n/a	n/a	CROWBAR	Tools	4	2	[0, 0, 0]	n/a	catFR1	1	R1387E
257.047	1.6	266574	WORD	n/a	wordpools/wordpool_categorized_EN.txt	STAPLER	Officesupplies	5	2	[0, 0, 0]	n/a	catFR1	1	R1387E
258.647	0.85	268170	WORD_OFF	n/a	n/a	STAPLER	Officesupplies	5	2	[0, 0, 0]	n/a	catFR1	1	R1387E
259.497	1.616	269018	WORD	n/a	wordpools/wordpool_categorized_EN.txt	RULER	Officesupplies	6	2	[0, 0, 0]	n/a	catFR1	1	R1387E
261.113	0.884	270643	WORD_OFF	n/a	n/a	RULER	Officesupplies	6	2	[0, 0, 0]	n/a	catFR1	1	R1387E
261.997	1.615	271520	WORD	n/a	wordpools/wordpool_categorized_EN.txt	WRENCH	Tools	7	2	[0, 0, 0]	n/a	catFR1	1	R1387E
263.612	0.985	273144	WORD_OFF	n/a	n/a	WRENCH	Tools	7	2	[0, 0, 0]	n/a	catFR1	1	R1387E
264.597	1.616	274122	WORD	n/a	wordpools/wordpool_categorized_EN.txt	SAW	Tools	8	2	[0, 0, 0]	n/a	catFR1	1	R1387E
266.213	0.833	275732	WORD_OFF	n/a	n/a	SAW	Tools	8	2	[0, 0, 0]	n/a	catFR1	1	R1387E
267.046	1.601	276566	WORD	n/a	wordpools/wordpool_categorized_EN.txt	CALF	Farmanimals	9	2	[0, 0, 0]	n/a	catFR1	1	R1387E
268.647	0.916	278176	WORD_OFF	n/a	n/a	CALF	Farmanimals	9	2	[0, 0, 0]	n/a	catFR1	1	R1387E
269.563	1.616	279082	WORD	n/a	wordpools/wordpool_categorized_EN.txt	GOAT	Farmanimals	10	2	[0, 0, 0]	n/a	catFR1	1	R1387E
271.179	0.851	280707	WORD_OFF	n/a	n/a	GOAT	Farmanimals	10	2	[0, 0, 0]	n/a	catFR1	1	R1387E
272.03	1.616	281555	WORD	n/a	wordpools/wordpool_categorized_EN.txt	PAPER	Officesupplies	11	2	[0, 0, 0]	n/a	catFR1	1	R1387E
273.646	0.884	283165	WORD_OFF	n/a	n/a	PAPER	Officesupplies	11	2	[0, 0, 0]	n/a	catFR1	1	R1387E
274.53	1.616	284056	WORD	n/a	wordpools/wordpool_categorized_EN.txt	TAPE	Officesupplies	12	2	[0, 0, 0]	n/a	catFR1	1	R1387E
276.146	0.002	285667	WORD_OFF	n/a	n/a	TAPE	Officesupplies	12	2	[0, 0, 0]	n/a	catFR1	1	R1387E
276.148	0.0	285667	ENCODING_END	n/a	n/a	n/a	n/a	-999	2	[0, 0, 0]	n/a	catFR1	1	R1387E
276.147	0.001	285671	PROB	0.001	n/a	n/a	n/a	-999	2	[5, 3, 6]	14	catFR1	1	R1387E
276.148	0.0	285672	START	n/a	n/a	n/a	n/a	-999	2	[-999, -999, -999]	n/a	catFR1	1	R1387E
276.148	6.016	285681	DISTRACT_START	n/a	n/a	n/a	n/a	-999	2	[0, 0, 0]	n/a	catFR1	1	R1387E
282.164	4.7	291688	PROB	4.7	n/a	n/a	n/a	-999	2	[1, 6, 8]	15	catFR1	1	R1387E
286.864	4.317	296388	PROB	4.317	n/a	n/a	n/a	-999	2	[2, 8, 7]	17	catFR1	1	R1387E
291.181	4.982	300705	PROB	4.982	n/a	n/a	n/a	-999	2	[5, 2, 6]	13	catFR1	1	R1387E
296.163	0.0	305686	STOP	n/a	n/a	n/a	n/a	-999	2	[-999, -999, -999]	n/a	catFR1	1	R1387E
296.163	1.667	305693	DISTRACT_END	n/a	n/a	n/a	n/a	-999	2	[0, 0, 0]	n/a	catFR1	1	R1387E
297.83	1.292	307358	REC_START	n/a	n/a	n/a	n/a	-999	2	[0, 0, 0]	n/a	catFR1	1	R1387E
299.122	1.234	308645	REC_WORD	1.234	n/a	ROOSTER	Farmanimals	1	2	[0, 0, 0]	n/a	catFR1	1	R1387E
300.356	2.823	309879	REC_WORD	2.823	n/a	CHICKEN	Farmanimals	2	2	[0, 0, 0]	n/a	catFR1	1	R1387E
303.179	1.071	312702	REC_WORD	1.071	n/a	RANCH	n/a	-999	2	[0, 0, 0]	n/a	catFR1	1	R1387E
304.25	1.692	313773	REC_WORD	1.692	n/a	SAW	Tools	8	2	[0, 0, 0]	n/a	catFR1	1	R1387E
305.942	22.191	315465	REC_WORD	22.191	n/a	RATCHET	Tools	3	2	[0, 0, 0]	n/a	catFR1	1	R1387E
328.133	3.047	337650	REC_END	n/a	n/a	n/a	n/a	-999	2	[0, 0, 0]	n/a	catFR1	1	R1387E
331.18	10.351	340701	COUNTDOWN_START	n/a	n/a	n/a	n/a	-999	3	[0, 0, 0]	n/a	catFR1	1	R1387E
341.531	0.0	351052	COUNTDOWN_END	n/a	n/a	n/a	n/a	-999	3	[0, 0, 0]	n/a	catFR1	1	R1387E
341.531	2.032	351052	ENCODING_START	n/a	n/a	n/a	n/a	-999	3	[0, 0, 0]	n/a	catFR1	1	R1387E
343.563	1.6	353079	WORD	n/a	wordpools/wordpool_categorized_EN.txt	BUTTERFLY	Insects	1	3	[0, 0, 0]	n/a	catFR1	1	R1387E
345.163	0.984	354690	WORD_OFF	n/a	n/a	BUTTERFLY	Insects	1	3	[0, 0, 0]	n/a	catFR1	1	R1387E
346.147	1.615	355667	WORD	n/a	wordpools/wordpool_categorized_EN.txt	BEE	Insects	2	3	[0, 0, 0]	n/a	catFR1	1	R1387E
347.762	0.868	357277	WORD_OFF	n/a	n/a	BEE	Insects	2	3	[0, 0, 0]	n/a	catFR1	1	R1387E
348.63	1.617	358154	WORD	n/a	wordpools/wordpool_categorized_EN.txt	LILY	Flowers	3	3	[0, 0, 0]	n/a	catFR1	1	R1387E
350.247	0.8	359765	WORD_OFF	n/a	n/a	LILY	Flowers	3	3	[0, 0, 0]	n/a	catFR1	1	R1387E
351.047	1.6	360570	WORD	n/a	wordpools/wordpool_categorized_EN.txt	TULIP	Flowers	4	3	[0, 0, 0]	n/a	catFR1	1	R1387E
352.647	0.816	362165	WORD_OFF	n/a	n/a	TULIP	Flowers	4	3	[0, 0, 0]	n/a	catFR1	1	R1387E
353.463	1.6	362985	WORD	n/a	wordpools/wordpool_categorized_EN.txt	SPINACH	Vegetables	5	3	[0, 0, 0]	n/a	catFR1	1	R1387E
355.063	0.867	364581	WORD_OFF	n/a	n/a	SPINACH	Vegetables	5	3	[0, 0, 0]	n/a	catFR1	1	R1387E
355.93	1.617	365458	WORD	n/a	wordpools/wordpool_categorized_EN.txt	PEAS	Vegetables	6	3	[0, 0, 0]	n/a	catFR1	1	R1387E
357.547	0.999	367068	WORD_OFF	n/a	n/a	PEAS	Vegetables	6	3	[0, 0, 0]	n/a	catFR1	1	R1387E
358.546	1.601	368074	WORD	n/a	wordpools/wordpool_categorized_EN.txt	CARNATION	Flowers	7	3	[0, 0, 0]	n/a	catFR1	1	R1387E
360.147	0.9	369670	WORD_OFF	n/a	n/a	CARNATION	Flowers	7	3	[0, 0, 0]	n/a	catFR1	1	R1387E
361.047	1.615	370576	WORD	n/a	wordpools/wordpool_categorized_EN.txt	DAFFODIL	Flowers	8	3	[0, 0, 0]	n/a	catFR1	1	R1387E
362.662	0.801	372186	WORD_OFF	n/a	n/a	DAFFODIL	Flowers	8	3	[0, 0, 0]	n/a	catFR1	1	R1387E
363.463	1.617	372991	WORD	n/a	wordpools/wordpool_categorized_EN.txt	CELERY	Vegetables	9	3	[0, 0, 0]	n/a	catFR1	1	R1387E
365.08	0.766	374601	WORD_OFF	n/a	n/a	CELERY	Vegetables	9	3	[0, 0, 0]	n/a	catFR1	1	R1387E
365.846	1.6	375363	WORD	n/a	wordpools/wordpool_categorized_EN.txt	ONION	Vegetables	10	3	[0, 0, 0]	n/a	catFR1	1	R1387E
367.446	0.95	376974	WORD_OFF	n/a	n/a	ONION	Vegetables	10	3	[0, 0, 0]	n/a	catFR1	1	R1387E
368.396	1.6	377922	WORD	n/a	wordpools/wordpool_categorized_EN.txt	ROACH	Insects	11	3	[0, 0, 0]	n/a	catFR1	1	R1387E
369.996	0.901	379518	WORD_OFF	n/a	n/a	ROACH	Insects	11	3	[0, 0, 0]	n/a	catFR1	1	R1387E
370.897	1.6	380424	WORD	n/a	wordpools/wordpool_categorized_EN.txt	GNAT	Insects	12	3	[0, 0, 0]	n/a	catFR1	1	R1387E
372.497	0.001	382018	PROB	0.001	n/a	n/a	n/a	-999	3	[2, 7, 6]	15	catFR1	1	R1387E
372.498	0.0	382019	START	n/a	n/a	n/a	n/a	-999	3	[-999, -999, -999]	n/a	catFR1	1	R1387E
372.497	0.001	382020	WORD_OFF	n/a	n/a	GNAT	Insects	12	3	[0, 0, 0]	n/a	catFR1	1	R1387E
372.498	0.0	382020	ENCODING_END	n/a	n/a	n/a	n/a	-999	3	[0, 0, 0]	n/a	catFR1	1	R1387E
372.498	8.732	382020	DISTRACT_START	n/a	n/a	n/a	n/a	-999	3	[0, 0, 0]	n/a	catFR1	1	R1387E
381.23	6.801	390751	PROB	6.801	n/a	n/a	n/a	-999	3	[3, 2, 2]	7	catFR1	1	R1387E
388.031	2.883	397551	PROB	2.883	n/a	n/a	n/a	-999	3	[4, 6, 2]	12	catFR1	1	R1387E
390.914	2.833	400434	PROB	2.833	n/a	n/a	n/a	-999	3	[8, 4, 4]	16	catFR1	1	R1387E
393.747	0.0	403267	STOP	n/a	n/a	n/a	n/a	-999	3	[-999, -999, -999]	n/a	catFR1	1	R1387E
393.747	1.633	403269	DISTRACT_END	n/a	n/a	n/a	n/a	-999	3	[0, 0, 0]	n/a	catFR1	1	R1387E
395.38	4.958	404904	REC_START	n/a	n/a	n/a	n/a	-999	3	[0, 0, 0]	n/a	catFR1	1	R1387E
400.338	10.459	409858	REC_WORD	10.459	n/a	TULIP	Flowers	4	3	[0, 0, 0]	n/a	catFR1	1	R1387E
410.797	3.239	420317	REC_WORD	3.239	n/a	GNAT	Insects	12	3	[0, 0, 0]	n/a	catFR1	1	R1387E
414.036	1.0	423555	REC_WORD	1.0	n/a	CARNATION	Flowers	7	3	[0, 0, 0]	n/a	catFR1	1	R1387E
415.036	7.066	424555	REC_WORD_VV	7.066	n/a	<>	n/a	-999	3	[0, 0, 0]	n/a	catFR1	1	R1387E
422.102	1.0	431621	REC_WORD	1.0	n/a	BUTTERFLY	Insects	1	3	[0, 0, 0]	n/a	catFR1	1	R1387E
423.102	0.326	432621	REC_WORD_VV	0.326	n/a	<>	n/a	-999	3	[0, 0, 0]	n/a	catFR1	1	R1387E
423.428	2.258	432947	REC_WORD	2.258	n/a	BEE	Insects	2	3	[0, 0, 0]	n/a	catFR1	1	R1387E
425.686	2.526	435211	REC_END	n/a	n/a	n/a	n/a	-999	3	[0, 0, 0]	n/a	catFR1	1	R1387E
428.212	10.352	437730	COUNTDOWN_START	n/a	n/a	n/a	n/a	-999	4	[0, 0, 0]	n/a	catFR1	1	R1387E
438.564	0.0	448081	COUNTDOWN_END	n/a	n/a	n/a	n/a	-999	4	[0, 0, 0]	n/a	catFR1	1	R1387E
438.564	1.933	448081	ENCODING_START	n/a	n/a	n/a	n/a	-999	4	[0, 0, 0]	n/a	catFR1	1	R1387E
440.497	1.6	450022	WORD	n/a	wordpools/wordpool_categorized_EN.txt	MARBLES	Toys	1	4	[0, 0, 0]	n/a	catFR1	1	R1387E
442.097	0.866	451618	WORD_OFF	n/a	n/a	MARBLES	Toys	1	4	[0, 0, 0]	n/a	catFR1	1	R1387E
442.963	1.6	452480	WORD	n/a	wordpools/wordpool_categorized_EN.txt	BLOCKS	Toys	2	4	[0, 0, 0]	n/a	catFR1	1	R1387E
444.563	0.85	454076	WORD_OFF	n/a	n/a	BLOCKS	Toys	2	4	[0, 0, 0]	n/a	catFR1	1	R1387E
445.413	1.6	454939	WORD	n/a	wordpools/wordpool_categorized_EN.txt	SOCKS	Clothing	3	4	[0, 0, 0]	n/a	catFR1	1	R1387E
447.013	1.0	456535	WORD_OFF	n/a	n/a	SOCKS	Clothing	3	4	[0, 0, 0]	n/a	catFR1	1	R1387E
448.013	1.617	457527	WORD	n/a	wordpools/wordpool_categorized_EN.txt	SHOES	Clothing	4	4	[0, 0, 0]	n/a	catFR1	1	R1387E
449.63	0.817	459151	WORD_OFF	n/a	n/a	SHOES	Clothing	4	4	[0, 0, 0]	n/a	catFR1	1	R1387E
450.447	1.616	459971	WORD	n/a	wordpools/wordpool_categorized_EN.txt	CROW	Birds	5	4	[0, 0, 0]	n/a	catFR1	1	R1387E
452.063	0.834	461581	WORD_OFF	n/a	n/a	CROW	Birds	5	4	[0, 0, 0]	n/a	catFR1	1	R1387E
452.897	1.616	462415	WORD	n/a	wordpools/wordpool_categorized_EN.txt	GOOSE	Birds	6	4	[0, 0, 0]	n/a	catFR1	1	R1387E
454.513	0.766	464039	WORD_OFF	n/a	n/a	GOOSE	Birds	6	4	[0, 0, 0]	n/a	catFR1	1	R1387E
455.279	1.617	464801	WORD	n/a	wordpools/wordpool_categorized_EN.txt	BASKETBALL	Toys	7	4	[0, 0, 0]	n/a	catFR1	1	R1387E
456.896	0.8	466412	WORD_OFF	n/a	n/a	BASKETBALL	Toys	7	4	[0, 0, 0]	n/a	catFR1	1	R1387E
457.696	1.617	467217	WORD	n/a	wordpools/wordpool_categorized_EN.txt	BARBIE	Toys	8	4	[0, 0, 0]	n/a	catFR1	1	R1387E
459.313	0.866	468827	WORD_OFF	n/a	n/a	BARBIE	Toys	8	4	[0, 0, 0]	n/a	catFR1	1	R1387E
460.179	1.618	469704	WORD	n/a	wordpools/wordpool_categorized_EN.txt	COAT	Clothing	9	4	[0, 0, 0]	n/a	catFR1	1	R1387E
461.797	0.849	471314	WORD_OFF	n/a	n/a	COAT	Clothing	9	4	[0, 0, 0]	n/a	catFR1	1	R1387E
462.646	1.601	472162	WORD	n/a	wordpools/wordpool_categorized_EN.txt	PANTS	Clothing	10	4	[0, 0, 0]	n/a	catFR1	1	R1387E
464.247	0.966	473758	WORD_OFF	n/a	n/a	PANTS	Clothing	10	4	[0, 0, 0]	n/a	catFR1	1	R1387E
465.213	1.601	474736	WORD	n/a	wordpools/wordpool_categorized_EN.txt	ROBIN	Birds	11	4	[0, 0, 0]	n/a	catFR1	1	R1387E
466.814	0.783	476332	WORD_OFF	n/a	n/a	ROBIN	Birds	11	4	[0, 0, 0]	n/a	catFR1	1	R1387E
467.597	1.617	477117	WORD	n/a	wordpools/wordpool_categorized_EN.txt	HAWK	Birds	12	4	[0, 0, 0]	n/a	catFR1	1	R1387E
469.214	0.0	478732	PROB	0.0	n/a	n/a	n/a	-999	4	[6, 3, 5]	14	catFR1	1	R1387E
469.213	0.002	478733	WORD_OFF	n/a	n/a	HAWK	Birds	12	4	[0, 0, 0]	n/a	catFR1	1	R1387E
469.215	0.0	478733	ENCODING_END	n/a	n/a	n/a	n/a	-999	4	[0, 0, 0]	n/a	catFR1	1	R1387E
469.215	0.0	478733	DISTRACT_START	n/a	n/a	n/a	n/a	-999	4	[0, 0, 0]	n/a	catFR1	1	R1387E
469.215	4.531	478733	START	n/a	n/a	n/a	n/a	-999	4	[-999, -999, -999]	n/a	catFR1	1	R1387E
473.746	4.168	483263	PROB	4.168	n/a	n/a	n/a	-999	4	[2, 2, 5]	9	catFR1	1	R1387E
477.914	3.017	487431	PROB	3.017	n/a	n/a	n/a	-999	4	[3, 7, 4]	14	catFR1	1	R1387E
480.931	5.883	490448	PROB	5.883	n/a	n/a	n/a	-999	4	[5, 6, 8]	19	catFR1	1	R1387E
486.814	5.649	496331	PROB	5.649	n/a	n/a	n/a	-999	4	[3, 6, 2]	11	catFR1	1	R1387E
492.463	0.0	501980	DISTRACT_END	n/a	n/a	n/a	n/a	-999	4	[0, 0, 0]	n/a	catFR1	1	R1387E
492.463	1.717	501980	STOP	n/a	n/a	n/a	n/a	-999	4	[-999, -999, -999]	n/a	catFR1	1	R1387E
494.18	3.417	503702	REC_START	n/a	n/a	n/a	n/a	-999	4	[0, 0, 0]	n/a	catFR1	1	R1387E
497.597	1.0	507114	REC_WORD	1.0	n/a	SOCKS	Clothing	3	4	[0, 0, 0]	n/a	catFR1	1	R1387E
498.597	0.61	508114	REC_WORD_VV	0.61	n/a	<>	n/a	-999	4	[0, 0, 0]	n/a	catFR1	1	R1387E
499.207	1.0	508724	REC_WORD	1.0	n/a	SHOES	Clothing	4	4	[0, 0, 0]	n/a	catFR1	1	R1387E
500.207	8.27	509724	REC_WORD_VV	8.27	n/a	<>	n/a	-999	4	[0, 0, 0]	n/a	catFR1	1	R1387E
508.477	1.0	517993	REC_WORD	1.0	n/a	PANTS	Clothing	10	4	[0, 0, 0]	n/a	catFR1	1	R1387E
509.477	15.002	518993	REC_WORD_VV	15.002	n/a	<>	n/a	-999	4	[0, 0, 0]	n/a	catFR1	1	R1387E
524.479	2.651	533994	REC_END	n/a	n/a	n/a	n/a	-999	4	[0, 0, 0]	n/a	catFR1	1	R1387E
527.13	10.35	536642	COUNTDOWN_START	n/a	n/a	n/a	n/a	-999	5	[0, 0, 0]	n/a	catFR1	1	R1387E
537.48	0.0	546994	COUNTDOWN_END	n/a	n/a	n/a	n/a	-999	5	[0, 0, 0]	n/a	catFR1	1	R1387E
537.48	2.099	546994	ENCODING_START	n/a	n/a	n/a	n/a	-999	5	[0, 0, 0]	n/a	catFR1	1	R1387E
539.579	1.6	549093	WORD	n/a	wordpools/wordpool_categorized_EN.txt	PEN	Officesupplies	1	5	[0, 0, 0]	n/a	catFR1	1	R1387E
541.179	0.769	550688	WORD_OFF	n/a	n/a	PEN	Officesupplies	1	5	[0, 0, 0]	n/a	catFR1	1	R1387E
541.948	1.615	551465	WORD	n/a	wordpools/wordpool_categorized_EN.txt	FOLDER	Officesupplies	2	5	[0, 0, 0]	n/a	catFR1	1	R1387E
543.563	0.816	553075	WORD_OFF	n/a	n/a	FOLDER	Officesupplies	2	5	[0, 0, 0]	n/a	catFR1	1	R1387E
544.379	1.617	553894	WORD	n/a	wordpools/wordpool_categorized_EN.txt	BOAT	Vehicles	3	5	[0, 0, 0]	n/a	catFR1	1	R1387E
545.996	0.767	555505	WORD_OFF	n/a	n/a	BOAT	Vehicles	3	5	[0, 0, 0]	n/a	catFR1	1	R1387E
546.763	1.6	556281	WORD	n/a	wordpools/wordpool_categorized_EN.txt	BIKE	Vehicles	4	5	[0, 0, 0]	n/a	catFR1	1	R1387E
548.363	0.933	557877	WORD_OFF	n/a	n/a	BIKE	Vehicles	4	5	[0, 0, 0]	n/a	catFR1	1	R1387E
549.296	1.601	558811	WORD	n/a	wordpools/wordpool_categorized_EN.txt	CEILING	Building	5	5	[0, 0, 0]	n/a	catFR1	1	R1387E
550.897	0.767	560407	WORD_OFF	n/a	n/a	CEILING	Building	5	5	[0, 0, 0]	n/a	catFR1	1	R1387E
551.664	1.6	561183	WORD	n/a	wordpools/wordpool_categorized_EN.txt	FLOOR	Building	6	5	[0, 0, 0]	n/a	catFR1	1	R1387E
553.264	1.0	562779	WORD_OFF	n/a	n/a	FLOOR	Building	6	5	[0, 0, 0]	n/a	catFR1	1	R1387E
554.264	1.6	563786	WORD	n/a	wordpools/wordpool_categorized_EN.txt	BINDER	Officesupplies	7	5	[0, 0, 0]	n/a	catFR1	1	R1387E
555.864	0.917	565381	WORD_OFF	n/a	n/a	BINDER	Officesupplies	7	5	[0, 0, 0]	n/a	catFR1	1	R1387E
556.781	1.616	566302	WORD	n/a	wordpools/wordpool_categorized_EN.txt	NOTEBOOK	Officesupplies	8	5	[0, 0, 0]	n/a	catFR1	1	R1387E
558.397	0.966	567912	WORD_OFF	n/a	n/a	NOTEBOOK	Officesupplies	8	5	[0, 0, 0]	n/a	catFR1	1	R1387E
559.363	1.6	568875	WORD	n/a	wordpools/wordpool_categorized_EN.txt	JEEP	Vehicles	9	5	[0, 0, 0]	n/a	catFR1	1	R1387E
560.963	0.95	570485	WORD_OFF	n/a	n/a	JEEP	Vehicles	9	5	[0, 0, 0]	n/a	catFR1	1	R1387E
561.913	1.6	571434	WORD	n/a	wordpools/wordpool_categorized_EN.txt	CAR	Vehicles	10	5	[0, 0, 0]	n/a	catFR1	1	R1387E
563.513	0.817	573030	WORD_OFF	n/a	n/a	CAR	Vehicles	10	5	[0, 0, 0]	n/a	catFR1	1	R1387E
564.33	1.6	573849	WORD	n/a	wordpools/wordpool_categorized_EN.txt	ROOF	Building	11	5	[0, 0, 0]	n/a	catFR1	1	R1387E
565.93	0.783	575445	WORD_OFF	n/a	n/a	ROOF	Building	11	5	[0, 0, 0]	n/a	catFR1	1	R1387E
566.713	1.601	576222	WORD	n/a	wordpools/wordpool_categorized_EN.txt	FOUNDATION	Building	12	5	[0, 0, 0]	n/a	catFR1	1	R1387E
568.314	0.001	577828	PROB	0.001	n/a	n/a	n/a	-999	5	[1, 1, 5]	7	catFR1	1	R1387E
568.315	0.0	577829	START	n/a	n/a	n/a	n/a	-999	5	[-999, -999, -999]	n/a	catFR1	1	R1387E
568.313	0.002	577832	WORD_OFF	n/a	n/a	FOUNDATION	Building	12	5	[0, 0, 0]	n/a	catFR1	1	R1387E
568.315	0.0	577832	ENCODING_END	n/a	n/a	n/a	n/a	-999	5	[0, 0, 0]	n/a	catFR1	1	R1387E
568.315	4.382	577832	DISTRACT_START	n/a	n/a	n/a	n/a	-999	5	[0, 0, 0]	n/a	catFR1	1	R1387E
572.697	4.8	582211	PROB	4.8	n/a	n/a	n/a	-999	5	[3, 4, 5]	12	catFR1	1	R1387E
577.497	7.367	587011	PROB	7.367	n/a	n/a	n/a	-999	5	[6, 2, 7]	15	catFR1	1	R1387E
584.864	4.199	594378	PROB	4.199	n/a	n/a	n/a	-999	5	[6, 1, 7]	14	catFR1	1	R1387E
589.063	0.0	598577	STOP	n/a	n/a	n/a	n/a	-999	5	[-999, -999, -999]	n/a	catFR1	1	R1387E
589.063	1.617	598578	DISTRACT_END	n/a	n/a	n/a	n/a	-999	5	[0, 0, 0]	n/a	catFR1	1	R1387E
590.68	29.999	600199	REC_START	n/a	n/a	n/a	n/a	-999	5	[0, 0, 0]	n/a	catFR1	1	R1387E
620.679	0.269	630191	REC_WORD_VV	0.269	n/a	<>	n/a	-999	5	[0, 0, 0]	n/a	catFR1	1	R1387E
620.948	2.465	630462	REC_END	n/a	n/a	n/a	n/a	-999	5	[0, 0, 0]	n/a	catFR1	1	R1387E
623.413	10.351	632924	COUNTDOWN_START	n/a	n/a	n/a	n/a	-999	6	[0, 0, 0]	n/a	catFR1	1	R1387E
633.764	0.0	643275	COUNTDOWN_END	n/a	n/a	n/a	n/a	-999	6	[0, 0, 0]	n/a	catFR1	1	R1387E
633.764	1.916	643275	ENCODING_START	n/a	n/a	n/a	n/a	-999	6	[0, 0, 0]	n/a	catFR1	1	R1387E
635.68	1.6	645187	WORD	n/a	wordpools/wordpool_categorized_EN.txt	VAN	Vehicles	1	6	[0, 0, 0]	n/a	catFR1	1	R1387E
637.28	0.849	646797	WORD_OFF	n/a	n/a	VAN	Vehicles	1	6	[0, 0, 0]	n/a	catFR1	1	R1387E
638.129	1.601	647646	WORD	n/a	wordpools/wordpool_categorized_EN.txt	MOTORCYCLE	Vehicles	2	6	[0, 0, 0]	n/a	catFR1	1	R1387E
639.73	0.783	649241	WORD_OFF	n/a	n/a	MOTORCYCLE	Vehicles	2	6	[0, 0, 0]	n/a	catFR1	1	R1387E
640.513	1.616	650032	WORD	n/a	wordpools/wordpool_categorized_EN.txt	BALL	Toys	3	6	[0, 0, 0]	n/a	catFR1	1	R1387E
642.129	0.917	651642	WORD_OFF	n/a	n/a	BALL	Toys	3	6	[0, 0, 0]	n/a	catFR1	1	R1387E
643.046	1.617	652562	WORD	n/a	wordpools/wordpool_categorized_EN.txt	DOLL	Toys	4	6	[0, 0, 0]	n/a	catFR1	1	R1387E
644.663	0.766	654173	WORD_OFF	n/a	n/a	DOLL	Toys	4	6	[0, 0, 0]	n/a	catFR1	1	R1387E
645.429	1.601	654949	WORD	n/a	wordpools/wordpool_categorized_EN.txt	PEAR	Fruit	5	6	[0, 0, 0]	n/a	catFR1	1	R1387E
647.03	1.0	656545	WORD_OFF	n/a	n/a	PEAR	Fruit	5	6	[0, 0, 0]	n/a	catFR1	1	R1387E
648.03	1.6	657537	WORD	n/a	wordpools/wordpool_categorized_EN.txt	PEACH	Fruit	6	6	[0, 0, 0]	n/a	catFR1	1	R1387E
649.63	0.917	659147	WORD_OFF	n/a	n/a	PEACH	Fruit	6	6	[0, 0, 0]	n/a	catFR1	1	R1387E
650.547	1.6	660053	WORD	n/a	wordpools/wordpool_categorized_EN.txt	MOPED	Vehicles	7	6	[0, 0, 0]	n/a	catFR1	1	R1387E
652.147	0.95	661663	WORD_OFF	n/a	n/a	MOPED	Vehicles	7	6	[0, 0, 0]	n/a	catFR1	1	R1387E
653.097	1.6	662612	WORD	n/a	wordpools/wordpool_categorized_EN.txt	BUS	Vehicles	8	6	[0, 0, 0]	n/a	catFR1	1	R1387E
654.697	0.85	664208	WORD_OFF	n/a	n/a	BUS	Vehicles	8	6	[0, 0, 0]	n/a	catFR1	1	R1387E
655.547	1.6	665056	WORD	n/a	wordpools/wordpool_categorized_EN.txt	BASEBALL	Toys	9	6	[0, 0, 0]	n/a	catFR1	1	R1387E
657.147	0.95	666666	WORD_OFF	n/a	n/a	BASEBALL	Toys	9	6	[0, 0, 0]	n/a	catFR1	1	R1387E
658.097	1.6	667615	WORD	n/a	wordpools/wordpool_categorized_EN.txt	PUZZLE	Toys	10	6	[0, 0, 0]	n/a	catFR1	1	R1387E
659.697	0.766	669211	WORD_OFF	n/a	n/a	PUZZLE	Toys	10	6	[0, 0, 0]	n/a	catFR1	1	R1387E
660.463	1.617	669973	WORD	n/a	wordpools/wordpool_categorized_EN.txt	PLUM	Fruit	11	6	[0, 0, 0]	n/a	catFR1	1	R1387E
662.08	0.883	671597	WORD_OFF	n/a	n/a	PLUM	Fruit	11	6	[0, 0, 0]	n/a	catFR1	1	R1387E
662.963	1.6	672474	WORD	n/a	wordpools/wordpool_categorized_EN.txt	LEMON	Fruit	12	6	[0, 0, 0]	n/a	catFR1	1	R1387E
664.563	0.001	674070	WORD_OFF	n/a	n/a	LEMON	Fruit	12	6	[0, 0, 0]	n/a	catFR1	1	R1387E
664.564	0.001	674075	PROB	0.001	n/a	n/a	n/a	-999	6	[5, 7, 6]	18	catFR1	1	R1387E
664.565	0.0	674076	START	n/a	n/a	n/a	n/a	-999	6	[-999, -999, -999]	n/a	catFR1	1	R1387E
664.565	0.0	674084	ENCODING_END	n/a	n/a	n/a	n/a	-999	6	[0, 0, 0]	n/a	catFR1	1	R1387E
664.565	10.215	674084	DISTRACT_START	n/a	n/a	n/a	n/a	-999	6	[0, 0, 0]	n/a	catFR1	1	R1387E
674.78	5.218	684291	PROB	5.218	n/a	n/a	n/a	-999	6	[7, 7, 5]	20	catFR1	1	R1387E
679.998	4.033	689508	PROB	4.033	n/a	n/a	n/a	-999	6	[4, 6, 3]	13	catFR1	1	R1387E
684.031	5.516	693541	PROB	5.516	n/a	n/a	n/a	-999	6	[6, 5, 4]	15	catFR1	1	R1387E
689.547	0.0	699057	DISTRACT_END	n/a	n/a	n/a	n/a	-999	6	[0, 0, 0]	n/a	catFR1	1	R1387E
689.547	1.633	699057	STOP	n/a	n/a	n/a	n/a	-999	6	[-999, -999, -999]	n/a	catFR1	1	R1387E
691.18	3.359	700693	REC_START	n/a	n/a	n/a	n/a	-999	6	[0, 0, 0]	n/a	catFR1	1	R1387E
694.539	26.922	704049	REC_WORD	26.922	n/a	PLUM	Fruit	11	6	[0, 0, 0]	n/a	catFR1	1	R1387E
721.461	4.768	730970	REC_END	n/a	n/a	n/a	n/a	-999	6	[0, 0, 0]	n/a	catFR1	1	R1387E
726.229	10.352	735747	COUNTDOWN_START	n/a	n/a	n/a	n/a	-999	7	[0, 0, 0]	n/a	catFR1	1	R1387E
736.581	0.0	746083	COUNTDOWN_END	n/a	n/a	n/a	n/a	-999	7	[0, 0, 0]	n/a	catFR1	1	R1387E
736.581	2.016	746098	ENCODING_START	n/a	n/a	n/a	n/a	-999	7	[0, 0, 0]	n/a	catFR1	1	R1387E
738.597	1.601	748111	WORD	n/a	wordpools/wordpool_categorized_EN.txt	SHELF	Furniture	1	7	[0, 0, 0]	n/a	catFR1	1	R1387E
740.198	0.883	749706	WORD_OFF	n/a	n/a	SHELF	Furniture	1	7	[0, 0, 0]	n/a	catFR1	1	R1387E
741.081	1.616	750583	WORD	n/a	wordpools/wordpool_categorized_EN.txt	RECLINER	Furniture	2	7	[0, 0, 0]	n/a	catFR1	1	R1387E
742.697	0.8	752208	WORD_OFF	n/a	n/a	RECLINER	Furniture	2	7	[0, 0, 0]	n/a	catFR1	1	R1387E
743.497	1.616	752999	WORD	n/a	wordpools/wordpool_categorized_EN.txt	DUCK	Birds	3	7	[0, 0, 0]	n/a	catFR1	1	R1387E
745.113	0.834	754623	WORD_OFF	n/a	n/a	DUCK	Birds	3	7	[0, 0, 0]	n/a	catFR1	1	R1387E
745.947	1.616	755457	WORD	n/a	wordpools/wordpool_categorized_EN.txt	SEAGULL	Birds	4	7	[0, 0, 0]	n/a	catFR1	1	R1387E
747.563	0.883	757067	WORD_OFF	n/a	n/a	SEAGULL	Birds	4	7	[0, 0, 0]	n/a	catFR1	1	R1387E
748.446	1.601	757959	WORD	n/a	wordpools/wordpool_categorized_EN.txt	BANANA	Fruit	5	7	[0, 0, 0]	n/a	catFR1	1	R1387E
750.047	0.782	759555	WORD_OFF	n/a	n/a	BANANA	Fruit	5	7	[0, 0, 0]	n/a	catFR1	1	R1387E
750.829	1.602	760331	WORD	n/a	wordpools/wordpool_categorized_EN.txt	APPLE	Fruit	6	7	[0, 0, 0]	n/a	catFR1	1	R1387E
752.431	0.882	761941	WORD_OFF	n/a	n/a	APPLE	Fruit	6	7	[0, 0, 0]	n/a	catFR1	1	R1387E
753.313	1.6	762818	WORD	n/a	wordpools/wordpool_categorized_EN.txt	BLUEBIRD	Birds	7	7	[0, 0, 0]	n/a	catFR1	1	R1387E
754.913	0.834	764428	WORD_OFF	n/a	n/a	BLUEBIRD	Birds	7	7	[0, 0, 0]	n/a	catFR1	1	R1387E
755.747	1.6	765262	WORD	n/a	wordpools/wordpool_categorized_EN.txt	PIGEON	Birds	8	7	[0, 0, 0]	n/a	catFR1	1	R1387E
757.347	0.766	766858	WORD_OFF	n/a	n/a	PIGEON	Birds	8	7	[0, 0, 0]	n/a	catFR1	1	R1387E
758.113	1.6	767620	WORD	n/a	wordpools/wordpool_categorized_EN.txt	ORANGE	Fruit	9	7	[0, 0, 0]	n/a	catFR1	1	R1387E
759.713	0.934	769216	WORD_OFF	n/a	n/a	ORANGE	Fruit	9	7	[0, 0, 0]	n/a	catFR1	1	R1387E
760.647	1.6	770150	WORD	n/a	wordpools/wordpool_categorized_EN.txt	CHERRY	Fruit	10	7	[0, 0, 0]	n/a	catFR1	1	R1387E
762.247	0.883	771760	WORD_OFF	n/a	n/a	CHERRY	Fruit	10	7	[0, 0, 0]	n/a	catFR1	1	R1387E
763.13	1.617	772637	WORD	n/a	wordpools/wordpool_categorized_EN.txt	BOOKCASE	Furniture	11	7	[0, 0, 0]	n/a	catFR1	1	R1387E
764.747	1.0	774262	WORD_OFF	n/a	n/a	BOOKCASE	Furniture	11	7	[0, 0, 0]	n/a	catFR1	1	R1387E
765.747	1.6	775254	WORD	n/a	wordpools/wordpool_categorized_EN.txt	CABINET	Furniture	12	7	[0, 0, 0]	n/a	catFR1	1	R1387E
767.347	0.0	776850	WORD_OFF	n/a	n/a	CABINET	Furniture	12	7	[0, 0, 0]	n/a	catFR1	1	R1387E
767.347	0.001	776855	PROB	0.001	n/a	n/a	n/a	-999	7	[3, 4, 7]	14	catFR1	1	R1387E
767.348	0.0	776856	START	n/a	n/a	n/a	n/a	-999	7	[-999, -999, -999]	n/a	catFR1	1	R1387E
767.348	0.0	776864	ENCODING_END	n/a	n/a	n/a	n/a	-999	7	[0, 0, 0]	n/a	catFR1	1	R1387E
767.348	4.083	776864	DISTRACT_START	n/a	n/a	n/a	n/a	-999	7	[0, 0, 0]	n/a	catFR1	1	R1387E
771.431	4.849	780938	PROB	4.849	n/a	n/a	n/a	-999	7	[1, 2, 6]	9	catFR1	1	R1387E
776.28	3.868	785787	PROB	3.868	n/a	n/a	n/a	-999	7	[7, 6, 6]	19	catFR1	1	R1387E
780.148	14.365	789655	PROB	14.365	n/a	n/a	n/a	-999	7	[8, 8, 6]	22	catFR1	1	R1387E
794.513	0.0	804020	STOP	n/a	n/a	n/a	n/a	-999	7	[-999, -999, -999]	n/a	catFR1	1	R1387E
794.513	1.767	804022	DISTRACT_END	n/a	n/a	n/a	n/a	-999	7	[0, 0, 0]	n/a	catFR1	1	R1387E
796.28	2.616	805787	REC_START	n/a	n/a	n/a	n/a	-999	7	[0, 0, 0]	n/a	catFR1	1	R1387E
798.896	1.595	808402	REC_WORD	1.595	n/a	SHELF	Furniture	1	7	[0, 0, 0]	n/a	catFR1	1	R1387E
800.491	2.131	809997	REC_WORD	2.131	n/a	CABINET	Furniture	12	7	[0, 0, 0]	n/a	catFR1	1	R1387E
802.622	1.0	812128	REC_WORD	1.0	n/a	BOOKCASE	Furniture	11	7	[0, 0, 0]	n/a	catFR1	1	R1387E
803.622	6.286	813128	REC_WORD_VV	6.286	n/a	<>	n/a	-999	7	[0, 0, 0]	n/a	catFR1	1	R1387E
809.908	1.0	819414	REC_WORD	1.0	n/a	BANANA	Fruit	5	7	[0, 0, 0]	n/a	catFR1	1	R1387E
810.908	5.619	820414	REC_WORD_VV	5.619	n/a	<>	n/a	-999	7	[0, 0, 0]	n/a	catFR1	1	R1387E
816.527	5.519	826033	REC_WORD	5.519	n/a	APPLE	Fruit	6	7	[0, 0, 0]	n/a	catFR1	1	R1387E
822.046	4.512	831552	REC_WORD	4.512	n/a	CABINET	Furniture	12	7	[0, 0, 0]	n/a	catFR1	1	R1387E
826.558	5.689	836065	REC_END	n/a	n/a	n/a	n/a	-999	7	[0, 0, 0]	n/a	catFR1	1	R1387E
832.247	10.35	841761	COUNTDOWN_START	n/a	n/a	n/a	n/a	-999	8	[0, 0, 0]	n/a	catFR1	1	R1387E
842.597	0.0	852098	COUNTDOWN_END	n/a	n/a	n/a	n/a	-999	8	[0, 0, 0]	n/a	catFR1	1	R1387E
842.597	2.1	852098	ENCODING_START	n/a	n/a	n/a	n/a	-999	8	[0, 0, 0]	n/a	catFR1	1	R1387E
844.697	1.6	854197	WORD	n/a	wordpools/wordpool_categorized_EN.txt	LIGHTNING	Weather	1	8	[0, 0, 0]	n/a	catFR1	1	R1387E
846.297	0.949	855807	WORD_OFF	n/a	n/a	LIGHTNING	Weather	1	8	[0, 0, 0]	n/a	catFR1	1	R1387E
847.246	1.601	856756	WORD	n/a	wordpools/wordpool_categorized_EN.txt	TORNADO	Weather	2	8	[0, 0, 0]	n/a	catFR1	1	R1387E
848.847	0.834	858352	WORD_OFF	n/a	n/a	TORNADO	Weather	2	8	[0, 0, 0]	n/a	catFR1	1	R1387E
849.681	1.599	859186	WORD	n/a	wordpools/wordpool_categorized_EN.txt	ATTIC	Building	3	8	[0, 0, 0]	n/a	catFR1	1	R1387E
851.28	0.767	860782	WORD_OFF	n/a	n/a	ATTIC	Building	3	8	[0, 0, 0]	n/a	catFR1	1	R1387E
852.047	1.6	861558	WORD	n/a	wordpools/wordpool_categorized_EN.txt	ROOM	Building	4	8	[0, 0, 0]	n/a	catFR1	1	R1387E
853.647	0.8	863154	WORD_OFF	n/a	n/a	ROOM	Building	4	8	[0, 0, 0]	n/a	catFR1	1	R1387E
854.447	1.616	863949	WORD	n/a	wordpools/wordpool_categorized_EN.txt	STREAM	Landscapes	5	8	[0, 0, 0]	n/a	catFR1	1	R1387E
856.063	0.867	865569	WORD_OFF	n/a	n/a	STREAM	Landscapes	5	8	[0, 0, 0]	n/a	catFR1	1	R1387E
856.93	1.6	866432	WORD	n/a	wordpools/wordpool_categorized_EN.txt	LAKE	Landscapes	6	8	[0, 0, 0]	n/a	catFR1	1	R1387E
858.53	0.983	868042	WORD_OFF	n/a	n/a	LAKE	Landscapes	6	8	[0, 0, 0]	n/a	catFR1	1	R1387E
859.513	1.6	869019	WORD	n/a	wordpools/wordpool_categorized_EN.txt	HALLWAY	Building	7	8	[0, 0, 0]	n/a	catFR1	1	R1387E
861.113	0.984	870630	WORD_OFF	n/a	n/a	HALLWAY	Building	7	8	[0, 0, 0]	n/a	catFR1	1	R1387E
862.097	1.616	871607	WORD	n/a	wordpools/wordpool_categorized_EN.txt	WINDOW	Building	8	8	[0, 0, 0]	n/a	catFR1	1	R1387E
863.713	1.0	873217	WORD_OFF	n/a	n/a	WINDOW	Building	8	8	[0, 0, 0]	n/a	catFR1	1	R1387E
864.713	1.6	874224	WORD	n/a	wordpools/wordpool_categorized_EN.txt	HILLS	Landscapes	9	8	[0, 0, 0]	n/a	catFR1	1	R1387E
866.313	0.949	875820	WORD_OFF	n/a	n/a	HILLS	Landscapes	9	8	[0, 0, 0]	n/a	catFR1	1	R1387E
867.262	1.601	876769	WORD	n/a	wordpools/wordpool_categorized_EN.txt	CREEK	Landscapes	10	8	[0, 0, 0]	n/a	catFR1	1	R1387E
868.863	0.884	878364	WORD_OFF	n/a	n/a	CREEK	Landscapes	10	8	[0, 0, 0]	n/a	catFR1	1	R1387E
869.747	1.616	879256	WORD	n/a	wordpools/wordpool_categorized_EN.txt	SNOW	Weather	11	8	[0, 0, 0]	n/a	catFR1	1	R1387E
871.363	0.934	880866	WORD_OFF	n/a	n/a	SNOW	Weather	11	8	[0, 0, 0]	n/a	catFR1	1	R1387E
872.297	1.6	881800	WORD	n/a	wordpools/wordpool_categorized_EN.txt	FOG	Weather	12	8	[0, 0, 0]	n/a	catFR1	1	R1387E
873.897	0.001	883396	WORD_OFF	n/a	n/a	FOG	Weather	12	8	[0, 0, 0]	n/a	catFR1	1	R1387E
873.898	0.0	883396	ENCODING_END	n/a	n/a	n/a	n/a	-999	8	[0, 0, 0]	n/a	catFR1	1	R1387E
873.898	0.0	883402	PROB	0.0	n/a	n/a	n/a	-999	8	[5, 4, 6]	15	catFR1	1	R1387E
873.898	0.0	883402	START	n/a	n/a	n/a	n/a	-999	8	[-999, -999, -999]	n/a	catFR1	1	R1387E
873.898	8.85	883411	DISTRACT_START	n/a	n/a	n/a	n/a	-999	8	[0, 0, 0]	n/a	catFR1	1	R1387E
882.748	6.015	892252	PROB	6.015	n/a	n/a	n/a	-999	8	[8, 5, 1]	14	catFR1	1	R1387E
888.763	4.468	898266	PROB	4.468	n/a	n/a	n/a	-999	8	[5, 7, 4]	16	catFR1	1	R1387E
893.231	4.215	902734	PROB	4.215	n/a	n/a	n/a	-999	8	[4, 6, 7]	17	catFR1	1	R1387E
897.446	0.0	906945	DISTRACT_END	n/a	n/a	n/a	n/a	-999	8	[0, 0, 0]	n/a	catFR1	1	R1387E
897.446	1.6	906949	STOP	n/a	n/a	n/a	n/a	-999	8	[-999, -999, -999]	n/a	catFR1	1	R1387E
899.046	2.147	908552	REC_START	n/a	n/a	n/a	n/a	-999	8	[0, 0, 0]	n/a	catFR1	1	R1387E
901.193	1.674	910696	REC_WORD	1.674	n/a	TORNADO	Weather	2	8	[0, 0, 0]	n/a	catFR1	1	R1387E
902.867	2.469	912370	REC_WORD	2.469	n/a	LIGHTNING	Weather	1	8	[0, 0, 0]	n/a	catFR1	1	R1387E
905.336	1.0	914839	REC_WORD	1.0	n/a	STREAM	Landscapes	5	8	[0, 0, 0]	n/a	catFR1	1	R1387E
906.336	1.162	915839	REC_WORD_VV	1.162	n/a	<>	n/a	-999	8	[0, 0, 0]	n/a	catFR1	1	R1387E
907.498	2.049	917001	REC_WORD	2.049	n/a	RIVER	n/a	-999	8	[0, 0, 0]	n/a	catFR1	1	R1387E
909.547	19.77	919050	REC_WORD	19.77	n/a	LAKE	Landscapes	6	8	[0, 0, 0]	n/a	catFR1	1	R1387E
929.317	4.297	938816	REC_END	n/a	n/a	n/a	n/a	-999	8	[0, 0, 0]	n/a	catFR1	1	R1387E
933.614	10.35	943117	COUNTDOWN_START	n/a	n/a	n/a	n/a	-999	9	[0, 0, 0]	n/a	catFR1	1	R1387E
943.964	0.0	953469	COUNTDOWN_END	n/a	n/a	n/a	n/a	-999	9	[0, 0, 0]	n/a	catFR1	1	R1387E
943.964	2.133	953469	ENCODING_START	n/a	n/a	n/a	n/a	-999	9	[0, 0, 0]	n/a	catFR1	1	R1387E
946.097	1.6	955597	WORD	n/a	wordpools/wordpool_categorized_EN.txt	STRAINER	Kitchentools	1	9	[0, 0, 0]	n/a	catFR1	1	R1387E
947.697	1.0	957192	WORD_OFF	n/a	n/a	STRAINER	Kitchentools	1	9	[0, 0, 0]	n/a	catFR1	1	R1387E
948.697	1.6	958199	WORD	n/a	wordpools/wordpool_categorized_EN.txt	SPATULA	Kitchentools	2	9	[0, 0, 0]	n/a	catFR1	1	R1387E
950.297	0.95	959795	WORD_OFF	n/a	n/a	SPATULA	Kitchentools	2	9	[0, 0, 0]	n/a	catFR1	1	R1387E
951.247	1.6	960743	WORD	n/a	wordpools/wordpool_categorized_EN.txt	FINCH	Birds	3	9	[0, 0, 0]	n/a	catFR1	1	R1387E
952.847	1.0	962354	WORD_OFF	n/a	n/a	FINCH	Birds	3	9	[0, 0, 0]	n/a	catFR1	1	R1387E
953.847	1.616	963346	WORD	n/a	wordpools/wordpool_categorized_EN.txt	SPARROW	Birds	4	9	[0, 0, 0]	n/a	catFR1	1	R1387E
955.463	0.767	964970	WORD_OFF	n/a	n/a	SPARROW	Birds	4	9	[0, 0, 0]	n/a	catFR1	1	R1387E
956.23	1.617	965732	WORD	n/a	wordpools/wordpool_categorized_EN.txt	STAIRS	Building	5	9	[0, 0, 0]	n/a	catFR1	1	R1387E
957.847	0.9	967342	WORD_OFF	n/a	n/a	STAIRS	Building	5	9	[0, 0, 0]	n/a	catFR1	1	R1387E
958.747	1.6	968248	WORD	n/a	wordpools/wordpool_categorized_EN.txt	DOOR	Building	6	9	[0, 0, 0]	n/a	catFR1	1	R1387E
960.347	0.983	969844	WORD_OFF	n/a	n/a	DOOR	Building	6	9	[0, 0, 0]	n/a	catFR1	1	R1387E
961.33	1.601	970836	WORD	n/a	wordpools/wordpool_categorized_EN.txt	SPOON	Kitchentools	7	9	[0, 0, 0]	n/a	catFR1	1	R1387E
962.931	0.882	972432	WORD_OFF	n/a	n/a	SPOON	Kitchentools	7	9	[0, 0, 0]	n/a	catFR1	1	R1387E
963.813	1.6	973309	WORD	n/a	wordpools/wordpool_categorized_EN.txt	KNIFE	Kitchentools	8	9	[0, 0, 0]	n/a	catFR1	1	R1387E
965.413	0.95	974919	WORD_OFF	n/a	n/a	KNIFE	Kitchentools	8	9	[0, 0, 0]	n/a	catFR1	1	R1387E
966.363	1.617	975868	WORD	n/a	wordpools/wordpool_categorized_EN.txt	WALL	Building	9	9	[0, 0, 0]	n/a	catFR1	1	R1387E
967.98	0.983	977478	WORD_OFF	n/a	n/a	WALL	Building	9	9	[0, 0, 0]	n/a	catFR1	1	R1387E
968.963	1.6	978470	WORD	n/a	wordpools/wordpool_categorized_EN.txt	BATHROOM	Building	10	9	[0, 0, 0]	n/a	catFR1	1	R1387E
970.563	0.934	980066	WORD_OFF	n/a	n/a	BATHROOM	Building	10	9	[0, 0, 0]	n/a	catFR1	1	R1387E
971.497	1.6	981000	WORD	n/a	wordpools/wordpool_categorized_EN.txt	CARDINAL	Birds	11	9	[0, 0, 0]	n/a	catFR1	1	R1387E
973.097	0.834	982596	WORD_OFF	n/a	n/a	CARDINAL	Birds	11	9	[0, 0, 0]	n/a	catFR1	1	R1387E
973.931	1.616	983430	WORD	n/a	wordpools/wordpool_categorized_EN.txt	DOVE	Birds	12	9	[0, 0, 0]	n/a	catFR1	1	R1387E
975.547	0.001	985040	WORD_OFF	n/a	n/a	DOVE	Birds	12	9	[0, 0, 0]	n/a	catFR1	1	R1387E
975.548	0.0	985049	START	n/a	n/a	n/a	n/a	-999	9	[-999, -999, -999]	n/a	catFR1	1	R1387E
975.548	0.0	985049	PROB	0.0	n/a	n/a	n/a	-999	9	[4, 7, 4]	15	catFR1	1	R1387E
975.548	0.0	985055	ENCODING_END	n/a	n/a	n/a	n/a	-999	9	[0, 0, 0]	n/a	catFR1	1	R1387E
975.548	5.566	985055	DISTRACT_START	n/a	n/a	n/a	n/a	-999	9	[0, 0, 0]	n/a	catFR1	1	R1387E
981.114	3.583	990614	PROB	3.583	n/a	n/a	n/a	-999	9	[3, 1, 8]	12	catFR1	1	R1387E
984.697	6.65	994197	PROB	6.65	n/a	n/a	n/a	-999	9	[3, 1, 8]	12	catFR1	1	R1387E
991.347	2.433	1000847	PROB	2.433	n/a	n/a	n/a	-999	9	[3, 1, 1]	5	catFR1	1	R1387E
993.78	3.216	1003280	PROB	3.216	n/a	n/a	n/a	-999	9	[3, 6, 4]	13	catFR1	1	R1387E
996.996	0.0	1006490	DISTRACT_END	n/a	n/a	n/a	n/a	-999	9	[0, 0, 0]	n/a	catFR1	1	R1387E
996.996	1.7	1006496	STOP	n/a	n/a	n/a	n/a	-999	9	[-999, -999, -999]	n/a	catFR1	1	R1387E
998.696	2.296	1008198	REC_START	n/a	n/a	n/a	n/a	-999	9	[0, 0, 0]	n/a	catFR1	1	R1387E
1000.992	1.0	1010492	REC_WORD	1.0	n/a	SPARROW	Birds	4	9	[0, 0, 0]	n/a	catFR1	1	R1387E
1001.992	3.132	1011492	REC_WORD_VV	3.132	n/a	<>	n/a	-999	9	[0, 0, 0]	n/a	catFR1	1	R1387E
1005.124	1.0	1014624	REC_WORD	1.0	n/a	DOVE	Birds	12	9	[0, 0, 0]	n/a	catFR1	1	R1387E
1006.124	8.263	1015624	REC_WORD_VV	8.263	n/a	<>	n/a	-999	9	[0, 0, 0]	n/a	catFR1	1	R1387E
1014.387	1.0	1023886	REC_WORD	1.0	n/a	CARDINAL	Birds	11	9	[0, 0, 0]	n/a	catFR1	1	R1387E
1015.387	13.568	1024886	REC_WORD_VV	13.568	n/a	<>	n/a	-999	9	[0, 0, 0]	n/a	catFR1	1	R1387E
1028.955	2.875	1038447	REC_END	n/a	n/a	n/a	n/a	-999	9	[0, 0, 0]	n/a	catFR1	1	R1387E
1031.83	10.351	1041325	COUNTDOWN_START	n/a	n/a	n/a	n/a	-999	10	[0, 0, 0]	n/a	catFR1	1	R1387E
1042.181	0.0	1051677	COUNTDOWN_END	n/a	n/a	n/a	n/a	-999	10	[0, 0, 0]	n/a	catFR1	1	R1387E
1042.181	1.832	1051677	ENCODING_START	n/a	n/a	n/a	n/a	-999	10	[0, 0, 0]	n/a	catFR1	1	R1387E
1044.013	1.601	1053517	WORD	n/a	wordpools/wordpool_categorized_EN.txt	FORK	Kitchentools	1	10	[0, 0, 0]	n/a	catFR1	1	R1387E
1045.614	0.816	1055113	WORD_OFF	n/a	n/a	FORK	Kitchentools	1	10	[0, 0, 0]	n/a	catFR1	1	R1387E
1046.43	1.6	1055932	WORD	n/a	wordpools/wordpool_categorized_EN.txt	TONGS	Kitchentools	2	10	[0, 0, 0]	n/a	catFR1	1	R1387E
1048.03	0.883	1057528	WORD_OFF	n/a	n/a	TONGS	Kitchentools	2	10	[0, 0, 0]	n/a	catFR1	1	R1387E
1048.913	1.6	1058406	WORD	n/a	wordpools/wordpool_categorized_EN.txt	ELEPHANT	Zoo	3	10	[0, 0, 0]	n/a	catFR1	1	R1387E
1050.513	0.916	1060015	WORD_OFF	n/a	n/a	ELEPHANT	Zoo	3	10	[0, 0, 0]	n/a	catFR1	1	R1387E
1051.429	1.601	1060921	WORD	n/a	wordpools/wordpool_categorized_EN.txt	GORILLA	Zoo	4	10	[0, 0, 0]	n/a	catFR1	1	R1387E
1053.03	0.917	1062531	WORD_OFF	n/a	n/a	GORILLA	Zoo	4	10	[0, 0, 0]	n/a	catFR1	1	R1387E
1053.947	1.616	1063451	WORD	n/a	wordpools/wordpool_categorized_EN.txt	ISLAND	Landscapes	5	10	[0, 0, 0]	n/a	catFR1	1	R1387E
1055.563	0.917	1065061	WORD_OFF	n/a	n/a	ISLAND	Landscapes	5	10	[0, 0, 0]	n/a	catFR1	1	R1387E
1056.48	1.616	1065982	WORD	n/a	wordpools/wordpool_categorized_EN.txt	RIVER	Landscapes	6	10	[0, 0, 0]	n/a	catFR1	1	R1387E
1058.096	0.9	1067592	WORD_OFF	n/a	n/a	RIVER	Landscapes	6	10	[0, 0, 0]	n/a	catFR1	1	R1387E
1058.996	1.601	1068498	WORD	n/a	wordpools/wordpool_categorized_EN.txt	TIGER	Zoo	7	10	[0, 0, 0]	n/a	catFR1	1	R1387E
1060.597	0.983	1070093	WORD_OFF	n/a	n/a	TIGER	Zoo	7	10	[0, 0, 0]	n/a	catFR1	1	R1387E
1061.58	1.601	1071085	WORD	n/a	wordpools/wordpool_categorized_EN.txt	ORANGUTAN	Zoo	8	10	[0, 0, 0]	n/a	catFR1	1	R1387E
1063.181	1.0	1072681	WORD_OFF	n/a	n/a	ORANGUTAN	Zoo	8	10	[0, 0, 0]	n/a	catFR1	1	R1387E
1064.181	1.599	1073673	WORD	n/a	wordpools/wordpool_categorized_EN.txt	BEACH	Landscapes	9	10	[0, 0, 0]	n/a	catFR1	1	R1387E
1065.78	0.783	1075283	WORD_OFF	n/a	n/a	BEACH	Landscapes	9	10	[0, 0, 0]	n/a	catFR1	1	R1387E
1066.563	1.618	1076060	WORD	n/a	wordpools/wordpool_categorized_EN.txt	VALLEY	Landscapes	10	10	[0, 0, 0]	n/a	catFR1	1	R1387E
1068.181	0.949	1077684	WORD_OFF	n/a	n/a	VALLEY	Landscapes	10	10	[0, 0, 0]	n/a	catFR1	1	R1387E
1069.13	1.616	1078633	WORD	n/a	wordpools/wordpool_categorized_EN.txt	GRATER	Kitchentools	11	10	[0, 0, 0]	n/a	catFR1	1	R1387E
1070.746	1.0	1080243	WORD_OFF	n/a	n/a	GRATER	Kitchentools	11	10	[0, 0, 0]	n/a	catFR1	1	R1387E
1071.746	1.617	1081250	WORD	n/a	wordpools/wordpool_categorized_EN.txt	WHISK	Kitchentools	12	10	[0, 0, 0]	n/a	catFR1	1	R1387E
1073.363	0.002	1082860	WORD_OFF	n/a	n/a	WHISK	Kitchentools	12	10	[0, 0, 0]	n/a	catFR1	1	R1387E
1073.365	0.0	1082860	ENCODING_END	n/a	n/a	n/a	n/a	-999	10	[0, 0, 0]	n/a	catFR1	1	R1387E
1073.365	0.0	1082860	DISTRACT_START	n/a	n/a	n/a	n/a	-999	10	[0, 0, 0]	n/a	catFR1	1	R1387E
1073.363	0.002	1082860	PROB	0.002	n/a	n/a	n/a	-999	10	[4, 7, 2]	13	catFR1	1	R1387E
1073.365	5.199	1082862	START	n/a	n/a	n/a	n/a	-999	10	[-999, -999, -999]	n/a	catFR1	1	R1387E
1078.564	3.182	1088061	PROB	3.182	n/a	n/a	n/a	-999	10	[3, 3, 2]	8	catFR1	1	R1387E
1081.746	5.767	1091243	PROB	5.767	n/a	n/a	n/a	-999	10	[5, 2, 4]	11	catFR1	1	R1387E
1087.513	4.467	1097010	PROB	4.467	n/a	n/a	n/a	-999	10	[4, 7, 3]	14	catFR1	1	R1387E
1091.98	6.783	1101477	PROB	6.783	n/a	n/a	n/a	-999	10	[4, 8, 5]	17	catFR1	1	R1387E
1098.763	0.0	1108259	STOP	n/a	n/a	n/a	n/a	-999	10	[-999, -999, -999]	n/a	catFR1	1	R1387E
1098.763	1.783	1108264	DISTRACT_END	n/a	n/a	n/a	n/a	-999	10	[0, 0, 0]	n/a	catFR1	1	R1387E
1100.546	1.726	1110043	REC_START	n/a	n/a	n/a	n/a	-999	10	[0, 0, 0]	n/a	catFR1	1	R1387E
1102.272	1.287	1111768	REC_WORD	1.287	n/a	FORK	Kitchentools	1	10	[0, 0, 0]	n/a	catFR1	1	R1387E
1103.559	1.0	1113055	REC_WORD	1.0	n/a	SPATULA	Kitchentools	-999	10	[0, 0, 0]	n/a	catFR1	1	R1387E
1104.559	0.701	1114055	REC_WORD_VV	0.701	n/a	<>	n/a	-999	10	[0, 0, 0]	n/a	catFR1	1	R1387E
1105.26	3.154	1114756	REC_WORD	3.154	n/a	TONGS	Kitchentools	2	10	[0, 0, 0]	n/a	catFR1	1	R1387E
1108.414	1.0	1117910	REC_WORD	1.0	n/a	ORANGUTAN	Zoo	8	10	[0, 0, 0]	n/a	catFR1	1	R1387E
1109.414	0.992	1118910	REC_WORD_VV	0.992	n/a	<>	n/a	-999	10	[0, 0, 0]	n/a	catFR1	1	R1387E
1110.406	20.396	1119902	REC_WORD	20.396	n/a	GORILLA	Zoo	4	10	[0, 0, 0]	n/a	catFR1	1	R1387E
1130.802	3.13	1140292	REC_END	n/a	n/a	n/a	n/a	-999	10	[0, 0, 0]	n/a	catFR1	1	R1387E
1133.932	10.348	1143429	COUNTDOWN_START	n/a	n/a	n/a	n/a	-999	11	[0, 0, 0]	n/a	catFR1	1	R1387E
1144.28	0.0	1153781	COUNTDOWN_END	n/a	n/a	n/a	n/a	-999	11	[0, 0, 0]	n/a	catFR1	1	R1387E
1144.28	1.949	1153781	ENCODING_START	n/a	n/a	n/a	n/a	-999	11	[0, 0, 0]	n/a	catFR1	1	R1387E
1146.229	1.601	1155722	WORD	n/a	wordpools/wordpool_categorized_EN.txt	DESK	Furniture	1	11	[0, 0, 0]	n/a	catFR1	1	R1387E
1147.83	0.817	1157332	WORD_OFF	n/a	n/a	DESK	Furniture	1	11	[0, 0, 0]	n/a	catFR1	1	R1387E
1148.647	1.616	1158137	WORD	n/a	wordpools/wordpool_categorized_EN.txt	COUCH	Furniture	2	11	[0, 0, 0]	n/a	catFR1	1	R1387E
1150.263	0.883	1159761	WORD_OFF	n/a	n/a	COUCH	Furniture	2	11	[0, 0, 0]	n/a	catFR1	1	R1387E
1151.146	1.601	1160638	WORD	n/a	wordpools/wordpool_categorized_EN.txt	LAMB	Farmanimals	3	11	[0, 0, 0]	n/a	catFR1	1	R1387E
1152.747	1.0	1162249	WORD_OFF	n/a	n/a	LAMB	Farmanimals	3	11	[0, 0, 0]	n/a	catFR1	1	R1387E
1153.747	1.616	1163241	WORD	n/a	wordpools/wordpool_categorized_EN.txt	PIG	Farmanimals	4	11	[0, 0, 0]	n/a	catFR1	1	R1387E
1155.363	0.867	1164865	WORD_OFF	n/a	n/a	PIG	Farmanimals	4	11	[0, 0, 0]	n/a	catFR1	1	R1387E
1156.23	1.617	1165728	WORD	n/a	wordpools/wordpool_categorized_EN.txt	PEELER	Kitchentools	5	11	[0, 0, 0]	n/a	catFR1	1	R1387E
1157.847	0.933	1167338	WORD_OFF	n/a	n/a	PEELER	Kitchentools	5	11	[0, 0, 0]	n/a	catFR1	1	R1387E
1158.78	1.6	1168272	WORD	n/a	wordpools/wordpool_categorized_EN.txt	COLANDER	Kitchentools	6	11	[0, 0, 0]	n/a	catFR1	1	R1387E
1160.38	0.967	1169868	WORD_OFF	n/a	n/a	COLANDER	Kitchentools	6	11	[0, 0, 0]	n/a	catFR1	1	R1387E
1161.347	1.616	1170846	WORD	n/a	wordpools/wordpool_categorized_EN.txt	HEN	Farmanimals	7	11	[0, 0, 0]	n/a	catFR1	1	R1387E
1162.963	0.817	1172456	WORD_OFF	n/a	n/a	HEN	Farmanimals	7	11	[0, 0, 0]	n/a	catFR1	1	R1387E
1163.78	1.6	1173276	WORD	n/a	wordpools/wordpool_categorized_EN.txt	SHEEP	Farmanimals	8	11	[0, 0, 0]	n/a	catFR1	1	R1387E
1165.38	0.867	1174871	WORD_OFF	n/a	n/a	SHEEP	Farmanimals	8	11	[0, 0, 0]	n/a	catFR1	1	R1387E
1166.247	1.6	1175748	WORD	n/a	wordpools/wordpool_categorized_EN.txt	NIGHTSTAND	Furniture	9	11	[0, 0, 0]	n/a	catFR1	1	R1387E
1167.847	0.866	1177344	WORD_OFF	n/a	n/a	NIGHTSTAND	Furniture	9	11	[0, 0, 0]	n/a	catFR1	1	R1387E
1168.713	1.617	1178207	WORD	n/a	wordpools/wordpool_categorized_EN.txt	TABLE	Furniture	10	11	[0, 0, 0]	n/a	catFR1	1	R1387E
1170.33	0.933	1179831	WORD_OFF	n/a	n/a	TABLE	Furniture	10	11	[0, 0, 0]	n/a	catFR1	1	R1387E
1171.263	1.6	1180752	WORD	n/a	wordpools/wordpool_categorized_EN.txt	CORKSCREW	Kitchentools	11	11	[0, 0, 0]	n/a	catFR1	1	R1387E
1172.863	0.967	1182362	WORD_OFF	n/a	n/a	CORKSCREW	Kitchentools	11	11	[0, 0, 0]	n/a	catFR1	1	R1387E
1173.83	1.6	1183325	WORD	n/a	wordpools/wordpool_categorized_EN.txt	LADLE	Kitchentools	12	11	[0, 0, 0]	n/a	catFR1	1	R1387E
1175.43	0.001	1184921	WORD_OFF	n/a	n/a	LADLE	Kitchentools	12	11	[0, 0, 0]	n/a	catFR1	1	R1387E
1175.431	0.0	1184921	ENCODING_END	n/a	n/a	n/a	n/a	-999	11	[0, 0, 0]	n/a	catFR1	1	R1387E
1175.43	0.001	1184924	PROB	0.001	n/a	n/a	n/a	-999	11	[2, 5, 7]	14	catFR1	1	R1387E
1175.431	0.0	1184925	START	n/a	n/a	n/a	n/a	-999	11	[-999, -999, -999]	n/a	catFR1	1	R1387E
1175.431	5.982	1184935	DISTRACT_START	n/a	n/a	n/a	n/a	-999	11	[0, 0, 0]	n/a	catFR1	1	R1387E
1181.413	4.2	1190907	PROB	4.2	n/a	n/a	n/a	-999	11	[2, 2, 3]	7	catFR1	1	R1387E
1185.613	4.599	1195106	PROB	4.599	n/a	n/a	n/a	-999	11	[8, 3, 8]	19	catFR1	1	R1387E
1190.212	5.568	1199705	PROB	5.568	n/a	n/a	n/a	-999	11	[7, 2, 2]	11	catFR1	1	R1387E
1195.78	0.0	1205273	STOP	n/a	n/a	n/a	n/a	-999	11	[-999, -999, -999]	n/a	catFR1	1	R1387E
1195.78	1.683	1205278	DISTRACT_END	n/a	n/a	n/a	n/a	-999	11	[0, 0, 0]	n/a	catFR1	1	R1387E
1197.463	4.609	1206957	REC_START	n/a	n/a	n/a	n/a	-999	11	[0, 0, 0]	n/a	catFR1	1	R1387E
1202.072	1.0	1211565	REC_WORD	1.0	n/a	CORKSCREW	Kitchentools	11	11	[0, 0, 0]	n/a	catFR1	1	R1387E
1203.072	3.169	1212565	REC_WORD_VV	3.169	n/a	<>	n/a	-999	11	[0, 0, 0]	n/a	catFR1	1	R1387E
1206.241	9.881	1215734	REC_WORD	9.881	n/a	HEN	Farmanimals	7	11	[0, 0, 0]	n/a	catFR1	1	R1387E
1216.122	1.0	1225614	REC_WORD	1.0	n/a	SPATULA	Kitchentools	-999	11	[0, 0, 0]	n/a	catFR1	1	R1387E
1217.122	10.634	1226614	REC_WORD_VV	10.634	n/a	<>	n/a	-999	11	[0, 0, 0]	n/a	catFR1	1	R1387E
1227.756	2.624	1237249	REC_END	n/a	n/a	n/a	n/a	-999	11	[0, 0, 0]	n/a	catFR1	1	R1387E
1230.38	10.351	1239869	COUNTDOWN_START	n/a	n/a	n/a	n/a	-999	12	[0, 0, 0]	n/a	catFR1	1	R1387E
1240.731	0.0	1250220	COUNTDOWN_END	n/a	n/a	n/a	n/a	-999	12	[0, 0, 0]	n/a	catFR1	1	R1387E
1240.731	1.999	1250220	ENCODING_START	n/a	n/a	n/a	n/a	-999	12	[0, 0, 0]	n/a	catFR1	1	R1387E
1242.73	1.6	1252219	WORD	n/a	wordpools/wordpool_categorized_EN.txt	COFFEE	Beverages	1	12	[0, 0, 0]	n/a	catFR1	1	R1387E
1244.33	0.9	1253829	WORD_OFF	n/a	n/a	COFFEE	Beverages	1	12	[0, 0, 0]	n/a	catFR1	1	R1387E
1245.23	1.617	1254720	WORD	n/a	wordpools/wordpool_categorized_EN.txt	TEA	Beverages	2	12	[0, 0, 0]	n/a	catFR1	1	R1387E
1246.847	0.9	1256345	WORD_OFF	n/a	n/a	TEA	Beverages	2	12	[0, 0, 0]	n/a	catFR1	1	R1387E
1247.747	1.6	1257236	WORD	n/a	wordpools/wordpool_categorized_EN.txt	MOTH	Insects	3	12	[0, 0, 0]	n/a	catFR1	1	R1387E
1249.347	0.866	1258832	WORD_OFF	n/a	n/a	MOTH	Insects	3	12	[0, 0, 0]	n/a	catFR1	1	R1387E
1250.213	1.617	1259709	WORD	n/a	wordpools/wordpool_categorized_EN.txt	ANT	Insects	4	12	[0, 0, 0]	n/a	catFR1	1	R1387E
1251.83	0.967	1261319	WORD_OFF	n/a	n/a	ANT	Insects	4	12	[0, 0, 0]	n/a	catFR1	1	R1387E
1252.797	1.6	1262282	WORD	n/a	wordpools/wordpool_categorized_EN.txt	TURKEY	Farmanimals	5	12	[0, 0, 0]	n/a	catFR1	1	R1387E
1254.397	0.8	1263893	WORD_OFF	n/a	n/a	TURKEY	Farmanimals	5	12	[0, 0, 0]	n/a	catFR1	1	R1387E
1255.197	1.615	1264683	WORD	n/a	wordpools/wordpool_categorized_EN.txt	COW	Farmanimals	6	12	[0, 0, 0]	n/a	catFR1	1	R1387E
1256.812	0.835	1266308	WORD_OFF	n/a	n/a	COW	Farmanimals	6	12	[0, 0, 0]	n/a	catFR1	1	R1387E
1257.647	1.599	1267142	WORD	n/a	wordpools/wordpool_categorized_EN.txt	LADYBUG	Insects	7	12	[0, 0, 0]	n/a	catFR1	1	R1387E
1259.246	0.917	1268738	WORD_OFF	n/a	n/a	LADYBUG	Insects	7	12	[0, 0, 0]	n/a	catFR1	1	R1387E
1260.163	1.617	1269658	WORD	n/a	wordpools/wordpool_categorized_EN.txt	FLY	Insects	8	12	[0, 0, 0]	n/a	catFR1	1	R1387E
1261.78	0.966	1271268	WORD_OFF	n/a	n/a	FLY	Insects	8	12	[0, 0, 0]	n/a	catFR1	1	R1387E
1262.746	1.617	1272231	WORD	n/a	wordpools/wordpool_categorized_EN.txt	BULL	Farmanimals	9	12	[0, 0, 0]	n/a	catFR1	1	R1387E
1264.363	0.866	1273856	WORD_OFF	n/a	n/a	BULL	Farmanimals	9	12	[0, 0, 0]	n/a	catFR1	1	R1387E
1265.229	1.601	1274718	WORD	n/a	wordpools/wordpool_categorized_EN.txt	HORSE	Farmanimals	10	12	[0, 0, 0]	n/a	catFR1	1	R1387E
1266.83	0.883	1276314	WORD_OFF	n/a	n/a	HORSE	Farmanimals	10	12	[0, 0, 0]	n/a	catFR1	1	R1387E
1267.713	1.617	1277205	WORD	n/a	wordpools/wordpool_categorized_EN.txt	JUICE	Beverages	11	12	[0, 0, 0]	n/a	catFR1	1	R1387E
1269.33	0.933	1278816	WORD_OFF	n/a	n/a	JUICE	Beverages	11	12	[0, 0, 0]	n/a	catFR1	1	R1387E
1270.263	1.6	1279750	WORD	n/a	wordpools/wordpool_categorized_EN.txt	CIDER	Beverages	12	12	[0, 0, 0]	n/a	catFR1	1	R1387E
1271.863	0.001	1281354	PROB	0.001	n/a	n/a	n/a	-999	12	[1, 8, 4]	13	catFR1	1	R1387E
1271.864	0.0	1281355	START	n/a	n/a	n/a	n/a	-999	12	[-999, -999, -999]	n/a	catFR1	1	R1387E
1271.863	0.001	1281360	WORD_OFF	n/a	n/a	CIDER	Beverages	12	12	[0, 0, 0]	n/a	catFR1	1	R1387E
1271.864	0.0	1281360	ENCODING_END	n/a	n/a	n/a	n/a	-999	12	[0, 0, 0]	n/a	catFR1	1	R1387E
1271.864	4.383	1281360	DISTRACT_START	n/a	n/a	n/a	n/a	-999	12	[0, 0, 0]	n/a	catFR1	1	R1387E
1276.247	7.216	1285737	PROB	7.216	n/a	n/a	n/a	-999	12	[7, 8, 6]	21	catFR1	1	R1387E
1283.463	6.868	1292953	PROB	6.868	n/a	n/a	n/a	-999	12	[5, 7, 4]	16	catFR1	1	R1387E
1290.331	5.633	1299821	PROB	5.633	n/a	n/a	n/a	-999	12	[4, 7, 2]	13	catFR1	1	R1387E
1295.964	0.0	1305454	STOP	n/a	n/a	n/a	n/a	-999	12	[-999, -999, -999]	n/a	catFR1	1	R1387E
1295.964	1.817	1305456	DISTRACT_END	n/a	n/a	n/a	n/a	-999	12	[0, 0, 0]	n/a	catFR1	1	R1387E
1297.781	29.999	1307264	REC_START	n/a	n/a	n/a	n/a	-999	12	[0, 0, 0]	n/a	catFR1	1	R1387E
1327.78	0.296	1337269	REC_WORD_VV	0.296	n/a	<>	n/a	-999	12	[0, 0, 0]	n/a	catFR1	1	R1387E
1328.076	0.0	1337570	REC_END	n/a	n/a	n/a	n/a	-999	12	[0, 0, 0]	n/a	catFR1	1	R1387E
