onset	duration	sample	trial_type	response_time	stim_file	item_name	category	serialpos	list	test	answer	experiment	session	subject
0.0	1.133	96600	INSTRUCT_START	n/a	n/a	n/a	n/a	-999	-999	[0, 0, 0]	n/a	catFR1	3	R1536J
1.133	34.768	97731	INSTRUCT_END	n/a	n/a	n/a	n/a	-999	-999	[0, 0, 0]	n/a	catFR1	3	R1536J
35.901	2.064	132500	COUNTDOWN_START	n/a	n/a	n/a	n/a	-999	-999	[0, 0, 0]	n/a	catFR1	3	R1536J
37.965	0.0	134554	COUNTDOWN_END	n/a	n/a	n/a	n/a	-999	-999	[0, 0, 0]	n/a	catFR1	3	R1536J
37.965	2.168	134564	ENCODING_START	n/a	n/a	n/a	n/a	-999	-1	[0, 0, 0]	n/a	catFR1	3	R1536J
40.133	1.615	136727	WORD	n/a	n/a	SUNFLOWER	Flowers	1	-1	[0, 0, 0]	n/a	catFR1	3	R1536J
41.748	0.968	138344	WORD_OFF	n/a	n/a	SUNFLOWER	Flowers	1	-1	[0, 0, 0]	n/a	catFR1	3	R1536J
42.716	1.616	139306	WORD	n/a	n/a	LILAC	Flowers	2	-1	[0, 0, 0]	n/a	catFR1	3	R1536J
44.332	0.783	140923	WORD_OFF	n/a	n/a	LILAC	Flowers	2	-1	[0, 0, 0]	n/a	catFR1	3	R1536J
45.115	1.6	141707	WORD	n/a	n/a	PLIERS	Tools	3	-1	[0, 0, 0]	n/a	catFR1	3	R1536J
46.715	0.851	143304	WORD_OFF	n/a	n/a	PLIERS	Tools	3	-1	[0, 0, 0]	n/a	catFR1	3	R1536J
47.566	1.6	144157	WORD	n/a	n/a	SAW	Tools	4	-1	[0, 0, 0]	n/a	catFR1	3	R1536J
49.166	0.932	145764	WORD_OFF	n/a	n/a	SAW	Tools	4	-1	[0, 0, 0]	n/a	catFR1	3	R1536J
50.098	1.601	146686	WORD	n/a	n/a	CHIMPANZEE	Zoo	5	-1	[0, 0, 0]	n/a	catFR1	3	R1536J
51.699	0.983	148294	WORD_OFF	n/a	n/a	CHIMPANZEE	Zoo	5	-1	[0, 0, 0]	n/a	catFR1	3	R1536J
52.682	1.616	149276	WORD	n/a	n/a	LION	Zoo	6	-1	[0, 0, 0]	n/a	catFR1	3	R1536J
54.298	0.917	150893	WORD_OFF	n/a	n/a	LION	Zoo	6	-1	[0, 0, 0]	n/a	catFR1	3	R1536J
55.215	1.6	151805	WORD	n/a	n/a	MARIGOLD	Flowers	7	-1	[0, 0, 0]	n/a	catFR1	3	R1536J
56.815	1.0	153412	WORD_OFF	n/a	n/a	MARIGOLD	Flowers	7	-1	[0, 0, 0]	n/a	catFR1	3	R1536J
57.815	1.6	154404	WORD	n/a	n/a	TULIP	Flowers	8	-1	[0, 0, 0]	n/a	catFR1	3	R1536J
59.415	0.85	156011	WORD_OFF	n/a	n/a	TULIP	Flowers	8	-1	[0, 0, 0]	n/a	catFR1	3	R1536J
60.265	1.601	156864	WORD	n/a	n/a	MONKEY	Zoo	9	-1	[0, 0, 0]	n/a	catFR1	3	R1536J
61.866	0.999	158462	WORD_OFF	n/a	n/a	MONKEY	Zoo	9	-1	[0, 0, 0]	n/a	catFR1	3	R1536J
62.865	1.617	159454	WORD	n/a	n/a	BEAR	Zoo	10	-1	[0, 0, 0]	n/a	catFR1	3	R1536J
64.482	0.8	161070	WORD_OFF	n/a	n/a	BEAR	Zoo	10	-1	[0, 0, 0]	n/a	catFR1	3	R1536J
65.282	1.616	161874	WORD	n/a	n/a	LEVEL	Tools	11	-1	[0, 0, 0]	n/a	catFR1	3	R1536J
66.898	0.983	163491	WORD_OFF	n/a	n/a	LEVEL	Tools	11	-1	[0, 0, 0]	n/a	catFR1	3	R1536J
67.881	1.601	164473	WORD	n/a	n/a	CROWBAR	Tools	12	-1	[0, 0, 0]	n/a	catFR1	3	R1536J
69.482	0.001	166070	WORD_OFF	n/a	n/a	CROWBAR	Tools	12	-1	[0, 0, 0]	n/a	catFR1	3	R1536J
69.483	0.001	166074	START	n/a	n/a	n/a	n/a	-999	-1	[-999, -999, -999]	n/a	catFR1	3	R1536J
69.484	0.0	166075	PROB	0.0	n/a	n/a	n/a	-999	-1	[5, 7, 1]	13	catFR1	3	R1536J
69.483	0.0	166080	ENCODING_END	n/a	n/a	n/a	n/a	-999	-1	[0, 0, 0]	n/a	catFR1	3	R1536J
69.483	3.8	166080	DISTRACT_START	n/a	n/a	n/a	n/a	-999	-1	[0, 0, 0]	n/a	catFR1	3	R1536J
73.283	2.466	169874	PROB	2.466	n/a	n/a	n/a	-999	-1	[2, 5, 5]	12	catFR1	3	R1536J
75.749	3.7	172340	PROB	3.7	n/a	n/a	n/a	-999	-1	[6, 5, 3]	12	catFR1	3	R1536J
79.449	2.967	176040	PROB	2.967	n/a	n/a	n/a	-999	-1	[6, 3, 3]	12	catFR1	3	R1536J
82.416	4.616	179007	PROB	4.616	n/a	n/a	n/a	-999	-1	[6, 7, 4]	17	catFR1	3	R1536J
87.032	3.2	183622	PROB	3.2	n/a	n/a	n/a	-999	-1	[1, 3, 6]	10	catFR1	3	R1536J
90.232	0.0	186822	STOP	n/a	n/a	n/a	n/a	-999	-1	[-999, -999, -999]	n/a	catFR1	3	R1536J
90.232	1.718	186823	DISTRACT_END	n/a	n/a	n/a	n/a	-999	-1	[0, 0, 0]	n/a	catFR1	3	R1536J
91.95	2.64	188539	REC_START	n/a	n/a	n/a	n/a	-999	-1	[0, 0, 0]	n/a	catFR1	3	R1536J
94.59	1.0	191180	REC_WORD	1.0	n/a	SUNFLOWER	Flowers	1	-1	[0, 0, 0]	n/a	catFR1	3	R1536J
95.59	1.828	192180	REC_WORD_VV	1.828	n/a	<>	n/a	-999	-1	[0, 0, 0]	n/a	catFR1	3	R1536J
97.418	11.338	194008	REC_WORD	11.338	n/a	LILAC	Flowers	2	-1	[0, 0, 0]	n/a	catFR1	3	R1536J
108.756	13.394	205345	REC_WORD_VV	13.394	n/a	<>	n/a	-999	-1	[0, 0, 0]	n/a	catFR1	3	R1536J
122.15	5.3	218735	REC_END	n/a	n/a	n/a	n/a	-999	-1	[0, 0, 0]	n/a	catFR1	3	R1536J
127.45	0.684	224043	COUNTDOWN_START	n/a	n/a	n/a	n/a	-999	1	[0, 0, 0]	n/a	catFR1	3	R1536J
128.134	0.0	224727	COUNTDOWN_END	n/a	n/a	n/a	n/a	-999	1	[0, 0, 0]	n/a	catFR1	3	R1536J
128.134	1.833	224727	ENCODING_START	n/a	n/a	n/a	n/a	-999	1	[0, 0, 0]	n/a	catFR1	3	R1536J
129.967	1.6	226552	WORD	n/a	wordpools/wordpool_categorized_EN.txt	JACKET	Clothing	1	1	[0, 0, 0]	n/a	catFR1	3	R1536J
131.567	0.949	228159	WORD_OFF	n/a	n/a	JACKET	Clothing	1	1	[0, 0, 0]	n/a	catFR1	3	R1536J
132.516	1.6	229102	WORD	n/a	wordpools/wordpool_categorized_EN.txt	COAT	Clothing	2	1	[0, 0, 0]	n/a	catFR1	3	R1536J
134.116	0.785	230709	WORD_OFF	n/a	n/a	COAT	Clothing	2	1	[0, 0, 0]	n/a	catFR1	3	R1536J
134.901	1.616	231493	WORD	n/a	wordpools/wordpool_categorized_EN.txt	SODA	Beverages	3	1	[0, 0, 0]	n/a	catFR1	3	R1536J
136.517	0.85	233109	WORD_OFF	n/a	n/a	SODA	Beverages	3	1	[0, 0, 0]	n/a	catFR1	3	R1536J
137.367	1.617	233953	WORD	n/a	wordpools/wordpool_categorized_EN.txt	RUM	Beverages	4	1	[0, 0, 0]	n/a	catFR1	3	R1536J
138.984	0.8	235570	WORD_OFF	n/a	n/a	RUM	Beverages	4	1	[0, 0, 0]	n/a	catFR1	3	R1536J
139.784	1.616	236373	WORD	n/a	wordpools/wordpool_categorized_EN.txt	LEMON	Fruit	5	1	[0, 0, 0]	n/a	catFR1	3	R1536J
141.4	0.983	237990	WORD_OFF	n/a	n/a	LEMON	Fruit	5	1	[0, 0, 0]	n/a	catFR1	3	R1536J
142.383	1.601	238972	WORD	n/a	wordpools/wordpool_categorized_EN.txt	PEACH	Fruit	6	1	[0, 0, 0]	n/a	catFR1	3	R1536J
143.984	0.883	240569	WORD_OFF	n/a	n/a	PEACH	Fruit	6	1	[0, 0, 0]	n/a	catFR1	3	R1536J
144.867	1.617	241452	WORD	n/a	wordpools/wordpool_categorized_EN.txt	JUICE	Beverages	7	1	[0, 0, 0]	n/a	catFR1	3	R1536J
146.484	0.867	243069	WORD_OFF	n/a	n/a	JUICE	Beverages	7	1	[0, 0, 0]	n/a	catFR1	3	R1536J
147.351	1.616	243942	WORD	n/a	wordpools/wordpool_categorized_EN.txt	MILK	Beverages	8	1	[0, 0, 0]	n/a	catFR1	3	R1536J
148.967	0.983	245549	WORD_OFF	n/a	n/a	MILK	Beverages	8	1	[0, 0, 0]	n/a	catFR1	3	R1536J
149.95	1.616	246541	WORD	n/a	wordpools/wordpool_categorized_EN.txt	UNDERWEAR	Clothing	9	1	[0, 0, 0]	n/a	catFR1	3	R1536J
151.566	0.768	248158	WORD_OFF	n/a	n/a	UNDERWEAR	Clothing	9	1	[0, 0, 0]	n/a	catFR1	3	R1536J
152.334	1.616	248922	WORD	n/a	wordpools/wordpool_categorized_EN.txt	SHOES	Clothing	10	1	[0, 0, 0]	n/a	catFR1	3	R1536J
153.95	0.8	250539	WORD_OFF	n/a	n/a	SHOES	Clothing	10	1	[0, 0, 0]	n/a	catFR1	3	R1536J
154.75	1.6	251342	WORD	n/a	wordpools/wordpool_categorized_EN.txt	STRAWBERRY	Fruit	11	1	[0, 0, 0]	n/a	catFR1	3	R1536J
156.35	1.0	252940	WORD_OFF	n/a	n/a	STRAWBERRY	Fruit	11	1	[0, 0, 0]	n/a	catFR1	3	R1536J
157.35	1.601	253941	WORD	n/a	wordpools/wordpool_categorized_EN.txt	BANANA	Fruit	12	1	[0, 0, 0]	n/a	catFR1	3	R1536J
158.951	0.0	255538	PROB	0.0	n/a	n/a	n/a	-999	1	[3, 8, 6]	17	catFR1	3	R1536J
158.95	0.004	255539	WORD_OFF	n/a	n/a	BANANA	Fruit	12	1	[0, 0, 0]	n/a	catFR1	3	R1536J
158.954	0.0	255539	ENCODING_END	n/a	n/a	n/a	n/a	-999	1	[0, 0, 0]	n/a	catFR1	3	R1536J
158.954	0.0	255539	DISTRACT_START	n/a	n/a	n/a	n/a	-999	1	[0, 0, 0]	n/a	catFR1	3	R1536J
158.954	3.964	255541	START	n/a	n/a	n/a	n/a	-999	1	[-999, -999, -999]	n/a	catFR1	3	R1536J
162.918	2.816	259504	PROB	2.816	n/a	n/a	n/a	-999	1	[3, 4, 7]	14	catFR1	3	R1536J
165.734	2.616	262320	PROB	2.616	n/a	n/a	n/a	-999	1	[8, 7, 1]	16	catFR1	3	R1536J
168.35	2.683	264936	PROB	2.683	n/a	n/a	n/a	-999	1	[2, 7, 2]	11	catFR1	3	R1536J
171.033	3.967	267619	PROB	3.967	n/a	n/a	n/a	-999	1	[3, 6, 2]	11	catFR1	3	R1536J
175.0	8.382	271586	PROB	8.382	n/a	n/a	n/a	-999	1	[7, 8, 7]	21	catFR1	3	R1536J
183.382	0.0	279967	STOP	n/a	n/a	n/a	n/a	-999	1	[-999, -999, -999]	n/a	catFR1	3	R1536J
183.382	1.551	279972	DISTRACT_END	n/a	n/a	n/a	n/a	-999	1	[0, 0, 0]	n/a	catFR1	3	R1536J
184.933	1.912	281519	REC_START	n/a	n/a	n/a	n/a	-999	1	[0, 0, 0]	n/a	catFR1	3	R1536J
186.845	1.433	283430	REC_WORD	1.433	n/a	SUNFLOWER	Flowers	-999	1	[0, 0, 0]	n/a	catFR1	3	R1536J
188.278	2.036	284863	REC_WORD	2.036	n/a	LILAC	Flowers	-999	1	[0, 0, 0]	n/a	catFR1	3	R1536J
190.314	2.98	286899	REC_WORD	2.98	n/a	SHOES	Clothing	10	1	[0, 0, 0]	n/a	catFR1	3	R1536J
193.294	3.209	289879	REC_WORD	3.209	n/a	MILK	Beverages	8	1	[0, 0, 0]	n/a	catFR1	3	R1536J
196.503	1.0	293088	REC_WORD	1.0	n/a	STRAWBERRY	Fruit	11	1	[0, 0, 0]	n/a	catFR1	3	R1536J
197.503	5.118	294087	REC_WORD_VV	5.118	n/a	<>	n/a	-999	1	[0, 0, 0]	n/a	catFR1	3	R1536J
202.621	12.535	299205	REC_WORD_VV	12.535	n/a	<>	n/a	-999	1	[0, 0, 0]	n/a	catFR1	3	R1536J
215.156	1.511	311735	REC_END	n/a	n/a	n/a	n/a	-999	1	[0, 0, 0]	n/a	catFR1	3	R1536J
216.667	0.634	313253	COUNTDOWN_START	n/a	n/a	n/a	n/a	-999	1	[0, 0, 0]	n/a	catFR1	3	R1536J
217.301	0.0	313888	COUNTDOWN_END	n/a	n/a	n/a	n/a	-999	1	[0, 0, 0]	n/a	catFR1	3	R1536J
217.301	1.999	313888	ENCODING_START	n/a	n/a	n/a	n/a	-999	2	[0, 0, 0]	n/a	catFR1	3	R1536J
219.3	1.6	315882	WORD	n/a	wordpools/wordpool_categorized_EN.txt	FOREST	Landscapes	1	2	[0, 0, 0]	n/a	catFR1	3	R1536J
220.9	0.867	317479	WORD_OFF	n/a	n/a	FOREST	Landscapes	1	2	[0, 0, 0]	n/a	catFR1	3	R1536J
221.767	1.617	318362	WORD	n/a	wordpools/wordpool_categorized_EN.txt	CREEK	Landscapes	2	2	[0, 0, 0]	n/a	catFR1	3	R1536J
223.384	0.866	319969	WORD_OFF	n/a	n/a	CREEK	Landscapes	2	2	[0, 0, 0]	n/a	catFR1	3	R1536J
224.25	1.6	320832	WORD	n/a	wordpools/wordpool_categorized_EN.txt	ORCHID	Flowers	3	2	[0, 0, 0]	n/a	catFR1	3	R1536J
225.85	0.817	322429	WORD_OFF	n/a	n/a	ORCHID	Flowers	3	2	[0, 0, 0]	n/a	catFR1	3	R1536J
226.667	1.6	323252	WORD	n/a	wordpools/wordpool_categorized_EN.txt	CARNATION	Flowers	4	2	[0, 0, 0]	n/a	catFR1	3	R1536J
228.267	0.85	324850	WORD_OFF	n/a	n/a	CARNATION	Flowers	4	2	[0, 0, 0]	n/a	catFR1	3	R1536J
229.117	1.617	325703	WORD	n/a	wordpools/wordpool_categorized_EN.txt	AXE	Tools	5	2	[0, 0, 0]	n/a	catFR1	3	R1536J
230.734	0.917	327320	WORD_OFF	n/a	n/a	AXE	Tools	5	2	[0, 0, 0]	n/a	catFR1	3	R1536J
231.651	1.616	328232	WORD	n/a	wordpools/wordpool_categorized_EN.txt	DRILL	Tools	6	2	[0, 0, 0]	n/a	catFR1	3	R1536J
233.267	0.95	329849	WORD_OFF	n/a	n/a	DRILL	Tools	6	2	[0, 0, 0]	n/a	catFR1	3	R1536J
234.217	1.616	330802	WORD	n/a	wordpools/wordpool_categorized_EN.txt	ROSE	Flowers	7	2	[0, 0, 0]	n/a	catFR1	3	R1536J
235.833	0.851	332419	WORD_OFF	n/a	n/a	ROSE	Flowers	7	2	[0, 0, 0]	n/a	catFR1	3	R1536J
236.684	1.616	333272	WORD	n/a	wordpools/wordpool_categorized_EN.txt	DAISY	Flowers	8	2	[0, 0, 0]	n/a	catFR1	3	R1536J
238.3	0.8	334879	WORD_OFF	n/a	n/a	DAISY	Flowers	8	2	[0, 0, 0]	n/a	catFR1	3	R1536J
239.1	1.616	335682	WORD	n/a	wordpools/wordpool_categorized_EN.txt	RATCHET	Tools	9	2	[0, 0, 0]	n/a	catFR1	3	R1536J
240.716	0.835	337299	WORD_OFF	n/a	n/a	RATCHET	Tools	9	2	[0, 0, 0]	n/a	catFR1	3	R1536J
241.551	1.616	338132	WORD	n/a	wordpools/wordpool_categorized_EN.txt	SCREWDRIVER	Tools	10	2	[0, 0, 0]	n/a	catFR1	3	R1536J
243.167	0.95	339749	WORD_OFF	n/a	n/a	SCREWDRIVER	Tools	10	2	[0, 0, 0]	n/a	catFR1	3	R1536J
244.117	1.6	340702	WORD	n/a	wordpools/wordpool_categorized_EN.txt	RIVER	Landscapes	11	2	[0, 0, 0]	n/a	catFR1	3	R1536J
245.717	0.786	342299	WORD_OFF	n/a	n/a	RIVER	Landscapes	11	2	[0, 0, 0]	n/a	catFR1	3	R1536J
246.503	1.614	343083	WORD	n/a	wordpools/wordpool_categorized_EN.txt	LAKE	Landscapes	12	2	[0, 0, 0]	n/a	catFR1	3	R1536J
248.117	0.001	344699	WORD_OFF	n/a	n/a	LAKE	Landscapes	12	2	[0, 0, 0]	n/a	catFR1	3	R1536J
248.118	0.0	344699	ENCODING_END	n/a	n/a	n/a	n/a	-999	2	[0, 0, 0]	n/a	catFR1	3	R1536J
248.118	0.0	344699	DISTRACT_START	n/a	n/a	n/a	n/a	-999	2	[0, 0, 0]	n/a	catFR1	3	R1536J
248.118	0.0	344700	START	n/a	n/a	n/a	n/a	-999	2	[-999, -999, -999]	n/a	catFR1	3	R1536J
248.118	4.966	344700	PROB	4.966	n/a	n/a	n/a	-999	2	[8, 3, 6]	17	catFR1	3	R1536J
253.084	3.55	349665	PROB	3.55	n/a	n/a	n/a	-999	2	[6, 5, 4]	15	catFR1	3	R1536J
256.634	3.55	353215	PROB	3.55	n/a	n/a	n/a	-999	2	[3, 6, 8]	17	catFR1	3	R1536J
260.184	4.516	356765	PROB	4.516	n/a	n/a	n/a	-999	2	[7, 2, 4]	13	catFR1	3	R1536J
264.7	3.915	361281	PROB	3.915	n/a	n/a	n/a	-999	2	[1, 1, 8]	10	catFR1	3	R1536J
268.615	0.0	365194	DISTRACT_END	n/a	n/a	n/a	n/a	-999	2	[0, 0, 0]	n/a	catFR1	3	R1536J
268.615	1.685	365196	STOP	n/a	n/a	n/a	n/a	-999	2	[-999, -999, -999]	n/a	catFR1	3	R1536J
270.3	28.999	366881	REC_START	n/a	n/a	n/a	n/a	-999	2	[0, 0, 0]	n/a	catFR1	3	R1536J
299.299	1.215	395878	REC_WORD_VV	1.215	n/a	<>	n/a	-999	2	[0, 0, 0]	n/a	catFR1	3	R1536J
300.514	5.902	397097	REC_END	n/a	n/a	n/a	n/a	-999	2	[0, 0, 0]	n/a	catFR1	3	R1536J
306.416	1.167	402999	COUNTDOWN_START	n/a	n/a	n/a	n/a	-999	2	[0, 0, 0]	n/a	catFR1	3	R1536J
307.583	0.0	404160	COUNTDOWN_END	n/a	n/a	n/a	n/a	-999	2	[0, 0, 0]	n/a	catFR1	3	R1536J
307.583	2.084	404160	ENCODING_START	n/a	n/a	n/a	n/a	-999	3	[0, 0, 0]	n/a	catFR1	3	R1536J
309.667	1.616	406243	WORD	n/a	wordpools/wordpool_categorized_EN.txt	MICROWAVE	Electronics	1	3	[0, 0, 0]	n/a	catFR1	3	R1536J
311.283	0.882	407860	WORD_OFF	n/a	n/a	MICROWAVE	Electronics	1	3	[0, 0, 0]	n/a	catFR1	3	R1536J
312.165	1.601	408743	WORD	n/a	wordpools/wordpool_categorized_EN.txt	PHONE	Electronics	2	3	[0, 0, 0]	n/a	catFR1	3	R1536J
313.766	0.984	410340	WORD_OFF	n/a	n/a	PHONE	Electronics	2	3	[0, 0, 0]	n/a	catFR1	3	R1536J
314.75	1.6	411332	WORD	n/a	wordpools/wordpool_categorized_EN.txt	VIOLIN	Instruments	3	3	[0, 0, 0]	n/a	catFR1	3	R1536J
316.35	0.931	412929	WORD_OFF	n/a	n/a	VIOLIN	Instruments	3	3	[0, 0, 0]	n/a	catFR1	3	R1536J
317.281	1.601	413862	WORD	n/a	wordpools/wordpool_categorized_EN.txt	TUBA	Instruments	4	3	[0, 0, 0]	n/a	catFR1	3	R1536J
318.882	0.784	415459	WORD_OFF	n/a	n/a	TUBA	Instruments	4	3	[0, 0, 0]	n/a	catFR1	3	R1536J
319.666	1.6	416242	WORD	n/a	wordpools/wordpool_categorized_EN.txt	ZEBRA	Zoo	5	3	[0, 0, 0]	n/a	catFR1	3	R1536J
321.266	0.966	417840	WORD_OFF	n/a	n/a	ZEBRA	Zoo	5	3	[0, 0, 0]	n/a	catFR1	3	R1536J
322.232	1.6	418812	WORD	n/a	wordpools/wordpool_categorized_EN.txt	GIRAFFE	Zoo	6	3	[0, 0, 0]	n/a	catFR1	3	R1536J
323.832	0.85	420409	WORD_OFF	n/a	n/a	GIRAFFE	Zoo	6	3	[0, 0, 0]	n/a	catFR1	3	R1536J
324.682	1.6	421262	WORD	n/a	wordpools/wordpool_categorized_EN.txt	DRUM	Instruments	7	3	[0, 0, 0]	n/a	catFR1	3	R1536J
326.282	0.867	422859	WORD_OFF	n/a	n/a	DRUM	Instruments	7	3	[0, 0, 0]	n/a	catFR1	3	R1536J
327.149	1.616	423722	WORD	n/a	wordpools/wordpool_categorized_EN.txt	ORGAN	Instruments	8	3	[0, 0, 0]	n/a	catFR1	3	R1536J
328.765	0.934	425339	WORD_OFF	n/a	n/a	ORGAN	Instruments	8	3	[0, 0, 0]	n/a	catFR1	3	R1536J
329.699	1.617	426272	WORD	n/a	wordpools/wordpool_categorized_EN.txt	SCANNER	Electronics	9	3	[0, 0, 0]	n/a	catFR1	3	R1536J
331.316	0.801	427889	WORD_OFF	n/a	n/a	SCANNER	Electronics	9	3	[0, 0, 0]	n/a	catFR1	3	R1536J
332.117	1.615	428692	WORD	n/a	wordpools/wordpool_categorized_EN.txt	STEREO	Electronics	10	3	[0, 0, 0]	n/a	catFR1	3	R1536J
333.732	0.934	430309	WORD_OFF	n/a	n/a	STEREO	Electronics	10	3	[0, 0, 0]	n/a	catFR1	3	R1536J
334.666	1.601	431241	WORD	n/a	wordpools/wordpool_categorized_EN.txt	ELEPHANT	Zoo	11	3	[0, 0, 0]	n/a	catFR1	3	R1536J
336.267	1.0	432849	WORD_OFF	n/a	n/a	ELEPHANT	Zoo	11	3	[0, 0, 0]	n/a	catFR1	3	R1536J
337.267	1.615	433841	WORD	n/a	wordpools/wordpool_categorized_EN.txt	CHEETAH	Zoo	12	3	[0, 0, 0]	n/a	catFR1	3	R1536J
338.882	0.002	435457	WORD_OFF	n/a	n/a	CHEETAH	Zoo	12	3	[0, 0, 0]	n/a	catFR1	3	R1536J
338.884	0.0	435457	ENCODING_END	n/a	n/a	n/a	n/a	-999	3	[0, 0, 0]	n/a	catFR1	3	R1536J
338.884	0.0	435457	DISTRACT_START	n/a	n/a	n/a	n/a	-999	3	[0, 0, 0]	n/a	catFR1	3	R1536J
338.883	0.001	435460	PROB	0.001	n/a	n/a	n/a	-999	3	[3, 7, 8]	18	catFR1	3	R1536J
338.884	3.732	435461	START	n/a	n/a	n/a	n/a	-999	3	[-999, -999, -999]	n/a	catFR1	3	R1536J
342.616	4.749	439193	PROB	4.749	n/a	n/a	n/a	-999	3	[8, 7, 7]	22	catFR1	3	R1536J
347.365	3.25	443941	PROB	3.25	n/a	n/a	n/a	-999	3	[3, 6, 2]	11	catFR1	3	R1536J
350.615	2.984	447191	PROB	2.984	n/a	n/a	n/a	-999	3	[2, 5, 1]	8	catFR1	3	R1536J
353.599	2.867	450175	PROB	2.867	n/a	n/a	n/a	-999	3	[4, 6, 8]	18	catFR1	3	R1536J
356.466	4.032	453042	PROB	4.032	n/a	n/a	n/a	-999	3	[7, 2, 3]	12	catFR1	3	R1536J
360.498	0.0	457073	DISTRACT_END	n/a	n/a	n/a	n/a	-999	3	[0, 0, 0]	n/a	catFR1	3	R1536J
360.498	1.618	457074	STOP	n/a	n/a	n/a	n/a	-999	3	[-999, -999, -999]	n/a	catFR1	3	R1536J
362.116	3.341	458690	REC_START	n/a	n/a	n/a	n/a	-999	3	[0, 0, 0]	n/a	catFR1	3	R1536J
365.457	1.242	462032	REC_WORD	1.242	n/a	CHEETAH	Zoo	12	3	[0, 0, 0]	n/a	catFR1	3	R1536J
366.699	1.241	463274	REC_WORD	1.241	n/a	ELEPHANT	Zoo	11	3	[0, 0, 0]	n/a	catFR1	3	R1536J
367.94	2.383	464515	REC_WORD	2.383	n/a	MILK	Beverages	-999	3	[0, 0, 0]	n/a	catFR1	3	R1536J
370.323	2.615	466898	REC_WORD	2.615	n/a	SHOES	Clothing	-999	3	[0, 0, 0]	n/a	catFR1	3	R1536J
372.938	4.059	469513	REC_WORD	4.059	n/a	ZEBRA	Zoo	5	3	[0, 0, 0]	n/a	catFR1	3	R1536J
376.997	15.343	473572	REC_WORD_VV	15.343	n/a	<>	n/a	-999	3	[0, 0, 0]	n/a	catFR1	3	R1536J
392.34	2.076	488916	REC_END	n/a	n/a	n/a	n/a	-999	3	[0, 0, 0]	n/a	catFR1	3	R1536J
394.416	0.966	490990	COUNTDOWN_START	n/a	n/a	n/a	n/a	-999	3	[0, 0, 0]	n/a	catFR1	3	R1536J
395.382	0.0	491952	COUNTDOWN_END	n/a	n/a	n/a	n/a	-999	3	[0, 0, 0]	n/a	catFR1	3	R1536J
395.382	1.884	491962	ENCODING_START	n/a	n/a	n/a	n/a	-999	4	[0, 0, 0]	n/a	catFR1	3	R1536J
397.266	1.617	493837	WORD	n/a	wordpools/wordpool_categorized_EN.txt	WATER	Beverages	1	4	[0, 0, 0]	n/a	catFR1	3	R1536J
398.883	0.865	495454	WORD_OFF	n/a	n/a	WATER	Beverages	1	4	[0, 0, 0]	n/a	catFR1	3	R1536J
399.748	1.602	496317	WORD	n/a	wordpools/wordpool_categorized_EN.txt	TEA	Beverages	2	4	[0, 0, 0]	n/a	catFR1	3	R1536J
401.35	0.782	497924	WORD_OFF	n/a	n/a	TEA	Beverages	2	4	[0, 0, 0]	n/a	catFR1	3	R1536J
402.132	1.601	498707	WORD	n/a	wordpools/wordpool_categorized_EN.txt	LAMB	FarmAnimals	3	4	[0, 0, 0]	n/a	catFR1	3	R1536J
403.733	0.866	500304	WORD_OFF	n/a	n/a	LAMB	FarmAnimals	3	4	[0, 0, 0]	n/a	catFR1	3	R1536J
404.599	1.616	501177	WORD	n/a	wordpools/wordpool_categorized_EN.txt	GOAT	FarmAnimals	4	4	[0, 0, 0]	n/a	catFR1	3	R1536J
406.215	0.967	502784	WORD_OFF	n/a	n/a	GOAT	FarmAnimals	4	4	[0, 0, 0]	n/a	catFR1	3	R1536J
407.182	1.617	503757	WORD	n/a	wordpools/wordpool_categorized_EN.txt	OVEN	Appliances	5	4	[0, 0, 0]	n/a	catFR1	3	R1536J
408.799	0.851	505374	WORD_OFF	n/a	n/a	OVEN	Appliances	5	4	[0, 0, 0]	n/a	catFR1	3	R1536J
409.65	1.616	506227	WORD	n/a	wordpools/wordpool_categorized_EN.txt	MIXER	Appliances	6	4	[0, 0, 0]	n/a	catFR1	3	R1536J
411.266	0.815	507844	WORD_OFF	n/a	n/a	MIXER	Appliances	6	4	[0, 0, 0]	n/a	catFR1	3	R1536J
412.081	1.6	508657	WORD	n/a	wordpools/wordpool_categorized_EN.txt	CALF	FarmAnimals	7	4	[0, 0, 0]	n/a	catFR1	3	R1536J
413.681	0.784	510254	WORD_OFF	n/a	n/a	CALF	FarmAnimals	7	4	[0, 0, 0]	n/a	catFR1	3	R1536J
414.465	1.601	511038	WORD	n/a	wordpools/wordpool_categorized_EN.txt	COW	FarmAnimals	8	4	[0, 0, 0]	n/a	catFR1	3	R1536J
416.066	0.867	512635	WORD_OFF	n/a	n/a	COW	FarmAnimals	8	4	[0, 0, 0]	n/a	catFR1	3	R1536J
416.933	1.599	513508	WORD	n/a	wordpools/wordpool_categorized_EN.txt	WINE	Beverages	9	4	[0, 0, 0]	n/a	catFR1	3	R1536J
418.532	0.917	515105	WORD_OFF	n/a	n/a	WINE	Beverages	9	4	[0, 0, 0]	n/a	catFR1	3	R1536J
419.449	1.616	516018	WORD	n/a	wordpools/wordpool_categorized_EN.txt	BEER	Beverages	10	4	[0, 0, 0]	n/a	catFR1	3	R1536J
421.065	0.868	517635	WORD_OFF	n/a	n/a	BEER	Beverages	10	4	[0, 0, 0]	n/a	catFR1	3	R1536J
421.933	1.615	518508	WORD	n/a	wordpools/wordpool_categorized_EN.txt	VACUUM	Appliances	11	4	[0, 0, 0]	n/a	catFR1	3	R1536J
423.548	0.785	520125	WORD_OFF	n/a	n/a	VACUUM	Appliances	11	4	[0, 0, 0]	n/a	catFR1	3	R1536J
424.333	1.617	520908	WORD	n/a	wordpools/wordpool_categorized_EN.txt	STOVE	Appliances	12	4	[0, 0, 0]	n/a	catFR1	3	R1536J
425.95	0.001	522522	PROB	0.001	n/a	n/a	n/a	-999	4	[1, 2, 3]	6	catFR1	3	R1536J
425.951	0.0	522523	START	n/a	n/a	n/a	n/a	-999	4	[-999, -999, -999]	n/a	catFR1	3	R1536J
425.95	0.001	522525	WORD_OFF	n/a	n/a	STOVE	Appliances	12	4	[0, 0, 0]	n/a	catFR1	3	R1536J
425.951	0.0	522525	ENCODING_END	n/a	n/a	n/a	n/a	-999	4	[0, 0, 0]	n/a	catFR1	3	R1536J
425.951	4.115	522525	DISTRACT_START	n/a	n/a	n/a	n/a	-999	4	[0, 0, 0]	n/a	catFR1	3	R1536J
430.066	2.617	526638	PROB	2.617	n/a	n/a	n/a	-999	4	[6, 4, 1]	11	catFR1	3	R1536J
432.683	2.333	529255	PROB	2.333	n/a	n/a	n/a	-999	4	[6, 6, 1]	13	catFR1	3	R1536J
435.016	2.267	531588	PROB	2.267	n/a	n/a	n/a	-999	4	[3, 7, 1]	11	catFR1	3	R1536J
437.283	3.916	533854	PROB	3.916	n/a	n/a	n/a	-999	4	[4, 7, 8]	19	catFR1	3	R1536J
441.199	2.933	537770	PROB	2.933	n/a	n/a	n/a	-999	4	[6, 4, 1]	11	catFR1	3	R1536J
444.132	3.45	540703	PROB	3.45	n/a	n/a	n/a	-999	4	[8, 4, 2]	14	catFR1	3	R1536J
447.582	0.0	544151	DISTRACT_END	n/a	n/a	n/a	n/a	-999	4	[0, 0, 0]	n/a	catFR1	3	R1536J
447.582	1.617	544153	STOP	n/a	n/a	n/a	n/a	-999	4	[-999, -999, -999]	n/a	catFR1	3	R1536J
449.199	1.433	545768	REC_START	n/a	n/a	n/a	n/a	-999	4	[0, 0, 0]	n/a	catFR1	3	R1536J
450.632	0.782	547203	REC_WORD	0.782	n/a	WATER	Beverages	1	4	[0, 0, 0]	n/a	catFR1	3	R1536J
451.414	2.8	547985	REC_WORD	2.8	n/a	TEA	Beverages	2	4	[0, 0, 0]	n/a	catFR1	3	R1536J
454.214	2.698	550784	REC_WORD	2.698	n/a	MILK	Beverages	-999	4	[0, 0, 0]	n/a	catFR1	3	R1536J
456.912	2.742	553482	REC_WORD	2.742	n/a	CALF	FarmAnimals	7	4	[0, 0, 0]	n/a	catFR1	3	R1536J
459.654	4.233	556224	REC_WORD	4.233	n/a	COW	FarmAnimals	8	4	[0, 0, 0]	n/a	catFR1	3	R1536J
463.887	15.504	560457	REC_WORD_VV	15.504	n/a	<>	n/a	-999	4	[0, 0, 0]	n/a	catFR1	3	R1536J
479.391	1.891	575964	REC_END	n/a	n/a	n/a	n/a	-999	4	[0, 0, 0]	n/a	catFR1	3	R1536J
481.282	0.65	577859	COUNTDOWN_START	n/a	n/a	n/a	n/a	-999	4	[0, 0, 0]	n/a	catFR1	3	R1536J
481.932	0.0	578504	COUNTDOWN_END	n/a	n/a	n/a	n/a	-999	4	[0, 0, 0]	n/a	catFR1	3	R1536J
481.932	2.167	578504	ENCODING_START	n/a	n/a	n/a	n/a	-999	5	[0, 0, 0]	n/a	catFR1	3	R1536J
484.099	1.6	580666	WORD	n/a	wordpools/wordpool_categorized_EN.txt	COUCH	Furniture	1	5	[0, 0, 0]	n/a	catFR1	3	R1536J
485.699	0.801	582263	WORD_OFF	n/a	n/a	COUCH	Furniture	1	5	[0, 0, 0]	n/a	catFR1	3	R1536J
486.5	1.616	583067	WORD	n/a	wordpools/wordpool_categorized_EN.txt	TABLE	Furniture	2	5	[0, 0, 0]	n/a	catFR1	3	R1536J
488.116	0.801	584684	WORD_OFF	n/a	n/a	TABLE	Furniture	2	5	[0, 0, 0]	n/a	catFR1	3	R1536J
488.917	1.615	585487	WORD	n/a	wordpools/wordpool_categorized_EN.txt	JELLYFISH	OceanAnimals	3	5	[0, 0, 0]	n/a	catFR1	3	R1536J
490.532	0.833	587104	WORD_OFF	n/a	n/a	JELLYFISH	OceanAnimals	3	5	[0, 0, 0]	n/a	catFR1	3	R1536J
491.365	1.601	587938	WORD	n/a	wordpools/wordpool_categorized_EN.txt	PLANKTON	OceanAnimals	4	5	[0, 0, 0]	n/a	catFR1	3	R1536J
492.966	0.866	589535	WORD_OFF	n/a	n/a	PLANKTON	OceanAnimals	4	5	[0, 0, 0]	n/a	catFR1	3	R1536J
493.832	1.617	590398	WORD	n/a	wordpools/wordpool_categorized_EN.txt	EYE	BodyParts	5	5	[0, 0, 0]	n/a	catFR1	3	R1536J
495.449	0.968	592015	WORD_OFF	n/a	n/a	EYE	BodyParts	5	5	[0, 0, 0]	n/a	catFR1	3	R1536J
496.417	1.615	592987	WORD	n/a	wordpools/wordpool_categorized_EN.txt	TOE	BodyParts	6	5	[0, 0, 0]	n/a	catFR1	3	R1536J
498.032	0.951	594604	WORD_OFF	n/a	n/a	TOE	BodyParts	6	5	[0, 0, 0]	n/a	catFR1	3	R1536J
498.983	1.6	595556	WORD	n/a	wordpools/wordpool_categorized_EN.txt	FISH	OceanAnimals	7	5	[0, 0, 0]	n/a	catFR1	3	R1536J
500.583	0.867	597153	WORD_OFF	n/a	n/a	FISH	OceanAnimals	7	5	[0, 0, 0]	n/a	catFR1	3	R1536J
501.45	1.617	598016	WORD	n/a	wordpools/wordpool_categorized_EN.txt	OYSTER	OceanAnimals	8	5	[0, 0, 0]	n/a	catFR1	3	R1536J
503.067	0.782	599633	WORD_OFF	n/a	n/a	OYSTER	OceanAnimals	8	5	[0, 0, 0]	n/a	catFR1	3	R1536J
503.849	1.617	600417	WORD	n/a	wordpools/wordpool_categorized_EN.txt	DRESSER	Furniture	9	5	[0, 0, 0]	n/a	catFR1	3	R1536J
505.466	0.917	602034	WORD_OFF	n/a	n/a	DRESSER	Furniture	9	5	[0, 0, 0]	n/a	catFR1	3	R1536J
506.383	1.616	602947	WORD	n/a	wordpools/wordpool_categorized_EN.txt	SOFA	Furniture	10	5	[0, 0, 0]	n/a	catFR1	3	R1536J
507.999	0.8	604564	WORD_OFF	n/a	n/a	SOFA	Furniture	10	5	[0, 0, 0]	n/a	catFR1	3	R1536J
508.799	1.6	605367	WORD	n/a	wordpools/wordpool_categorized_EN.txt	ELBOW	BodyParts	11	5	[0, 0, 0]	n/a	catFR1	3	R1536J
510.399	0.799	606964	WORD_OFF	n/a	n/a	ELBOW	BodyParts	11	5	[0, 0, 0]	n/a	catFR1	3	R1536J
511.198	1.601	607768	WORD	n/a	wordpools/wordpool_categorized_EN.txt	HEAD	BodyParts	12	5	[0, 0, 0]	n/a	catFR1	3	R1536J
512.799	0.001	609365	WORD_OFF	n/a	n/a	HEAD	BodyParts	12	5	[0, 0, 0]	n/a	catFR1	3	R1536J
512.8	0.0	609365	ENCODING_END	n/a	n/a	n/a	n/a	-999	5	[0, 0, 0]	n/a	catFR1	3	R1536J
512.8	0.0	609365	DISTRACT_START	n/a	n/a	n/a	n/a	-999	5	[0, 0, 0]	n/a	catFR1	3	R1536J
512.799	0.001	609366	PROB	0.001	n/a	n/a	n/a	-999	5	[8, 4, 7]	19	catFR1	3	R1536J
512.8	4.815	609367	START	n/a	n/a	n/a	n/a	-999	5	[-999, -999, -999]	n/a	catFR1	3	R1536J
517.615	3.968	614182	PROB	3.968	n/a	n/a	n/a	-999	5	[3, 5, 2]	10	catFR1	3	R1536J
521.583	3.616	618150	PROB	3.616	n/a	n/a	n/a	-999	5	[2, 3, 2]	7	catFR1	3	R1536J
525.199	2.9	621766	PROB	2.9	n/a	n/a	n/a	-999	5	[4, 6, 8]	18	catFR1	3	R1536J
528.099	2.716	624665	PROB	2.716	n/a	n/a	n/a	-999	5	[5, 2, 3]	10	catFR1	3	R1536J
530.815	3.951	627381	PROB	3.951	n/a	n/a	n/a	-999	5	[8, 5, 4]	17	catFR1	3	R1536J
534.766	0.0	631328	DISTRACT_END	n/a	n/a	n/a	n/a	-999	5	[0, 0, 0]	n/a	catFR1	3	R1536J
534.766	1.666	631332	STOP	n/a	n/a	n/a	n/a	-999	5	[-999, -999, -999]	n/a	catFR1	3	R1536J
536.432	2.338	632994	REC_START	n/a	n/a	n/a	n/a	-999	5	[0, 0, 0]	n/a	catFR1	3	R1536J
538.77	2.054	635336	REC_WORD	2.054	n/a	WATER	Beverages	-999	5	[0, 0, 0]	n/a	catFR1	3	R1536J
540.824	2.065	637390	REC_WORD	2.065	n/a	TEA	Beverages	-999	5	[0, 0, 0]	n/a	catFR1	3	R1536J
542.889	2.227	639455	REC_WORD	2.227	n/a	EYE	BodyParts	5	5	[0, 0, 0]	n/a	catFR1	3	R1536J
545.116	7.274	641681	REC_WORD	7.274	n/a	ELBOW	BodyParts	11	5	[0, 0, 0]	n/a	catFR1	3	R1536J
552.39	4.417	648955	REC_WORD	4.417	n/a	SHOES	Clothing	-999	5	[0, 0, 0]	n/a	catFR1	3	R1536J
556.807	3.44	653372	REC_WORD	3.44	n/a	HEAD	BodyParts	12	5	[0, 0, 0]	n/a	catFR1	3	R1536J
560.247	6.421	656812	REC_WORD_VV	6.421	n/a	<>	n/a	-999	5	[0, 0, 0]	n/a	catFR1	3	R1536J
566.668	5.081	663230	REC_END	n/a	n/a	n/a	n/a	-999	5	[0, 0, 0]	n/a	catFR1	3	R1536J
571.749	1.634	668319	COUNTDOWN_START	n/a	n/a	n/a	n/a	-999	5	[0, 0, 0]	n/a	catFR1	3	R1536J
573.383	0.0	669946	COUNTDOWN_END	n/a	n/a	n/a	n/a	-999	5	[0, 0, 0]	n/a	catFR1	3	R1536J
573.383	2.134	669946	ENCODING_START	n/a	n/a	n/a	n/a	-999	6	[0, 0, 0]	n/a	catFR1	3	R1536J
575.517	1.614	672079	WORD	n/a	wordpools/wordpool_categorized_EN.txt	HORSE	FarmAnimals	1	6	[0, 0, 0]	n/a	catFR1	3	R1536J
577.131	0.884	673696	WORD_OFF	n/a	n/a	HORSE	FarmAnimals	1	6	[0, 0, 0]	n/a	catFR1	3	R1536J
578.015	1.601	674579	WORD	n/a	wordpools/wordpool_categorized_EN.txt	CHICKEN	FarmAnimals	2	6	[0, 0, 0]	n/a	catFR1	3	R1536J
579.616	0.799	676176	WORD_OFF	n/a	n/a	CHICKEN	FarmAnimals	2	6	[0, 0, 0]	n/a	catFR1	3	R1536J
580.415	1.618	676980	WORD	n/a	wordpools/wordpool_categorized_EN.txt	FLOOR	Building	3	6	[0, 0, 0]	n/a	catFR1	3	R1536J
582.033	0.767	678597	WORD_OFF	n/a	n/a	FLOOR	Building	3	6	[0, 0, 0]	n/a	catFR1	3	R1536J
582.8	1.615	679360	WORD	n/a	wordpools/wordpool_categorized_EN.txt	BATHROOM	Building	4	6	[0, 0, 0]	n/a	catFR1	3	R1536J
584.415	0.917	680977	WORD_OFF	n/a	n/a	BATHROOM	Building	4	6	[0, 0, 0]	n/a	catFR1	3	R1536J
585.332	1.617	681890	WORD	n/a	wordpools/wordpool_categorized_EN.txt	SNOW	Weather	5	6	[0, 0, 0]	n/a	catFR1	3	R1536J
586.949	0.783	683517	WORD_OFF	n/a	n/a	SNOW	Weather	5	6	[0, 0, 0]	n/a	catFR1	3	R1536J
587.732	1.617	684301	WORD	n/a	wordpools/wordpool_categorized_EN.txt	DRIZZLE	Weather	6	6	[0, 0, 0]	n/a	catFR1	3	R1536J
589.349	0.801	685917	WORD_OFF	n/a	n/a	DRIZZLE	Weather	6	6	[0, 0, 0]	n/a	catFR1	3	R1536J
590.15	1.616	686711	WORD	n/a	wordpools/wordpool_categorized_EN.txt	ROOF	Building	7	6	[0, 0, 0]	n/a	catFR1	3	R1536J
591.766	0.816	688328	WORD_OFF	n/a	n/a	ROOF	Building	7	6	[0, 0, 0]	n/a	catFR1	3	R1536J
592.582	1.6	689141	WORD	n/a	wordpools/wordpool_categorized_EN.txt	ROOM	Building	8	6	[0, 0, 0]	n/a	catFR1	3	R1536J
594.182	0.918	690749	WORD_OFF	n/a	n/a	ROOM	Building	8	6	[0, 0, 0]	n/a	catFR1	3	R1536J
595.1	1.616	691661	WORD	n/a	wordpools/wordpool_categorized_EN.txt	FOG	Weather	9	6	[0, 0, 0]	n/a	catFR1	3	R1536J
596.716	0.949	693278	WORD_OFF	n/a	n/a	FOG	Weather	9	6	[0, 0, 0]	n/a	catFR1	3	R1536J
597.665	1.601	694230	WORD	n/a	wordpools/wordpool_categorized_EN.txt	CLOUD	Weather	10	6	[0, 0, 0]	n/a	catFR1	3	R1536J
599.266	0.783	695828	WORD_OFF	n/a	n/a	CLOUD	Weather	10	6	[0, 0, 0]	n/a	catFR1	3	R1536J
600.049	1.6	696611	WORD	n/a	wordpools/wordpool_categorized_EN.txt	BULL	FarmAnimals	11	6	[0, 0, 0]	n/a	catFR1	3	R1536J
601.649	0.933	698208	WORD_OFF	n/a	n/a	BULL	FarmAnimals	11	6	[0, 0, 0]	n/a	catFR1	3	R1536J
602.582	1.617	699141	WORD	n/a	wordpools/wordpool_categorized_EN.txt	PIG	FarmAnimals	12	6	[0, 0, 0]	n/a	catFR1	3	R1536J
604.199	0.0	700758	WORD_OFF	n/a	n/a	PIG	FarmAnimals	12	6	[0, 0, 0]	n/a	catFR1	3	R1536J
604.199	0.003	700761	PROB	0.003	n/a	n/a	n/a	-999	6	[5, 8, 5]	18	catFR1	3	R1536J
604.202	0.0	700764	START	n/a	n/a	n/a	n/a	-999	6	[-999, -999, -999]	n/a	catFR1	3	R1536J
604.202	0.0	700768	ENCODING_END	n/a	n/a	n/a	n/a	-999	6	[0, 0, 0]	n/a	catFR1	3	R1536J
604.202	7.447	700768	DISTRACT_START	n/a	n/a	n/a	n/a	-999	6	[0, 0, 0]	n/a	catFR1	3	R1536J
611.649	3.601	708211	PROB	3.601	n/a	n/a	n/a	-999	6	[5, 1, 2]	8	catFR1	3	R1536J
615.25	2.516	711812	PROB	2.516	n/a	n/a	n/a	-999	6	[5, 5, 8]	18	catFR1	3	R1536J
617.766	4.299	714328	PROB	4.299	n/a	n/a	n/a	-999	6	[5, 5, 3]	13	catFR1	3	R1536J
622.065	2.801	718626	PROB	2.801	n/a	n/a	n/a	-999	6	[1, 2, 1]	4	catFR1	3	R1536J
624.866	0.0	721427	STOP	n/a	n/a	n/a	n/a	-999	6	[-999, -999, -999]	n/a	catFR1	3	R1536J
624.866	1.566	721431	DISTRACT_END	n/a	n/a	n/a	n/a	-999	6	[0, 0, 0]	n/a	catFR1	3	R1536J
626.432	2.996	722998	REC_START	n/a	n/a	n/a	n/a	-999	6	[0, 0, 0]	n/a	catFR1	3	R1536J
629.428	1.561	725989	REC_WORD	1.561	n/a	SNOW	Weather	5	6	[0, 0, 0]	n/a	catFR1	3	R1536J
630.989	1.964	727550	REC_WORD	1.964	n/a	DRIZZLE	Weather	6	6	[0, 0, 0]	n/a	catFR1	3	R1536J
632.953	2.678	729514	REC_WORD	2.678	n/a	FOG	Weather	9	6	[0, 0, 0]	n/a	catFR1	3	R1536J
635.631	3.314	732192	REC_WORD	3.314	n/a	CLOUD	Weather	10	6	[0, 0, 0]	n/a	catFR1	3	R1536J
638.945	17.718	735505	REC_WORD_VV	17.718	n/a	<>	n/a	-999	6	[0, 0, 0]	n/a	catFR1	3	R1536J
656.663	1.604	753225	REC_END	n/a	n/a	n/a	n/a	-999	6	[0, 0, 0]	n/a	catFR1	3	R1536J
658.267	0.816	754832	COUNTDOWN_START	n/a	n/a	n/a	n/a	-999	6	[0, 0, 0]	n/a	catFR1	3	R1536J
659.083	0.001	755645	COUNTDOWN_END	n/a	n/a	n/a	n/a	-999	6	[0, 0, 0]	n/a	catFR1	3	R1536J
659.084	2.098	755645	ENCODING_START	n/a	n/a	n/a	n/a	-999	7	[0, 0, 0]	n/a	catFR1	3	R1536J
661.182	1.601	757738	WORD	n/a	wordpools/wordpool_categorized_EN.txt	CHAIR	Furniture	1	7	[0, 0, 0]	n/a	catFR1	3	R1536J
662.783	0.85	759345	WORD_OFF	n/a	n/a	CHAIR	Furniture	1	7	[0, 0, 0]	n/a	catFR1	3	R1536J
663.633	1.6	760188	WORD	n/a	wordpools/wordpool_categorized_EN.txt	CABINET	Furniture	2	7	[0, 0, 0]	n/a	catFR1	3	R1536J
665.233	0.949	761796	WORD_OFF	n/a	n/a	CABINET	Furniture	2	7	[0, 0, 0]	n/a	catFR1	3	R1536J
666.182	1.616	762738	WORD	n/a	wordpools/wordpool_categorized_EN.txt	TURTLE	OceanAnimals	3	7	[0, 0, 0]	n/a	catFR1	3	R1536J
667.798	0.951	764355	WORD_OFF	n/a	n/a	TURTLE	OceanAnimals	3	7	[0, 0, 0]	n/a	catFR1	3	R1536J
668.749	1.617	765307	WORD	n/a	wordpools/wordpool_categorized_EN.txt	SQUID	OceanAnimals	4	7	[0, 0, 0]	n/a	catFR1	3	R1536J
670.366	0.982	766924	WORD_OFF	n/a	n/a	SQUID	OceanAnimals	4	7	[0, 0, 0]	n/a	catFR1	3	R1536J
671.348	1.601	767906	WORD	n/a	wordpools/wordpool_categorized_EN.txt	FUDGE	Desserts	5	7	[0, 0, 0]	n/a	catFR1	3	R1536J
672.949	0.882	769513	WORD_OFF	n/a	n/a	FUDGE	Desserts	5	7	[0, 0, 0]	n/a	catFR1	3	R1536J
673.831	1.601	770386	WORD	n/a	wordpools/wordpool_categorized_EN.txt	BROWNIES	Desserts	6	7	[0, 0, 0]	n/a	catFR1	3	R1536J
675.432	0.834	771993	WORD_OFF	n/a	n/a	BROWNIES	Desserts	6	7	[0, 0, 0]	n/a	catFR1	3	R1536J
676.266	1.616	772827	WORD	n/a	wordpools/wordpool_categorized_EN.txt	BED	Furniture	7	7	[0, 0, 0]	n/a	catFR1	3	R1536J
677.882	0.934	774444	WORD_OFF	n/a	n/a	BED	Furniture	7	7	[0, 0, 0]	n/a	catFR1	3	R1536J
678.816	1.601	775376	WORD	n/a	wordpools/wordpool_categorized_EN.txt	NIGHTSTAND	Furniture	8	7	[0, 0, 0]	n/a	catFR1	3	R1536J
680.417	0.882	776973	WORD_OFF	n/a	n/a	NIGHTSTAND	Furniture	8	7	[0, 0, 0]	n/a	catFR1	3	R1536J
681.299	1.615	777856	WORD	n/a	wordpools/wordpool_categorized_EN.txt	COOKIE	Desserts	9	7	[0, 0, 0]	n/a	catFR1	3	R1536J
682.914	0.785	779473	WORD_OFF	n/a	n/a	COOKIE	Desserts	9	7	[0, 0, 0]	n/a	catFR1	3	R1536J
683.699	1.617	780257	WORD	n/a	wordpools/wordpool_categorized_EN.txt	PIE	Desserts	10	7	[0, 0, 0]	n/a	catFR1	3	R1536J
685.316	0.832	781874	WORD_OFF	n/a	n/a	PIE	Desserts	10	7	[0, 0, 0]	n/a	catFR1	3	R1536J
686.148	1.601	782707	WORD	n/a	wordpools/wordpool_categorized_EN.txt	OCTOPUS	OceanAnimals	11	7	[0, 0, 0]	n/a	catFR1	3	R1536J
687.749	0.783	784304	WORD_OFF	n/a	n/a	OCTOPUS	OceanAnimals	11	7	[0, 0, 0]	n/a	catFR1	3	R1536J
688.532	1.617	785088	WORD	n/a	wordpools/wordpool_categorized_EN.txt	SHRIMP	OceanAnimals	12	7	[0, 0, 0]	n/a	catFR1	3	R1536J
690.149	0.0	786705	WORD_OFF	n/a	n/a	SHRIMP	OceanAnimals	12	7	[0, 0, 0]	n/a	catFR1	3	R1536J
690.149	0.003	786707	PROB	0.003	n/a	n/a	n/a	-999	7	[3, 8, 3]	14	catFR1	3	R1536J
690.152	0.0	786710	START	n/a	n/a	n/a	n/a	-999	7	[-999, -999, -999]	n/a	catFR1	3	R1536J
690.152	0.0	786715	ENCODING_END	n/a	n/a	n/a	n/a	-999	7	[0, 0, 0]	n/a	catFR1	3	R1536J
690.152	4.447	786715	DISTRACT_START	n/a	n/a	n/a	n/a	-999	7	[0, 0, 0]	n/a	catFR1	3	R1536J
694.599	3.734	791156	PROB	3.734	n/a	n/a	n/a	-999	7	[1, 8, 6]	15	catFR1	3	R1536J
698.333	4.432	794890	PROB	4.432	n/a	n/a	n/a	-999	7	[5, 2, 7]	14	catFR1	3	R1536J
702.765	3.468	799322	PROB	3.468	n/a	n/a	n/a	-999	7	[4, 1, 7]	12	catFR1	3	R1536J
706.233	4.782	802790	PROB	4.782	n/a	n/a	n/a	-999	7	[1, 6, 8]	15	catFR1	3	R1536J
711.015	0.0	807571	STOP	n/a	n/a	n/a	n/a	-999	7	[-999, -999, -999]	n/a	catFR1	3	R1536J
711.015	1.75	807576	DISTRACT_END	n/a	n/a	n/a	n/a	-999	7	[0, 0, 0]	n/a	catFR1	3	R1536J
712.765	2.672	809322	REC_START	n/a	n/a	n/a	n/a	-999	7	[0, 0, 0]	n/a	catFR1	3	R1536J
715.437	4.167	811993	REC_WORD	4.167	n/a	BROWNIES	Desserts	6	7	[0, 0, 0]	n/a	catFR1	3	R1536J
719.604	2.126	816160	REC_WORD	2.126	n/a	FUDGE	Desserts	5	7	[0, 0, 0]	n/a	catFR1	3	R1536J
721.73	1.0	818286	REC_WORD	1.0	n/a	OCTOPUS	OceanAnimals	11	7	[0, 0, 0]	n/a	catFR1	3	R1536J
722.73	2.551	819286	REC_WORD_VV	2.551	n/a	<>	n/a	-999	7	[0, 0, 0]	n/a	catFR1	3	R1536J
725.281	5.86	821837	REC_WORD	5.86	n/a	SHRIMP	OceanAnimals	12	7	[0, 0, 0]	n/a	catFR1	3	R1536J
731.141	11.839	827696	REC_WORD_VV	11.839	n/a	<>	n/a	-999	7	[0, 0, 0]	n/a	catFR1	3	R1536J
742.98	8.587	839539	REC_END	n/a	n/a	n/a	n/a	-999	7	[0, 0, 0]	n/a	catFR1	3	R1536J
751.567	10.349	848129	COUNTDOWN_START	n/a	n/a	n/a	n/a	-999	7	[0, 0, 0]	n/a	catFR1	3	R1536J
761.916	0.0	858466	COUNTDOWN_END	n/a	n/a	n/a	n/a	-999	7	[0, 0, 0]	n/a	catFR1	3	R1536J
761.916	2.4	858476	ENCODING_START	n/a	n/a	n/a	n/a	-999	8	[0, 0, 0]	n/a	catFR1	3	R1536J
764.316	1.617	860866	WORD	n/a	wordpools/wordpool_categorized_EN.txt	EAR	BodyParts	1	8	[0, 0, 0]	n/a	catFR1	3	R1536J
765.933	0.984	862483	WORD_OFF	n/a	n/a	EAR	BodyParts	1	8	[0, 0, 0]	n/a	catFR1	3	R1536J
766.917	1.616	863475	WORD	n/a	wordpools/wordpool_categorized_EN.txt	LEG	BodyParts	2	8	[0, 0, 0]	n/a	catFR1	3	R1536J
768.533	0.765	865092	WORD_OFF	n/a	n/a	LEG	BodyParts	2	8	[0, 0, 0]	n/a	catFR1	3	R1536J
769.298	1.6	865856	WORD	n/a	wordpools/wordpool_categorized_EN.txt	MOUSSE	Desserts	3	8	[0, 0, 0]	n/a	catFR1	3	R1536J
770.898	0.918	867453	WORD_OFF	n/a	n/a	MOUSSE	Desserts	3	8	[0, 0, 0]	n/a	catFR1	3	R1536J
771.816	1.6	868366	WORD	n/a	wordpools/wordpool_categorized_EN.txt	CHEESECAKE	Desserts	4	8	[0, 0, 0]	n/a	catFR1	3	R1536J
773.416	0.951	869973	WORD_OFF	n/a	n/a	CHEESECAKE	Desserts	4	8	[0, 0, 0]	n/a	catFR1	3	R1536J
774.367	1.616	870925	WORD	n/a	wordpools/wordpool_categorized_EN.txt	ERASER	OfficeSupplies	5	8	[0, 0, 0]	n/a	catFR1	3	R1536J
775.983	0.95	872532	WORD_OFF	n/a	n/a	ERASER	OfficeSupplies	5	8	[0, 0, 0]	n/a	catFR1	3	R1536J
776.933	1.616	873485	WORD	n/a	wordpools/wordpool_categorized_EN.txt	PEN	OfficeSupplies	6	8	[0, 0, 0]	n/a	catFR1	3	R1536J
778.549	0.883	875102	WORD_OFF	n/a	n/a	PEN	OfficeSupplies	6	8	[0, 0, 0]	n/a	catFR1	3	R1536J
779.432	1.616	875985	WORD	n/a	wordpools/wordpool_categorized_EN.txt	HAND	BodyParts	7	8	[0, 0, 0]	n/a	catFR1	3	R1536J
781.048	0.968	877602	WORD_OFF	n/a	n/a	HAND	BodyParts	7	8	[0, 0, 0]	n/a	catFR1	3	R1536J
782.016	1.616	878574	WORD	n/a	wordpools/wordpool_categorized_EN.txt	KNEE	BodyParts	8	8	[0, 0, 0]	n/a	catFR1	3	R1536J
783.632	0.916	880181	WORD_OFF	n/a	n/a	KNEE	BodyParts	8	8	[0, 0, 0]	n/a	catFR1	3	R1536J
784.548	1.601	881103	WORD	n/a	wordpools/wordpool_categorized_EN.txt	TAPE	OfficeSupplies	9	8	[0, 0, 0]	n/a	catFR1	3	R1536J
786.149	0.833	882700	WORD_OFF	n/a	n/a	TAPE	OfficeSupplies	9	8	[0, 0, 0]	n/a	catFR1	3	R1536J
786.982	1.617	883534	WORD	n/a	wordpools/wordpool_categorized_EN.txt	STAPLER	OfficeSupplies	10	8	[0, 0, 0]	n/a	catFR1	3	R1536J
788.599	0.833	885151	WORD_OFF	n/a	n/a	STAPLER	OfficeSupplies	10	8	[0, 0, 0]	n/a	catFR1	3	R1536J
789.432	1.601	885984	WORD	n/a	wordpools/wordpool_categorized_EN.txt	COBBLER	Desserts	11	8	[0, 0, 0]	n/a	catFR1	3	R1536J
791.033	0.867	887581	WORD_OFF	n/a	n/a	COBBLER	Desserts	11	8	[0, 0, 0]	n/a	catFR1	3	R1536J
791.9	1.617	888454	WORD	n/a	wordpools/wordpool_categorized_EN.txt	JELLO	Desserts	12	8	[0, 0, 0]	n/a	catFR1	3	R1536J
793.517	0.001	890069	PROB	0.001	n/a	n/a	n/a	-999	8	[4, 4, 2]	10	catFR1	3	R1536J
793.518	0.0	890070	START	n/a	n/a	n/a	n/a	-999	8	[-999, -999, -999]	n/a	catFR1	3	R1536J
793.517	0.001	890071	WORD_OFF	n/a	n/a	JELLO	Desserts	12	8	[0, 0, 0]	n/a	catFR1	3	R1536J
793.518	0.0	890071	ENCODING_END	n/a	n/a	n/a	n/a	-999	8	[0, 0, 0]	n/a	catFR1	3	R1536J
793.518	3.115	890071	DISTRACT_START	n/a	n/a	n/a	n/a	-999	8	[0, 0, 0]	n/a	catFR1	3	R1536J
796.633	5.948	893185	PROB	5.948	n/a	n/a	n/a	-999	8	[4, 5, 4]	13	catFR1	3	R1536J
802.581	2.868	899132	PROB	2.868	n/a	n/a	n/a	-999	8	[6, 2, 2]	10	catFR1	3	R1536J
805.449	3.65	902000	PROB	3.65	n/a	n/a	n/a	-999	8	[5, 4, 3]	12	catFR1	3	R1536J
809.099	2.733	905650	PROB	2.733	n/a	n/a	n/a	-999	8	[3, 3, 1]	7	catFR1	3	R1536J
811.832	2.901	908383	PROB	2.901	n/a	n/a	n/a	-999	8	[8, 1, 3]	12	catFR1	3	R1536J
814.733	0.0	911280	DISTRACT_END	n/a	n/a	n/a	n/a	-999	8	[0, 0, 0]	n/a	catFR1	3	R1536J
814.733	1.65	911284	STOP	n/a	n/a	n/a	n/a	-999	8	[-999, -999, -999]	n/a	catFR1	3	R1536J
816.383	2.256	912937	REC_START	n/a	n/a	n/a	n/a	-999	8	[0, 0, 0]	n/a	catFR1	3	R1536J
818.639	1.243	915190	REC_WORD	1.243	n/a	EAR	BodyParts	1	8	[0, 0, 0]	n/a	catFR1	3	R1536J
819.882	5.276	916433	REC_WORD	5.276	n/a	KNEE	BodyParts	8	8	[0, 0, 0]	n/a	catFR1	3	R1536J
825.158	2.313	921708	REC_WORD	2.313	n/a	EYE	BodyParts	-999	8	[0, 0, 0]	n/a	catFR1	3	R1536J
827.471	2.461	924021	REC_WORD	2.461	n/a	JELLO	Desserts	12	8	[0, 0, 0]	n/a	catFR1	3	R1536J
829.932	2.69	926482	REC_WORD	2.69	n/a	MOUSSE	Desserts	3	8	[0, 0, 0]	n/a	catFR1	3	R1536J
832.622	4.367	929172	REC_WORD	4.367	n/a	CHEESECAKE	Desserts	4	8	[0, 0, 0]	n/a	catFR1	3	R1536J
836.989	9.619	933539	REC_WORD_VV	9.619	n/a	<>	n/a	-999	8	[0, 0, 0]	n/a	catFR1	3	R1536J
846.608	1.809	943153	REC_END	n/a	n/a	n/a	n/a	-999	8	[0, 0, 0]	n/a	catFR1	3	R1536J
848.417	1.35	944968	COUNTDOWN_START	n/a	n/a	n/a	n/a	-999	8	[0, 0, 0]	n/a	catFR1	3	R1536J
849.767	0.0	946317	COUNTDOWN_END	n/a	n/a	n/a	n/a	-999	8	[0, 0, 0]	n/a	catFR1	3	R1536J
849.767	2.266	946317	ENCODING_START	n/a	n/a	n/a	n/a	-999	9	[0, 0, 0]	n/a	catFR1	3	R1536J
852.033	1.617	948579	WORD	n/a	wordpools/wordpool_categorized_EN.txt	PLUM	Fruit	1	9	[0, 0, 0]	n/a	catFR1	3	R1536J
853.65	0.983	950196	WORD_OFF	n/a	n/a	PLUM	Fruit	1	9	[0, 0, 0]	n/a	catFR1	3	R1536J
854.633	1.6	951178	WORD	n/a	wordpools/wordpool_categorized_EN.txt	GRAPE	Fruit	2	9	[0, 0, 0]	n/a	catFR1	3	R1536J
856.233	0.766	952785	WORD_OFF	n/a	n/a	GRAPE	Fruit	2	9	[0, 0, 0]	n/a	catFR1	3	R1536J
856.999	1.601	953549	WORD	n/a	wordpools/wordpool_categorized_EN.txt	ELM	Trees	3	9	[0, 0, 0]	n/a	catFR1	3	R1536J
858.6	0.867	955146	WORD_OFF	n/a	n/a	ELM	Trees	3	9	[0, 0, 0]	n/a	catFR1	3	R1536J
859.467	1.599	956019	WORD	n/a	wordpools/wordpool_categorized_EN.txt	CEDAR	Trees	4	9	[0, 0, 0]	n/a	catFR1	3	R1536J
861.066	0.983	957616	WORD_OFF	n/a	n/a	CEDAR	Trees	4	9	[0, 0, 0]	n/a	catFR1	3	R1536J
862.049	1.618	958598	WORD	n/a	wordpools/wordpool_categorized_EN.txt	RULER	OfficeSupplies	5	9	[0, 0, 0]	n/a	catFR1	3	R1536J
863.667	0.832	960215	WORD_OFF	n/a	n/a	RULER	OfficeSupplies	5	9	[0, 0, 0]	n/a	catFR1	3	R1536J
864.499	1.6	961049	WORD	n/a	wordpools/wordpool_categorized_EN.txt	FOLDER	OfficeSupplies	6	9	[0, 0, 0]	n/a	catFR1	3	R1536J
866.099	0.85	962646	WORD_OFF	n/a	n/a	FOLDER	OfficeSupplies	6	9	[0, 0, 0]	n/a	catFR1	3	R1536J
866.949	1.617	963499	WORD	n/a	wordpools/wordpool_categorized_EN.txt	BLUEBERRY	Fruit	7	9	[0, 0, 0]	n/a	catFR1	3	R1536J
868.566	0.934	965116	WORD_OFF	n/a	n/a	BLUEBERRY	Fruit	7	9	[0, 0, 0]	n/a	catFR1	3	R1536J
869.5	1.616	966048	WORD	n/a	wordpools/wordpool_categorized_EN.txt	LIME	Fruit	8	9	[0, 0, 0]	n/a	catFR1	3	R1536J
871.116	0.883	967665	WORD_OFF	n/a	n/a	LIME	Fruit	8	9	[0, 0, 0]	n/a	catFR1	3	R1536J
871.999	1.601	968548	WORD	n/a	wordpools/wordpool_categorized_EN.txt	HICKORY	Trees	9	9	[0, 0, 0]	n/a	catFR1	3	R1536J
873.6	0.9	970145	WORD_OFF	n/a	n/a	HICKORY	Trees	9	9	[0, 0, 0]	n/a	catFR1	3	R1536J
874.5	1.615	971048	WORD	n/a	wordpools/wordpool_categorized_EN.txt	WILLOW	Trees	10	9	[0, 0, 0]	n/a	catFR1	3	R1536J
876.115	0.85	972665	WORD_OFF	n/a	n/a	WILLOW	Trees	10	9	[0, 0, 0]	n/a	catFR1	3	R1536J
876.965	1.601	973508	WORD	n/a	wordpools/wordpool_categorized_EN.txt	BINDER	OfficeSupplies	11	9	[0, 0, 0]	n/a	catFR1	3	R1536J
878.566	0.917	975115	WORD_OFF	n/a	n/a	BINDER	OfficeSupplies	11	9	[0, 0, 0]	n/a	catFR1	3	R1536J
879.483	1.616	976028	WORD	n/a	wordpools/wordpool_categorized_EN.txt	NOTEBOOK	OfficeSupplies	12	9	[0, 0, 0]	n/a	catFR1	3	R1536J
881.099	0.001	977645	WORD_OFF	n/a	n/a	NOTEBOOK	OfficeSupplies	12	9	[0, 0, 0]	n/a	catFR1	3	R1536J
881.1	0.0	977645	ENCODING_END	n/a	n/a	n/a	n/a	-999	9	[0, 0, 0]	n/a	catFR1	3	R1536J
881.1	0.0	977647	START	n/a	n/a	n/a	n/a	-999	9	[-999, -999, -999]	n/a	catFR1	3	R1536J
881.1	0.0	977647	PROB	0.0	n/a	n/a	n/a	-999	9	[3, 2, 5]	10	catFR1	3	R1536J
881.1	5.284	977655	DISTRACT_START	n/a	n/a	n/a	n/a	-999	9	[0, 0, 0]	n/a	catFR1	3	R1536J
886.384	3.599	982931	PROB	3.599	n/a	n/a	n/a	-999	9	[3, 5, 8]	16	catFR1	3	R1536J
889.983	4.782	986530	PROB	4.782	n/a	n/a	n/a	-999	9	[2, 7, 7]	16	catFR1	3	R1536J
894.765	2.652	991311	PROB	2.652	n/a	n/a	n/a	-999	9	[8, 2, 1]	11	catFR1	3	R1536J
897.417	2.299	993963	PROB	2.299	n/a	n/a	n/a	-999	9	[4, 1, 1]	6	catFR1	3	R1536J
899.716	3.915	996262	PROB	3.915	n/a	n/a	n/a	-999	9	[3, 3, 4]	10	catFR1	3	R1536J
903.631	0.0	1000173	DISTRACT_END	n/a	n/a	n/a	n/a	-999	9	[0, 0, 0]	n/a	catFR1	3	R1536J
903.631	1.518	1000177	STOP	n/a	n/a	n/a	n/a	-999	9	[-999, -999, -999]	n/a	catFR1	3	R1536J
905.149	3.124	1001691	REC_START	n/a	n/a	n/a	n/a	-999	9	[0, 0, 0]	n/a	catFR1	3	R1536J
908.273	2.255	1004819	REC_WORD	2.255	n/a	ELM	Trees	3	9	[0, 0, 0]	n/a	catFR1	3	R1536J
910.528	1.0	1007074	REC_WORD	1.0	n/a	HICKORY	Trees	9	9	[0, 0, 0]	n/a	catFR1	3	R1536J
911.528	2.487	1008074	REC_WORD_VV	2.487	n/a	<>	n/a	-999	9	[0, 0, 0]	n/a	catFR1	3	R1536J
914.015	6.532	1010560	REC_WORD	6.532	n/a	NOTEBOOK	OfficeSupplies	12	9	[0, 0, 0]	n/a	catFR1	3	R1536J
920.547	14.828	1017092	REC_WORD_VV	14.828	n/a	<>	n/a	-999	9	[0, 0, 0]	n/a	catFR1	3	R1536J
935.375	1.625	1031917	REC_END	n/a	n/a	n/a	n/a	-999	9	[0, 0, 0]	n/a	catFR1	3	R1536J
937.0	1.118	1033544	COUNTDOWN_START	n/a	n/a	n/a	n/a	-999	9	[0, 0, 0]	n/a	catFR1	3	R1536J
938.118	0.0	1034665	COUNTDOWN_END	n/a	n/a	n/a	n/a	-999	9	[0, 0, 0]	n/a	catFR1	3	R1536J
938.118	2.015	1034665	ENCODING_START	n/a	n/a	n/a	n/a	-999	10	[0, 0, 0]	n/a	catFR1	3	R1536J
940.133	1.601	1036679	WORD	n/a	wordpools/wordpool_categorized_EN.txt	CHERRY	Fruit	1	10	[0, 0, 0]	n/a	catFR1	3	R1536J
941.734	0.833	1038276	WORD_OFF	n/a	n/a	CHERRY	Fruit	1	10	[0, 0, 0]	n/a	catFR1	3	R1536J
942.567	1.616	1039109	WORD	n/a	wordpools/wordpool_categorized_EN.txt	PEAR	Fruit	2	10	[0, 0, 0]	n/a	catFR1	3	R1536J
944.183	0.901	1040726	WORD_OFF	n/a	n/a	PEAR	Fruit	2	10	[0, 0, 0]	n/a	catFR1	3	R1536J
945.084	1.615	1041629	WORD	n/a	wordpools/wordpool_categorized_EN.txt	BEE	Insects	3	10	[0, 0, 0]	n/a	catFR1	3	R1536J
946.699	0.984	1043246	WORD_OFF	n/a	n/a	BEE	Insects	3	10	[0, 0, 0]	n/a	catFR1	3	R1536J
947.683	1.6	1044228	WORD	n/a	wordpools/wordpool_categorized_EN.txt	FLY	Insects	4	10	[0, 0, 0]	n/a	catFR1	3	R1536J
949.283	0.767	1045825	WORD_OFF	n/a	n/a	FLY	Insects	4	10	[0, 0, 0]	n/a	catFR1	3	R1536J
950.05	1.6	1046599	WORD	n/a	wordpools/wordpool_categorized_EN.txt	NOSE	BodyParts	5	10	[0, 0, 0]	n/a	catFR1	3	R1536J
951.65	0.848	1048196	WORD_OFF	n/a	n/a	NOSE	BodyParts	5	10	[0, 0, 0]	n/a	catFR1	3	R1536J
952.498	1.601	1049039	WORD	n/a	wordpools/wordpool_categorized_EN.txt	FOOT	BodyParts	6	10	[0, 0, 0]	n/a	catFR1	3	R1536J
954.099	0.784	1050646	WORD_OFF	n/a	n/a	FOOT	BodyParts	6	10	[0, 0, 0]	n/a	catFR1	3	R1536J
954.883	1.6	1051430	WORD	n/a	wordpools/wordpool_categorized_EN.txt	APPLE	Fruit	7	10	[0, 0, 0]	n/a	catFR1	3	R1536J
956.483	0.915	1053027	WORD_OFF	n/a	n/a	APPLE	Fruit	7	10	[0, 0, 0]	n/a	catFR1	3	R1536J
957.398	1.602	1053939	WORD	n/a	wordpools/wordpool_categorized_EN.txt	ORANGE	Fruit	8	10	[0, 0, 0]	n/a	catFR1	3	R1536J
959.0	0.898	1055546	WORD_OFF	n/a	n/a	ORANGE	Fruit	8	10	[0, 0, 0]	n/a	catFR1	3	R1536J
959.898	1.602	1056439	WORD	n/a	wordpools/wordpool_categorized_EN.txt	MOSQUITO	Insects	9	10	[0, 0, 0]	n/a	catFR1	3	R1536J
961.5	0.866	1058046	WORD_OFF	n/a	n/a	MOSQUITO	Insects	9	10	[0, 0, 0]	n/a	catFR1	3	R1536J
962.366	1.6	1058909	WORD	n/a	wordpools/wordpool_categorized_EN.txt	GNAT	Insects	10	10	[0, 0, 0]	n/a	catFR1	3	R1536J
963.966	0.866	1060506	WORD_OFF	n/a	n/a	GNAT	Insects	10	10	[0, 0, 0]	n/a	catFR1	3	R1536J
964.832	1.601	1061379	WORD	n/a	wordpools/wordpool_categorized_EN.txt	FINGERS	BodyParts	11	10	[0, 0, 0]	n/a	catFR1	3	R1536J
966.433	0.967	1062976	WORD_OFF	n/a	n/a	FINGERS	BodyParts	11	10	[0, 0, 0]	n/a	catFR1	3	R1536J
967.4	1.617	1063939	WORD	n/a	wordpools/wordpool_categorized_EN.txt	ARM	BodyParts	12	10	[0, 0, 0]	n/a	catFR1	3	R1536J
969.017	0.0	1065556	WORD_OFF	n/a	n/a	ARM	BodyParts	12	10	[0, 0, 0]	n/a	catFR1	3	R1536J
969.017	0.003	1065559	PROB	0.003	n/a	n/a	n/a	-999	10	[2, 1, 1]	4	catFR1	3	R1536J
969.02	0.0	1065562	START	n/a	n/a	n/a	n/a	-999	10	[-999, -999, -999]	n/a	catFR1	3	R1536J
969.02	0.0	1065566	ENCODING_END	n/a	n/a	n/a	n/a	-999	10	[0, 0, 0]	n/a	catFR1	3	R1536J
969.02	2.513	1065566	DISTRACT_START	n/a	n/a	n/a	n/a	-999	10	[0, 0, 0]	n/a	catFR1	3	R1536J
971.533	4.634	1068075	PROB	4.634	n/a	n/a	n/a	-999	10	[4, 8, 5]	17	catFR1	3	R1536J
976.167	3.898	1072709	PROB	3.898	n/a	n/a	n/a	-999	10	[5, 3, 8]	16	catFR1	3	R1536J
980.065	3.067	1076607	PROB	3.067	n/a	n/a	n/a	-999	10	[7, 1, 3]	11	catFR1	3	R1536J
983.132	3.184	1079674	PROB	3.184	n/a	n/a	n/a	-999	10	[2, 1, 6]	9	catFR1	3	R1536J
986.316	2.85	1082857	PROB	2.85	n/a	n/a	n/a	-999	10	[8, 7, 1]	16	catFR1	3	R1536J
989.166	0.0	1085703	DISTRACT_END	n/a	n/a	n/a	n/a	-999	10	[0, 0, 0]	n/a	catFR1	3	R1536J
989.166	1.884	1085707	STOP	n/a	n/a	n/a	n/a	-999	10	[-999, -999, -999]	n/a	catFR1	3	R1536J
991.05	3.18	1087588	REC_START	n/a	n/a	n/a	n/a	-999	10	[0, 0, 0]	n/a	catFR1	3	R1536J
994.23	2.174	1090771	REC_WORD	2.174	n/a	ARM	BodyParts	12	10	[0, 0, 0]	n/a	catFR1	3	R1536J
996.404	2.475	1092945	REC_WORD	2.475	n/a	NOSE	BodyParts	5	10	[0, 0, 0]	n/a	catFR1	3	R1536J
998.879	3.162	1095420	REC_WORD	3.162	n/a	ELBOW	BodyParts	-999	10	[0, 0, 0]	n/a	catFR1	3	R1536J
1002.041	2.55	1098582	REC_WORD	2.55	n/a	ELM	Trees	-999	10	[0, 0, 0]	n/a	catFR1	3	R1536J
1004.591	4.575	1101131	REC_WORD	4.575	n/a	HICKORY	Trees	-999	10	[0, 0, 0]	n/a	catFR1	3	R1536J
1009.166	12.107	1105706	REC_WORD_VV	12.107	n/a	<>	n/a	-999	10	[0, 0, 0]	n/a	catFR1	3	R1536J
1021.273	1.711	1117814	REC_END	n/a	n/a	n/a	n/a	-999	10	[0, 0, 0]	n/a	catFR1	3	R1536J
1022.984	1.132	1119530	COUNTDOWN_START	n/a	n/a	n/a	n/a	-999	10	[0, 0, 0]	n/a	catFR1	3	R1536J
1024.116	0.0	1120661	COUNTDOWN_END	n/a	n/a	n/a	n/a	-999	10	[0, 0, 0]	n/a	catFR1	3	R1536J
1024.116	1.851	1120661	ENCODING_START	n/a	n/a	n/a	n/a	-999	11	[0, 0, 0]	n/a	catFR1	3	R1536J
1025.967	1.616	1122506	WORD	n/a	wordpools/wordpool_categorized_EN.txt	BUTTERFLY	Insects	1	11	[0, 0, 0]	n/a	catFR1	3	R1536J
1027.583	0.934	1124123	WORD_OFF	n/a	n/a	BUTTERFLY	Insects	1	11	[0, 0, 0]	n/a	catFR1	3	R1536J
1028.517	1.617	1125056	WORD	n/a	wordpools/wordpool_categorized_EN.txt	BEETLE	Insects	2	11	[0, 0, 0]	n/a	catFR1	3	R1536J
1030.134	0.849	1126673	WORD_OFF	n/a	n/a	BEETLE	Insects	2	11	[0, 0, 0]	n/a	catFR1	3	R1536J
1030.983	1.601	1127526	WORD	n/a	wordpools/wordpool_categorized_EN.txt	GUITAR	Instruments	3	11	[0, 0, 0]	n/a	catFR1	3	R1536J
1032.584	0.833	1129123	WORD_OFF	n/a	n/a	GUITAR	Instruments	3	11	[0, 0, 0]	n/a	catFR1	3	R1536J
1033.417	1.6	1129956	WORD	n/a	wordpools/wordpool_categorized_EN.txt	TROMBONE	Instruments	4	11	[0, 0, 0]	n/a	catFR1	3	R1536J
1035.017	1.0	1131553	WORD_OFF	n/a	n/a	TROMBONE	Instruments	4	11	[0, 0, 0]	n/a	catFR1	3	R1536J
1036.017	1.616	1132555	WORD	n/a	wordpools/wordpool_categorized_EN.txt	COTTON	Fabric	5	11	[0, 0, 0]	n/a	catFR1	3	R1536J
1037.633	0.767	1134172	WORD_OFF	n/a	n/a	COTTON	Fabric	5	11	[0, 0, 0]	n/a	catFR1	3	R1536J
1038.4	1.616	1134936	WORD	n/a	wordpools/wordpool_categorized_EN.txt	SATIN	Fabric	6	11	[0, 0, 0]	n/a	catFR1	3	R1536J
1040.016	0.834	1136553	WORD_OFF	n/a	n/a	SATIN	Fabric	6	11	[0, 0, 0]	n/a	catFR1	3	R1536J
1040.85	1.615	1137386	WORD	n/a	wordpools/wordpool_categorized_EN.txt	ROACH	Insects	7	11	[0, 0, 0]	n/a	catFR1	3	R1536J
1042.465	0.802	1139003	WORD_OFF	n/a	n/a	ROACH	Insects	7	11	[0, 0, 0]	n/a	catFR1	3	R1536J
1043.267	1.616	1139807	WORD	n/a	wordpools/wordpool_categorized_EN.txt	MOTH	Insects	8	11	[0, 0, 0]	n/a	catFR1	3	R1536J
1044.883	0.933	1141424	WORD_OFF	n/a	n/a	MOTH	Insects	8	11	[0, 0, 0]	n/a	catFR1	3	R1536J
1045.816	1.601	1142356	WORD	n/a	wordpools/wordpool_categorized_EN.txt	DENIM	Fabric	9	11	[0, 0, 0]	n/a	catFR1	3	R1536J
1047.417	0.982	1143953	WORD_OFF	n/a	n/a	DENIM	Fabric	9	11	[0, 0, 0]	n/a	catFR1	3	R1536J
1048.399	1.601	1144935	WORD	n/a	wordpools/wordpool_categorized_EN.txt	FLEECE	Fabric	10	11	[0, 0, 0]	n/a	catFR1	3	R1536J
1050.0	0.783	1146542	WORD_OFF	n/a	n/a	FLEECE	Fabric	10	11	[0, 0, 0]	n/a	catFR1	3	R1536J
1050.783	1.6	1147326	WORD	n/a	wordpools/wordpool_categorized_EN.txt	CELLO	Instruments	11	11	[0, 0, 0]	n/a	catFR1	3	R1536J
1052.383	0.933	1148923	WORD_OFF	n/a	n/a	CELLO	Instruments	11	11	[0, 0, 0]	n/a	catFR1	3	R1536J
1053.316	1.6	1149856	WORD	n/a	wordpools/wordpool_categorized_EN.txt	TRUMPET	Instruments	12	11	[0, 0, 0]	n/a	catFR1	3	R1536J
1054.916	0.003	1151453	WORD_OFF	n/a	n/a	TRUMPET	Instruments	12	11	[0, 0, 0]	n/a	catFR1	3	R1536J
1054.919	0.0	1151453	ENCODING_END	n/a	n/a	n/a	n/a	-999	11	[0, 0, 0]	n/a	catFR1	3	R1536J
1054.917	0.002	1151455	PROB	0.002	n/a	n/a	n/a	-999	11	[3, 8, 3]	17	catFR1	3	R1536J
1054.919	0.0	1151457	START	n/a	n/a	n/a	n/a	-999	11	[-999, -999, -999]	n/a	catFR1	3	R1536J
1054.919	6.398	1151461	DISTRACT_START	n/a	n/a	n/a	n/a	-999	11	[0, 0, 0]	n/a	catFR1	3	R1536J
1061.317	3.833	1157854	PROB	3.833	n/a	n/a	n/a	-999	11	[1, 8, 2]	11	catFR1	3	R1536J
1065.15	4.165	1161687	PROB	4.165	n/a	n/a	n/a	-999	11	[7, 3, 5]	15	catFR1	3	R1536J
1069.315	4.451	1165852	PROB	4.451	n/a	n/a	n/a	-999	11	[4, 7, 6]	17	catFR1	3	R1536J
1073.766	3.017	1170303	PROB	3.017	n/a	n/a	n/a	-999	11	[7, 4, 7]	18	catFR1	3	R1536J
1076.783	0.0	1173317	DISTRACT_END	n/a	n/a	n/a	n/a	-999	11	[0, 0, 0]	n/a	catFR1	3	R1536J
1076.783	1.799	1173319	STOP	n/a	n/a	n/a	n/a	-999	11	[-999, -999, -999]	n/a	catFR1	3	R1536J
1078.582	7.608	1175122	REC_START	n/a	n/a	n/a	n/a	-999	11	[0, 0, 0]	n/a	catFR1	3	R1536J
1086.19	4.227	1182726	REC_WORD	4.227	n/a	CELLO	Instruments	11	11	[0, 0, 0]	n/a	catFR1	3	R1536J
1090.417	2.715	1186953	REC_WORD	2.715	n/a	ARM	BodyParts	-999	11	[0, 0, 0]	n/a	catFR1	3	R1536J
1093.132	3.542	1189668	REC_WORD	3.542	n/a	NOSE	BodyParts	-999	11	[0, 0, 0]	n/a	catFR1	3	R1536J
1096.674	1.0	1193209	REC_WORD	1.0	n/a	BUTTERFLY	Insects	1	11	[0, 0, 0]	n/a	catFR1	3	R1536J
1097.674	3.234	1194209	REC_WORD_VV	3.234	n/a	<>	n/a	-999	11	[0, 0, 0]	n/a	catFR1	3	R1536J
1100.908	7.911	1197443	REC_WORD_VV	7.911	n/a	<>	n/a	-999	11	[0, 0, 0]	n/a	catFR1	3	R1536J
1108.819	2.098	1205358	REC_END	n/a	n/a	n/a	n/a	-999	11	[0, 0, 0]	n/a	catFR1	3	R1536J
1110.917	3.484	1207451	COUNTDOWN_START	n/a	n/a	n/a	n/a	-999	11	[0, 0, 0]	n/a	catFR1	3	R1536J
1114.401	0.0	1210933	COUNTDOWN_END	n/a	n/a	n/a	n/a	-999	11	[0, 0, 0]	n/a	catFR1	3	R1536J
1114.401	2.066	1210943	ENCODING_START	n/a	n/a	n/a	n/a	-999	12	[0, 0, 0]	n/a	catFR1	3	R1536J
1116.467	1.6	1213006	WORD	n/a	wordpools/wordpool_categorized_EN.txt	CUPCAKE	Desserts	1	12	[0, 0, 0]	n/a	catFR1	3	R1536J
1118.067	0.984	1214604	WORD_OFF	n/a	n/a	CUPCAKE	Desserts	1	12	[0, 0, 0]	n/a	catFR1	3	R1536J
1119.051	1.599	1215586	WORD	n/a	wordpools/wordpool_categorized_EN.txt	PUDDING	Desserts	2	12	[0, 0, 0]	n/a	catFR1	3	R1536J
1120.65	0.917	1217183	WORD_OFF	n/a	n/a	PUDDING	Desserts	2	12	[0, 0, 0]	n/a	catFR1	3	R1536J
1121.567	1.617	1218105	WORD	n/a	wordpools/wordpool_categorized_EN.txt	SPANDEX	Fabric	3	12	[0, 0, 0]	n/a	catFR1	3	R1536J
1123.184	0.783	1219722	WORD_OFF	n/a	n/a	SPANDEX	Fabric	3	12	[0, 0, 0]	n/a	catFR1	3	R1536J
1123.967	1.618	1220506	WORD	n/a	wordpools/wordpool_categorized_EN.txt	WOOL	Fabric	4	12	[0, 0, 0]	n/a	catFR1	3	R1536J
1125.585	0.948	1222123	WORD_OFF	n/a	n/a	WOOL	Fabric	4	12	[0, 0, 0]	n/a	catFR1	3	R1536J
1126.533	1.601	1223065	WORD	n/a	wordpools/wordpool_categorized_EN.txt	DOLPHIN	OceanAnimals	5	12	[0, 0, 0]	n/a	catFR1	3	R1536J
1128.134	0.883	1224672	WORD_OFF	n/a	n/a	DOLPHIN	OceanAnimals	5	12	[0, 0, 0]	n/a	catFR1	3	R1536J
1129.017	1.6	1225555	WORD	n/a	wordpools/wordpool_categorized_EN.txt	CRAB	OceanAnimals	6	12	[0, 0, 0]	n/a	catFR1	3	R1536J
1130.617	0.9	1227152	WORD_OFF	n/a	n/a	CRAB	OceanAnimals	6	12	[0, 0, 0]	n/a	catFR1	3	R1536J
1131.517	1.616	1228055	WORD	n/a	wordpools/wordpool_categorized_EN.txt	SUEDE	Fabric	7	12	[0, 0, 0]	n/a	catFR1	3	R1536J
1133.133	0.834	1229662	WORD_OFF	n/a	n/a	SUEDE	Fabric	7	12	[0, 0, 0]	n/a	catFR1	3	R1536J
1133.967	1.618	1230505	WORD	n/a	wordpools/wordpool_categorized_EN.txt	NYLON	Fabric	8	12	[0, 0, 0]	n/a	catFR1	3	R1536J
1135.585	0.965	1232122	WORD_OFF	n/a	n/a	NYLON	Fabric	8	12	[0, 0, 0]	n/a	catFR1	3	R1536J
1136.55	1.6	1233084	WORD	n/a	wordpools/wordpool_categorized_EN.txt	LOBSTER	OceanAnimals	9	12	[0, 0, 0]	n/a	catFR1	3	R1536J
1138.15	0.899	1234682	WORD_OFF	n/a	n/a	LOBSTER	OceanAnimals	9	12	[0, 0, 0]	n/a	catFR1	3	R1536J
1139.049	1.6	1235584	WORD	n/a	wordpools/wordpool_categorized_EN.txt	WHALE	OceanAnimals	10	12	[0, 0, 0]	n/a	catFR1	3	R1536J
1140.649	0.984	1237181	WORD_OFF	n/a	n/a	WHALE	OceanAnimals	10	12	[0, 0, 0]	n/a	catFR1	3	R1536J
1141.633	1.617	1238164	WORD	n/a	wordpools/wordpool_categorized_EN.txt	CAKE	Desserts	11	12	[0, 0, 0]	n/a	catFR1	3	R1536J
1143.25	0.95	1239780	WORD_OFF	n/a	n/a	CAKE	Desserts	11	12	[0, 0, 0]	n/a	catFR1	3	R1536J
1144.2	1.616	1240733	WORD	n/a	wordpools/wordpool_categorized_EN.txt	PASTRY	Desserts	12	12	[0, 0, 0]	n/a	catFR1	3	R1536J
1145.816	0.0	1242349	PROB	0.0	n/a	n/a	n/a	-999	12	[5, 7, 5]	17	catFR1	3	R1536J
1145.815	0.003	1242350	WORD_OFF	n/a	n/a	PASTRY	Desserts	12	12	[0, 0, 0]	n/a	catFR1	3	R1536J
1145.818	0.0	1242350	ENCODING_END	n/a	n/a	n/a	n/a	-999	12	[0, 0, 0]	n/a	catFR1	3	R1536J
1145.818	0.0	1242350	DISTRACT_START	n/a	n/a	n/a	n/a	-999	12	[0, 0, 0]	n/a	catFR1	3	R1536J
1145.818	3.066	1242351	START	n/a	n/a	n/a	n/a	-999	12	[-999, -999, -999]	n/a	catFR1	3	R1536J
1148.884	2.416	1245417	PROB	2.416	n/a	n/a	n/a	-999	12	[2, 2, 2]	6	catFR1	3	R1536J
1151.3	4.2	1247832	PROB	4.2	n/a	n/a	n/a	-999	12	[8, 1, 2]	11	catFR1	3	R1536J
1155.5	3.099	1252032	PROB	3.099	n/a	n/a	n/a	-999	12	[2, 6, 2]	10	catFR1	3	R1536J
1158.599	2.866	1255131	PROB	2.866	n/a	n/a	n/a	-999	12	[8, 7, 3]	18	catFR1	3	R1536J
1161.465	2.684	1257997	PROB	2.684	n/a	n/a	n/a	-999	12	[2, 6, 4]	12	catFR1	3	R1536J
1164.149	3.051	1260681	PROB	3.051	n/a	n/a	n/a	-999	12	[3, 5, 7]	15	catFR1	3	R1536J
1167.2	0.0	1263727	DISTRACT_END	n/a	n/a	n/a	n/a	-999	12	[0, 0, 0]	n/a	catFR1	3	R1536J
1167.2	1.849	1263732	STOP	n/a	n/a	n/a	n/a	-999	12	[-999, -999, -999]	n/a	catFR1	3	R1536J
1169.049	2.616	1265582	REC_START	n/a	n/a	n/a	n/a	-999	12	[0, 0, 0]	n/a	catFR1	3	R1536J
1171.665	2.729	1268196	REC_WORD	2.729	n/a	DOLPHIN	OceanAnimals	5	12	[0, 0, 0]	n/a	catFR1	3	R1536J
1174.394	2.64	1270925	REC_WORD	2.64	n/a	CRAB	OceanAnimals	6	12	[0, 0, 0]	n/a	catFR1	3	R1536J
1177.034	4.09	1273565	REC_WORD	4.09	n/a	SUEDE	Fabric	7	12	[0, 0, 0]	n/a	catFR1	3	R1536J
1181.124	3.219	1277655	REC_WORD	3.219	n/a	WOOL	Fabric	4	12	[0, 0, 0]	n/a	catFR1	3	R1536J
1184.343	4.241	1280874	REC_WORD	4.241	n/a	LOBSTER	OceanAnimals	9	12	[0, 0, 0]	n/a	catFR1	3	R1536J
1188.584	1.0	1285114	REC_WORD	1.0	n/a	SPANDEX	Fabric	3	12	[0, 0, 0]	n/a	catFR1	3	R1536J
1189.584	2.54	1286114	REC_WORD_VV	2.54	n/a	<>	n/a	-999	12	[0, 0, 0]	n/a	catFR1	3	R1536J
1192.124	3.898	1288654	REC_WORD	3.898	n/a	WOOL	Fabric	4	12	[0, 0, 0]	n/a	catFR1	3	R1536J
1196.022	3.259	1292552	REC_WORD	3.259	n/a	PASTRY	Desserts	12	12	[0, 0, 0]	n/a	catFR1	3	R1536J
1199.281	0.0	1295809	REC_END	n/a	n/a	n/a	n/a	-999	12	[0, 0, 0]	n/a	catFR1	3	R1536J
