onset	duration	sample	trial_type	response_time	stim_file	item_name	category	serialpos	list	test	answer	experiment	session	subject
0.0	0.784	412777	INSTRUCT_START	n/a	n/a	n/a	n/a	-999	-999	[0, 0, 0]	n/a	catFR1	3	R1486J
0.784	57.5	413558	INSTRUCT_END	n/a	n/a	n/a	n/a	-999	-999	[0, 0, 0]	n/a	catFR1	3	R1486J
58.284	10.351	471057	COUNTDOWN_START	n/a	n/a	n/a	n/a	-999	-999	[0, 0, 0]	n/a	catFR1	3	R1486J
68.635	0.0	481405	COUNTDOWN_END	n/a	n/a	n/a	n/a	-999	-999	[0, 0, 0]	n/a	catFR1	3	R1486J
68.635	1.866	481405	ENCODING_START	n/a	n/a	n/a	n/a	-999	-1	[0, 0, 0]	n/a	catFR1	3	R1486J
70.501	1.616	483269	WORD	n/a	n/a	TULIP	Flowers	1	-1	[0, 0, 0]	n/a	catFR1	3	R1486J
72.117	0.883	484884	WORD_OFF	n/a	n/a	TULIP	Flowers	1	-1	[0, 0, 0]	n/a	catFR1	3	R1486J
73.0	1.6	485771	WORD	n/a	n/a	SUNFLOWER	Flowers	2	-1	[0, 0, 0]	n/a	catFR1	3	R1486J
74.6	0.867	487372	WORD_OFF	n/a	n/a	SUNFLOWER	Flowers	2	-1	[0, 0, 0]	n/a	catFR1	3	R1486J
75.467	1.6	488236	WORD	n/a	n/a	BALL	Toys	3	-1	[0, 0, 0]	n/a	catFR1	3	R1486J
77.067	0.867	489837	WORD_OFF	n/a	n/a	BALL	Toys	3	-1	[0, 0, 0]	n/a	catFR1	3	R1486J
77.934	1.6	490701	WORD	n/a	n/a	SLINKY	Toys	4	-1	[0, 0, 0]	n/a	catFR1	3	R1486J
79.534	0.915	492302	WORD_OFF	n/a	n/a	SLINKY	Toys	4	-1	[0, 0, 0]	n/a	catFR1	3	R1486J
80.449	1.601	493219	WORD	n/a	n/a	PIE	Desserts	5	-1	[0, 0, 0]	n/a	catFR1	3	R1486J
82.05	0.983	494819	WORD_OFF	n/a	n/a	PIE	Desserts	5	-1	[0, 0, 0]	n/a	catFR1	3	R1486J
83.033	1.615	495804	WORD	n/a	n/a	MOUSSE	Desserts	6	-1	[0, 0, 0]	n/a	catFR1	3	R1486J
84.648	0.984	497420	WORD_OFF	n/a	n/a	MOUSSE	Desserts	6	-1	[0, 0, 0]	n/a	catFR1	3	R1486J
85.632	1.601	498404	WORD	n/a	n/a	BASEBALL	Toys	7	-1	[0, 0, 0]	n/a	catFR1	3	R1486J
87.233	0.8	500005	WORD_OFF	n/a	n/a	BASEBALL	Toys	7	-1	[0, 0, 0]	n/a	catFR1	3	R1486J
88.033	1.616	500801	WORD	n/a	n/a	BASKETBALL	Toys	8	-1	[0, 0, 0]	n/a	catFR1	3	R1486J
89.649	1.0	502417	WORD_OFF	n/a	n/a	BASKETBALL	Toys	8	-1	[0, 0, 0]	n/a	catFR1	3	R1486J
90.649	1.601	503417	WORD	n/a	n/a	LILAC	Flowers	9	-1	[0, 0, 0]	n/a	catFR1	3	R1486J
92.25	0.982	505017	WORD_OFF	n/a	n/a	LILAC	Flowers	9	-1	[0, 0, 0]	n/a	catFR1	3	R1486J
93.232	1.618	506002	WORD	n/a	n/a	VIOLET	Flowers	10	-1	[0, 0, 0]	n/a	catFR1	3	R1486J
94.85	0.783	507618	WORD_OFF	n/a	n/a	VIOLET	Flowers	10	-1	[0, 0, 0]	n/a	catFR1	3	R1486J
95.633	1.6	508399	WORD	n/a	n/a	PASTRY	Desserts	11	-1	[0, 0, 0]	n/a	catFR1	3	R1486J
97.233	0.801	510000	WORD_OFF	n/a	n/a	PASTRY	Desserts	11	-1	[0, 0, 0]	n/a	catFR1	3	R1486J
98.034	1.616	510804	WORD	n/a	n/a	COOKIE	Desserts	12	-1	[0, 0, 0]	n/a	catFR1	3	R1486J
99.65	0.0	512418	PROB	0.0	n/a	n/a	n/a	-999	-1	[7, 7, 8]	22	catFR1	3	R1486J
99.649	0.003	512420	WORD_OFF	n/a	n/a	COOKIE	Desserts	12	-1	[0, 0, 0]	n/a	catFR1	3	R1486J
99.652	0.0	512420	ENCODING_END	n/a	n/a	n/a	n/a	-999	-1	[0, 0, 0]	n/a	catFR1	3	R1486J
99.652	0.0	512420	DISTRACT_START	n/a	n/a	n/a	n/a	-999	-1	[0, 0, 0]	n/a	catFR1	3	R1486J
99.652	5.365	512420	START	n/a	n/a	n/a	n/a	-999	-1	[-999, -999, -999]	n/a	catFR1	3	R1486J
105.017	3.633	517785	PROB	3.633	n/a	n/a	n/a	-999	-1	[2, 2, 5]	9	catFR1	3	R1486J
108.65	3.351	521418	PROB	3.351	n/a	n/a	n/a	-999	-1	[6, 7, 4]	17	catFR1	3	R1486J
112.001	5.499	524768	PROB	5.499	n/a	n/a	n/a	-999	-1	[4, 1, 7]	12	catFR1	3	R1486J
117.5	5.016	530267	PROB	5.016	n/a	n/a	n/a	-999	-1	[8, 8, 5]	21	catFR1	3	R1486J
122.516	0.0	535283	STOP	n/a	n/a	n/a	n/a	-999	-1	[-999, -999, -999]	n/a	catFR1	3	R1486J
122.516	1.051	535288	DISTRACT_END	n/a	n/a	n/a	n/a	-999	-1	[0, 0, 0]	n/a	catFR1	3	R1486J
123.567	0.531	536333	REC_START	n/a	n/a	n/a	n/a	-999	-1	[0, 0, 0]	n/a	catFR1	3	R1486J
124.098	1.243	536865	REC_WORD	1.243	n/a	BALL	Toys	3	-1	[0, 0, 0]	n/a	catFR1	3	R1486J
125.341	1.669	538108	REC_WORD	1.669	n/a	BASKETBALL	Toys	8	-1	[0, 0, 0]	n/a	catFR1	3	R1486J
127.01	1.632	539777	REC_WORD	1.632	n/a	TULIP	Flowers	1	-1	[0, 0, 0]	n/a	catFR1	3	R1486J
128.642	8.738	541409	REC_WORD	8.738	n/a	SUNFLOWER	Flowers	2	-1	[0, 0, 0]	n/a	catFR1	3	R1486J
137.38	0.359	550146	REC_WORD	0.359	n/a	LILAC	Flowers	9	-1	[0, 0, 0]	n/a	catFR1	3	R1486J
137.739	0.739	550505	REC_WORD_VV	0.739	n/a	<>	n/a	-999	-1	[0, 0, 0]	n/a	catFR1	3	R1486J
138.478	2.0	551244	REC_WORD	2.0	n/a	LILAC	Flowers	9	-1	[0, 0, 0]	n/a	catFR1	3	R1486J
140.478	4.75	553244	REC_WORD_VV	4.75	n/a	<>	n/a	-999	-1	[0, 0, 0]	n/a	catFR1	3	R1486J
145.228	9.541	557994	REC_WORD	9.541	n/a	BASKETBALL	Toys	8	-1	[0, 0, 0]	n/a	catFR1	3	R1486J
154.769	42.816	567536	REC_END	n/a	n/a	n/a	n/a	-999	-1	[0, 0, 0]	n/a	catFR1	3	R1486J
197.585	10.347	610350	COUNTDOWN_START	n/a	n/a	n/a	n/a	-999	1	[0, 0, 0]	n/a	catFR1	3	R1486J
207.932	0.0	620698	COUNTDOWN_END	n/a	n/a	n/a	n/a	-999	1	[0, 0, 0]	n/a	catFR1	3	R1486J
207.932	2.25	620698	ENCODING_START	n/a	n/a	n/a	n/a	-999	1	[0, 0, 0]	n/a	catFR1	3	R1486J
210.182	1.601	622945	WORD	n/a	wordpools/wordpool_categorized_EN.txt	MOSQUITO	Insects	1	1	[0, 0, 0]	n/a	catFR1	3	R1486J
211.783	0.832	624546	WORD_OFF	n/a	n/a	MOSQUITO	Insects	1	1	[0, 0, 0]	n/a	catFR1	3	R1486J
212.615	1.601	625380	WORD	n/a	wordpools/wordpool_categorized_EN.txt	BEETLE	Insects	2	1	[0, 0, 0]	n/a	catFR1	3	R1486J
214.216	0.834	626981	WORD_OFF	n/a	n/a	BEETLE	Insects	2	1	[0, 0, 0]	n/a	catFR1	3	R1486J
215.05	1.616	627815	WORD	n/a	wordpools/wordpool_categorized_EN.txt	PANTS	Clothing	3	1	[0, 0, 0]	n/a	catFR1	3	R1486J
216.666	0.983	629431	WORD_OFF	n/a	n/a	PANTS	Clothing	3	1	[0, 0, 0]	n/a	catFR1	3	R1486J
217.649	1.6	630415	WORD	n/a	wordpools/wordpool_categorized_EN.txt	SHOES	Clothing	4	1	[0, 0, 0]	n/a	catFR1	3	R1486J
219.249	0.833	632016	WORD_OFF	n/a	n/a	SHOES	Clothing	4	1	[0, 0, 0]	n/a	catFR1	3	R1486J
220.082	1.617	632850	WORD	n/a	wordpools/wordpool_categorized_EN.txt	DRIZZLE	Weather	5	1	[0, 0, 0]	n/a	catFR1	3	R1486J
221.699	0.851	634466	WORD_OFF	n/a	n/a	DRIZZLE	Weather	5	1	[0, 0, 0]	n/a	catFR1	3	R1486J
222.55	1.616	635315	WORD	n/a	wordpools/wordpool_categorized_EN.txt	HURRICANE	Weather	6	1	[0, 0, 0]	n/a	catFR1	3	R1486J
224.166	0.833	636931	WORD_OFF	n/a	n/a	HURRICANE	Weather	6	1	[0, 0, 0]	n/a	catFR1	3	R1486J
224.999	1.601	637765	WORD	n/a	wordpools/wordpool_categorized_EN.txt	SPIDER	Insects	7	1	[0, 0, 0]	n/a	catFR1	3	R1486J
226.6	0.883	639366	WORD_OFF	n/a	n/a	SPIDER	Insects	7	1	[0, 0, 0]	n/a	catFR1	3	R1486J
227.483	1.616	640245	WORD	n/a	wordpools/wordpool_categorized_EN.txt	BUTTERFLY	Insects	8	1	[0, 0, 0]	n/a	catFR1	3	R1486J
229.099	0.817	641861	WORD_OFF	n/a	n/a	BUTTERFLY	Insects	8	1	[0, 0, 0]	n/a	catFR1	3	R1486J
229.916	1.616	642680	WORD	n/a	wordpools/wordpool_categorized_EN.txt	DRESS	Clothing	9	1	[0, 0, 0]	n/a	catFR1	3	R1486J
231.532	0.934	644296	WORD_OFF	n/a	n/a	DRESS	Clothing	9	1	[0, 0, 0]	n/a	catFR1	3	R1486J
232.466	1.617	645228	WORD	n/a	wordpools/wordpool_categorized_EN.txt	SHIRT	Clothing	10	1	[0, 0, 0]	n/a	catFR1	3	R1486J
234.083	0.983	646843	WORD_OFF	n/a	n/a	SHIRT	Clothing	10	1	[0, 0, 0]	n/a	catFR1	3	R1486J
235.066	1.6	647828	WORD	n/a	wordpools/wordpool_categorized_EN.txt	TORNADO	Weather	11	1	[0, 0, 0]	n/a	catFR1	3	R1486J
236.666	0.767	649429	WORD_OFF	n/a	n/a	TORNADO	Weather	11	1	[0, 0, 0]	n/a	catFR1	3	R1486J
237.433	1.616	650195	WORD	n/a	wordpools/wordpool_categorized_EN.txt	THUNDERSTORM	Weather	12	1	[0, 0, 0]	n/a	catFR1	3	R1486J
239.049	0.001	651811	WORD_OFF	n/a	n/a	THUNDERSTORM	Weather	12	1	[0, 0, 0]	n/a	catFR1	3	R1486J
239.05	0.0	651812	START	n/a	n/a	n/a	n/a	-999	1	[-999, -999, -999]	n/a	catFR1	3	R1486J
239.05	0.0	651812	PROB	0.0	n/a	n/a	n/a	-999	1	[3, 8, 1]	12	catFR1	3	R1486J
239.05	0.0	651818	ENCODING_END	n/a	n/a	n/a	n/a	-999	1	[0, 0, 0]	n/a	catFR1	3	R1486J
239.05	4.55	651818	DISTRACT_START	n/a	n/a	n/a	n/a	-999	1	[0, 0, 0]	n/a	catFR1	3	R1486J
243.6	3.633	656362	PROB	3.633	n/a	n/a	n/a	-999	1	[3, 4, 7]	14	catFR1	3	R1486J
247.233	3.516	659995	PROB	3.516	n/a	n/a	n/a	-999	1	[7, 2, 8]	17	catFR1	3	R1486J
250.749	7.001	663511	PROB	7.001	n/a	n/a	n/a	-999	1	[8, 8, 8]	24	catFR1	3	R1486J
257.75	3.432	670511	PROB	3.432	n/a	n/a	n/a	-999	1	[6, 8, 4]	18	catFR1	3	R1486J
261.182	0.0	673943	DISTRACT_END	n/a	n/a	n/a	n/a	-999	1	[0, 0, 0]	n/a	catFR1	3	R1486J
261.182	1.117	673943	STOP	n/a	n/a	n/a	n/a	-999	1	[-999, -999, -999]	n/a	catFR1	3	R1486J
262.299	0.169	675063	REC_START	n/a	n/a	n/a	n/a	-999	1	[0, 0, 0]	n/a	catFR1	3	R1486J
262.468	1.154	675229	REC_WORD_VV	1.154	n/a	<>	n/a	-999	1	[0, 0, 0]	n/a	catFR1	3	R1486J
263.622	0.302	676383	REC_WORD_VV	0.302	n/a	<>	n/a	-999	1	[0, 0, 0]	n/a	catFR1	3	R1486J
263.924	1.414	676685	REC_WORD	1.414	n/a	DRESS	Clothing	9	1	[0, 0, 0]	n/a	catFR1	3	R1486J
265.338	1.871	678099	REC_WORD	1.871	n/a	PANTS	Clothing	3	1	[0, 0, 0]	n/a	catFR1	3	R1486J
267.209	1.703	679970	REC_WORD	1.703	n/a	SHOES	Clothing	4	1	[0, 0, 0]	n/a	catFR1	3	R1486J
268.912	1.66	681673	REC_WORD	1.66	n/a	MOSQUITO	Insects	1	1	[0, 0, 0]	n/a	catFR1	3	R1486J
270.572	2.962	683333	REC_WORD	2.962	n/a	BEETLE	Insects	2	1	[0, 0, 0]	n/a	catFR1	3	R1486J
273.534	1.775	686295	REC_WORD_VV	1.775	n/a	<>	n/a	-999	1	[0, 0, 0]	n/a	catFR1	3	R1486J
275.309	1.611	688070	REC_WORD	1.611	n/a	THUNDERSTORM	Weather	12	1	[0, 0, 0]	n/a	catFR1	3	R1486J
276.92	4.222	689681	REC_WORD	4.222	n/a	DRIZZLE	Weather	5	1	[0, 0, 0]	n/a	catFR1	3	R1486J
281.142	10.464	693902	REC_WORD_VV	10.464	n/a	<>	n/a	-999	1	[0, 0, 0]	n/a	catFR1	3	R1486J
291.606	1.89	704366	REC_WORD_VV	1.89	n/a	<>	n/a	-999	1	[0, 0, 0]	n/a	catFR1	3	R1486J
293.496	2.753	706258	REC_END	n/a	n/a	n/a	n/a	-999	1	[0, 0, 0]	n/a	catFR1	3	R1486J
296.249	10.351	709009	COUNTDOWN_START	n/a	n/a	n/a	n/a	-999	1	[0, 0, 0]	n/a	catFR1	3	R1486J
306.6	0.0	719357	COUNTDOWN_END	n/a	n/a	n/a	n/a	-999	1	[0, 0, 0]	n/a	catFR1	3	R1486J
306.6	2.316	719365	ENCODING_START	n/a	n/a	n/a	n/a	-999	2	[0, 0, 0]	n/a	catFR1	3	R1486J
308.916	1.6	721679	WORD	n/a	wordpools/wordpool_categorized_EN.txt	OYSTER	OceanAnimals	1	2	[0, 0, 0]	n/a	catFR1	3	R1486J
310.516	0.767	723280	WORD_OFF	n/a	n/a	OYSTER	OceanAnimals	1	2	[0, 0, 0]	n/a	catFR1	3	R1486J
311.283	1.616	724046	WORD	n/a	wordpools/wordpool_categorized_EN.txt	SHRIMP	OceanAnimals	2	2	[0, 0, 0]	n/a	catFR1	3	R1486J
312.899	0.801	725662	WORD_OFF	n/a	n/a	SHRIMP	OceanAnimals	2	2	[0, 0, 0]	n/a	catFR1	3	R1486J
313.7	1.616	726459	WORD	n/a	wordpools/wordpool_categorized_EN.txt	CORN	Vegetables	3	2	[0, 0, 0]	n/a	catFR1	3	R1486J
315.316	0.983	728075	WORD_OFF	n/a	n/a	CORN	Vegetables	3	2	[0, 0, 0]	n/a	catFR1	3	R1486J
316.299	1.6	729059	WORD	n/a	wordpools/wordpool_categorized_EN.txt	SPINACH	Vegetables	4	2	[0, 0, 0]	n/a	catFR1	3	R1486J
317.899	0.817	730660	WORD_OFF	n/a	n/a	SPINACH	Vegetables	4	2	[0, 0, 0]	n/a	catFR1	3	R1486J
318.716	1.617	731479	WORD	n/a	wordpools/wordpool_categorized_EN.txt	MARKER	OfficeSupplies	5	2	[0, 0, 0]	n/a	catFR1	3	R1486J
320.333	0.967	733095	WORD_OFF	n/a	n/a	MARKER	OfficeSupplies	5	2	[0, 0, 0]	n/a	catFR1	3	R1486J
321.3	1.617	734064	WORD	n/a	wordpools/wordpool_categorized_EN.txt	NOTEBOOK	OfficeSupplies	6	2	[0, 0, 0]	n/a	catFR1	3	R1486J
322.917	0.849	735680	WORD_OFF	n/a	n/a	NOTEBOOK	OfficeSupplies	6	2	[0, 0, 0]	n/a	catFR1	3	R1486J
323.766	1.6	736529	WORD	n/a	wordpools/wordpool_categorized_EN.txt	PEAS	Vegetables	7	2	[0, 0, 0]	n/a	catFR1	3	R1486J
325.366	0.883	738130	WORD_OFF	n/a	n/a	PEAS	Vegetables	7	2	[0, 0, 0]	n/a	catFR1	3	R1486J
326.249	1.601	739009	WORD	n/a	wordpools/wordpool_categorized_EN.txt	CUCUMBER	Vegetables	8	2	[0, 0, 0]	n/a	catFR1	3	R1486J
327.85	0.999	740610	WORD_OFF	n/a	n/a	CUCUMBER	Vegetables	8	2	[0, 0, 0]	n/a	catFR1	3	R1486J
328.849	1.617	741609	WORD	n/a	wordpools/wordpool_categorized_EN.txt	LOBSTER	OceanAnimals	9	2	[0, 0, 0]	n/a	catFR1	3	R1486J
330.466	0.883	743225	WORD_OFF	n/a	n/a	LOBSTER	OceanAnimals	9	2	[0, 0, 0]	n/a	catFR1	3	R1486J
331.349	1.6	744104	WORD	n/a	wordpools/wordpool_categorized_EN.txt	JELLYFISH	OceanAnimals	10	2	[0, 0, 0]	n/a	catFR1	3	R1486J
332.949	0.984	745705	WORD_OFF	n/a	n/a	JELLYFISH	OceanAnimals	10	2	[0, 0, 0]	n/a	catFR1	3	R1486J
333.933	1.6	746690	WORD	n/a	wordpools/wordpool_categorized_EN.txt	STAPLER	OfficeSupplies	11	2	[0, 0, 0]	n/a	catFR1	3	R1486J
335.533	0.799	748290	WORD_OFF	n/a	n/a	STAPLER	OfficeSupplies	11	2	[0, 0, 0]	n/a	catFR1	3	R1486J
336.332	1.602	749094	WORD	n/a	wordpools/wordpool_categorized_EN.txt	TAPE	OfficeSupplies	12	2	[0, 0, 0]	n/a	catFR1	3	R1486J
337.934	0.0	750692	START	n/a	n/a	n/a	n/a	-999	2	[-999, -999, -999]	n/a	catFR1	3	R1486J
337.934	0.0	750692	PROB	0.0	n/a	n/a	n/a	-999	2	[7, 7, 5]	19	catFR1	3	R1486J
337.933	0.001	750695	WORD_OFF	n/a	n/a	TAPE	OfficeSupplies	12	2	[0, 0, 0]	n/a	catFR1	3	R1486J
337.934	0.0	750695	ENCODING_END	n/a	n/a	n/a	n/a	-999	2	[0, 0, 0]	n/a	catFR1	3	R1486J
337.934	5.415	750695	DISTRACT_START	n/a	n/a	n/a	n/a	-999	2	[0, 0, 0]	n/a	catFR1	3	R1486J
343.349	2.867	756107	PROB	2.867	n/a	n/a	n/a	-999	2	[1, 1, 7]	9	catFR1	3	R1486J
346.216	3.116	758974	PROB	3.116	n/a	n/a	n/a	-999	2	[4, 6, 8]	18	catFR1	3	R1486J
349.332	2.668	762090	PROB	2.668	n/a	n/a	n/a	-999	2	[6, 4, 2]	12	catFR1	3	R1486J
352.0	5.217	764758	PROB	5.217	n/a	n/a	n/a	-999	2	[5, 8, 1]	14	catFR1	3	R1486J
357.217	4.083	769974	PROB	4.083	n/a	n/a	n/a	-999	2	[4, 1, 7]	12	catFR1	3	R1486J
361.3	0.0	774057	STOP	n/a	n/a	n/a	n/a	-999	2	[-999, -999, -999]	n/a	catFR1	3	R1486J
361.3	1.115	774060	DISTRACT_END	n/a	n/a	n/a	n/a	-999	2	[0, 0, 0]	n/a	catFR1	3	R1486J
362.415	0.823	775172	REC_START	n/a	n/a	n/a	n/a	-999	2	[0, 0, 0]	n/a	catFR1	3	R1486J
363.238	1.244	775995	REC_WORD	1.244	n/a	MARKER	OfficeSupplies	5	2	[0, 0, 0]	n/a	catFR1	3	R1486J
364.482	1.685	777239	REC_WORD	1.685	n/a	NOTEBOOK	OfficeSupplies	6	2	[0, 0, 0]	n/a	catFR1	3	R1486J
366.167	2.08	778924	REC_WORD	2.08	n/a	STAPLER	OfficeSupplies	11	2	[0, 0, 0]	n/a	catFR1	3	R1486J
368.247	1.769	781004	REC_WORD	1.769	n/a	SHRIMP	OceanAnimals	2	2	[0, 0, 0]	n/a	catFR1	3	R1486J
370.016	2.044	782773	REC_WORD	2.044	n/a	OYSTER	OceanAnimals	1	2	[0, 0, 0]	n/a	catFR1	3	R1486J
372.06	7.77	784817	REC_WORD	7.77	n/a	JELLYFISH	OceanAnimals	10	2	[0, 0, 0]	n/a	catFR1	3	R1486J
379.83	0.545	792586	REC_WORD_VV	0.545	n/a	<>	n/a	-999	2	[0, 0, 0]	n/a	catFR1	3	R1486J
380.375	3.125	793131	REC_WORD_VV	3.125	n/a	<>	n/a	-999	2	[0, 0, 0]	n/a	catFR1	3	R1486J
383.5	5.143	796256	REC_WORD	5.143	n/a	MARKER	OfficeSupplies	5	2	[0, 0, 0]	n/a	catFR1	3	R1486J
388.643	4.981	801399	REC_WORD_VV	4.981	n/a	<>	n/a	-999	2	[0, 0, 0]	n/a	catFR1	3	R1486J
393.624	4.126	806382	REC_END	n/a	n/a	n/a	n/a	-999	2	[0, 0, 0]	n/a	catFR1	3	R1486J
397.75	10.349	810508	COUNTDOWN_START	n/a	n/a	n/a	n/a	-999	2	[0, 0, 0]	n/a	catFR1	3	R1486J
408.099	0.0	820857	COUNTDOWN_END	n/a	n/a	n/a	n/a	-999	2	[0, 0, 0]	n/a	catFR1	3	R1486J
408.099	1.834	820857	ENCODING_START	n/a	n/a	n/a	n/a	-999	3	[0, 0, 0]	n/a	catFR1	3	R1486J
409.933	1.616	822690	WORD	n/a	wordpools/wordpool_categorized_EN.txt	SOFA	Furniture	1	3	[0, 0, 0]	n/a	catFR1	3	R1486J
411.549	0.9	824306	WORD_OFF	n/a	n/a	SOFA	Furniture	1	3	[0, 0, 0]	n/a	catFR1	3	R1486J
412.449	1.6	825208	WORD	n/a	wordpools/wordpool_categorized_EN.txt	CHAIR	Furniture	2	3	[0, 0, 0]	n/a	catFR1	3	R1486J
414.049	0.901	826801	WORD_OFF	n/a	n/a	CHAIR	Furniture	2	3	[0, 0, 0]	n/a	catFR1	3	R1486J
414.95	1.617	827703	WORD	n/a	wordpools/wordpool_categorized_EN.txt	CRAB	OceanAnimals	3	3	[0, 0, 0]	n/a	catFR1	3	R1486J
416.567	0.849	829326	WORD_OFF	n/a	n/a	CRAB	OceanAnimals	3	3	[0, 0, 0]	n/a	catFR1	3	R1486J
417.416	1.6	830175	WORD	n/a	wordpools/wordpool_categorized_EN.txt	SQUID	OceanAnimals	4	3	[0, 0, 0]	n/a	catFR1	3	R1486J
419.016	0.8	831776	WORD_OFF	n/a	n/a	SQUID	OceanAnimals	4	3	[0, 0, 0]	n/a	catFR1	3	R1486J
419.816	1.617	832573	WORD	n/a	wordpools/wordpool_categorized_EN.txt	GOAT	FarmAnimals	5	3	[0, 0, 0]	n/a	catFR1	3	R1486J
421.433	0.817	834188	WORD_OFF	n/a	n/a	GOAT	FarmAnimals	5	3	[0, 0, 0]	n/a	catFR1	3	R1486J
422.25	1.617	835008	WORD	n/a	wordpools/wordpool_categorized_EN.txt	BULL	FarmAnimals	6	3	[0, 0, 0]	n/a	catFR1	3	R1486J
423.867	0.816	836623	WORD_OFF	n/a	n/a	BULL	FarmAnimals	6	3	[0, 0, 0]	n/a	catFR1	3	R1486J
424.683	1.616	837435	WORD	n/a	wordpools/wordpool_categorized_EN.txt	PLANKTON	OceanAnimals	7	3	[0, 0, 0]	n/a	catFR1	3	R1486J
426.299	0.834	839058	WORD_OFF	n/a	n/a	PLANKTON	OceanAnimals	7	3	[0, 0, 0]	n/a	catFR1	3	R1486J
427.133	1.616	839892	WORD	n/a	wordpools/wordpool_categorized_EN.txt	FISH	OceanAnimals	8	3	[0, 0, 0]	n/a	catFR1	3	R1486J
428.749	1.0	841508	WORD_OFF	n/a	n/a	FISH	OceanAnimals	8	3	[0, 0, 0]	n/a	catFR1	3	R1486J
429.749	1.6	842508	WORD	n/a	wordpools/wordpool_categorized_EN.txt	CHICKEN	FarmAnimals	9	3	[0, 0, 0]	n/a	catFR1	3	R1486J
431.349	0.967	844108	WORD_OFF	n/a	n/a	CHICKEN	FarmAnimals	9	3	[0, 0, 0]	n/a	catFR1	3	R1486J
432.316	1.616	845070	WORD	n/a	wordpools/wordpool_categorized_EN.txt	CALF	FarmAnimals	10	3	[0, 0, 0]	n/a	catFR1	3	R1486J
433.932	0.901	846686	WORD_OFF	n/a	n/a	CALF	FarmAnimals	10	3	[0, 0, 0]	n/a	catFR1	3	R1486J
434.833	1.616	847588	WORD	n/a	wordpools/wordpool_categorized_EN.txt	NIGHTSTAND	Furniture	11	3	[0, 0, 0]	n/a	catFR1	3	R1486J
436.449	0.8	849204	WORD_OFF	n/a	n/a	NIGHTSTAND	Furniture	11	3	[0, 0, 0]	n/a	catFR1	3	R1486J
437.249	1.617	850008	WORD	n/a	wordpools/wordpool_categorized_EN.txt	SHELF	Furniture	12	3	[0, 0, 0]	n/a	catFR1	3	R1486J
438.866	0.001	851620	PROB	0.001	n/a	n/a	n/a	-999	3	[7, 5, 1]	13	catFR1	3	R1486J
438.867	0.0	851621	START	n/a	n/a	n/a	n/a	-999	3	[-999, -999, -999]	n/a	catFR1	3	R1486J
438.866	0.001	851624	WORD_OFF	n/a	n/a	SHELF	Furniture	12	3	[0, 0, 0]	n/a	catFR1	3	R1486J
438.867	0.0	851624	ENCODING_END	n/a	n/a	n/a	n/a	-999	3	[0, 0, 0]	n/a	catFR1	3	R1486J
438.867	4.049	851624	DISTRACT_START	n/a	n/a	n/a	n/a	-999	3	[0, 0, 0]	n/a	catFR1	3	R1486J
442.916	5.017	855670	PROB	5.017	n/a	n/a	n/a	-999	3	[1, 7, 6]	14	catFR1	3	R1486J
447.933	3.916	860687	PROB	3.916	n/a	n/a	n/a	-999	3	[6, 7, 3]	16	catFR1	3	R1486J
451.849	4.451	864602	PROB	4.451	n/a	n/a	n/a	-999	3	[6, 8, 5]	19	catFR1	3	R1486J
456.3	2.416	869053	PROB	2.416	n/a	n/a	n/a	-999	3	[4, 7, 3]	14	catFR1	3	R1486J
458.716	2.383	871469	PROB	2.383	n/a	n/a	n/a	-999	3	[2, 3, 5]	10	catFR1	3	R1486J
461.099	0.0	873852	STOP	n/a	n/a	n/a	n/a	-999	3	[-999, -999, -999]	n/a	catFR1	3	R1486J
461.099	1.166	873853	DISTRACT_END	n/a	n/a	n/a	n/a	-999	3	[0, 0, 0]	n/a	catFR1	3	R1486J
462.265	0.551	875018	REC_START	n/a	n/a	n/a	n/a	-999	3	[0, 0, 0]	n/a	catFR1	3	R1486J
462.816	1.432	875569	REC_WORD	1.432	n/a	CRAB	OceanAnimals	3	3	[0, 0, 0]	n/a	catFR1	3	R1486J
464.248	2.789	877001	REC_WORD	2.789	n/a	FISH	OceanAnimals	8	3	[0, 0, 0]	n/a	catFR1	3	R1486J
467.037	11.283	879790	REC_WORD_VV	11.283	n/a	<>	n/a	-999	3	[0, 0, 0]	n/a	catFR1	3	R1486J
478.32	3.721	891072	REC_WORD	3.721	n/a	PLANKTON	OceanAnimals	7	3	[0, 0, 0]	n/a	catFR1	3	R1486J
482.041	1.038	894793	REC_WORD	1.038	n/a	CHAIR	Furniture	2	3	[0, 0, 0]	n/a	catFR1	3	R1486J
483.079	10.389	895831	REC_WORD	10.389	n/a	SOFA	Furniture	1	3	[0, 0, 0]	n/a	catFR1	3	R1486J
493.468	2.749	906221	REC_END	n/a	n/a	n/a	n/a	-999	3	[0, 0, 0]	n/a	catFR1	3	R1486J
496.217	10.35	908972	COUNTDOWN_START	n/a	n/a	n/a	n/a	-999	3	[0, 0, 0]	n/a	catFR1	3	R1486J
506.567	0.0	919320	COUNTDOWN_END	n/a	n/a	n/a	n/a	-999	3	[0, 0, 0]	n/a	catFR1	3	R1486J
506.567	2.215	919320	ENCODING_START	n/a	n/a	n/a	n/a	-999	4	[0, 0, 0]	n/a	catFR1	3	R1486J
508.782	1.602	921537	WORD	n/a	wordpools/wordpool_categorized_EN.txt	DOLL	Toys	1	4	[0, 0, 0]	n/a	catFR1	3	R1486J
510.384	0.9	923138	WORD_OFF	n/a	n/a	DOLL	Toys	1	4	[0, 0, 0]	n/a	catFR1	3	R1486J
511.284	1.617	924040	WORD	n/a	wordpools/wordpool_categorized_EN.txt	BARBIE	Toys	2	4	[0, 0, 0]	n/a	catFR1	3	R1486J
512.901	0.816	925655	WORD_OFF	n/a	n/a	BARBIE	Toys	2	4	[0, 0, 0]	n/a	catFR1	3	R1486J
513.717	1.6	926467	WORD	n/a	wordpools/wordpool_categorized_EN.txt	RATCHET	Tools	3	4	[0, 0, 0]	n/a	catFR1	3	R1486J
515.317	0.817	928068	WORD_OFF	n/a	n/a	RATCHET	Tools	3	4	[0, 0, 0]	n/a	catFR1	3	R1486J
516.134	1.617	928887	WORD	n/a	wordpools/wordpool_categorized_EN.txt	SANDER	Tools	4	4	[0, 0, 0]	n/a	catFR1	3	R1486J
517.751	0.883	930503	WORD_OFF	n/a	n/a	SANDER	Tools	4	4	[0, 0, 0]	n/a	catFR1	3	R1486J
518.634	1.6	931389	WORD	n/a	wordpools/wordpool_categorized_EN.txt	LINEN	Fabric	5	4	[0, 0, 0]	n/a	catFR1	3	R1486J
520.234	0.766	932990	WORD_OFF	n/a	n/a	LINEN	Fabric	5	4	[0, 0, 0]	n/a	catFR1	3	R1486J
521.0	1.601	933749	WORD	n/a	wordpools/wordpool_categorized_EN.txt	SUEDE	Fabric	6	4	[0, 0, 0]	n/a	catFR1	3	R1486J
522.601	0.833	935350	WORD_OFF	n/a	n/a	SUEDE	Fabric	6	4	[0, 0, 0]	n/a	catFR1	3	R1486J
523.434	1.6	936184	WORD	n/a	wordpools/wordpool_categorized_EN.txt	DOLLHOUSE	Toys	7	4	[0, 0, 0]	n/a	catFR1	3	R1486J
525.034	0.883	937785	WORD_OFF	n/a	n/a	DOLLHOUSE	Toys	7	4	[0, 0, 0]	n/a	catFR1	3	R1486J
525.917	1.616	938672	WORD	n/a	wordpools/wordpool_categorized_EN.txt	MARBLES	Toys	8	4	[0, 0, 0]	n/a	catFR1	3	R1486J
527.533	0.801	940287	WORD_OFF	n/a	n/a	MARBLES	Toys	8	4	[0, 0, 0]	n/a	catFR1	3	R1486J
528.334	1.616	941084	WORD	n/a	wordpools/wordpool_categorized_EN.txt	DRILL	Tools	9	4	[0, 0, 0]	n/a	catFR1	3	R1486J
529.95	0.951	942700	WORD_OFF	n/a	n/a	DRILL	Tools	9	4	[0, 0, 0]	n/a	catFR1	3	R1486J
530.901	1.6	943654	WORD	n/a	wordpools/wordpool_categorized_EN.txt	PLIERS	Tools	10	4	[0, 0, 0]	n/a	catFR1	3	R1486J
532.501	0.767	945255	WORD_OFF	n/a	n/a	PLIERS	Tools	10	4	[0, 0, 0]	n/a	catFR1	3	R1486J
533.268	1.616	946021	WORD	n/a	wordpools/wordpool_categorized_EN.txt	SILK	Fabric	11	4	[0, 0, 0]	n/a	catFR1	3	R1486J
534.884	0.867	947637	WORD_OFF	n/a	n/a	SILK	Fabric	11	4	[0, 0, 0]	n/a	catFR1	3	R1486J
535.751	1.6	948501	WORD	n/a	wordpools/wordpool_categorized_EN.txt	SATIN	Fabric	12	4	[0, 0, 0]	n/a	catFR1	3	R1486J
537.351	0.0	950101	PROB	0.0	n/a	n/a	n/a	-999	4	[1, 5, 7]	13	catFR1	3	R1486J
537.351	0.003	950102	WORD_OFF	n/a	n/a	SATIN	Fabric	12	4	[0, 0, 0]	n/a	catFR1	3	R1486J
537.354	0.0	950102	ENCODING_END	n/a	n/a	n/a	n/a	-999	4	[0, 0, 0]	n/a	catFR1	3	R1486J
537.354	0.0	950104	START	n/a	n/a	n/a	n/a	-999	4	[-999, -999, -999]	n/a	catFR1	3	R1486J
537.354	4.997	950110	DISTRACT_START	n/a	n/a	n/a	n/a	-999	4	[0, 0, 0]	n/a	catFR1	3	R1486J
542.351	3.834	955101	PROB	3.834	n/a	n/a	n/a	-999	4	[2, 3, 3]	8	catFR1	3	R1486J
546.185	3.083	958935	PROB	3.083	n/a	n/a	n/a	-999	4	[6, 6, 4]	16	catFR1	3	R1486J
549.268	3.883	962017	PROB	3.883	n/a	n/a	n/a	-999	4	[7, 6, 1]	14	catFR1	3	R1486J
553.151	3.084	965900	PROB	3.084	n/a	n/a	n/a	-999	4	[5, 1, 7]	13	catFR1	3	R1486J
556.235	2.865	968984	PROB	2.865	n/a	n/a	n/a	-999	4	[8, 7, 2]	17	catFR1	3	R1486J
559.1	0.0	971849	STOP	n/a	n/a	n/a	n/a	-999	4	[-999, -999, -999]	n/a	catFR1	3	R1486J
559.1	1.317	971851	DISTRACT_END	n/a	n/a	n/a	n/a	-999	4	[0, 0, 0]	n/a	catFR1	3	R1486J
560.417	0.447	973166	REC_START	n/a	n/a	n/a	n/a	-999	4	[0, 0, 0]	n/a	catFR1	3	R1486J
560.864	1.242	973613	REC_WORD	1.242	n/a	LINEN	Fabric	5	4	[0, 0, 0]	n/a	catFR1	3	R1486J
562.106	1.319	974855	REC_WORD	1.319	n/a	SUEDE	Fabric	6	4	[0, 0, 0]	n/a	catFR1	3	R1486J
563.425	4.028	976174	REC_WORD	4.028	n/a	SILK	Fabric	11	4	[0, 0, 0]	n/a	catFR1	3	R1486J
567.453	2.649	980202	REC_WORD	2.649	n/a	RATCHET	Tools	3	4	[0, 0, 0]	n/a	catFR1	3	R1486J
570.102	14.344	982851	REC_WORD	14.344	n/a	DRILL	Tools	9	4	[0, 0, 0]	n/a	catFR1	3	R1486J
584.446	1.203	997194	REC_WORD	1.203	n/a	DOLLHOUSE	Toys	7	4	[0, 0, 0]	n/a	catFR1	3	R1486J
585.649	0.95	998397	REC_WORD	0.95	n/a	DOLL	Toys	1	4	[0, 0, 0]	n/a	catFR1	3	R1486J
586.599	5.055	999347	REC_WORD	5.055	n/a	BARBIE	Toys	2	4	[0, 0, 0]	n/a	catFR1	3	R1486J
591.654	38.614	1004399	REC_END	n/a	n/a	n/a	n/a	-999	4	[0, 0, 0]	n/a	catFR1	3	R1486J
630.268	10.349	1043019	COUNTDOWN_START	n/a	n/a	n/a	n/a	-999	4	[0, 0, 0]	n/a	catFR1	3	R1486J
640.617	0.0	1053360	COUNTDOWN_END	n/a	n/a	n/a	n/a	-999	4	[0, 0, 0]	n/a	catFR1	3	R1486J
640.617	1.949	1053368	ENCODING_START	n/a	n/a	n/a	n/a	-999	5	[0, 0, 0]	n/a	catFR1	3	R1486J
642.566	1.601	1055314	WORD	n/a	wordpools/wordpool_categorized_EN.txt	CELERY	Vegetables	1	5	[0, 0, 0]	n/a	catFR1	3	R1486J
644.167	0.867	1056915	WORD_OFF	n/a	n/a	CELERY	Vegetables	1	5	[0, 0, 0]	n/a	catFR1	3	R1486J
645.034	1.6	1057779	WORD	n/a	wordpools/wordpool_categorized_EN.txt	POTATO	Vegetables	2	5	[0, 0, 0]	n/a	catFR1	3	R1486J
646.634	0.949	1059380	WORD_OFF	n/a	n/a	POTATO	Vegetables	2	5	[0, 0, 0]	n/a	catFR1	3	R1486J
647.583	1.601	1060327	WORD	n/a	wordpools/wordpool_categorized_EN.txt	FLY	Insects	3	5	[0, 0, 0]	n/a	catFR1	3	R1486J
649.184	0.999	1061927	WORD_OFF	n/a	n/a	FLY	Insects	3	5	[0, 0, 0]	n/a	catFR1	3	R1486J
650.183	1.6	1062927	WORD	n/a	wordpools/wordpool_categorized_EN.txt	CRICKET	Insects	4	5	[0, 0, 0]	n/a	catFR1	3	R1486J
651.783	0.816	1064528	WORD_OFF	n/a	n/a	CRICKET	Insects	4	5	[0, 0, 0]	n/a	catFR1	3	R1486J
652.599	1.601	1065347	WORD	n/a	wordpools/wordpool_categorized_EN.txt	CABINET	Furniture	5	5	[0, 0, 0]	n/a	catFR1	3	R1486J
654.2	0.767	1066948	WORD_OFF	n/a	n/a	CABINET	Furniture	5	5	[0, 0, 0]	n/a	catFR1	3	R1486J
654.967	1.616	1067714	WORD	n/a	wordpools/wordpool_categorized_EN.txt	TABLE	Furniture	6	5	[0, 0, 0]	n/a	catFR1	3	R1486J
656.583	0.801	1069330	WORD_OFF	n/a	n/a	TABLE	Furniture	6	5	[0, 0, 0]	n/a	catFR1	3	R1486J
657.384	1.616	1070127	WORD	n/a	wordpools/wordpool_categorized_EN.txt	LADYBUG	Insects	7	5	[0, 0, 0]	n/a	catFR1	3	R1486J
659.0	0.95	1071742	WORD_OFF	n/a	n/a	LADYBUG	Insects	7	5	[0, 0, 0]	n/a	catFR1	3	R1486J
659.95	1.601	1072697	WORD	n/a	wordpools/wordpool_categorized_EN.txt	GNAT	Insects	8	5	[0, 0, 0]	n/a	catFR1	3	R1486J
661.551	0.915	1074297	WORD_OFF	n/a	n/a	GNAT	Insects	8	5	[0, 0, 0]	n/a	catFR1	3	R1486J
662.466	1.601	1075214	WORD	n/a	wordpools/wordpool_categorized_EN.txt	CARROT	Vegetables	9	5	[0, 0, 0]	n/a	catFR1	3	R1486J
664.067	0.882	1076815	WORD_OFF	n/a	n/a	CARROT	Vegetables	9	5	[0, 0, 0]	n/a	catFR1	3	R1486J
664.949	1.6	1077694	WORD	n/a	wordpools/wordpool_categorized_EN.txt	CABBAGE	Vegetables	10	5	[0, 0, 0]	n/a	catFR1	3	R1486J
666.549	0.9	1079295	WORD_OFF	n/a	n/a	CABBAGE	Vegetables	10	5	[0, 0, 0]	n/a	catFR1	3	R1486J
667.449	1.602	1080197	WORD	n/a	wordpools/wordpool_categorized_EN.txt	COUCH	Furniture	11	5	[0, 0, 0]	n/a	catFR1	3	R1486J
669.051	0.982	1081798	WORD_OFF	n/a	n/a	COUCH	Furniture	11	5	[0, 0, 0]	n/a	catFR1	3	R1486J
670.033	1.618	1082782	WORD	n/a	wordpools/wordpool_categorized_EN.txt	DESK	Furniture	12	5	[0, 0, 0]	n/a	catFR1	3	R1486J
671.651	0.001	1084395	PROB	0.001	n/a	n/a	n/a	-999	5	[3, 4, 8]	15	catFR1	3	R1486J
671.652	0.0	1084396	START	n/a	n/a	n/a	n/a	-999	5	[-999, -999, -999]	n/a	catFR1	3	R1486J
671.651	0.001	1084398	WORD_OFF	n/a	n/a	DESK	Furniture	12	5	[0, 0, 0]	n/a	catFR1	3	R1486J
671.652	0.0	1084398	ENCODING_END	n/a	n/a	n/a	n/a	-999	5	[0, 0, 0]	n/a	catFR1	3	R1486J
671.652	4.548	1084398	DISTRACT_START	n/a	n/a	n/a	n/a	-999	5	[0, 0, 0]	n/a	catFR1	3	R1486J
676.2	2.968	1088944	PROB	2.968	n/a	n/a	n/a	-999	5	[1, 7, 8]	16	catFR1	3	R1486J
679.168	4.316	1091912	PROB	4.316	n/a	n/a	n/a	-999	5	[6, 2, 5]	13	catFR1	3	R1486J
683.484	2.334	1096228	PROB	2.334	n/a	n/a	n/a	-999	5	[3, 3, 3]	9	catFR1	3	R1486J
685.818	4.599	1098562	PROB	4.599	n/a	n/a	n/a	-999	5	[4, 8, 1]	13	catFR1	3	R1486J
690.417	2.199	1103161	PROB	2.199	n/a	n/a	n/a	-999	5	[3, 3, 3]	9	catFR1	3	R1486J
692.616	0.0	1105358	DISTRACT_END	n/a	n/a	n/a	n/a	-999	5	[0, 0, 0]	n/a	catFR1	3	R1486J
692.616	1.085	1105359	STOP	n/a	n/a	n/a	n/a	-999	5	[-999, -999, -999]	n/a	catFR1	3	R1486J
693.701	0.44	1106447	REC_START	n/a	n/a	n/a	n/a	-999	5	[0, 0, 0]	n/a	catFR1	3	R1486J
694.141	1.521	1106884	REC_WORD	1.521	n/a	FLY	Insects	3	5	[0, 0, 0]	n/a	catFR1	3	R1486J
695.662	1.838	1108405	REC_WORD	1.838	n/a	CRICKET	Insects	4	5	[0, 0, 0]	n/a	catFR1	3	R1486J
697.5	3.949	1110243	REC_WORD_VV	3.949	n/a	<>	n/a	-999	5	[0, 0, 0]	n/a	catFR1	3	R1486J
701.449	1.595	1114192	REC_WORD	1.595	n/a	CARROT	Vegetables	9	5	[0, 0, 0]	n/a	catFR1	3	R1486J
703.044	2.413	1115787	REC_WORD	2.413	n/a	POTATO	Vegetables	2	5	[0, 0, 0]	n/a	catFR1	3	R1486J
705.457	11.325	1118200	REC_WORD	11.325	n/a	POTATO	Vegetables	2	5	[0, 0, 0]	n/a	catFR1	3	R1486J
716.782	2.44	1129524	REC_WORD	2.44	n/a	COUCH	Furniture	11	5	[0, 0, 0]	n/a	catFR1	3	R1486J
719.222	0.753	1131964	REC_WORD	0.753	n/a	CABINET	Furniture	5	5	[0, 0, 0]	n/a	catFR1	3	R1486J
719.975	4.937	1132717	REC_WORD_VV	4.937	n/a	<>	n/a	-999	5	[0, 0, 0]	n/a	catFR1	3	R1486J
724.912	3.789	1137658	REC_END	n/a	n/a	n/a	n/a	-999	5	[0, 0, 0]	n/a	catFR1	3	R1486J
728.701	10.35	1141445	COUNTDOWN_START	n/a	n/a	n/a	n/a	-999	5	[0, 0, 0]	n/a	catFR1	3	R1486J
739.051	0.0	1151794	COUNTDOWN_END	n/a	n/a	n/a	n/a	-999	5	[0, 0, 0]	n/a	catFR1	3	R1486J
739.051	2.1	1151794	ENCODING_START	n/a	n/a	n/a	n/a	-999	6	[0, 0, 0]	n/a	catFR1	3	R1486J
741.151	1.6	1153890	WORD	n/a	wordpools/wordpool_categorized_EN.txt	ATTIC	Building	1	6	[0, 0, 0]	n/a	catFR1	3	R1486J
742.751	0.981	1155491	WORD_OFF	n/a	n/a	ATTIC	Building	1	6	[0, 0, 0]	n/a	catFR1	3	R1486J
743.732	1.602	1156476	WORD	n/a	wordpools/wordpool_categorized_EN.txt	FOUNDATION	Building	2	6	[0, 0, 0]	n/a	catFR1	3	R1486J
745.334	0.917	1158076	WORD_OFF	n/a	n/a	FOUNDATION	Building	2	6	[0, 0, 0]	n/a	catFR1	3	R1486J
746.251	1.616	1158993	WORD	n/a	wordpools/wordpool_categorized_EN.txt	THUNDER	Weather	3	6	[0, 0, 0]	n/a	catFR1	3	R1486J
747.867	0.999	1160609	WORD_OFF	n/a	n/a	THUNDER	Weather	3	6	[0, 0, 0]	n/a	catFR1	3	R1486J
748.866	1.618	1161608	WORD	n/a	wordpools/wordpool_categorized_EN.txt	WIND	Weather	4	6	[0, 0, 0]	n/a	catFR1	3	R1486J
750.484	0.95	1163224	WORD_OFF	n/a	n/a	WIND	Weather	4	6	[0, 0, 0]	n/a	catFR1	3	R1486J
751.434	1.616	1164179	WORD	n/a	wordpools/wordpool_categorized_EN.txt	JEEP	Vehicles	5	6	[0, 0, 0]	n/a	catFR1	3	R1486J
753.05	0.767	1165794	WORD_OFF	n/a	n/a	JEEP	Vehicles	5	6	[0, 0, 0]	n/a	catFR1	3	R1486J
753.817	1.616	1166561	WORD	n/a	wordpools/wordpool_categorized_EN.txt	CAR	Vehicles	6	6	[0, 0, 0]	n/a	catFR1	3	R1486J
755.433	0.967	1168177	WORD_OFF	n/a	n/a	CAR	Vehicles	6	6	[0, 0, 0]	n/a	catFR1	3	R1486J
756.4	1.616	1169139	WORD	n/a	wordpools/wordpool_categorized_EN.txt	HALLWAY	Building	7	6	[0, 0, 0]	n/a	catFR1	3	R1486J
758.016	0.868	1170762	WORD_OFF	n/a	n/a	HALLWAY	Building	7	6	[0, 0, 0]	n/a	catFR1	3	R1486J
758.884	1.6	1171626	WORD	n/a	wordpools/wordpool_categorized_EN.txt	DOOR	Building	8	6	[0, 0, 0]	n/a	catFR1	3	R1486J
760.484	0.816	1173227	WORD_OFF	n/a	n/a	DOOR	Building	8	6	[0, 0, 0]	n/a	catFR1	3	R1486J
761.3	1.6	1174038	WORD	n/a	wordpools/wordpool_categorized_EN.txt	SCOOTER	Vehicles	9	6	[0, 0, 0]	n/a	catFR1	3	R1486J
762.9	0.983	1175639	WORD_OFF	n/a	n/a	SCOOTER	Vehicles	9	6	[0, 0, 0]	n/a	catFR1	3	R1486J
763.883	1.6	1176624	WORD	n/a	wordpools/wordpool_categorized_EN.txt	TRAIN	Vehicles	10	6	[0, 0, 0]	n/a	catFR1	3	R1486J
765.483	0.933	1178224	WORD_OFF	n/a	n/a	TRAIN	Vehicles	10	6	[0, 0, 0]	n/a	catFR1	3	R1486J
766.416	1.6	1179156	WORD	n/a	wordpools/wordpool_categorized_EN.txt	FOG	Weather	11	6	[0, 0, 0]	n/a	catFR1	3	R1486J
768.016	0.834	1180757	WORD_OFF	n/a	n/a	FOG	Weather	11	6	[0, 0, 0]	n/a	catFR1	3	R1486J
768.85	1.599	1181591	WORD	n/a	wordpools/wordpool_categorized_EN.txt	RAIN	Weather	12	6	[0, 0, 0]	n/a	catFR1	3	R1486J
770.449	0.0	1183189	PROB	0.0	n/a	n/a	n/a	-999	6	[2, 2, 5]	9	catFR1	3	R1486J
770.449	0.003	1183192	WORD_OFF	n/a	n/a	RAIN	Weather	12	6	[0, 0, 0]	n/a	catFR1	3	R1486J
770.452	0.0	1183192	ENCODING_END	n/a	n/a	n/a	n/a	-999	6	[0, 0, 0]	n/a	catFR1	3	R1486J
770.452	0.0	1183192	DISTRACT_START	n/a	n/a	n/a	n/a	-999	6	[0, 0, 0]	n/a	catFR1	3	R1486J
770.452	3.264	1183192	START	n/a	n/a	n/a	n/a	-999	6	[-999, -999, -999]	n/a	catFR1	3	R1486J
773.716	2.75	1186456	PROB	2.75	n/a	n/a	n/a	-999	6	[4, 6, 4]	14	catFR1	3	R1486J
776.466	2.617	1189206	PROB	2.617	n/a	n/a	n/a	-999	6	[4, 2, 1]	7	catFR1	3	R1486J
779.083	4.183	1191823	PROB	4.183	n/a	n/a	n/a	-999	6	[2, 7, 5]	14	catFR1	3	R1486J
783.266	3.184	1196006	PROB	3.184	n/a	n/a	n/a	-999	6	[2, 4, 3]	9	catFR1	3	R1486J
786.45	3.25	1199190	PROB	3.25	n/a	n/a	n/a	-999	6	[6, 7, 4]	17	catFR1	3	R1486J
789.7	4.282	1202439	PROB	4.282	n/a	n/a	n/a	-999	6	[2, 7, 6]	15	catFR1	3	R1486J
793.982	0.0	1206721	STOP	n/a	n/a	n/a	n/a	-999	6	[-999, -999, -999]	n/a	catFR1	3	R1486J
793.982	1.35	1206722	DISTRACT_END	n/a	n/a	n/a	n/a	-999	6	[0, 0, 0]	n/a	catFR1	3	R1486J
795.332	0.786	1208075	REC_START	n/a	n/a	n/a	n/a	-999	6	[0, 0, 0]	n/a	catFR1	3	R1486J
796.118	3.43	1208857	REC_WORD	3.43	n/a	HALLWAY	Building	7	6	[0, 0, 0]	n/a	catFR1	3	R1486J
799.548	1.635	1212287	REC_WORD	1.635	n/a	ATTIC	Building	1	6	[0, 0, 0]	n/a	catFR1	3	R1486J
801.183	11.763	1213922	REC_WORD	11.763	n/a	FOUNDATION	Building	2	6	[0, 0, 0]	n/a	catFR1	3	R1486J
812.946	9.953	1225685	REC_WORD	9.953	n/a	WIND	Weather	4	6	[0, 0, 0]	n/a	catFR1	3	R1486J
822.899	3.661	1235637	REC_WORD_VV	3.661	n/a	<>	n/a	-999	6	[0, 0, 0]	n/a	catFR1	3	R1486J
826.56	78.555	1239300	REC_END	n/a	n/a	n/a	n/a	-999	6	[0, 0, 0]	n/a	catFR1	3	R1486J
905.115	10.351	1317856	COUNTDOWN_START	n/a	n/a	n/a	n/a	-999	6	[0, 0, 0]	n/a	catFR1	3	R1486J
915.466	0.0	1328204	COUNTDOWN_END	n/a	n/a	n/a	n/a	-999	6	[0, 0, 0]	n/a	catFR1	3	R1486J
915.466	2.384	1328204	ENCODING_START	n/a	n/a	n/a	n/a	-999	7	[0, 0, 0]	n/a	catFR1	3	R1486J
917.85	1.6	1330586	WORD	n/a	wordpools/wordpool_categorized_EN.txt	STREAM	Landscapes	1	7	[0, 0, 0]	n/a	catFR1	3	R1486J
919.45	0.766	1332187	WORD_OFF	n/a	n/a	STREAM	Landscapes	1	7	[0, 0, 0]	n/a	catFR1	3	R1486J
920.216	1.6	1332954	WORD	n/a	wordpools/wordpool_categorized_EN.txt	BEACH	Landscapes	2	7	[0, 0, 0]	n/a	catFR1	3	R1486J
921.816	0.966	1334554	WORD_OFF	n/a	n/a	BEACH	Landscapes	2	7	[0, 0, 0]	n/a	catFR1	3	R1486J
922.782	1.6	1335516	WORD	n/a	wordpools/wordpool_categorized_EN.txt	DENIM	Fabric	3	7	[0, 0, 0]	n/a	catFR1	3	R1486J
924.382	0.834	1337117	WORD_OFF	n/a	n/a	DENIM	Fabric	3	7	[0, 0, 0]	n/a	catFR1	3	R1486J
925.216	1.6	1337951	WORD	n/a	wordpools/wordpool_categorized_EN.txt	VELVET	Fabric	4	7	[0, 0, 0]	n/a	catFR1	3	R1486J
926.816	0.867	1339552	WORD_OFF	n/a	n/a	VELVET	Fabric	4	7	[0, 0, 0]	n/a	catFR1	3	R1486J
927.683	1.6	1340416	WORD	n/a	wordpools/wordpool_categorized_EN.txt	GUITAR	Instruments	5	7	[0, 0, 0]	n/a	catFR1	3	R1486J
929.283	0.816	1342017	WORD_OFF	n/a	n/a	GUITAR	Instruments	5	7	[0, 0, 0]	n/a	catFR1	3	R1486J
930.099	1.6	1342836	WORD	n/a	wordpools/wordpool_categorized_EN.txt	TROMBONE	Instruments	6	7	[0, 0, 0]	n/a	catFR1	3	R1486J
931.699	0.817	1344437	WORD_OFF	n/a	n/a	TROMBONE	Instruments	6	7	[0, 0, 0]	n/a	catFR1	3	R1486J
932.516	1.6	1345249	WORD	n/a	wordpools/wordpool_categorized_EN.txt	LAKE	Landscapes	7	7	[0, 0, 0]	n/a	catFR1	3	R1486J
934.116	0.983	1346849	WORD_OFF	n/a	n/a	LAKE	Landscapes	7	7	[0, 0, 0]	n/a	catFR1	3	R1486J
935.099	1.6	1347834	WORD	n/a	wordpools/wordpool_categorized_EN.txt	HILLS	Landscapes	8	7	[0, 0, 0]	n/a	catFR1	3	R1486J
936.699	0.833	1349434	WORD_OFF	n/a	n/a	HILLS	Landscapes	8	7	[0, 0, 0]	n/a	catFR1	3	R1486J
937.532	1.617	1350269	WORD	n/a	wordpools/wordpool_categorized_EN.txt	NYLON	Fabric	9	7	[0, 0, 0]	n/a	catFR1	3	R1486J
939.149	0.783	1351884	WORD_OFF	n/a	n/a	NYLON	Fabric	9	7	[0, 0, 0]	n/a	catFR1	3	R1486J
939.932	1.601	1352666	WORD	n/a	wordpools/wordpool_categorized_EN.txt	FLEECE	Fabric	10	7	[0, 0, 0]	n/a	catFR1	3	R1486J
941.533	0.916	1354267	WORD_OFF	n/a	n/a	FLEECE	Fabric	10	7	[0, 0, 0]	n/a	catFR1	3	R1486J
942.449	1.6	1355184	WORD	n/a	wordpools/wordpool_categorized_EN.txt	BANJO	Instruments	11	7	[0, 0, 0]	n/a	catFR1	3	R1486J
944.049	0.766	1356784	WORD_OFF	n/a	n/a	BANJO	Instruments	11	7	[0, 0, 0]	n/a	catFR1	3	R1486J
944.815	1.602	1357551	WORD	n/a	wordpools/wordpool_categorized_EN.txt	TUBA	Instruments	12	7	[0, 0, 0]	n/a	catFR1	3	R1486J
946.417	0.0	1359150	PROB	0.0	n/a	n/a	n/a	-999	7	[7, 5, 6]	18	catFR1	3	R1486J
946.416	0.006	1359152	WORD_OFF	n/a	n/a	TUBA	Instruments	12	7	[0, 0, 0]	n/a	catFR1	3	R1486J
946.422	0.0	1359155	START	n/a	n/a	n/a	n/a	-999	7	[-999, -999, -999]	n/a	catFR1	3	R1486J
946.422	0.0	1359159	ENCODING_END	n/a	n/a	n/a	n/a	-999	7	[0, 0, 0]	n/a	catFR1	3	R1486J
946.422	7.512	1359159	DISTRACT_START	n/a	n/a	n/a	n/a	-999	7	[0, 0, 0]	n/a	catFR1	3	R1486J
953.934	3.1	1366667	PROB	3.1	n/a	n/a	n/a	-999	7	[6, 4, 3]	13	catFR1	3	R1486J
957.034	4.783	1369767	PROB	4.783	n/a	n/a	n/a	-999	7	[3, 7, 7]	17	catFR1	3	R1486J
961.817	3.634	1374549	PROB	3.634	n/a	n/a	n/a	-999	7	[1, 3, 8]	12	catFR1	3	R1486J
965.451	3.065	1378183	PROB	3.065	n/a	n/a	n/a	-999	7	[1, 2, 8]	11	catFR1	3	R1486J
968.516	0.0	1381246	DISTRACT_END	n/a	n/a	n/a	n/a	-999	7	[0, 0, 0]	n/a	catFR1	3	R1486J
968.516	1.017	1381248	STOP	n/a	n/a	n/a	n/a	-999	7	[-999, -999, -999]	n/a	catFR1	3	R1486J
969.533	1.081	1382268	REC_START	n/a	n/a	n/a	n/a	-999	7	[0, 0, 0]	n/a	catFR1	3	R1486J
970.614	4.105	1383346	REC_WORD	4.105	n/a	BANJO	Instruments	11	7	[0, 0, 0]	n/a	catFR1	3	R1486J
974.719	10.41	1387451	REC_WORD_VV	10.41	n/a	<>	n/a	-999	7	[0, 0, 0]	n/a	catFR1	3	R1486J
985.129	7.57	1397860	REC_WORD	7.57	n/a	TROMBONE	Instruments	6	7	[0, 0, 0]	n/a	catFR1	3	R1486J
992.699	0.354	1405430	REC_WORD_VV	0.354	n/a	<>	n/a	-999	7	[0, 0, 0]	n/a	catFR1	3	R1486J
993.053	1.754	1405784	REC_WORD	1.754	n/a	STREAM	Landscapes	1	7	[0, 0, 0]	n/a	catFR1	3	R1486J
994.807	5.943	1407538	REC_WORD	5.943	n/a	LAKE	Landscapes	7	7	[0, 0, 0]	n/a	catFR1	3	R1486J
1000.75	27.801	1413479	REC_END	n/a	n/a	n/a	n/a	-999	7	[0, 0, 0]	n/a	catFR1	3	R1486J
1028.551	10.347	1441285	COUNTDOWN_START	n/a	n/a	n/a	n/a	-999	7	[0, 0, 0]	n/a	catFR1	3	R1486J
1038.898	0.0	1451625	COUNTDOWN_END	n/a	n/a	n/a	n/a	-999	7	[0, 0, 0]	n/a	catFR1	3	R1486J
1038.898	2.002	1451633	ENCODING_START	n/a	n/a	n/a	n/a	-999	8	[0, 0, 0]	n/a	catFR1	3	R1486J
1040.9	1.617	1453632	WORD	n/a	wordpools/wordpool_categorized_EN.txt	OAK	Trees	1	8	[0, 0, 0]	n/a	catFR1	3	R1486J
1042.517	1.0	1455248	WORD_OFF	n/a	n/a	OAK	Trees	1	8	[0, 0, 0]	n/a	catFR1	3	R1486J
1043.517	1.617	1456247	WORD	n/a	wordpools/wordpool_categorized_EN.txt	WALNUT	Trees	2	8	[0, 0, 0]	n/a	catFR1	3	R1486J
1045.134	0.816	1457863	WORD_OFF	n/a	n/a	WALNUT	Trees	2	8	[0, 0, 0]	n/a	catFR1	3	R1486J
1045.95	1.6	1458682	WORD	n/a	wordpools/wordpool_categorized_EN.txt	DRESSER	Furniture	3	8	[0, 0, 0]	n/a	catFR1	3	R1486J
1047.55	0.8	1460283	WORD_OFF	n/a	n/a	DRESSER	Furniture	3	8	[0, 0, 0]	n/a	catFR1	3	R1486J
1048.35	1.6	1461080	WORD	n/a	wordpools/wordpool_categorized_EN.txt	RECLINER	Furniture	4	8	[0, 0, 0]	n/a	catFR1	3	R1486J
1049.95	0.866	1462680	WORD_OFF	n/a	n/a	RECLINER	Furniture	4	8	[0, 0, 0]	n/a	catFR1	3	R1486J
1050.816	1.617	1463544	WORD	n/a	wordpools/wordpool_categorized_EN.txt	CREEK	Landscapes	5	8	[0, 0, 0]	n/a	catFR1	3	R1486J
1052.433	0.816	1465160	WORD_OFF	n/a	n/a	CREEK	Landscapes	5	8	[0, 0, 0]	n/a	catFR1	3	R1486J
1053.249	1.601	1465979	WORD	n/a	wordpools/wordpool_categorized_EN.txt	MOUNTAIN	Landscapes	6	8	[0, 0, 0]	n/a	catFR1	3	R1486J
1054.85	0.916	1467580	WORD_OFF	n/a	n/a	MOUNTAIN	Landscapes	6	8	[0, 0, 0]	n/a	catFR1	3	R1486J
1055.766	1.617	1468497	WORD	n/a	wordpools/wordpool_categorized_EN.txt	CYPRESS	Trees	7	8	[0, 0, 0]	n/a	catFR1	3	R1486J
1057.383	1.0	1470113	WORD_OFF	n/a	n/a	CYPRESS	Trees	7	8	[0, 0, 0]	n/a	catFR1	3	R1486J
1058.383	1.616	1471112	WORD	n/a	wordpools/wordpool_categorized_EN.txt	WILLOW	Trees	8	8	[0, 0, 0]	n/a	catFR1	3	R1486J
1059.999	0.984	1472728	WORD_OFF	n/a	n/a	WILLOW	Trees	8	8	[0, 0, 0]	n/a	catFR1	3	R1486J
1060.983	1.615	1473712	WORD	n/a	wordpools/wordpool_categorized_EN.txt	WOODS	Landscapes	9	8	[0, 0, 0]	n/a	catFR1	3	R1486J
1062.598	0.884	1475328	WORD_OFF	n/a	n/a	WOODS	Landscapes	9	8	[0, 0, 0]	n/a	catFR1	3	R1486J
1063.482	1.602	1476215	WORD	n/a	wordpools/wordpool_categorized_EN.txt	RIVER	Landscapes	10	8	[0, 0, 0]	n/a	catFR1	3	R1486J
1065.084	0.849	1477816	WORD_OFF	n/a	n/a	RIVER	Landscapes	10	8	[0, 0, 0]	n/a	catFR1	3	R1486J
1065.933	1.6	1478665	WORD	n/a	wordpools/wordpool_categorized_EN.txt	BED	Furniture	11	8	[0, 0, 0]	n/a	catFR1	3	R1486J
1067.533	0.883	1480258	WORD_OFF	n/a	n/a	BED	Furniture	11	8	[0, 0, 0]	n/a	catFR1	3	R1486J
1068.416	1.618	1481145	WORD	n/a	wordpools/wordpool_categorized_EN.txt	BOOKCASE	Furniture	12	8	[0, 0, 0]	n/a	catFR1	3	R1486J
1070.034	0.0	1482761	WORD_OFF	n/a	n/a	BOOKCASE	Furniture	12	8	[0, 0, 0]	n/a	catFR1	3	R1486J
1070.034	0.005	1482762	PROB	0.005	n/a	n/a	n/a	-999	8	[4, 5, 6]	15	catFR1	3	R1486J
1070.039	0.0	1482767	START	n/a	n/a	n/a	n/a	-999	8	[-999, -999, -999]	n/a	catFR1	3	R1486J
1070.039	0.0	1482768	ENCODING_END	n/a	n/a	n/a	n/a	-999	8	[0, 0, 0]	n/a	catFR1	3	R1486J
1070.039	6.195	1482768	DISTRACT_START	n/a	n/a	n/a	n/a	-999	8	[0, 0, 0]	n/a	catFR1	3	R1486J
1076.234	7.132	1488962	PROB	7.132	n/a	n/a	n/a	-999	8	[2, 7, 4]	13	catFR1	3	R1486J
1083.366	2.818	1496093	PROB	2.818	n/a	n/a	n/a	-999	8	[4, 1, 5]	10	catFR1	3	R1486J
1086.184	5.9	1498911	PROB	5.9	n/a	n/a	n/a	-999	8	[8, 5, 6]	19	catFR1	3	R1486J
1092.084	0.0	1504810	DISTRACT_END	n/a	n/a	n/a	n/a	-999	8	[0, 0, 0]	n/a	catFR1	3	R1486J
1092.084	1.099	1504811	STOP	n/a	n/a	n/a	n/a	-999	8	[-999, -999, -999]	n/a	catFR1	3	R1486J
1093.183	0.668	1505907	REC_START	n/a	n/a	n/a	n/a	-999	8	[0, 0, 0]	n/a	catFR1	3	R1486J
1093.851	1.635	1506578	REC_WORD	1.635	n/a	CREEK	Landscapes	5	8	[0, 0, 0]	n/a	catFR1	3	R1486J
1095.486	1.325	1508213	REC_WORD	1.325	n/a	BED	Furniture	11	8	[0, 0, 0]	n/a	catFR1	3	R1486J
1096.811	2.427	1509538	REC_WORD	2.427	n/a	MOUNTAIN	Landscapes	6	8	[0, 0, 0]	n/a	catFR1	3	R1486J
1099.238	1.737	1511965	REC_WORD	1.737	n/a	WALNUT	Trees	2	8	[0, 0, 0]	n/a	catFR1	3	R1486J
1100.975	16.864	1513702	REC_WORD	16.864	n/a	OAK	Trees	1	8	[0, 0, 0]	n/a	catFR1	3	R1486J
1117.839	1.0	1530565	REC_WORD_VV	1.0	n/a	<>	n/a	-999	8	[0, 0, 0]	n/a	catFR1	3	R1486J
1118.839	5.557	1531565	REC_WORD_VV	5.557	n/a	<>	n/a	-999	8	[0, 0, 0]	n/a	catFR1	3	R1486J
1124.396	57.103	1537125	REC_END	n/a	n/a	n/a	n/a	-999	8	[0, 0, 0]	n/a	catFR1	3	R1486J
1181.499	10.351	1594225	COUNTDOWN_START	n/a	n/a	n/a	n/a	-999	8	[0, 0, 0]	n/a	catFR1	3	R1486J
1191.85	0.0	1604574	COUNTDOWN_END	n/a	n/a	n/a	n/a	-999	8	[0, 0, 0]	n/a	catFR1	3	R1486J
1191.85	2.25	1604574	ENCODING_START	n/a	n/a	n/a	n/a	-999	9	[0, 0, 0]	n/a	catFR1	3	R1486J
1194.1	1.616	1606821	WORD	n/a	wordpools/wordpool_categorized_EN.txt	SOCKS	Clothing	1	9	[0, 0, 0]	n/a	catFR1	3	R1486J
1195.716	0.767	1608437	WORD_OFF	n/a	n/a	SOCKS	Clothing	1	9	[0, 0, 0]	n/a	catFR1	3	R1486J
1196.483	1.616	1609203	WORD	n/a	wordpools/wordpool_categorized_EN.txt	BLOUSE	Clothing	2	9	[0, 0, 0]	n/a	catFR1	3	R1486J
1198.099	0.967	1610826	WORD_OFF	n/a	n/a	BLOUSE	Clothing	2	9	[0, 0, 0]	n/a	catFR1	3	R1486J
1199.066	1.617	1611788	WORD	n/a	wordpools/wordpool_categorized_EN.txt	ORCHID	Flowers	3	9	[0, 0, 0]	n/a	catFR1	3	R1486J
1200.683	0.916	1613404	WORD_OFF	n/a	n/a	ORCHID	Flowers	3	9	[0, 0, 0]	n/a	catFR1	3	R1486J
1201.599	1.617	1614321	WORD	n/a	wordpools/wordpool_categorized_EN.txt	PETUNIA	Flowers	4	9	[0, 0, 0]	n/a	catFR1	3	R1486J
1203.216	0.783	1615937	WORD_OFF	n/a	n/a	PETUNIA	Flowers	4	9	[0, 0, 0]	n/a	catFR1	3	R1486J
1203.999	1.617	1616726	WORD	n/a	wordpools/wordpool_categorized_EN.txt	HICKORY	Trees	5	9	[0, 0, 0]	n/a	catFR1	3	R1486J
1205.616	0.782	1618342	WORD_OFF	n/a	n/a	HICKORY	Trees	5	9	[0, 0, 0]	n/a	catFR1	3	R1486J
1206.398	1.601	1619123	WORD	n/a	wordpools/wordpool_categorized_EN.txt	SPRUCE	Trees	6	9	[0, 0, 0]	n/a	catFR1	3	R1486J
1207.999	0.884	1620724	WORD_OFF	n/a	n/a	SPRUCE	Trees	6	9	[0, 0, 0]	n/a	catFR1	3	R1486J
1208.883	1.617	1621603	WORD	n/a	wordpools/wordpool_categorized_EN.txt	CARNATION	Flowers	7	9	[0, 0, 0]	n/a	catFR1	3	R1486J
1210.5	0.933	1623226	WORD_OFF	n/a	n/a	CARNATION	Flowers	7	9	[0, 0, 0]	n/a	catFR1	3	R1486J
1211.433	1.6	1624158	WORD	n/a	wordpools/wordpool_categorized_EN.txt	DAFFODIL	Flowers	8	9	[0, 0, 0]	n/a	catFR1	3	R1486J
1213.033	0.916	1625751	WORD_OFF	n/a	n/a	DAFFODIL	Flowers	8	9	[0, 0, 0]	n/a	catFR1	3	R1486J
1213.949	1.6	1626668	WORD	n/a	wordpools/wordpool_categorized_EN.txt	PINE	Trees	9	9	[0, 0, 0]	n/a	catFR1	3	R1486J
1215.549	0.934	1628269	WORD_OFF	n/a	n/a	PINE	Trees	9	9	[0, 0, 0]	n/a	catFR1	3	R1486J
1216.483	1.615	1629208	WORD	n/a	wordpools/wordpool_categorized_EN.txt	MAPLE	Trees	10	9	[0, 0, 0]	n/a	catFR1	3	R1486J
1218.098	0.851	1630824	WORD_OFF	n/a	n/a	MAPLE	Trees	10	9	[0, 0, 0]	n/a	catFR1	3	R1486J
1218.949	1.617	1631673	WORD	n/a	wordpools/wordpool_categorized_EN.txt	UNDERWEAR	Clothing	11	9	[0, 0, 0]	n/a	catFR1	3	R1486J
1220.566	0.883	1633289	WORD_OFF	n/a	n/a	UNDERWEAR	Clothing	11	9	[0, 0, 0]	n/a	catFR1	3	R1486J
1221.449	1.601	1634168	WORD	n/a	wordpools/wordpool_categorized_EN.txt	COAT	Clothing	12	9	[0, 0, 0]	n/a	catFR1	3	R1486J
1223.05	0.0	1635769	WORD_OFF	n/a	n/a	COAT	Clothing	12	9	[0, 0, 0]	n/a	catFR1	3	R1486J
1223.05	0.003	1635772	PROB	0.003	n/a	n/a	n/a	-999	9	[8, 4, 5]	17	catFR1	3	R1486J
1223.053	0.0	1635775	START	n/a	n/a	n/a	n/a	-999	9	[-999, -999, -999]	n/a	catFR1	3	R1486J
1223.053	0.0	1635777	ENCODING_END	n/a	n/a	n/a	n/a	-999	9	[0, 0, 0]	n/a	catFR1	3	R1486J
1223.053	4.347	1635777	DISTRACT_START	n/a	n/a	n/a	n/a	-999	9	[0, 0, 0]	n/a	catFR1	3	R1486J
1227.4	4.317	1640121	PROB	4.317	n/a	n/a	n/a	-999	9	[3, 7, 3]	13	catFR1	3	R1486J
1231.717	4.432	1644438	PROB	4.432	n/a	n/a	n/a	-999	9	[8, 1, 4]	13	catFR1	3	R1486J
1236.149	4.784	1648870	PROB	4.784	n/a	n/a	n/a	-999	9	[3, 8, 5]	16	catFR1	3	R1486J
1240.933	3.7	1653654	PROB	3.7	n/a	n/a	n/a	-999	9	[8, 7, 6]	21	catFR1	3	R1486J
1244.633	0.0	1657353	DISTRACT_END	n/a	n/a	n/a	n/a	-999	9	[0, 0, 0]	n/a	catFR1	3	R1486J
1244.633	1.367	1657354	STOP	n/a	n/a	n/a	n/a	-999	9	[-999, -999, -999]	n/a	catFR1	3	R1486J
1246.0	1.116	1658720	REC_START	n/a	n/a	n/a	n/a	-999	9	[0, 0, 0]	n/a	catFR1	3	R1486J
1247.116	1.109	1659837	REC_WORD	1.109	n/a	PINE	Trees	9	9	[0, 0, 0]	n/a	catFR1	3	R1486J
1248.225	2.24	1660946	REC_WORD	2.24	n/a	OAK	Trees	-999	9	[0, 0, 0]	n/a	catFR1	3	R1486J
1250.465	1.292	1663185	REC_WORD	1.292	n/a	DAFFODIL	Flowers	8	9	[0, 0, 0]	n/a	catFR1	3	R1486J
1251.757	2.068	1664477	REC_WORD	2.068	n/a	CARNATION	Flowers	7	9	[0, 0, 0]	n/a	catFR1	3	R1486J
1253.825	5.313	1666545	REC_WORD	5.313	n/a	BLOUSE	Clothing	2	9	[0, 0, 0]	n/a	catFR1	3	R1486J
1259.138	2.377	1671858	REC_WORD_VV	2.377	n/a	<>	n/a	-999	9	[0, 0, 0]	n/a	catFR1	3	R1486J
1261.515	8.079	1674235	REC_WORD_VV	8.079	n/a	<>	n/a	-999	9	[0, 0, 0]	n/a	catFR1	3	R1486J
1269.594	4.452	1682314	REC_WORD	4.452	n/a	PETUNIA	Flowers	4	9	[0, 0, 0]	n/a	catFR1	3	R1486J
1274.046	1.458	1686765	REC_WORD	1.458	n/a	OAK	Trees	-999	9	[0, 0, 0]	n/a	catFR1	3	R1486J
1275.504	1.697	1688223	REC_WORD	1.697	n/a	WALNUT	Trees	-999	9	[0, 0, 0]	n/a	catFR1	3	R1486J
1277.201	4.167	1689923	REC_END	n/a	n/a	n/a	n/a	-999	9	[0, 0, 0]	n/a	catFR1	3	R1486J
1281.368	10.349	1694087	COUNTDOWN_START	n/a	n/a	n/a	n/a	-999	9	[0, 0, 0]	n/a	catFR1	3	R1486J
1291.717	0.0	1704435	COUNTDOWN_END	n/a	n/a	n/a	n/a	-999	9	[0, 0, 0]	n/a	catFR1	3	R1486J
1291.717	1.901	1704435	ENCODING_START	n/a	n/a	n/a	n/a	-999	10	[0, 0, 0]	n/a	catFR1	3	R1486J
1293.618	1.6	1706336	WORD	n/a	wordpools/wordpool_categorized_EN.txt	PLUM	Fruit	1	10	[0, 0, 0]	n/a	catFR1	3	R1486J
1295.218	0.833	1707937	WORD_OFF	n/a	n/a	PLUM	Fruit	1	10	[0, 0, 0]	n/a	catFR1	3	R1486J
1296.051	1.6	1708771	WORD	n/a	wordpools/wordpool_categorized_EN.txt	ORANGE	Fruit	2	10	[0, 0, 0]	n/a	catFR1	3	R1486J
1297.651	0.799	1710372	WORD_OFF	n/a	n/a	ORANGE	Fruit	2	10	[0, 0, 0]	n/a	catFR1	3	R1486J
1298.45	1.601	1711169	WORD	n/a	wordpools/wordpool_categorized_EN.txt	SAW	Tools	3	10	[0, 0, 0]	n/a	catFR1	3	R1486J
1300.051	0.966	1712769	WORD_OFF	n/a	n/a	SAW	Tools	3	10	[0, 0, 0]	n/a	catFR1	3	R1486J
1301.017	1.601	1713739	WORD	n/a	wordpools/wordpool_categorized_EN.txt	WRENCH	Tools	4	10	[0, 0, 0]	n/a	catFR1	3	R1486J
1302.618	0.783	1715340	WORD_OFF	n/a	n/a	WRENCH	Tools	4	10	[0, 0, 0]	n/a	catFR1	3	R1486J
1303.401	1.6	1716121	WORD	n/a	wordpools/wordpool_categorized_EN.txt	DOVE	Birds	5	10	[0, 0, 0]	n/a	catFR1	3	R1486J
1305.001	0.9	1717722	WORD_OFF	n/a	n/a	DOVE	Birds	5	10	[0, 0, 0]	n/a	catFR1	3	R1486J
1305.901	1.6	1718624	WORD	n/a	wordpools/wordpool_categorized_EN.txt	BLUEBIRD	Birds	6	10	[0, 0, 0]	n/a	catFR1	3	R1486J
1307.501	0.917	1720217	WORD_OFF	n/a	n/a	BLUEBIRD	Birds	6	10	[0, 0, 0]	n/a	catFR1	3	R1486J
1308.418	1.616	1721134	WORD	n/a	wordpools/wordpool_categorized_EN.txt	PEAR	Fruit	7	10	[0, 0, 0]	n/a	catFR1	3	R1486J
1310.034	0.784	1722757	WORD_OFF	n/a	n/a	PEAR	Fruit	7	10	[0, 0, 0]	n/a	catFR1	3	R1486J
1310.818	1.616	1723539	WORD	n/a	wordpools/wordpool_categorized_EN.txt	STRAWBERRY	Fruit	8	10	[0, 0, 0]	n/a	catFR1	3	R1486J
1312.434	0.951	1725154	WORD_OFF	n/a	n/a	STRAWBERRY	Fruit	8	10	[0, 0, 0]	n/a	catFR1	3	R1486J
1313.385	1.599	1726101	WORD	n/a	wordpools/wordpool_categorized_EN.txt	SEAGULL	Birds	9	10	[0, 0, 0]	n/a	catFR1	3	R1486J
1314.984	0.983	1727702	WORD_OFF	n/a	n/a	SEAGULL	Birds	9	10	[0, 0, 0]	n/a	catFR1	3	R1486J
1315.967	1.601	1728686	WORD	n/a	wordpools/wordpool_categorized_EN.txt	DUCK	Birds	10	10	[0, 0, 0]	n/a	catFR1	3	R1486J
1317.568	0.883	1730287	WORD_OFF	n/a	n/a	DUCK	Birds	10	10	[0, 0, 0]	n/a	catFR1	3	R1486J
1318.451	1.6	1731166	WORD	n/a	wordpools/wordpool_categorized_EN.txt	HAMMER	Tools	11	10	[0, 0, 0]	n/a	catFR1	3	R1486J
1320.051	0.866	1732767	WORD_OFF	n/a	n/a	HAMMER	Tools	11	10	[0, 0, 0]	n/a	catFR1	3	R1486J
1320.917	1.6	1733639	WORD	n/a	wordpools/wordpool_categorized_EN.txt	SCREWDRIVER	Tools	12	10	[0, 0, 0]	n/a	catFR1	3	R1486J
1322.517	0.001	1735232	WORD_OFF	n/a	n/a	SCREWDRIVER	Tools	12	10	[0, 0, 0]	n/a	catFR1	3	R1486J
1322.518	0.003	1735235	PROB	0.003	n/a	n/a	n/a	-999	10	[4, 8, 2]	14	catFR1	3	R1486J
1322.521	0.0	1735238	START	n/a	n/a	n/a	n/a	-999	10	[-999, -999, -999]	n/a	catFR1	3	R1486J
1322.521	0.0	1735240	ENCODING_END	n/a	n/a	n/a	n/a	-999	10	[0, 0, 0]	n/a	catFR1	3	R1486J
1322.521	3.646	1735240	DISTRACT_START	n/a	n/a	n/a	n/a	-999	10	[0, 0, 0]	n/a	catFR1	3	R1486J
1326.167	4.084	1738884	PROB	4.084	n/a	n/a	n/a	-999	10	[6, 5, 1]	12	catFR1	3	R1486J
1330.251	3.15	1742968	PROB	3.15	n/a	n/a	n/a	-999	10	[5, 7, 3]	15	catFR1	3	R1486J
1333.401	2.599	1746118	PROB	2.599	n/a	n/a	n/a	-999	10	[1, 5, 1]	7	catFR1	3	R1486J
1336.0	2.45	1748717	PROB	2.45	n/a	n/a	n/a	-999	10	[7, 3, 1]	11	catFR1	3	R1486J
1338.45	2.849	1751167	PROB	2.849	n/a	n/a	n/a	-999	10	[5, 4, 5]	14	catFR1	3	R1486J
1341.299	2.851	1754016	PROB	2.851	n/a	n/a	n/a	-999	10	[8, 8, 4]	20	catFR1	3	R1486J
1344.15	0.0	1756867	STOP	n/a	n/a	n/a	n/a	-999	10	[-999, -999, -999]	n/a	catFR1	3	R1486J
1344.15	1.251	1756868	DISTRACT_END	n/a	n/a	n/a	n/a	-999	10	[0, 0, 0]	n/a	catFR1	3	R1486J
1345.401	0.412	1758116	REC_START	n/a	n/a	n/a	n/a	-999	10	[0, 0, 0]	n/a	catFR1	3	R1486J
1345.813	1.589	1758529	REC_WORD	1.589	n/a	SAW	Tools	3	10	[0, 0, 0]	n/a	catFR1	3	R1486J
1347.402	2.783	1760118	REC_WORD	2.783	n/a	WRENCH	Tools	4	10	[0, 0, 0]	n/a	catFR1	3	R1486J
1350.185	1.365	1762901	REC_WORD	1.365	n/a	ORANGE	Fruit	2	10	[0, 0, 0]	n/a	catFR1	3	R1486J
1351.55	1.545	1764266	REC_WORD	1.545	n/a	PLUM	Fruit	1	10	[0, 0, 0]	n/a	catFR1	3	R1486J
1353.095	2.513	1765811	REC_WORD	2.513	n/a	STRAWBERRY	Fruit	8	10	[0, 0, 0]	n/a	catFR1	3	R1486J
1355.608	3.877	1768324	REC_WORD	3.877	n/a	DUCK	Birds	10	10	[0, 0, 0]	n/a	catFR1	3	R1486J
1359.485	10.503	1772201	REC_WORD_VV	10.503	n/a	<>	n/a	-999	10	[0, 0, 0]	n/a	catFR1	3	R1486J
1369.988	0.676	1782703	REC_WORD_VV	0.676	n/a	<>	n/a	-999	10	[0, 0, 0]	n/a	catFR1	3	R1486J
1370.664	0.776	1783379	REC_WORD	0.776	n/a	GOOSE	n/a	-999	10	[0, 0, 0]	n/a	catFR1	3	R1486J
1371.44	5.191	1784155	REC_WORD_VV	5.191	n/a	<>	n/a	-999	10	[0, 0, 0]	n/a	catFR1	3	R1486J
1376.631	104.102	1789349	REC_END	n/a	n/a	n/a	n/a	-999	10	[0, 0, 0]	n/a	catFR1	3	R1486J
1480.733	10.35	1893449	COUNTDOWN_START	n/a	n/a	n/a	n/a	-999	10	[0, 0, 0]	n/a	catFR1	3	R1486J
1491.083	0.0	1903797	COUNTDOWN_END	n/a	n/a	n/a	n/a	-999	10	[0, 0, 0]	n/a	catFR1	3	R1486J
1491.083	2.0	1903797	ENCODING_START	n/a	n/a	n/a	n/a	-999	11	[0, 0, 0]	n/a	catFR1	3	R1486J
1493.083	1.617	1905796	WORD	n/a	wordpools/wordpool_categorized_EN.txt	PIG	FarmAnimals	1	11	[0, 0, 0]	n/a	catFR1	3	R1486J
1494.7	0.817	1907412	WORD_OFF	n/a	n/a	PIG	FarmAnimals	1	11	[0, 0, 0]	n/a	catFR1	3	R1486J
1495.517	1.615	1908231	WORD	n/a	wordpools/wordpool_categorized_EN.txt	SHEEP	FarmAnimals	2	11	[0, 0, 0]	n/a	catFR1	3	R1486J
1497.132	0.951	1909847	WORD_OFF	n/a	n/a	SHEEP	FarmAnimals	2	11	[0, 0, 0]	n/a	catFR1	3	R1486J
1498.083	1.6	1910793	WORD	n/a	wordpools/wordpool_categorized_EN.txt	SPANDEX	Fabric	3	11	[0, 0, 0]	n/a	catFR1	3	R1486J
1499.683	0.766	1912394	WORD_OFF	n/a	n/a	SPANDEX	Fabric	3	11	[0, 0, 0]	n/a	catFR1	3	R1486J
1500.449	1.601	1913161	WORD	n/a	wordpools/wordpool_categorized_EN.txt	LEATHER	Fabric	4	11	[0, 0, 0]	n/a	catFR1	3	R1486J
1502.05	0.767	1914761	WORD_OFF	n/a	n/a	LEATHER	Fabric	4	11	[0, 0, 0]	n/a	catFR1	3	R1486J
1502.817	1.616	1915528	WORD	n/a	wordpools/wordpool_categorized_EN.txt	FLOOR	Building	5	11	[0, 0, 0]	n/a	catFR1	3	R1486J
1504.433	0.9	1917144	WORD_OFF	n/a	n/a	FLOOR	Building	5	11	[0, 0, 0]	n/a	catFR1	3	R1486J
1505.333	1.617	1918046	WORD	n/a	wordpools/wordpool_categorized_EN.txt	ROOM	Building	6	11	[0, 0, 0]	n/a	catFR1	3	R1486J
1506.95	0.983	1919661	WORD_OFF	n/a	n/a	ROOM	Building	6	11	[0, 0, 0]	n/a	catFR1	3	R1486J
1507.933	1.616	1920646	WORD	n/a	wordpools/wordpool_categorized_EN.txt	HEN	FarmAnimals	7	11	[0, 0, 0]	n/a	catFR1	3	R1486J
1509.549	0.984	1922262	WORD_OFF	n/a	n/a	HEN	FarmAnimals	7	11	[0, 0, 0]	n/a	catFR1	3	R1486J
1510.533	1.616	1923246	WORD	n/a	wordpools/wordpool_categorized_EN.txt	HORSE	FarmAnimals	8	11	[0, 0, 0]	n/a	catFR1	3	R1486J
1512.149	0.817	1924862	WORD_OFF	n/a	n/a	HORSE	FarmAnimals	8	11	[0, 0, 0]	n/a	catFR1	3	R1486J
1512.966	1.617	1925673	WORD	n/a	wordpools/wordpool_categorized_EN.txt	WINDOW	Building	9	11	[0, 0, 0]	n/a	catFR1	3	R1486J
1514.583	0.966	1927297	WORD_OFF	n/a	n/a	WINDOW	Building	9	11	[0, 0, 0]	n/a	catFR1	3	R1486J
1515.549	1.6	1928259	WORD	n/a	wordpools/wordpool_categorized_EN.txt	CEILING	Building	10	11	[0, 0, 0]	n/a	catFR1	3	R1486J
1517.149	0.901	1929859	WORD_OFF	n/a	n/a	CEILING	Building	10	11	[0, 0, 0]	n/a	catFR1	3	R1486J
1518.05	1.616	1930761	WORD	n/a	wordpools/wordpool_categorized_EN.txt	WOOL	Fabric	11	11	[0, 0, 0]	n/a	catFR1	3	R1486J
1519.666	1.0	1932377	WORD_OFF	n/a	n/a	WOOL	Fabric	11	11	[0, 0, 0]	n/a	catFR1	3	R1486J
1520.666	1.617	1933376	WORD	n/a	wordpools/wordpool_categorized_EN.txt	COTTON	Fabric	12	11	[0, 0, 0]	n/a	catFR1	3	R1486J
1522.283	0.003	1934992	WORD_OFF	n/a	n/a	COTTON	Fabric	12	11	[0, 0, 0]	n/a	catFR1	3	R1486J
1522.286	0.0	1934992	ENCODING_END	n/a	n/a	n/a	n/a	-999	11	[0, 0, 0]	n/a	catFR1	3	R1486J
1522.283	0.003	1934992	PROB	0.003	n/a	n/a	n/a	-999	11	[8, 6, 3]	17	catFR1	3	R1486J
1522.286	0.0	1934995	START	n/a	n/a	n/a	n/a	-999	11	[-999, -999, -999]	n/a	catFR1	3	R1486J
1522.286	3.464	1935000	DISTRACT_START	n/a	n/a	n/a	n/a	-999	11	[0, 0, 0]	n/a	catFR1	3	R1486J
1525.75	3.467	1938459	PROB	3.467	n/a	n/a	n/a	-999	11	[4, 4, 4]	12	catFR1	3	R1486J
1529.217	2.065	1941926	PROB	2.065	n/a	n/a	n/a	-999	11	[2, 7, 3]	12	catFR1	3	R1486J
1531.282	1.953	1943991	PROB	1.953	n/a	n/a	n/a	-999	11	[1, 2, 8]	11	catFR1	3	R1486J
1533.235	3.382	1945944	PROB	3.382	n/a	n/a	n/a	-999	11	[3, 4, 5]	12	catFR1	3	R1486J
1536.617	3.417	1949326	PROB	3.417	n/a	n/a	n/a	-999	11	[1, 6, 2]	9	catFR1	3	R1486J
1540.034	3.081	1952742	PROB	3.081	n/a	n/a	n/a	-999	11	[7, 5, 3]	15	catFR1	3	R1486J
1543.115	0.0	1955823	STOP	n/a	n/a	n/a	n/a	-999	11	[-999, -999, -999]	n/a	catFR1	3	R1486J
1543.115	1.135	1955824	DISTRACT_END	n/a	n/a	n/a	n/a	-999	11	[0, 0, 0]	n/a	catFR1	3	R1486J
1544.25	0.724	1956959	REC_START	n/a	n/a	n/a	n/a	-999	11	[0, 0, 0]	n/a	catFR1	3	R1486J
1544.974	1.932	1957682	REC_WORD	1.932	n/a	WINDOW	Building	9	11	[0, 0, 0]	n/a	catFR1	3	R1486J
1546.906	2.613	1959614	REC_WORD	2.613	n/a	CEILING	Building	10	11	[0, 0, 0]	n/a	catFR1	3	R1486J
1549.519	2.5	1962227	REC_WORD	2.5	n/a	FLOOR	Building	5	11	[0, 0, 0]	n/a	catFR1	3	R1486J
1552.019	2.0	1964727	REC_WORD	2.0	n/a	PIG	FarmAnimals	1	11	[0, 0, 0]	n/a	catFR1	3	R1486J
1554.019	2.49	1966727	REC_WORD	2.49	n/a	SHEEP	FarmAnimals	2	11	[0, 0, 0]	n/a	catFR1	3	R1486J
1556.509	8.306	1969217	REC_WORD	8.306	n/a	HEN	FarmAnimals	7	11	[0, 0, 0]	n/a	catFR1	3	R1486J
1564.815	1.463	1977522	REC_WORD	1.463	n/a	GOAT	FarmAnimals	-999	11	[0, 0, 0]	n/a	catFR1	3	R1486J
1566.278	1.096	1978985	REC_WORD_VV	1.096	n/a	<>	n/a	-999	11	[0, 0, 0]	n/a	catFR1	3	R1486J
1567.374	1.221	1980081	REC_WORD	1.221	n/a	SHEEP	FarmAnimals	2	11	[0, 0, 0]	n/a	catFR1	3	R1486J
1568.595	6.875	1981302	REC_WORD_VV	6.875	n/a	<>	n/a	-999	11	[0, 0, 0]	n/a	catFR1	3	R1486J
1575.47	23.031	1988177	REC_END	n/a	n/a	n/a	n/a	-999	11	[0, 0, 0]	n/a	catFR1	3	R1486J
1598.501	10.35	2011211	COUNTDOWN_START	n/a	n/a	n/a	n/a	-999	11	[0, 0, 0]	n/a	catFR1	3	R1486J
1608.851	0.0	2021559	COUNTDOWN_END	n/a	n/a	n/a	n/a	-999	11	[0, 0, 0]	n/a	catFR1	3	R1486J
1608.851	2.333	2021559	ENCODING_START	n/a	n/a	n/a	n/a	-999	12	[0, 0, 0]	n/a	catFR1	3	R1486J
1611.184	1.617	2023889	WORD	n/a	wordpools/wordpool_categorized_EN.txt	SHOVEL	Tools	1	12	[0, 0, 0]	n/a	catFR1	3	R1486J
1612.801	0.817	2025512	WORD_OFF	n/a	n/a	SHOVEL	Tools	1	12	[0, 0, 0]	n/a	catFR1	3	R1486J
1613.618	1.616	2026324	WORD	n/a	wordpools/wordpool_categorized_EN.txt	AXE	Tools	2	12	[0, 0, 0]	n/a	catFR1	3	R1486J
1615.234	0.95	2027940	WORD_OFF	n/a	n/a	AXE	Tools	2	12	[0, 0, 0]	n/a	catFR1	3	R1486J
1616.184	1.617	2028894	WORD	n/a	wordpools/wordpool_categorized_EN.txt	BATHROOM	Building	3	12	[0, 0, 0]	n/a	catFR1	3	R1486J
1617.801	0.833	2030510	WORD_OFF	n/a	n/a	BATHROOM	Building	3	12	[0, 0, 0]	n/a	catFR1	3	R1486J
1618.634	1.6	2031336	WORD	n/a	wordpools/wordpool_categorized_EN.txt	WALL	Building	4	12	[0, 0, 0]	n/a	catFR1	3	R1486J
1620.234	0.798	2032937	WORD_OFF	n/a	n/a	WALL	Building	4	12	[0, 0, 0]	n/a	catFR1	3	R1486J
1621.032	1.602	2033741	WORD	n/a	wordpools/wordpool_categorized_EN.txt	ROOSTER	FarmAnimals	5	12	[0, 0, 0]	n/a	catFR1	3	R1486J
1622.634	0.916	2035342	WORD_OFF	n/a	n/a	ROOSTER	FarmAnimals	5	12	[0, 0, 0]	n/a	catFR1	3	R1486J
1623.55	1.616	2036259	WORD	n/a	wordpools/wordpool_categorized_EN.txt	COW	FarmAnimals	6	12	[0, 0, 0]	n/a	catFR1	3	R1486J
1625.166	0.818	2037875	WORD_OFF	n/a	n/a	COW	FarmAnimals	6	12	[0, 0, 0]	n/a	catFR1	3	R1486J
1625.984	1.6	2038694	WORD	n/a	wordpools/wordpool_categorized_EN.txt	CROWBAR	Tools	7	12	[0, 0, 0]	n/a	catFR1	3	R1486J
1627.584	0.883	2040287	WORD_OFF	n/a	n/a	CROWBAR	Tools	7	12	[0, 0, 0]	n/a	catFR1	3	R1486J
1628.467	1.6	2041174	WORD	n/a	wordpools/wordpool_categorized_EN.txt	LEVEL	Tools	8	12	[0, 0, 0]	n/a	catFR1	3	R1486J
1630.067	0.984	2042774	WORD_OFF	n/a	n/a	LEVEL	Tools	8	12	[0, 0, 0]	n/a	catFR1	3	R1486J
1631.051	1.615	2043759	WORD	n/a	wordpools/wordpool_categorized_EN.txt	STAIRS	Building	9	12	[0, 0, 0]	n/a	catFR1	3	R1486J
1632.666	0.851	2045375	WORD_OFF	n/a	n/a	STAIRS	Building	9	12	[0, 0, 0]	n/a	catFR1	3	R1486J
1633.517	1.615	2046224	WORD	n/a	wordpools/wordpool_categorized_EN.txt	ROOF	Building	10	12	[0, 0, 0]	n/a	catFR1	3	R1486J
1635.132	0.934	2047840	WORD_OFF	n/a	n/a	ROOF	Building	10	12	[0, 0, 0]	n/a	catFR1	3	R1486J
1636.066	1.617	2048772	WORD	n/a	wordpools/wordpool_categorized_EN.txt	TURKEY	FarmAnimals	11	12	[0, 0, 0]	n/a	catFR1	3	R1486J
1637.683	1.0	2050387	WORD_OFF	n/a	n/a	TURKEY	FarmAnimals	11	12	[0, 0, 0]	n/a	catFR1	3	R1486J
1638.683	1.617	2051387	WORD	n/a	wordpools/wordpool_categorized_EN.txt	LAMB	FarmAnimals	12	12	[0, 0, 0]	n/a	catFR1	3	R1486J
1640.3	0.001	2053003	WORD_OFF	n/a	n/a	LAMB	FarmAnimals	12	12	[0, 0, 0]	n/a	catFR1	3	R1486J
1640.301	0.0	2053005	START	n/a	n/a	n/a	n/a	-999	12	[-999, -999, -999]	n/a	catFR1	3	R1486J
1640.301	0.0	2053005	PROB	0.0	n/a	n/a	n/a	-999	12	[5, 2, 7]	14	catFR1	3	R1486J
1640.301	0.0	2053010	ENCODING_END	n/a	n/a	n/a	n/a	-999	12	[0, 0, 0]	n/a	catFR1	3	R1486J
1640.301	3.299	2053010	DISTRACT_START	n/a	n/a	n/a	n/a	-999	12	[0, 0, 0]	n/a	catFR1	3	R1486J
1643.6	2.35	2056304	PROB	2.35	n/a	n/a	n/a	-999	12	[2, 1, 8]	11	catFR1	3	R1486J
1645.95	2.884	2058654	PROB	2.884	n/a	n/a	n/a	-999	12	[5, 4, 8]	17	catFR1	3	R1486J
1648.834	3.083	2061538	PROB	3.083	n/a	n/a	n/a	-999	12	[2, 6, 1]	9	catFR1	3	R1486J
1651.917	2.633	2064621	PROB	2.633	n/a	n/a	n/a	-999	12	[7, 1, 4]	12	catFR1	3	R1486J
1654.55	2.383	2067254	PROB	2.383	n/a	n/a	n/a	-999	12	[2, 2, 2]	6	catFR1	3	R1486J
1656.933	2.95	2069637	PROB	2.95	n/a	n/a	n/a	-999	12	[2, 1, 4]	7	catFR1	3	R1486J
1659.883	2.3	2072587	PROB	2.3	n/a	n/a	n/a	-999	12	[4, 1, 2]	7	catFR1	3	R1486J
1662.183	0.0	2074886	STOP	n/a	n/a	n/a	n/a	-999	12	[-999, -999, -999]	n/a	catFR1	3	R1486J
1662.183	1.167	2074887	DISTRACT_END	n/a	n/a	n/a	n/a	-999	12	[0, 0, 0]	n/a	catFR1	3	R1486J
1663.35	0.926	2076052	REC_START	n/a	n/a	n/a	n/a	-999	12	[0, 0, 0]	n/a	catFR1	3	R1486J
1664.276	1.707	2076979	REC_WORD	1.707	n/a	BATHROOM	Building	3	12	[0, 0, 0]	n/a	catFR1	3	R1486J
1665.983	3.956	2078686	REC_WORD	3.956	n/a	WALL	Building	4	12	[0, 0, 0]	n/a	catFR1	3	R1486J
1669.939	6.708	2082642	REC_WORD	6.708	n/a	ROOSTER	FarmAnimals	5	12	[0, 0, 0]	n/a	catFR1	3	R1486J
1676.647	8.096	2089350	REC_WORD	8.096	n/a	HEN	FarmAnimals	-999	12	[0, 0, 0]	n/a	catFR1	3	R1486J
1684.743	6.598	2097445	REC_WORD	6.598	n/a	CEILING	Building	-999	12	[0, 0, 0]	n/a	catFR1	3	R1486J
1691.341	0.411	2104043	REC_WORD_VV	0.411	n/a	<>	n/a	-999	12	[0, 0, 0]	n/a	catFR1	3	R1486J
1691.752	2.816	2104454	REC_WORD	2.816	n/a	PIG	FarmAnimals	-999	12	[0, 0, 0]	n/a	catFR1	3	R1486J
1694.568	0.0	2107269	REC_END	n/a	n/a	n/a	n/a	-999	12	[0, 0, 0]	n/a	catFR1	3	R1486J
