onset	duration	sample	trial_type	response_time	stim_file	item_name	category	serialpos	list	test	answer	experiment	session	subject
0.0	13.616	375	SESS_START	n/a	n/a	n/a	n/a	-999	-999	[0, 0, 0]	n/a	catFR1	1	R1135E
13.616	10.428	13990	COUNTDOWN_START	n/a	n/a	n/a	n/a	-999	-999	[0, 0, 0]	n/a	catFR1	1	R1135E
24.044	3.708	24418	COUNTDOWN_END	n/a	n/a	n/a	n/a	-999	-999	[0, 0, 0]	n/a	catFR1	1	R1135E
27.752	2.584	28125	PRACTICE_WORD	n/a	n/a	WATCH	n/a	-999	-999	[0, 0, 0]	n/a	catFR1	1	R1135E
30.336	2.384	30709	PRACTICE_WORD	n/a	n/a	FLOOD	n/a	-999	-999	[0, 0, 0]	n/a	catFR1	1	R1135E
32.72	2.484	33093	PRACTICE_WORD	n/a	n/a	TONGUE	n/a	-999	-999	[0, 0, 0]	n/a	catFR1	1	R1135E
35.204	2.567	35577	PRACTICE_WORD	n/a	n/a	ATTIC	n/a	-999	-999	[0, 0, 0]	n/a	catFR1	1	R1135E
37.771	2.467	38144	PRACTICE_WORD	n/a	n/a	WAGON	n/a	-999	-999	[0, 0, 0]	n/a	catFR1	1	R1135E
40.238	2.45	40610	PRACTICE_WORD	n/a	n/a	CHEST	n/a	-999	-999	[0, 0, 0]	n/a	catFR1	1	R1135E
42.688	2.5	43060	PRACTICE_WORD	n/a	n/a	BEAM	n/a	-999	-999	[0, 0, 0]	n/a	catFR1	1	R1135E
45.188	2.618	45560	PRACTICE_WORD	n/a	n/a	RHINO	n/a	-999	-999	[0, 0, 0]	n/a	catFR1	1	R1135E
47.806	2.517	48178	PRACTICE_WORD	n/a	n/a	COTTON	n/a	-999	-999	[0, 0, 0]	n/a	catFR1	1	R1135E
50.323	2.534	50695	PRACTICE_WORD	n/a	n/a	IRON	n/a	-999	-999	[0, 0, 0]	n/a	catFR1	1	R1135E
52.857	2.533	53229	PRACTICE_WORD	n/a	n/a	RING	n/a	-999	-999	[0, 0, 0]	n/a	catFR1	1	R1135E
55.39	1.601	55761	PRACTICE_WORD	n/a	n/a	CAMEL	n/a	-999	-999	[0, 0, 0]	n/a	catFR1	1	R1135E
56.991	0.001	57362	PRACTICE_DISTRACT_START	n/a	n/a	n/a	n/a	-999	-999	[0, 0, 0]	n/a	catFR1	1	R1135E
56.992	0.015	57363	START	n/a	n/a	n/a	n/a	-999	-1	[-999, -999, -999]	n/a	catFR1	1	R1135E
57.007	10.852	57378	PROB	10.852	n/a	n/a	n/a	-999	-1	[9, 8, 1]	19	catFR1	1	R1135E
67.859	8.802	68230	PROB	8.802	n/a	n/a	n/a	-999	-1	[6, 4, 6]	16	catFR1	1	R1135E
76.661	9.653	77031	PROB	9.653	n/a	n/a	n/a	-999	-1	[1, 2, 4]	7	catFR1	1	R1135E
86.314	0.015	86683	STOP	n/a	n/a	n/a	n/a	-999	-1	[-999, -999, -999]	n/a	catFR1	1	R1135E
86.329	0.668	86698	PRACTICE_DISTRACT_END	n/a	n/a	n/a	n/a	-999	-999	[0, 0, 0]	n/a	catFR1	1	R1135E
86.997	30.516	87366	PRACTICE_REC_START	n/a	n/a	n/a	n/a	-999	-999	[0, 0, 0]	n/a	catFR1	1	R1135E
117.513	12.14	117880	PRACTICE_REC_END	n/a	n/a	n/a	n/a	-999	-999	[0, 0, 0]	n/a	catFR1	1	R1135E
129.653	0.0	130019	TRIAL	n/a	n/a	n/a	n/a	-999	1	[0, 0, 0]	n/a	catFR1	1	R1135E
129.653	10.428	130019	COUNTDOWN_START	n/a	n/a	n/a	n/a	-999	1	[0, 0, 0]	n/a	catFR1	1	R1135E
140.081	0.007	140447	COUNTDOWN_END	n/a	n/a	n/a	n/a	-999	1	[0, 0, 0]	n/a	catFR1	1	R1135E
140.088	3.668	140454	ORIENT	n/a	n/a	n/a	n/a	-999	1	[0, 0, 0]	n/a	catFR1	1	R1135E
143.756	2.466	144121	WORD	n/a	wordpools/wordpool_categorized_EN.txt	OVEN	Appliances	1	1	[0, 0, 0]	n/a	catFR1	1	R1135E
146.222	2.601	146587	WORD	n/a	wordpools/wordpool_categorized_EN.txt	WASHER	Appliances	2	1	[0, 0, 0]	n/a	catFR1	1	R1135E
148.823	2.467	149188	WORD	n/a	wordpools/wordpool_categorized_EN.txt	LADLE	KitchenTools	3	1	[0, 0, 0]	n/a	catFR1	1	R1135E
151.29	2.434	151655	WORD	n/a	wordpools/wordpool_categorized_EN.txt	COLANDER	KitchenTools	4	1	[0, 0, 0]	n/a	catFR1	1	R1135E
153.724	2.5	154089	WORD	n/a	wordpools/wordpool_categorized_EN.txt	HEADPHONES	Electronics	5	1	[0, 0, 0]	n/a	catFR1	1	R1135E
156.224	2.401	156589	WORD	n/a	wordpools/wordpool_categorized_EN.txt	PHONE	Electronics	6	1	[0, 0, 0]	n/a	catFR1	1	R1135E
158.625	2.384	158989	WORD	n/a	wordpools/wordpool_categorized_EN.txt	DISHWASHER	Appliances	7	1	[0, 0, 0]	n/a	catFR1	1	R1135E
161.009	2.4	161373	WORD	n/a	wordpools/wordpool_categorized_EN.txt	BLENDER	Appliances	8	1	[0, 0, 0]	n/a	catFR1	1	R1135E
163.409	2.384	163773	WORD	n/a	wordpools/wordpool_categorized_EN.txt	RADIO	Electronics	9	1	[0, 0, 0]	n/a	catFR1	1	R1135E
165.793	2.4	166157	WORD	n/a	wordpools/wordpool_categorized_EN.txt	TABLET	Electronics	10	1	[0, 0, 0]	n/a	catFR1	1	R1135E
168.193	2.534	168557	WORD	n/a	wordpools/wordpool_categorized_EN.txt	CORKSCREW	KitchenTools	11	1	[0, 0, 0]	n/a	catFR1	1	R1135E
170.727	1.617	171091	WORD	n/a	wordpools/wordpool_categorized_EN.txt	PEELER	KitchenTools	12	1	[0, 0, 0]	n/a	catFR1	1	R1135E
172.344	0.001	172707	DISTRACT_START	n/a	n/a	n/a	n/a	-999	1	[0, 0, 0]	n/a	catFR1	1	R1135E
172.345	0.016	172708	START	n/a	n/a	n/a	n/a	-999	1	[-999, -999, -999]	n/a	catFR1	1	R1135E
172.361	6.517	172724	PROB	6.517	n/a	n/a	n/a	-999	1	[4, 3, 1]	8	catFR1	1	R1135E
178.878	10.936	179241	PROB	10.936	n/a	n/a	n/a	-999	1	[7, 5, 2]	14	catFR1	1	R1135E
189.814	6.79	190176	PROB	6.79	n/a	n/a	n/a	-999	1	[7, 3, 2]	12	catFR1	1	R1135E
196.604	0.011	196966	STOP	n/a	n/a	n/a	n/a	-999	1	[-999, -999, -999]	n/a	catFR1	1	R1135E
196.615	1.206	196977	DISTRACT_END	n/a	n/a	n/a	n/a	-999	1	[0, 0, 0]	n/a	catFR1	1	R1135E
197.821	1.989	198183	REC_START	n/a	n/a	n/a	n/a	-999	1	[0, 0, 0]	n/a	catFR1	1	R1135E
199.81	1.204	200172	REC_WORD	1.204	n/a	DISHWASHER	Appliances	7	1	[0, 0, 0]	n/a	catFR1	1	R1135E
201.014	4.095	201376	REC_WORD	4.095	n/a	LADLE	KitchenTools	3	1	[0, 0, 0]	n/a	catFR1	1	R1135E
205.109	4.401	205470	REC_WORD	4.401	n/a	CORKSCREW	KitchenTools	11	1	[0, 0, 0]	n/a	catFR1	1	R1135E
209.51	18.315	209871	REC_WORD	18.315	n/a	OVEN	Appliances	1	1	[0, 0, 0]	n/a	catFR1	1	R1135E
227.825	2.396	228185	REC_END	n/a	n/a	n/a	n/a	-999	1	[0, 0, 0]	n/a	catFR1	1	R1135E
230.221	0.0	230581	COUNTDOWN_START	n/a	n/a	n/a	n/a	-999	2	[0, 0, 0]	n/a	catFR1	1	R1135E
230.221	10.428	230581	TRIAL	n/a	n/a	n/a	n/a	-999	2	[0, 0, 0]	n/a	catFR1	1	R1135E
240.649	0.007	241008	COUNTDOWN_END	n/a	n/a	n/a	n/a	-999	2	[0, 0, 0]	n/a	catFR1	1	R1135E
240.656	3.767	241015	ORIENT	n/a	n/a	n/a	n/a	-999	2	[0, 0, 0]	n/a	catFR1	1	R1135E
244.423	2.535	244782	WORD	n/a	wordpools/wordpool_categorized_EN.txt	DAFFODIL	Flowers	1	2	[0, 0, 0]	n/a	catFR1	1	R1135E
246.958	2.616	247316	WORD	n/a	wordpools/wordpool_categorized_EN.txt	VIOLET	Flowers	2	2	[0, 0, 0]	n/a	catFR1	1	R1135E
249.574	2.401	249932	WORD	n/a	wordpools/wordpool_categorized_EN.txt	COW	FarmAnimals	3	2	[0, 0, 0]	n/a	catFR1	1	R1135E
251.975	2.466	252333	WORD	n/a	wordpools/wordpool_categorized_EN.txt	LAMB	FarmAnimals	4	2	[0, 0, 0]	n/a	catFR1	1	R1135E
254.441	2.484	254799	WORD	n/a	wordpools/wordpool_categorized_EN.txt	MOTORCYCLE	Vehicles	5	2	[0, 0, 0]	n/a	catFR1	1	R1135E
256.925	2.501	257283	WORD	n/a	wordpools/wordpool_categorized_EN.txt	VAN	Vehicles	6	2	[0, 0, 0]	n/a	catFR1	1	R1135E
259.426	2.617	259784	WORD	n/a	wordpools/wordpool_categorized_EN.txt	BULL	FarmAnimals	7	2	[0, 0, 0]	n/a	catFR1	1	R1135E
262.043	2.484	262400	WORD	n/a	wordpools/wordpool_categorized_EN.txt	CALF	FarmAnimals	8	2	[0, 0, 0]	n/a	catFR1	1	R1135E
264.527	2.583	264884	WORD	n/a	wordpools/wordpool_categorized_EN.txt	DAISY	Flowers	9	2	[0, 0, 0]	n/a	catFR1	1	R1135E
267.11	2.534	267467	WORD	n/a	wordpools/wordpool_categorized_EN.txt	CARNATION	Flowers	10	2	[0, 0, 0]	n/a	catFR1	1	R1135E
269.644	2.484	270001	WORD	n/a	wordpools/wordpool_categorized_EN.txt	JEEP	Vehicles	11	2	[0, 0, 0]	n/a	catFR1	1	R1135E
272.128	1.617	272485	WORD	n/a	wordpools/wordpool_categorized_EN.txt	BOAT	Vehicles	12	2	[0, 0, 0]	n/a	catFR1	1	R1135E
273.745	0.001	274102	DISTRACT_START	n/a	n/a	n/a	n/a	-999	2	[0, 0, 0]	n/a	catFR1	1	R1135E
273.746	0.015	274103	START	n/a	n/a	n/a	n/a	-999	2	[-999, -999, -999]	n/a	catFR1	1	R1135E
273.761	7.518	274118	PROB	7.518	n/a	n/a	n/a	-999	2	[3, 6, 4]	13	catFR1	1	R1135E
281.279	3.918	281635	PROB	3.918	n/a	n/a	n/a	-999	2	[3, 3, 1]	7	catFR1	1	R1135E
285.197	7.218	285553	PROB	7.218	n/a	n/a	n/a	-999	2	[6, 4, 3]	13	catFR1	1	R1135E
292.415	7.876	292770	PROB	7.876	n/a	n/a	n/a	-999	2	[7, 4, 2]	13	catFR1	1	R1135E
300.291	0.008	300646	STOP	n/a	n/a	n/a	n/a	-999	2	[-999, -999, -999]	n/a	catFR1	1	R1135E
300.299	1.118	300654	DISTRACT_END	n/a	n/a	n/a	n/a	-999	2	[0, 0, 0]	n/a	catFR1	1	R1135E
301.417	6.174	301772	REC_START	n/a	n/a	n/a	n/a	-999	2	[0, 0, 0]	n/a	catFR1	1	R1135E
307.591	1.187	307945	REC_WORD	1.187	n/a	DAFFODIL	Flowers	1	2	[0, 0, 0]	n/a	catFR1	1	R1135E
308.778	2.335	309132	REC_WORD	2.335	n/a	DAISY	Flowers	9	2	[0, 0, 0]	n/a	catFR1	1	R1135E
311.113	6.415	311467	REC_WORD	6.415	n/a	VAN	Vehicles	6	2	[0, 0, 0]	n/a	catFR1	1	R1135E
317.528	13.897	317882	REC_WORD	13.897	n/a	DISHWASHER	n/a	-999	2	[0, 0, 0]	n/a	catFR1	1	R1135E
331.425	2.364	331778	REC_END	n/a	n/a	n/a	n/a	-999	2	[0, 0, 0]	n/a	catFR1	1	R1135E
333.789	0.0	334142	TRIAL	n/a	n/a	n/a	n/a	-999	3	[0, 0, 0]	n/a	catFR1	1	R1135E
333.789	10.428	334142	COUNTDOWN_START	n/a	n/a	n/a	n/a	-999	3	[0, 0, 0]	n/a	catFR1	1	R1135E
344.217	0.007	344569	COUNTDOWN_END	n/a	n/a	n/a	n/a	-999	3	[0, 0, 0]	n/a	catFR1	1	R1135E
344.224	3.717	344576	ORIENT	n/a	n/a	n/a	n/a	-999	3	[0, 0, 0]	n/a	catFR1	1	R1135E
347.941	2.601	348293	WORD	n/a	wordpools/wordpool_categorized_EN.txt	SHIRT	Clothing	1	3	[0, 0, 0]	n/a	catFR1	1	R1135E
350.542	2.4	350893	WORD	n/a	wordpools/wordpool_categorized_EN.txt	SHORTS	Clothing	2	3	[0, 0, 0]	n/a	catFR1	1	R1135E
352.942	2.617	353293	WORD	n/a	wordpools/wordpool_categorized_EN.txt	KNEE	BodyParts	3	3	[0, 0, 0]	n/a	catFR1	1	R1135E
355.559	2.517	355910	WORD	n/a	wordpools/wordpool_categorized_EN.txt	FINGERS	BodyParts	4	3	[0, 0, 0]	n/a	catFR1	1	R1135E
358.076	2.417	358427	WORD	n/a	wordpools/wordpool_categorized_EN.txt	SPARROW	Birds	5	3	[0, 0, 0]	n/a	catFR1	1	R1135E
360.493	2.502	360844	WORD	n/a	wordpools/wordpool_categorized_EN.txt	BLUEBIRD	Birds	6	3	[0, 0, 0]	n/a	catFR1	1	R1135E
362.995	2.616	363346	WORD	n/a	wordpools/wordpool_categorized_EN.txt	EAR	BodyParts	7	3	[0, 0, 0]	n/a	catFR1	1	R1135E
365.611	2.534	365961	WORD	n/a	wordpools/wordpool_categorized_EN.txt	ELBOW	BodyParts	8	3	[0, 0, 0]	n/a	catFR1	1	R1135E
368.145	2.433	368495	WORD	n/a	wordpools/wordpool_categorized_EN.txt	SOCKS	Clothing	9	3	[0, 0, 0]	n/a	catFR1	1	R1135E
370.578	2.517	370928	WORD	n/a	wordpools/wordpool_categorized_EN.txt	PANTS	Clothing	10	3	[0, 0, 0]	n/a	catFR1	1	R1135E
373.095	2.518	373445	WORD	n/a	wordpools/wordpool_categorized_EN.txt	HAWK	Birds	11	3	[0, 0, 0]	n/a	catFR1	1	R1135E
375.613	1.617	375963	WORD	n/a	wordpools/wordpool_categorized_EN.txt	DUCK	Birds	12	3	[0, 0, 0]	n/a	catFR1	1	R1135E
377.23	0.0	377580	DISTRACT_START	n/a	n/a	n/a	n/a	-999	3	[0, 0, 0]	n/a	catFR1	1	R1135E
377.23	0.016	377580	START	n/a	n/a	n/a	n/a	-999	3	[-999, -999, -999]	n/a	catFR1	1	R1135E
377.246	4.401	377596	PROB	4.401	n/a	n/a	n/a	-999	3	[5, 1, 1]	7	catFR1	1	R1135E
381.647	9.885	381996	PROB	9.885	n/a	n/a	n/a	-999	3	[6, 8, 1]	14	catFR1	1	R1135E
391.532	6.314	391881	PROB	6.314	n/a	n/a	n/a	-999	3	[2, 9, 9]	20	catFR1	1	R1135E
397.846	0.003	398194	STOP	n/a	n/a	n/a	n/a	-999	3	[-999, -999, -999]	n/a	catFR1	1	R1135E
397.849	1.068	398197	DISTRACT_END	n/a	n/a	n/a	n/a	-999	3	[0, 0, 0]	n/a	catFR1	1	R1135E
398.917	4.318	399265	REC_START	n/a	n/a	n/a	n/a	-999	3	[0, 0, 0]	n/a	catFR1	1	R1135E
403.235	1.851	403583	REC_WORD	1.851	n/a	FINGERS	BodyParts	4	3	[0, 0, 0]	n/a	catFR1	1	R1135E
405.086	7.296	405434	REC_WORD	7.296	n/a	ELBOW	BodyParts	8	3	[0, 0, 0]	n/a	catFR1	1	R1135E
412.382	15.284	412729	REC_WORD	15.284	n/a	KNEE	BodyParts	3	3	[0, 0, 0]	n/a	catFR1	1	R1135E
427.666	1.265	428012	REC_WORD	1.265	n/a	DAISY	n/a	-999	3	[0, 0, 0]	n/a	catFR1	1	R1135E
428.931	2.108	429277	REC_END	n/a	n/a	n/a	n/a	-999	3	[0, 0, 0]	n/a	catFR1	1	R1135E
431.039	0.0	431385	TRIAL	n/a	n/a	n/a	n/a	-999	4	[0, 0, 0]	n/a	catFR1	1	R1135E
431.039	10.428	431385	COUNTDOWN_START	n/a	n/a	n/a	n/a	-999	4	[0, 0, 0]	n/a	catFR1	1	R1135E
441.467	0.007	441812	COUNTDOWN_END	n/a	n/a	n/a	n/a	-999	4	[0, 0, 0]	n/a	catFR1	1	R1135E
441.474	3.667	441819	ORIENT	n/a	n/a	n/a	n/a	-999	4	[0, 0, 0]	n/a	catFR1	1	R1135E
445.141	2.517	445486	WORD	n/a	wordpools/wordpool_categorized_EN.txt	SPINACH	Vegetables	1	4	[0, 0, 0]	n/a	catFR1	1	R1135E
447.658	2.484	448003	WORD	n/a	wordpools/wordpool_categorized_EN.txt	CORN	Vegetables	2	4	[0, 0, 0]	n/a	catFR1	1	R1135E
450.142	2.384	450487	WORD	n/a	wordpools/wordpool_categorized_EN.txt	STAIRS	Building	3	4	[0, 0, 0]	n/a	catFR1	1	R1135E
452.526	2.55	452870	WORD	n/a	wordpools/wordpool_categorized_EN.txt	WALL	Building	4	4	[0, 0, 0]	n/a	catFR1	1	R1135E
455.076	2.501	455420	WORD	n/a	wordpools/wordpool_categorized_EN.txt	ORANGUTAN	Zoo	5	4	[0, 0, 0]	n/a	catFR1	1	R1135E
457.577	2.434	457921	WORD	n/a	wordpools/wordpool_categorized_EN.txt	CHEETAH	Zoo	6	4	[0, 0, 0]	n/a	catFR1	1	R1135E
460.011	2.417	460355	WORD	n/a	wordpools/wordpool_categorized_EN.txt	BATHROOM	Building	7	4	[0, 0, 0]	n/a	catFR1	1	R1135E
462.428	2.551	462772	WORD	n/a	wordpools/wordpool_categorized_EN.txt	FOUNDATION	Building	8	4	[0, 0, 0]	n/a	catFR1	1	R1135E
464.979	2.533	465323	WORD	n/a	wordpools/wordpool_categorized_EN.txt	ONION	Vegetables	9	4	[0, 0, 0]	n/a	catFR1	1	R1135E
467.512	2.6	467855	WORD	n/a	wordpools/wordpool_categorized_EN.txt	CUCUMBER	Vegetables	10	4	[0, 0, 0]	n/a	catFR1	1	R1135E
470.112	2.484	470455	WORD	n/a	wordpools/wordpool_categorized_EN.txt	TIGER	Zoo	11	4	[0, 0, 0]	n/a	catFR1	1	R1135E
472.596	1.617	472939	WORD	n/a	wordpools/wordpool_categorized_EN.txt	GORILLA	Zoo	12	4	[0, 0, 0]	n/a	catFR1	1	R1135E
474.213	0.002	474556	DISTRACT_START	n/a	n/a	n/a	n/a	-999	4	[0, 0, 0]	n/a	catFR1	1	R1135E
474.215	0.015	474558	START	n/a	n/a	n/a	n/a	-999	4	[-999, -999, -999]	n/a	catFR1	1	R1135E
474.23	9.501	474573	PROB	9.501	n/a	n/a	n/a	-999	4	[8, 6, 1]	15	catFR1	1	R1135E
483.731	5.268	484073	PROB	5.268	n/a	n/a	n/a	-999	4	[4, 2, 1]	7	catFR1	1	R1135E
488.999	9.434	489341	PROB	9.434	n/a	n/a	n/a	-999	4	[8, 4, 7]	18	catFR1	1	R1135E
498.433	0.018	498774	STOP	n/a	n/a	n/a	n/a	-999	4	[-999, -999, -999]	n/a	catFR1	1	R1135E
498.451	1.034	498792	DISTRACT_END	n/a	n/a	n/a	n/a	-999	4	[0, 0, 0]	n/a	catFR1	1	R1135E
499.485	16.621	499826	REC_START	n/a	n/a	n/a	n/a	-999	4	[0, 0, 0]	n/a	catFR1	1	R1135E
516.106	5.292	516446	REC_WORD	5.292	n/a	GORILLA	Zoo	12	4	[0, 0, 0]	n/a	catFR1	1	R1135E
521.398	8.096	521738	REC_WORD	8.096	n/a	CHEETAH	Zoo	6	4	[0, 0, 0]	n/a	catFR1	1	R1135E
529.494	2.012	529833	REC_END	n/a	n/a	n/a	n/a	-999	4	[0, 0, 0]	n/a	catFR1	1	R1135E
531.506	0.0	531845	TRIAL	n/a	n/a	n/a	n/a	-999	5	[0, 0, 0]	n/a	catFR1	1	R1135E
531.506	10.428	531845	COUNTDOWN_START	n/a	n/a	n/a	n/a	-999	5	[0, 0, 0]	n/a	catFR1	1	R1135E
541.934	0.008	542272	COUNTDOWN_END	n/a	n/a	n/a	n/a	-999	5	[0, 0, 0]	n/a	catFR1	1	R1135E
541.942	3.583	542280	ORIENT	n/a	n/a	n/a	n/a	-999	5	[0, 0, 0]	n/a	catFR1	1	R1135E
545.525	2.567	545863	WORD	n/a	wordpools/wordpool_categorized_EN.txt	BASKETBALL	Toys	1	5	[0, 0, 0]	n/a	catFR1	1	R1135E
548.092	2.467	548430	WORD	n/a	wordpools/wordpool_categorized_EN.txt	BLOCKS	Toys	2	5	[0, 0, 0]	n/a	catFR1	1	R1135E
550.559	2.618	550897	WORD	n/a	wordpools/wordpool_categorized_EN.txt	PLIERS	Tools	3	5	[0, 0, 0]	n/a	catFR1	1	R1135E
553.177	2.567	553515	WORD	n/a	wordpools/wordpool_categorized_EN.txt	WRENCH	Tools	4	5	[0, 0, 0]	n/a	catFR1	1	R1135E
555.744	2.567	556081	WORD	n/a	wordpools/wordpool_categorized_EN.txt	FORK	KitchenTools	5	5	[0, 0, 0]	n/a	catFR1	1	R1135E
558.311	2.517	558648	WORD	n/a	wordpools/wordpool_categorized_EN.txt	SPOON	KitchenTools	6	5	[0, 0, 0]	n/a	catFR1	1	R1135E
560.828	2.434	561165	WORD	n/a	wordpools/wordpool_categorized_EN.txt	SAW	Tools	7	5	[0, 0, 0]	n/a	catFR1	1	R1135E
563.262	2.534	563599	WORD	n/a	wordpools/wordpool_categorized_EN.txt	AXE	Tools	8	5	[0, 0, 0]	n/a	catFR1	1	R1135E
565.796	2.417	566133	WORD	n/a	wordpools/wordpool_categorized_EN.txt	MARBLES	Toys	9	5	[0, 0, 0]	n/a	catFR1	1	R1135E
568.213	2.534	568550	WORD	n/a	wordpools/wordpool_categorized_EN.txt	BALL	Toys	10	5	[0, 0, 0]	n/a	catFR1	1	R1135E
570.747	2.467	571083	WORD	n/a	wordpools/wordpool_categorized_EN.txt	GRATER	KitchenTools	11	5	[0, 0, 0]	n/a	catFR1	1	R1135E
573.214	1.617	573550	WORD	n/a	wordpools/wordpool_categorized_EN.txt	KNIFE	KitchenTools	12	5	[0, 0, 0]	n/a	catFR1	1	R1135E
574.831	0.0	575167	DISTRACT_START	n/a	n/a	n/a	n/a	-999	5	[0, 0, 0]	n/a	catFR1	1	R1135E
574.831	0.016	575167	START	n/a	n/a	n/a	n/a	-999	5	[-999, -999, -999]	n/a	catFR1	1	R1135E
574.847	11.035	575183	PROB	11.035	n/a	n/a	n/a	-999	5	[4, 5, 8]	17	catFR1	1	R1135E
585.882	8.152	586217	PROB	8.152	n/a	n/a	n/a	-999	5	[5, 3, 2]	10	catFR1	1	R1135E
594.034	5.715	594369	PROB	5.715	n/a	n/a	n/a	-999	5	[1, 4, 2]	7	catFR1	1	R1135E
599.749	0.019	600083	STOP	n/a	n/a	n/a	n/a	-999	5	[-999, -999, -999]	n/a	catFR1	1	R1135E
599.768	1.202	600102	DISTRACT_END	n/a	n/a	n/a	n/a	-999	5	[0, 0, 0]	n/a	catFR1	1	R1135E
600.97	30.005	601304	REC_START	n/a	n/a	n/a	n/a	-999	5	[0, 0, 0]	n/a	catFR1	1	R1135E
630.975	0.009	631307	REC_WORD_VV	0.009	n/a	<>	n/a	-999	5	[0, 0, 0]	n/a	catFR1	1	R1135E
630.984	1.974	631316	REC_END	n/a	n/a	n/a	n/a	-999	5	[0, 0, 0]	n/a	catFR1	1	R1135E
632.958	0.001	633290	COUNTDOWN_START	n/a	n/a	n/a	n/a	-999	6	[0, 0, 0]	n/a	catFR1	1	R1135E
632.959	10.427	633291	TRIAL	n/a	n/a	n/a	n/a	-999	6	[0, 0, 0]	n/a	catFR1	1	R1135E
643.386	0.007	643718	COUNTDOWN_END	n/a	n/a	n/a	n/a	-999	6	[0, 0, 0]	n/a	catFR1	1	R1135E
643.393	3.983	643725	ORIENT	n/a	n/a	n/a	n/a	-999	6	[0, 0, 0]	n/a	catFR1	1	R1135E
647.376	2.401	647707	WORD	n/a	wordpools/wordpool_categorized_EN.txt	BEER	Beverages	1	6	[0, 0, 0]	n/a	catFR1	1	R1135E
649.777	2.567	650108	WORD	n/a	wordpools/wordpool_categorized_EN.txt	COLA	Beverages	2	6	[0, 0, 0]	n/a	catFR1	1	R1135E
652.344	2.417	652675	WORD	n/a	wordpools/wordpool_categorized_EN.txt	PRINTER	Electronics	3	6	[0, 0, 0]	n/a	catFR1	1	R1135E
654.761	2.417	655092	WORD	n/a	wordpools/wordpool_categorized_EN.txt	STEREO	Electronics	4	6	[0, 0, 0]	n/a	catFR1	1	R1135E
657.178	2.601	657509	WORD	n/a	wordpools/wordpool_categorized_EN.txt	FOG	Weather	5	6	[0, 0, 0]	n/a	catFR1	1	R1135E
659.779	2.584	660109	WORD	n/a	wordpools/wordpool_categorized_EN.txt	THUNDERSTORM	Weather	6	6	[0, 0, 0]	n/a	catFR1	1	R1135E
662.363	2.533	662693	WORD	n/a	wordpools/wordpool_categorized_EN.txt	MILK	Beverages	7	6	[0, 0, 0]	n/a	catFR1	1	R1135E
664.896	2.401	665226	WORD	n/a	wordpools/wordpool_categorized_EN.txt	TEA	Beverages	8	6	[0, 0, 0]	n/a	catFR1	1	R1135E
667.297	2.617	667627	WORD	n/a	wordpools/wordpool_categorized_EN.txt	WIND	Weather	9	6	[0, 0, 0]	n/a	catFR1	1	R1135E
669.914	2.617	670244	WORD	n/a	wordpools/wordpool_categorized_EN.txt	CLOUD	Weather	10	6	[0, 0, 0]	n/a	catFR1	1	R1135E
672.531	2.617	672861	WORD	n/a	wordpools/wordpool_categorized_EN.txt	MICROWAVE	Electronics	11	6	[0, 0, 0]	n/a	catFR1	1	R1135E
675.148	1.617	675477	WORD	n/a	wordpools/wordpool_categorized_EN.txt	SPEAKER	Electronics	12	6	[0, 0, 0]	n/a	catFR1	1	R1135E
676.765	0.001	677094	DISTRACT_START	n/a	n/a	n/a	n/a	-999	6	[0, 0, 0]	n/a	catFR1	1	R1135E
676.766	0.016	677095	START	n/a	n/a	n/a	n/a	-999	6	[-999, -999, -999]	n/a	catFR1	1	R1135E
676.782	10.301	677111	PROB	10.301	n/a	n/a	n/a	-999	6	[2, 5, 9]	16	catFR1	1	R1135E
687.083	3.651	687412	PROB	3.651	n/a	n/a	n/a	-999	6	[1, 1, 1]	3	catFR1	1	R1135E
690.734	5.268	691062	PROB	5.268	n/a	n/a	n/a	-999	6	[2, 4, 2]	8	catFR1	1	R1135E
696.002	13.097	696330	PROB	13.097	n/a	n/a	n/a	-999	6	[6, 9, 9]	24	catFR1	1	R1135E
709.099	0.005	709426	STOP	n/a	n/a	n/a	n/a	-999	6	[-999, -999, -999]	n/a	catFR1	1	R1135E
709.104	1.167	709431	DISTRACT_END	n/a	n/a	n/a	n/a	-999	6	[0, 0, 0]	n/a	catFR1	1	R1135E
710.271	11.431	710598	REC_START	n/a	n/a	n/a	n/a	-999	6	[0, 0, 0]	n/a	catFR1	1	R1135E
721.702	18.582	722028	REC_WORD	18.582	n/a	THUNDERSTORM	Weather	6	6	[0, 0, 0]	n/a	catFR1	1	R1135E
740.284	2.476	740609	REC_END	n/a	n/a	n/a	n/a	-999	6	[0, 0, 0]	n/a	catFR1	1	R1135E
742.76	0.0	743085	TRIAL	n/a	n/a	n/a	n/a	-999	7	[0, 0, 0]	n/a	catFR1	1	R1135E
742.76	10.428	743085	COUNTDOWN_START	n/a	n/a	n/a	n/a	-999	7	[0, 0, 0]	n/a	catFR1	1	R1135E
753.188	0.007	753512	COUNTDOWN_END	n/a	n/a	n/a	n/a	-999	7	[0, 0, 0]	n/a	catFR1	1	R1135E
753.195	3.967	753519	ORIENT	n/a	n/a	n/a	n/a	-999	7	[0, 0, 0]	n/a	catFR1	1	R1135E
757.162	2.467	757486	WORD	n/a	wordpools/wordpool_categorized_EN.txt	PIANO	Instruments	1	7	[0, 0, 0]	n/a	catFR1	1	R1135E
759.629	2.568	759953	WORD	n/a	wordpools/wordpool_categorized_EN.txt	CELLO	Instruments	2	7	[0, 0, 0]	n/a	catFR1	1	R1135E
762.197	2.567	762520	WORD	n/a	wordpools/wordpool_categorized_EN.txt	SOFA	Furniture	3	7	[0, 0, 0]	n/a	catFR1	1	R1135E
764.764	2.383	765087	WORD	n/a	wordpools/wordpool_categorized_EN.txt	CABINET	Furniture	4	7	[0, 0, 0]	n/a	catFR1	1	R1135E
767.147	2.401	767470	WORD	n/a	wordpools/wordpool_categorized_EN.txt	WHISK	KitchenTools	5	7	[0, 0, 0]	n/a	catFR1	1	R1135E
769.548	2.435	769871	WORD	n/a	wordpools/wordpool_categorized_EN.txt	SPATULA	KitchenTools	6	7	[0, 0, 0]	n/a	catFR1	1	R1135E
771.983	2.499	772306	WORD	n/a	wordpools/wordpool_categorized_EN.txt	FLUTE	Instruments	7	7	[0, 0, 0]	n/a	catFR1	1	R1135E
774.482	2.467	774805	WORD	n/a	wordpools/wordpool_categorized_EN.txt	GUITAR	Instruments	8	7	[0, 0, 0]	n/a	catFR1	1	R1135E
776.949	2.567	777271	WORD	n/a	wordpools/wordpool_categorized_EN.txt	STRAINER	KitchenTools	9	7	[0, 0, 0]	n/a	catFR1	1	R1135E
779.516	2.484	779838	WORD	n/a	wordpools/wordpool_categorized_EN.txt	TONGS	KitchenTools	10	7	[0, 0, 0]	n/a	catFR1	1	R1135E
782.0	2.617	782322	WORD	n/a	wordpools/wordpool_categorized_EN.txt	BOOKCASE	Furniture	11	7	[0, 0, 0]	n/a	catFR1	1	R1135E
784.617	1.617	784939	WORD	n/a	wordpools/wordpool_categorized_EN.txt	DESK	Furniture	12	7	[0, 0, 0]	n/a	catFR1	1	R1135E
786.234	0.001	786556	DISTRACT_START	n/a	n/a	n/a	n/a	-999	7	[0, 0, 0]	n/a	catFR1	1	R1135E
786.235	0.016	786557	START	n/a	n/a	n/a	n/a	-999	7	[-999, -999, -999]	n/a	catFR1	1	R1135E
786.251	5.151	786573	PROB	5.151	n/a	n/a	n/a	-999	7	[2, 5, 5]	12	catFR1	1	R1135E
791.402	6.984	791724	PROB	6.984	n/a	n/a	n/a	-999	7	[4, 4, 4]	12	catFR1	1	R1135E
798.386	7.785	798707	PROB	7.785	n/a	n/a	n/a	-999	7	[3, 5, 4]	12	catFR1	1	R1135E
806.171	5.581	806491	PROB	5.581	n/a	n/a	n/a	-999	7	[1, 3, 5]	9	catFR1	1	R1135E
811.752	0.003	812072	STOP	n/a	n/a	n/a	n/a	-999	7	[-999, -999, -999]	n/a	catFR1	1	R1135E
811.755	1.101	812075	DISTRACT_END	n/a	n/a	n/a	n/a	-999	7	[0, 0, 0]	n/a	catFR1	1	R1135E
812.856	30.005	813176	REC_START	n/a	n/a	n/a	n/a	-999	7	[0, 0, 0]	n/a	catFR1	1	R1135E
842.861	0.008	843179	REC_WORD_VV	0.008	n/a	<>	n/a	-999	7	[0, 0, 0]	n/a	catFR1	1	R1135E
842.869	2.192	843187	REC_END	n/a	n/a	n/a	n/a	-999	7	[0, 0, 0]	n/a	catFR1	1	R1135E
845.061	0.0	845379	TRIAL	n/a	n/a	n/a	n/a	-999	8	[0, 0, 0]	n/a	catFR1	1	R1135E
845.061	10.428	845379	COUNTDOWN_START	n/a	n/a	n/a	n/a	-999	8	[0, 0, 0]	n/a	catFR1	1	R1135E
855.489	0.007	855806	COUNTDOWN_END	n/a	n/a	n/a	n/a	-999	8	[0, 0, 0]	n/a	catFR1	1	R1135E
855.496	3.868	855813	ORIENT	n/a	n/a	n/a	n/a	-999	8	[0, 0, 0]	n/a	catFR1	1	R1135E
859.364	2.618	859681	WORD	n/a	wordpools/wordpool_categorized_EN.txt	MOUSSE	Desserts	1	8	[0, 0, 0]	n/a	catFR1	1	R1135E
861.982	2.432	862299	WORD	n/a	wordpools/wordpool_categorized_EN.txt	PASTRY	Desserts	2	8	[0, 0, 0]	n/a	catFR1	1	R1135E
864.414	2.618	864731	WORD	n/a	wordpools/wordpool_categorized_EN.txt	APPLE	Fruit	3	8	[0, 0, 0]	n/a	catFR1	1	R1135E
867.032	2.583	867348	WORD	n/a	wordpools/wordpool_categorized_EN.txt	PEAR	Fruit	4	8	[0, 0, 0]	n/a	catFR1	1	R1135E
869.615	2.551	869931	WORD	n/a	wordpools/wordpool_categorized_EN.txt	PUZZLE	Toys	5	8	[0, 0, 0]	n/a	catFR1	1	R1135E
872.166	2.517	872482	WORD	n/a	wordpools/wordpool_categorized_EN.txt	DOLL	Toys	6	8	[0, 0, 0]	n/a	catFR1	1	R1135E
874.683	2.384	874999	WORD	n/a	wordpools/wordpool_categorized_EN.txt	PLUM	Fruit	7	8	[0, 0, 0]	n/a	catFR1	1	R1135E
877.067	2.567	877383	WORD	n/a	wordpools/wordpool_categorized_EN.txt	BANANA	Fruit	8	8	[0, 0, 0]	n/a	catFR1	1	R1135E
879.634	2.433	879950	WORD	n/a	wordpools/wordpool_categorized_EN.txt	BROWNIES	Desserts	9	8	[0, 0, 0]	n/a	catFR1	1	R1135E
882.067	2.468	882382	WORD	n/a	wordpools/wordpool_categorized_EN.txt	COOKIE	Desserts	10	8	[0, 0, 0]	n/a	catFR1	1	R1135E
884.535	2.583	884850	WORD	n/a	wordpools/wordpool_categorized_EN.txt	SLINKY	Toys	11	8	[0, 0, 0]	n/a	catFR1	1	R1135E
887.118	1.617	887433	WORD	n/a	wordpools/wordpool_categorized_EN.txt	BARBIE	Toys	12	8	[0, 0, 0]	n/a	catFR1	1	R1135E
888.735	0.001	889050	DISTRACT_START	n/a	n/a	n/a	n/a	-999	8	[0, 0, 0]	n/a	catFR1	1	R1135E
888.736	0.016	889051	START	n/a	n/a	n/a	n/a	-999	8	[-999, -999, -999]	n/a	catFR1	1	R1135E
888.752	5.851	889067	PROB	5.851	n/a	n/a	n/a	-999	8	[2, 2, 5]	9	catFR1	1	R1135E
894.603	12.119	894918	PROB	12.119	n/a	n/a	n/a	-999	8	[7, 5, 9]	20	catFR1	1	R1135E
906.722	9.422	907036	PROB	9.422	n/a	n/a	n/a	-999	8	[7, 1, 6]	14	catFR1	1	R1135E
916.144	0.013	916457	STOP	n/a	n/a	n/a	n/a	-999	8	[-999, -999, -999]	n/a	catFR1	1	R1135E
916.157	1.167	916470	DISTRACT_END	n/a	n/a	n/a	n/a	-999	8	[0, 0, 0]	n/a	catFR1	1	R1135E
917.324	30.005	917637	REC_START	n/a	n/a	n/a	n/a	-999	8	[0, 0, 0]	n/a	catFR1	1	R1135E
947.329	0.008	947640	REC_WORD_VV	0.008	n/a	<>	n/a	-999	8	[0, 0, 0]	n/a	catFR1	1	R1135E
947.337	2.076	947648	REC_END	n/a	n/a	n/a	n/a	-999	8	[0, 0, 0]	n/a	catFR1	1	R1135E
949.413	0.0	949724	TRIAL	n/a	n/a	n/a	n/a	-999	9	[0, 0, 0]	n/a	catFR1	1	R1135E
949.413	10.428	949724	COUNTDOWN_START	n/a	n/a	n/a	n/a	-999	9	[0, 0, 0]	n/a	catFR1	1	R1135E
959.841	0.007	960151	COUNTDOWN_END	n/a	n/a	n/a	n/a	-999	9	[0, 0, 0]	n/a	catFR1	1	R1135E
959.848	3.7	960158	ORIENT	n/a	n/a	n/a	n/a	-999	9	[0, 0, 0]	n/a	catFR1	1	R1135E
963.548	2.534	963858	WORD	n/a	wordpools/wordpool_categorized_EN.txt	SODA	Beverages	1	9	[0, 0, 0]	n/a	catFR1	1	R1135E
966.082	2.517	966392	WORD	n/a	wordpools/wordpool_categorized_EN.txt	LEMONADE	Beverages	2	9	[0, 0, 0]	n/a	catFR1	1	R1135E
968.599	2.517	968908	WORD	n/a	wordpools/wordpool_categorized_EN.txt	ROBIN	Birds	3	9	[0, 0, 0]	n/a	catFR1	1	R1135E
971.116	2.601	971425	WORD	n/a	wordpools/wordpool_categorized_EN.txt	GOOSE	Birds	4	9	[0, 0, 0]	n/a	catFR1	1	R1135E
973.717	2.584	974026	WORD	n/a	wordpools/wordpool_categorized_EN.txt	CROWBAR	Tools	5	9	[0, 0, 0]	n/a	catFR1	1	R1135E
976.301	2.567	976610	WORD	n/a	wordpools/wordpool_categorized_EN.txt	LEVEL	Tools	6	9	[0, 0, 0]	n/a	catFR1	1	R1135E
978.868	2.6	979177	WORD	n/a	wordpools/wordpool_categorized_EN.txt	CROW	Birds	7	9	[0, 0, 0]	n/a	catFR1	1	R1135E
981.468	2.502	981777	WORD	n/a	wordpools/wordpool_categorized_EN.txt	PIGEON	Birds	8	9	[0, 0, 0]	n/a	catFR1	1	R1135E
983.97	2.482	984278	WORD	n/a	wordpools/wordpool_categorized_EN.txt	WATER	Beverages	9	9	[0, 0, 0]	n/a	catFR1	1	R1135E
986.452	2.484	986760	WORD	n/a	wordpools/wordpool_categorized_EN.txt	RUM	Beverages	10	9	[0, 0, 0]	n/a	catFR1	1	R1135E
988.936	2.451	989244	WORD	n/a	wordpools/wordpool_categorized_EN.txt	RATCHET	Tools	11	9	[0, 0, 0]	n/a	catFR1	1	R1135E
991.387	1.601	991695	WORD	n/a	wordpools/wordpool_categorized_EN.txt	HAMMER	Tools	12	9	[0, 0, 0]	n/a	catFR1	1	R1135E
992.988	0.001	993296	DISTRACT_START	n/a	n/a	n/a	n/a	-999	9	[0, 0, 0]	n/a	catFR1	1	R1135E
992.989	0.014	993297	START	n/a	n/a	n/a	n/a	-999	9	[-999, -999, -999]	n/a	catFR1	1	R1135E
993.003	12.869	993311	PROB	12.869	n/a	n/a	n/a	-999	9	[2, 9, 6]	17	catFR1	1	R1135E
1005.872	12.499	1006179	PROB	12.499	n/a	n/a	n/a	-999	9	[6, 7, 8]	20	catFR1	1	R1135E
1018.371	0.003	1018677	STOP	n/a	n/a	n/a	n/a	-999	9	[-999, -999, -999]	n/a	catFR1	1	R1135E
1018.374	1.085	1018680	DISTRACT_END	n/a	n/a	n/a	n/a	-999	9	[0, 0, 0]	n/a	catFR1	1	R1135E
1019.459	5.408	1019765	REC_START	n/a	n/a	n/a	n/a	-999	9	[0, 0, 0]	n/a	catFR1	1	R1135E
1024.867	1.679	1025173	REC_WORD	1.679	n/a	RATCHET	Tools	11	9	[0, 0, 0]	n/a	catFR1	1	R1135E
1026.546	12.333	1026852	REC_WORD	12.333	n/a	HAMMER	Tools	12	9	[0, 0, 0]	n/a	catFR1	1	R1135E
1038.879	10.589	1039184	REC_WORD	10.589	n/a	SCREWDRIVER	n/a	-999	9	[0, 0, 0]	n/a	catFR1	1	R1135E
1049.468	2.529	1049772	REC_END	n/a	n/a	n/a	n/a	-999	9	[0, 0, 0]	n/a	catFR1	1	R1135E
1051.997	0.0	1052301	TRIAL	n/a	n/a	n/a	n/a	-999	10	[0, 0, 0]	n/a	catFR1	1	R1135E
1051.997	10.428	1052301	COUNTDOWN_START	n/a	n/a	n/a	n/a	-999	10	[0, 0, 0]	n/a	catFR1	1	R1135E
1062.425	0.007	1062728	COUNTDOWN_END	n/a	n/a	n/a	n/a	-999	10	[0, 0, 0]	n/a	catFR1	1	R1135E
1062.432	3.851	1062735	ORIENT	n/a	n/a	n/a	n/a	-999	10	[0, 0, 0]	n/a	catFR1	1	R1135E
1066.283	2.434	1066586	WORD	n/a	wordpools/wordpool_categorized_EN.txt	DOOR	Building	1	10	[0, 0, 0]	n/a	catFR1	1	R1135E
1068.717	2.55	1069020	WORD	n/a	wordpools/wordpool_categorized_EN.txt	HALLWAY	Building	2	10	[0, 0, 0]	n/a	catFR1	1	R1135E
1071.267	2.484	1071570	WORD	n/a	wordpools/wordpool_categorized_EN.txt	FOOTBALL	Toys	3	10	[0, 0, 0]	n/a	catFR1	1	R1135E
1073.751	2.467	1074053	WORD	n/a	wordpools/wordpool_categorized_EN.txt	DOLLHOUSE	Toys	4	10	[0, 0, 0]	n/a	catFR1	1	R1135E
1076.218	2.584	1076520	WORD	n/a	wordpools/wordpool_categorized_EN.txt	TROMBONE	Instruments	5	10	[0, 0, 0]	n/a	catFR1	1	R1135E
1078.802	2.384	1079104	WORD	n/a	wordpools/wordpool_categorized_EN.txt	ORGAN	Instruments	6	10	[0, 0, 0]	n/a	catFR1	1	R1135E
1081.186	2.617	1081488	WORD	n/a	wordpools/wordpool_categorized_EN.txt	ATTIC	Building	7	10	[0, 0, 0]	n/a	catFR1	1	R1135E
1083.803	2.533	1084105	WORD	n/a	wordpools/wordpool_categorized_EN.txt	ROOM	Building	8	10	[0, 0, 0]	n/a	catFR1	1	R1135E
1086.336	2.534	1086637	WORD	n/a	wordpools/wordpool_categorized_EN.txt	BASS	Instruments	9	10	[0, 0, 0]	n/a	catFR1	1	R1135E
1088.87	2.551	1089171	WORD	n/a	wordpools/wordpool_categorized_EN.txt	VIOLIN	Instruments	10	10	[0, 0, 0]	n/a	catFR1	1	R1135E
1091.421	2.568	1091722	WORD	n/a	wordpools/wordpool_categorized_EN.txt	FRISBEE	Toys	11	10	[0, 0, 0]	n/a	catFR1	1	R1135E
1093.989	1.616	1094290	WORD	n/a	wordpools/wordpool_categorized_EN.txt	BASEBALL	Toys	12	10	[0, 0, 0]	n/a	catFR1	1	R1135E
1095.605	0.001	1095906	DISTRACT_START	n/a	n/a	n/a	n/a	-999	10	[0, 0, 0]	n/a	catFR1	1	R1135E
1095.606	0.015	1095907	START	n/a	n/a	n/a	n/a	-999	10	[-999, -999, -999]	n/a	catFR1	1	R1135E
1095.621	7.002	1095922	PROB	7.002	n/a	n/a	n/a	-999	10	[2, 6, 2]	10	catFR1	1	R1135E
1102.623	7.451	1102923	PROB	7.451	n/a	n/a	n/a	-999	10	[9, 4, 9]	22	catFR1	1	R1135E
1110.074	12.378	1110374	PROB	12.378	n/a	n/a	n/a	-999	10	[6, 6, 9]	21	catFR1	1	R1135E
1122.452	0.007	1122751	STOP	n/a	n/a	n/a	n/a	-999	10	[-999, -999, -999]	n/a	catFR1	1	R1135E
1122.459	1.035	1122758	DISTRACT_END	n/a	n/a	n/a	n/a	-999	10	[0, 0, 0]	n/a	catFR1	1	R1135E
1123.494	17.946	1123793	REC_START	n/a	n/a	n/a	n/a	-999	10	[0, 0, 0]	n/a	catFR1	1	R1135E
1141.44	12.063	1141738	REC_WORD	12.063	n/a	DOLLHOUSE	Toys	4	10	[0, 0, 0]	n/a	catFR1	1	R1135E
1153.503	1.896	1153800	REC_END	n/a	n/a	n/a	n/a	-999	10	[0, 0, 0]	n/a	catFR1	1	R1135E
1155.399	0.0	1155696	TRIAL	n/a	n/a	n/a	n/a	-999	11	[0, 0, 0]	n/a	catFR1	1	R1135E
1155.399	10.428	1155696	COUNTDOWN_START	n/a	n/a	n/a	n/a	-999	11	[0, 0, 0]	n/a	catFR1	1	R1135E
1165.827	0.007	1166123	COUNTDOWN_END	n/a	n/a	n/a	n/a	-999	11	[0, 0, 0]	n/a	catFR1	1	R1135E
1165.834	3.617	1166130	ORIENT	n/a	n/a	n/a	n/a	-999	11	[0, 0, 0]	n/a	catFR1	1	R1135E
1169.451	2.584	1169747	WORD	n/a	wordpools/wordpool_categorized_EN.txt	CREEK	Landscapes	1	11	[0, 0, 0]	n/a	catFR1	1	R1135E
1172.035	2.484	1172331	WORD	n/a	wordpools/wordpool_categorized_EN.txt	ISLAND	Landscapes	2	11	[0, 0, 0]	n/a	catFR1	1	R1135E
1174.519	2.468	1174815	WORD	n/a	wordpools/wordpool_categorized_EN.txt	COFFEE	Beverages	3	11	[0, 0, 0]	n/a	catFR1	1	R1135E
1176.987	2.516	1177282	WORD	n/a	wordpools/wordpool_categorized_EN.txt	CIDER	Beverages	4	11	[0, 0, 0]	n/a	catFR1	1	R1135E
1179.503	2.468	1179798	WORD	n/a	wordpools/wordpool_categorized_EN.txt	MARIGOLD	Flowers	5	11	[0, 0, 0]	n/a	catFR1	1	R1135E
1181.971	2.566	1182266	WORD	n/a	wordpools/wordpool_categorized_EN.txt	SUNFLOWER	Flowers	6	11	[0, 0, 0]	n/a	catFR1	1	R1135E
1184.537	2.484	1184832	WORD	n/a	wordpools/wordpool_categorized_EN.txt	WINE	Beverages	7	11	[0, 0, 0]	n/a	catFR1	1	R1135E
1187.021	2.483	1187316	WORD	n/a	wordpools/wordpool_categorized_EN.txt	JUICE	Beverages	8	11	[0, 0, 0]	n/a	catFR1	1	R1135E
1189.504	2.418	1189799	WORD	n/a	wordpools/wordpool_categorized_EN.txt	RIVER	Landscapes	9	11	[0, 0, 0]	n/a	catFR1	1	R1135E
1191.922	2.583	1192216	WORD	n/a	wordpools/wordpool_categorized_EN.txt	OCEAN	Landscapes	10	11	[0, 0, 0]	n/a	catFR1	1	R1135E
1194.505	2.534	1194799	WORD	n/a	wordpools/wordpool_categorized_EN.txt	LILY	Flowers	11	11	[0, 0, 0]	n/a	catFR1	1	R1135E
1197.039	1.617	1197333	WORD	n/a	wordpools/wordpool_categorized_EN.txt	LILAC	Flowers	12	11	[0, 0, 0]	n/a	catFR1	1	R1135E
1198.656	0.001	1198950	DISTRACT_START	n/a	n/a	n/a	n/a	-999	11	[0, 0, 0]	n/a	catFR1	1	R1135E
1198.657	0.016	1198951	START	n/a	n/a	n/a	n/a	-999	11	[-999, -999, -999]	n/a	catFR1	1	R1135E
1198.673	16.019	1198967	PROB	16.019	n/a	n/a	n/a	-999	11	[9, 7, 3]	19	catFR1	1	R1135E
1214.692	10.267	1214985	PROB	10.267	n/a	n/a	n/a	-999	11	[5, 8, 4]	17	catFR1	1	R1135E
1224.959	0.002	1225251	STOP	n/a	n/a	n/a	n/a	-999	11	[-999, -999, -999]	n/a	catFR1	1	R1135E
1224.961	1.167	1225253	DISTRACT_END	n/a	n/a	n/a	n/a	-999	11	[0, 0, 0]	n/a	catFR1	1	R1135E
1226.128	9.79	1226420	REC_START	n/a	n/a	n/a	n/a	-999	11	[0, 0, 0]	n/a	catFR1	1	R1135E
1235.918	20.224	1236209	REC_WORD	20.224	n/a	ATTIC	n/a	-999	11	[0, 0, 0]	n/a	catFR1	1	R1135E
1256.142	2.558	1256432	REC_END	n/a	n/a	n/a	n/a	-999	11	[0, 0, 0]	n/a	catFR1	1	R1135E
1258.7	0.0	1258990	COUNTDOWN_START	n/a	n/a	n/a	n/a	-999	12	[0, 0, 0]	n/a	catFR1	1	R1135E
1258.7	10.428	1258990	TRIAL	n/a	n/a	n/a	n/a	-999	12	[0, 0, 0]	n/a	catFR1	1	R1135E
1269.128	0.007	1269417	COUNTDOWN_END	n/a	n/a	n/a	n/a	-999	12	[0, 0, 0]	n/a	catFR1	1	R1135E
1269.135	3.617	1269424	ORIENT	n/a	n/a	n/a	n/a	-999	12	[0, 0, 0]	n/a	catFR1	1	R1135E
1272.752	2.434	1273041	WORD	n/a	wordpools/wordpool_categorized_EN.txt	UNDERWEAR	Clothing	1	12	[0, 0, 0]	n/a	catFR1	1	R1135E
1275.186	2.467	1275475	WORD	n/a	wordpools/wordpool_categorized_EN.txt	DRESS	Clothing	2	12	[0, 0, 0]	n/a	catFR1	1	R1135E
1277.653	2.617	1277942	WORD	n/a	wordpools/wordpool_categorized_EN.txt	GNAT	Insects	3	12	[0, 0, 0]	n/a	catFR1	1	R1135E
1280.27	2.601	1280558	WORD	n/a	wordpools/wordpool_categorized_EN.txt	CRICKET	Insects	4	12	[0, 0, 0]	n/a	catFR1	1	R1135E
1282.871	2.467	1283159	WORD	n/a	wordpools/wordpool_categorized_EN.txt	CHICKEN	FarmAnimals	5	12	[0, 0, 0]	n/a	catFR1	1	R1135E
1285.338	2.434	1285626	WORD	n/a	wordpools/wordpool_categorized_EN.txt	SHEEP	FarmAnimals	6	12	[0, 0, 0]	n/a	catFR1	1	R1135E
1287.772	2.384	1288060	WORD	n/a	wordpools/wordpool_categorized_EN.txt	JEANS	Clothing	7	12	[0, 0, 0]	n/a	catFR1	1	R1135E
1290.156	2.583	1290444	WORD	n/a	wordpools/wordpool_categorized_EN.txt	COAT	Clothing	8	12	[0, 0, 0]	n/a	catFR1	1	R1135E
1292.739	2.401	1293027	WORD	n/a	wordpools/wordpool_categorized_EN.txt	ROOSTER	FarmAnimals	9	12	[0, 0, 0]	n/a	catFR1	1	R1135E
1295.14	2.517	1295427	WORD	n/a	wordpools/wordpool_categorized_EN.txt	PIG	FarmAnimals	10	12	[0, 0, 0]	n/a	catFR1	1	R1135E
1297.657	2.45	1297944	WORD	n/a	wordpools/wordpool_categorized_EN.txt	FLY	Insects	11	12	[0, 0, 0]	n/a	catFR1	1	R1135E
1300.107	1.617	1300394	WORD	n/a	wordpools/wordpool_categorized_EN.txt	BEETLE	Insects	12	12	[0, 0, 0]	n/a	catFR1	1	R1135E
1301.724	0.001	1302011	DISTRACT_START	n/a	n/a	n/a	n/a	-999	12	[0, 0, 0]	n/a	catFR1	1	R1135E
1301.725	0.016	1302012	START	n/a	n/a	n/a	n/a	-999	12	[-999, -999, -999]	n/a	catFR1	1	R1135E
1301.741	11.919	1302028	PROB	11.919	n/a	n/a	n/a	-999	12	[6, 3, 5]	14	catFR1	1	R1135E
1313.66	10.006	1313946	PROB	10.006	n/a	n/a	n/a	-999	12	[1, 9, 8]	18	catFR1	1	R1135E
1323.666	0.012	1323951	STOP	n/a	n/a	n/a	n/a	-999	12	[-999, -999, -999]	n/a	catFR1	1	R1135E
1323.678	1.137	1323963	DISTRACT_END	n/a	n/a	n/a	n/a	-999	12	[0, 0, 0]	n/a	catFR1	1	R1135E
1324.815	20.508	1325100	REC_START	n/a	n/a	n/a	n/a	-999	12	[0, 0, 0]	n/a	catFR1	1	R1135E
1345.323	9.499	1345607	REC_WORD	9.499	n/a	UNDERWEAR	Clothing	1	12	[0, 0, 0]	n/a	catFR1	1	R1135E
1354.822	1.945	1355105	REC_END	n/a	n/a	n/a	n/a	-999	12	[0, 0, 0]	n/a	catFR1	1	R1135E
1356.767	0.0	1357050	TRIAL	n/a	n/a	n/a	n/a	-999	13	[0, 0, 0]	n/a	catFR1	1	R1135E
1356.767	10.428	1357050	COUNTDOWN_START	n/a	n/a	n/a	n/a	-999	13	[0, 0, 0]	n/a	catFR1	1	R1135E
1367.195	0.007	1367477	COUNTDOWN_END	n/a	n/a	n/a	n/a	-999	13	[0, 0, 0]	n/a	catFR1	1	R1135E
1367.202	3.468	1367484	ORIENT	n/a	n/a	n/a	n/a	-999	13	[0, 0, 0]	n/a	catFR1	1	R1135E
1370.67	2.5	1370952	WORD	n/a	wordpools/wordpool_categorized_EN.txt	CYPRESS	Trees	1	13	[0, 0, 0]	n/a	catFR1	1	R1135E
1373.17	2.617	1373452	WORD	n/a	wordpools/wordpool_categorized_EN.txt	PINE	Trees	2	13	[0, 0, 0]	n/a	catFR1	1	R1135E
1375.787	2.467	1376069	WORD	n/a	wordpools/wordpool_categorized_EN.txt	LION	Zoo	3	13	[0, 0, 0]	n/a	catFR1	1	R1135E
1378.254	2.534	1378536	WORD	n/a	wordpools/wordpool_categorized_EN.txt	CHIMPANZEE	Zoo	4	13	[0, 0, 0]	n/a	catFR1	1	R1135E
1380.788	2.417	1381070	WORD	n/a	wordpools/wordpool_categorized_EN.txt	ARM	BodyParts	5	13	[0, 0, 0]	n/a	catFR1	1	R1135E
1383.205	2.417	1383486	WORD	n/a	wordpools/wordpool_categorized_EN.txt	NOSE	BodyParts	6	13	[0, 0, 0]	n/a	catFR1	1	R1135E
1385.622	2.434	1385903	WORD	n/a	wordpools/wordpool_categorized_EN.txt	PANDA	Zoo	7	13	[0, 0, 0]	n/a	catFR1	1	R1135E
1388.056	2.45	1388337	WORD	n/a	wordpools/wordpool_categorized_EN.txt	BEAR	Zoo	8	13	[0, 0, 0]	n/a	catFR1	1	R1135E
1390.506	2.617	1390787	WORD	n/a	wordpools/wordpool_categorized_EN.txt	WILLOW	Trees	9	13	[0, 0, 0]	n/a	catFR1	1	R1135E
1393.123	2.601	1393404	WORD	n/a	wordpools/wordpool_categorized_EN.txt	CEDAR	Trees	10	13	[0, 0, 0]	n/a	catFR1	1	R1135E
1395.724	2.434	1396005	WORD	n/a	wordpools/wordpool_categorized_EN.txt	LEG	BodyParts	11	13	[0, 0, 0]	n/a	catFR1	1	R1135E
1398.158	1.617	1398438	WORD	n/a	wordpools/wordpool_categorized_EN.txt	HAND	BodyParts	12	13	[0, 0, 0]	n/a	catFR1	1	R1135E
1399.775	0.0	1400055	DISTRACT_START	n/a	n/a	n/a	n/a	-999	13	[0, 0, 0]	n/a	catFR1	1	R1135E
1399.775	0.016	1400055	START	n/a	n/a	n/a	n/a	-999	13	[-999, -999, -999]	n/a	catFR1	1	R1135E
1399.791	8.186	1400071	PROB	8.186	n/a	n/a	n/a	-999	13	[1, 8, 5]	14	catFR1	1	R1135E
1407.977	9.167	1408257	PROB	9.167	n/a	n/a	n/a	-999	13	[6, 1, 5]	12	catFR1	1	R1135E
1417.144	11.693	1417423	PROB	11.693	n/a	n/a	n/a	-999	13	[7, 7, 9]	22	catFR1	1	R1135E
1428.837	0.009	1429115	STOP	n/a	n/a	n/a	n/a	-999	13	[-999, -999, -999]	n/a	catFR1	1	R1135E
1428.846	1.218	1429124	DISTRACT_END	n/a	n/a	n/a	n/a	-999	13	[0, 0, 0]	n/a	catFR1	1	R1135E
1430.064	2.055	1430342	REC_START	n/a	n/a	n/a	n/a	-999	13	[0, 0, 0]	n/a	catFR1	1	R1135E
1432.119	3.248	1432397	REC_WORD	3.248	n/a	CYLINDER	n/a	-999	13	[0, 0, 0]	n/a	catFR1	1	R1135E
1435.367	5.546	1435645	REC_WORD	5.546	n/a	WINE	n/a	-999	13	[0, 0, 0]	n/a	catFR1	1	R1135E
1440.913	19.16	1441190	REC_WORD	19.16	n/a	LEG	BodyParts	11	13	[0, 0, 0]	n/a	catFR1	1	R1135E
1460.073	390.264	1460349	REC_END	n/a	n/a	n/a	n/a	-999	13	[0, 0, 0]	n/a	catFR1	1	R1135E
1850.337	0.0	1850587	TRIAL	n/a	n/a	n/a	n/a	-999	14	[0, 0, 0]	n/a	catFR1	1	R1135E
1850.337	10.428	1850587	COUNTDOWN_START	n/a	n/a	n/a	n/a	-999	14	[0, 0, 0]	n/a	catFR1	1	R1135E
1860.765	0.007	1861014	COUNTDOWN_END	n/a	n/a	n/a	n/a	-999	14	[0, 0, 0]	n/a	catFR1	1	R1135E
1860.772	3.734	1861021	ORIENT	n/a	n/a	n/a	n/a	-999	14	[0, 0, 0]	n/a	catFR1	1	R1135E
1864.506	2.434	1864755	WORD	n/a	wordpools/wordpool_categorized_EN.txt	STOVE	Appliances	1	14	[0, 0, 0]	n/a	catFR1	1	R1135E
1866.94	2.45	1867189	WORD	n/a	wordpools/wordpool_categorized_EN.txt	MIXER	Appliances	2	14	[0, 0, 0]	n/a	catFR1	1	R1135E
1869.39	2.484	1869638	WORD	n/a	wordpools/wordpool_categorized_EN.txt	DRUM	Instruments	3	14	[0, 0, 0]	n/a	catFR1	1	R1135E
1871.874	2.617	1872122	WORD	n/a	wordpools/wordpool_categorized_EN.txt	TRUMPET	Instruments	4	14	[0, 0, 0]	n/a	catFR1	1	R1135E
1874.491	2.584	1874739	WORD	n/a	wordpools/wordpool_categorized_EN.txt	TORNADO	Weather	5	14	[0, 0, 0]	n/a	catFR1	1	R1135E
1877.075	2.417	1877323	WORD	n/a	wordpools/wordpool_categorized_EN.txt	SNOW	Weather	6	14	[0, 0, 0]	n/a	catFR1	1	R1135E
1879.492	2.4	1879740	WORD	n/a	wordpools/wordpool_categorized_EN.txt	BANJO	Instruments	7	14	[0, 0, 0]	n/a	catFR1	1	R1135E
1881.892	2.417	1882140	WORD	n/a	wordpools/wordpool_categorized_EN.txt	TUBA	Instruments	8	14	[0, 0, 0]	n/a	catFR1	1	R1135E
1884.309	2.584	1884556	WORD	n/a	wordpools/wordpool_categorized_EN.txt	DRYER	Appliances	9	14	[0, 0, 0]	n/a	catFR1	1	R1135E
1886.893	2.584	1887140	WORD	n/a	wordpools/wordpool_categorized_EN.txt	TOASTER	Appliances	10	14	[0, 0, 0]	n/a	catFR1	1	R1135E
1889.477	2.551	1889724	WORD	n/a	wordpools/wordpool_categorized_EN.txt	HUMIDITY	Weather	11	14	[0, 0, 0]	n/a	catFR1	1	R1135E
1892.028	1.616	1892275	WORD	n/a	wordpools/wordpool_categorized_EN.txt	THUNDER	Weather	12	14	[0, 0, 0]	n/a	catFR1	1	R1135E
1893.644	0.001	1893891	DISTRACT_START	n/a	n/a	n/a	n/a	-999	14	[0, 0, 0]	n/a	catFR1	1	R1135E
1893.645	0.016	1893892	START	n/a	n/a	n/a	n/a	-999	14	[-999, -999, -999]	n/a	catFR1	1	R1135E
1893.661	14.32	1893908	PROB	14.32	n/a	n/a	n/a	-999	14	[9, 8, 7]	23	catFR1	1	R1135E
1907.981	11.778	1908227	PROB	11.778	n/a	n/a	n/a	-999	14	[9, 4, 5]	18	catFR1	1	R1135E
1919.759	0.007	1920004	STOP	n/a	n/a	n/a	n/a	-999	14	[-999, -999, -999]	n/a	catFR1	1	R1135E
1919.766	1.117	1920011	DISTRACT_END	n/a	n/a	n/a	n/a	-999	14	[0, 0, 0]	n/a	catFR1	1	R1135E
1920.883	2.444	1921128	REC_START	n/a	n/a	n/a	n/a	-999	14	[0, 0, 0]	n/a	catFR1	1	R1135E
1923.327	1.201	1923572	REC_WORD	1.201	n/a	TOASTER	Appliances	10	14	[0, 0, 0]	n/a	catFR1	1	R1135E
1924.528	1.509	1924773	REC_WORD	1.509	n/a	MIXER	Appliances	2	14	[0, 0, 0]	n/a	catFR1	1	R1135E
1926.037	2.627	1926282	REC_WORD	2.627	n/a	STOVE	Appliances	1	14	[0, 0, 0]	n/a	catFR1	1	R1135E
1928.664	13.052	1928908	REC_WORD	13.052	n/a	DRUM	Instruments	3	14	[0, 0, 0]	n/a	catFR1	1	R1135E
1941.716	8.716	1941959	REC_WORD	8.716	n/a	THUNDER	Weather	12	14	[0, 0, 0]	n/a	catFR1	1	R1135E
1950.432	0.461	1950675	REC_WORD	0.461	n/a	TRUMPET	Instruments	4	14	[0, 0, 0]	n/a	catFR1	1	R1135E
1950.893	2.245	1951136	REC_END	n/a	n/a	n/a	n/a	-999	14	[0, 0, 0]	n/a	catFR1	1	R1135E
1953.138	0.0	1953381	TRIAL	n/a	n/a	n/a	n/a	-999	15	[0, 0, 0]	n/a	catFR1	1	R1135E
1953.138	10.428	1953381	COUNTDOWN_START	n/a	n/a	n/a	n/a	-999	15	[0, 0, 0]	n/a	catFR1	1	R1135E
1963.566	0.007	1963808	COUNTDOWN_END	n/a	n/a	n/a	n/a	-999	15	[0, 0, 0]	n/a	catFR1	1	R1135E
1963.573	3.917	1963815	ORIENT	n/a	n/a	n/a	n/a	-999	15	[0, 0, 0]	n/a	catFR1	1	R1135E
1967.49	2.434	1967732	WORD	n/a	wordpools/wordpool_categorized_EN.txt	CELERY	Vegetables	1	15	[0, 0, 0]	n/a	catFR1	1	R1135E
1969.924	2.467	1970166	WORD	n/a	wordpools/wordpool_categorized_EN.txt	CAULIFLOWER	Vegetables	2	15	[0, 0, 0]	n/a	catFR1	1	R1135E
1972.391	2.602	1972632	WORD	n/a	wordpools/wordpool_categorized_EN.txt	LIGHTNING	Weather	3	15	[0, 0, 0]	n/a	catFR1	1	R1135E
1974.993	2.583	1975234	WORD	n/a	wordpools/wordpool_categorized_EN.txt	RAIN	Weather	4	15	[0, 0, 0]	n/a	catFR1	1	R1135E
1977.576	2.55	1977817	WORD	n/a	wordpools/wordpool_categorized_EN.txt	DRILL	Tools	5	15	[0, 0, 0]	n/a	catFR1	1	R1135E
1980.126	2.567	1980367	WORD	n/a	wordpools/wordpool_categorized_EN.txt	SANDER	Tools	6	15	[0, 0, 0]	n/a	catFR1	1	R1135E
1982.693	2.584	1982934	WORD	n/a	wordpools/wordpool_categorized_EN.txt	POTATO	Vegetables	7	15	[0, 0, 0]	n/a	catFR1	1	R1135E
1985.277	2.384	1985518	WORD	n/a	wordpools/wordpool_categorized_EN.txt	PEAS	Vegetables	8	15	[0, 0, 0]	n/a	catFR1	1	R1135E
1987.661	2.4	1987901	WORD	n/a	wordpools/wordpool_categorized_EN.txt	SHOVEL	Tools	9	15	[0, 0, 0]	n/a	catFR1	1	R1135E
1990.061	2.417	1990301	WORD	n/a	wordpools/wordpool_categorized_EN.txt	SCREWDRIVER	Tools	10	15	[0, 0, 0]	n/a	catFR1	1	R1135E
1992.478	2.534	1992718	WORD	n/a	wordpools/wordpool_categorized_EN.txt	DRIZZLE	Weather	11	15	[0, 0, 0]	n/a	catFR1	1	R1135E
1995.012	1.617	1995252	WORD	n/a	wordpools/wordpool_categorized_EN.txt	HURRICANE	Weather	12	15	[0, 0, 0]	n/a	catFR1	1	R1135E
1996.629	0.001	1996869	DISTRACT_START	n/a	n/a	n/a	n/a	-999	15	[0, 0, 0]	n/a	catFR1	1	R1135E
1996.63	0.016	1996870	START	n/a	n/a	n/a	n/a	-999	15	[-999, -999, -999]	n/a	catFR1	1	R1135E
1996.646	4.167	1996886	PROB	4.167	n/a	n/a	n/a	-999	15	[1, 4, 4]	9	catFR1	1	R1135E
2000.813	11.685	2001052	PROB	11.685	n/a	n/a	n/a	-999	15	[9, 6, 3]	18	catFR1	1	R1135E
2012.498	10.782	2012737	PROB	10.782	n/a	n/a	n/a	-999	15	[4, 5, 9]	18	catFR1	1	R1135E
2023.28	0.003	2023518	STOP	n/a	n/a	n/a	n/a	-999	15	[-999, -999, -999]	n/a	catFR1	1	R1135E
2023.283	1.151	2023521	DISTRACT_END	n/a	n/a	n/a	n/a	-999	15	[0, 0, 0]	n/a	catFR1	1	R1135E
2024.434	1.713	2024672	REC_START	n/a	n/a	n/a	n/a	-999	15	[0, 0, 0]	n/a	catFR1	1	R1135E
2026.147	2.534	2026385	REC_WORD	2.534	n/a	SCREWDRIVER	Tools	10	15	[0, 0, 0]	n/a	catFR1	1	R1135E
2028.681	5.871	2028919	REC_WORD_VV	5.871	n/a	<>	n/a	-999	15	[0, 0, 0]	n/a	catFR1	1	R1135E
2034.552	3.638	2034789	REC_WORD_VV	3.638	n/a	<>	n/a	-999	15	[0, 0, 0]	n/a	catFR1	1	R1135E
2038.19	7.178	2038427	REC_WORD	7.178	n/a	DRUM	n/a	-999	15	[0, 0, 0]	n/a	catFR1	1	R1135E
2045.368	3.791	2045604	REC_WORD	3.791	n/a	CAULIFLOWER	Vegetables	2	15	[0, 0, 0]	n/a	catFR1	1	R1135E
2049.159	5.288	2049395	REC_WORD	5.288	n/a	RAIN	Weather	4	15	[0, 0, 0]	n/a	catFR1	1	R1135E
2054.447	1.742	2054683	REC_END	n/a	n/a	n/a	n/a	-999	15	[0, 0, 0]	n/a	catFR1	1	R1135E
2056.189	0.001	2056425	COUNTDOWN_START	n/a	n/a	n/a	n/a	-999	16	[0, 0, 0]	n/a	catFR1	1	R1135E
2056.19	10.427	2056426	TRIAL	n/a	n/a	n/a	n/a	-999	16	[0, 0, 0]	n/a	catFR1	1	R1135E
2066.617	0.008	2066852	COUNTDOWN_END	n/a	n/a	n/a	n/a	-999	16	[0, 0, 0]	n/a	catFR1	1	R1135E
2066.625	3.8	2066860	ORIENT	n/a	n/a	n/a	n/a	-999	16	[0, 0, 0]	n/a	catFR1	1	R1135E
2070.425	2.517	2070660	WORD	n/a	wordpools/wordpool_categorized_EN.txt	HEN	FarmAnimals	1	16	[0, 0, 0]	n/a	catFR1	1	R1135E
2072.942	2.417	2073177	WORD	n/a	wordpools/wordpool_categorized_EN.txt	HORSE	FarmAnimals	2	16	[0, 0, 0]	n/a	catFR1	1	R1135E
2075.359	2.451	2075593	WORD	n/a	wordpools/wordpool_categorized_EN.txt	LETTUCE	Vegetables	3	16	[0, 0, 0]	n/a	catFR1	1	R1135E
2077.81	2.467	2078044	WORD	n/a	wordpools/wordpool_categorized_EN.txt	CABBAGE	Vegetables	4	16	[0, 0, 0]	n/a	catFR1	1	R1135E
2080.277	2.6	2080511	WORD	n/a	wordpools/wordpool_categorized_EN.txt	FOOT	BodyParts	5	16	[0, 0, 0]	n/a	catFR1	1	R1135E
2082.877	2.601	2083111	WORD	n/a	wordpools/wordpool_categorized_EN.txt	HEAD	BodyParts	6	16	[0, 0, 0]	n/a	catFR1	1	R1135E
2085.478	2.485	2085712	WORD	n/a	wordpools/wordpool_categorized_EN.txt	GOAT	FarmAnimals	7	16	[0, 0, 0]	n/a	catFR1	1	R1135E
2087.963	2.416	2088197	WORD	n/a	wordpools/wordpool_categorized_EN.txt	TURKEY	FarmAnimals	8	16	[0, 0, 0]	n/a	catFR1	1	R1135E
2090.379	2.5	2090612	WORD	n/a	wordpools/wordpool_categorized_EN.txt	TOE	BodyParts	9	16	[0, 0, 0]	n/a	catFR1	1	R1135E
2092.879	2.384	2093112	WORD	n/a	wordpools/wordpool_categorized_EN.txt	EYE	BodyParts	10	16	[0, 0, 0]	n/a	catFR1	1	R1135E
2095.263	2.467	2095496	WORD	n/a	wordpools/wordpool_categorized_EN.txt	CARROT	Vegetables	11	16	[0, 0, 0]	n/a	catFR1	1	R1135E
2097.73	1.617	2097963	WORD	n/a	wordpools/wordpool_categorized_EN.txt	BROCCOLI	Vegetables	12	16	[0, 0, 0]	n/a	catFR1	1	R1135E
2099.347	0.001	2099580	DISTRACT_START	n/a	n/a	n/a	n/a	-999	16	[0, 0, 0]	n/a	catFR1	1	R1135E
2099.348	0.016	2099581	START	n/a	n/a	n/a	n/a	-999	16	[-999, -999, -999]	n/a	catFR1	1	R1135E
2099.364	15.769	2099597	PROB	15.769	n/a	n/a	n/a	-999	16	[8, 6, 7]	21	catFR1	1	R1135E
2115.133	13.912	2115365	PROB	13.912	n/a	n/a	n/a	-999	16	[5, 8, 5]	18	catFR1	1	R1135E
2129.045	0.007	2129276	STOP	n/a	n/a	n/a	n/a	-999	16	[-999, -999, -999]	n/a	catFR1	1	R1135E
2129.052	1.068	2129283	DISTRACT_END	n/a	n/a	n/a	n/a	-999	16	[0, 0, 0]	n/a	catFR1	1	R1135E
2130.12	3.374	2130351	REC_START	n/a	n/a	n/a	n/a	-999	16	[0, 0, 0]	n/a	catFR1	1	R1135E
2133.494	4.575	2133724	REC_WORD	4.575	n/a	EYE	BodyParts	10	16	[0, 0, 0]	n/a	catFR1	1	R1135E
2138.069	7.249	2138299	REC_WORD	7.249	n/a	TOE	BodyParts	9	16	[0, 0, 0]	n/a	catFR1	1	R1135E
2145.318	14.811	2145548	REC_WORD	14.811	n/a	CABBAGE	Vegetables	4	16	[0, 0, 0]	n/a	catFR1	1	R1135E
2160.129	2.146	2160358	REC_END	n/a	n/a	n/a	n/a	-999	16	[0, 0, 0]	n/a	catFR1	1	R1135E
2162.275	0.0	2162504	COUNTDOWN_START	n/a	n/a	n/a	n/a	-999	17	[0, 0, 0]	n/a	catFR1	1	R1135E
2162.275	10.428	2162504	TRIAL	n/a	n/a	n/a	n/a	-999	17	[0, 0, 0]	n/a	catFR1	1	R1135E
2172.703	0.007	2172931	COUNTDOWN_END	n/a	n/a	n/a	n/a	-999	17	[0, 0, 0]	n/a	catFR1	1	R1135E
2172.71	3.717	2172938	ORIENT	n/a	n/a	n/a	n/a	-999	17	[0, 0, 0]	n/a	catFR1	1	R1135E
2176.427	2.484	2176655	WORD	n/a	wordpools/wordpool_categorized_EN.txt	BEE	Insects	1	17	[0, 0, 0]	n/a	catFR1	1	R1135E
2178.911	2.517	2179138	WORD	n/a	wordpools/wordpool_categorized_EN.txt	MOTH	Insects	2	17	[0, 0, 0]	n/a	catFR1	1	R1135E
2181.428	2.384	2181655	WORD	n/a	wordpools/wordpool_categorized_EN.txt	BINDER	OfficeSupplies	3	17	[0, 0, 0]	n/a	catFR1	1	R1135E
2183.812	2.5	2184039	WORD	n/a	wordpools/wordpool_categorized_EN.txt	STAPLER	OfficeSupplies	4	17	[0, 0, 0]	n/a	catFR1	1	R1135E
2186.312	2.451	2186539	WORD	n/a	wordpools/wordpool_categorized_EN.txt	ROOF	Building	5	17	[0, 0, 0]	n/a	catFR1	1	R1135E
2188.763	2.533	2188990	WORD	n/a	wordpools/wordpool_categorized_EN.txt	WINDOW	Building	6	17	[0, 0, 0]	n/a	catFR1	1	R1135E
2191.296	2.484	2191523	WORD	n/a	wordpools/wordpool_categorized_EN.txt	ANT	Insects	7	17	[0, 0, 0]	n/a	catFR1	1	R1135E
2193.78	2.567	2194006	WORD	n/a	wordpools/wordpool_categorized_EN.txt	ROACH	Insects	8	17	[0, 0, 0]	n/a	catFR1	1	R1135E
2196.347	2.534	2196573	WORD	n/a	wordpools/wordpool_categorized_EN.txt	FLOOR	Building	9	17	[0, 0, 0]	n/a	catFR1	1	R1135E
2198.881	2.634	2199107	WORD	n/a	wordpools/wordpool_categorized_EN.txt	CEILING	Building	10	17	[0, 0, 0]	n/a	catFR1	1	R1135E
2201.515	2.584	2201741	WORD	n/a	wordpools/wordpool_categorized_EN.txt	PAPER	OfficeSupplies	11	17	[0, 0, 0]	n/a	catFR1	1	R1135E
2204.099	1.616	2204325	WORD	n/a	wordpools/wordpool_categorized_EN.txt	PENCIL	OfficeSupplies	12	17	[0, 0, 0]	n/a	catFR1	1	R1135E
2205.715	0.001	2205941	DISTRACT_START	n/a	n/a	n/a	n/a	-999	17	[0, 0, 0]	n/a	catFR1	1	R1135E
2205.716	0.016	2205942	START	n/a	n/a	n/a	n/a	-999	17	[-999, -999, -999]	n/a	catFR1	1	R1135E
2205.732	8.068	2205958	PROB	8.068	n/a	n/a	n/a	-999	17	[3, 4, 3]	10	catFR1	1	R1135E
2213.8	8.218	2214025	PROB	8.218	n/a	n/a	n/a	-999	17	[7, 1, 5]	13	catFR1	1	R1135E
2222.018	7.694	2222242	PROB	7.694	n/a	n/a	n/a	-999	17	[9, 9, 3]	21	catFR1	1	R1135E
2229.712	0.008	2229936	STOP	n/a	n/a	n/a	n/a	-999	17	[-999, -999, -999]	n/a	catFR1	1	R1135E
2229.72	1.034	2229944	DISTRACT_END	n/a	n/a	n/a	n/a	-999	17	[0, 0, 0]	n/a	catFR1	1	R1135E
2230.754	3.502	2230978	REC_START	n/a	n/a	n/a	n/a	-999	17	[0, 0, 0]	n/a	catFR1	1	R1135E
2234.256	26.507	2234480	REC_WORD	26.507	n/a	BLENDER	n/a	-999	17	[0, 0, 0]	n/a	catFR1	1	R1135E
2260.763	1.729	2260985	REC_END	n/a	n/a	n/a	n/a	-999	17	[0, 0, 0]	n/a	catFR1	1	R1135E
2262.492	0.0	2262714	TRIAL	n/a	n/a	n/a	n/a	-999	18	[0, 0, 0]	n/a	catFR1	1	R1135E
2262.492	10.428	2262714	COUNTDOWN_START	n/a	n/a	n/a	n/a	-999	18	[0, 0, 0]	n/a	catFR1	1	R1135E
2272.92	0.007	2273141	COUNTDOWN_END	n/a	n/a	n/a	n/a	-999	18	[0, 0, 0]	n/a	catFR1	1	R1135E
2272.927	3.768	2273148	ORIENT	n/a	n/a	n/a	n/a	-999	18	[0, 0, 0]	n/a	catFR1	1	R1135E
2276.695	2.533	2276916	WORD	n/a	wordpools/wordpool_categorized_EN.txt	BIKE	Vehicles	1	18	[0, 0, 0]	n/a	catFR1	1	R1135E
2279.228	2.551	2279449	WORD	n/a	wordpools/wordpool_categorized_EN.txt	CAR	Vehicles	2	18	[0, 0, 0]	n/a	catFR1	1	R1135E
2281.779	2.6	2281999	WORD	n/a	wordpools/wordpool_categorized_EN.txt	TURTLE	OceanAnimals	3	18	[0, 0, 0]	n/a	catFR1	1	R1135E
2284.379	2.367	2284599	WORD	n/a	wordpools/wordpool_categorized_EN.txt	OYSTER	OceanAnimals	4	18	[0, 0, 0]	n/a	catFR1	1	R1135E
2286.746	2.551	2286966	WORD	n/a	wordpools/wordpool_categorized_EN.txt	SHELF	Furniture	5	18	[0, 0, 0]	n/a	catFR1	1	R1135E
2289.297	2.55	2289517	WORD	n/a	wordpools/wordpool_categorized_EN.txt	TABLE	Furniture	6	18	[0, 0, 0]	n/a	catFR1	1	R1135E
2291.847	2.4	2292067	WORD	n/a	wordpools/wordpool_categorized_EN.txt	WHALE	OceanAnimals	7	18	[0, 0, 0]	n/a	catFR1	1	R1135E
2294.247	2.435	2294467	WORD	n/a	wordpools/wordpool_categorized_EN.txt	DOLPHIN	OceanAnimals	8	18	[0, 0, 0]	n/a	catFR1	1	R1135E
2296.682	2.533	2296901	WORD	n/a	wordpools/wordpool_categorized_EN.txt	BUS	Vehicles	9	18	[0, 0, 0]	n/a	catFR1	1	R1135E
2299.215	2.601	2299434	WORD	n/a	wordpools/wordpool_categorized_EN.txt	TRAIN	Vehicles	10	18	[0, 0, 0]	n/a	catFR1	1	R1135E
2301.816	2.383	2302035	WORD	n/a	wordpools/wordpool_categorized_EN.txt	CHAIR	Furniture	11	18	[0, 0, 0]	n/a	catFR1	1	R1135E
2304.199	1.617	2304418	WORD	n/a	wordpools/wordpool_categorized_EN.txt	COUCH	Furniture	12	18	[0, 0, 0]	n/a	catFR1	1	R1135E
2305.816	0.001	2306035	DISTRACT_START	n/a	n/a	n/a	n/a	-999	18	[0, 0, 0]	n/a	catFR1	1	R1135E
2305.817	0.016	2306036	START	n/a	n/a	n/a	n/a	-999	18	[-999, -999, -999]	n/a	catFR1	1	R1135E
2305.833	12.286	2306052	PROB	12.286	n/a	n/a	n/a	-999	18	[9, 7, 4]	20	catFR1	1	R1135E
2318.119	7.708	2318337	PROB	7.708	n/a	n/a	n/a	-999	18	[1, 8, 5]	14	catFR1	1	R1135E
2325.827	0.01	2326044	STOP	n/a	n/a	n/a	n/a	-999	18	[-999, -999, -999]	n/a	catFR1	1	R1135E
2325.837	1.217	2326054	DISTRACT_END	n/a	n/a	n/a	n/a	-999	18	[0, 0, 0]	n/a	catFR1	1	R1135E
2327.054	2.936	2327271	REC_START	n/a	n/a	n/a	n/a	-999	18	[0, 0, 0]	n/a	catFR1	1	R1135E
2329.99	1.631	2330207	REC_WORD	1.631	n/a	BUS	Vehicles	9	18	[0, 0, 0]	n/a	catFR1	1	R1135E
2331.621	11.997	2331838	REC_WORD	11.997	n/a	CAR	Vehicles	2	18	[0, 0, 0]	n/a	catFR1	1	R1135E
2343.618	13.446	2343834	REC_WORD	13.446	n/a	TRAIN	Vehicles	10	18	[0, 0, 0]	n/a	catFR1	1	R1135E
2357.064	2.295	2357279	REC_END	n/a	n/a	n/a	n/a	-999	18	[0, 0, 0]	n/a	catFR1	1	R1135E
2359.359	0.0	2359574	TRIAL	n/a	n/a	n/a	n/a	-999	19	[0, 0, 0]	n/a	catFR1	1	R1135E
2359.359	10.428	2359574	COUNTDOWN_START	n/a	n/a	n/a	n/a	-999	19	[0, 0, 0]	n/a	catFR1	1	R1135E
2369.787	0.007	2370001	COUNTDOWN_END	n/a	n/a	n/a	n/a	-999	19	[0, 0, 0]	n/a	catFR1	1	R1135E
2369.794	3.651	2370008	ORIENT	n/a	n/a	n/a	n/a	-999	19	[0, 0, 0]	n/a	catFR1	1	R1135E
2373.445	2.617	2373659	WORD	n/a	wordpools/wordpool_categorized_EN.txt	TELEVISION	Electronics	1	19	[0, 0, 0]	n/a	catFR1	1	R1135E
2376.062	2.551	2376276	WORD	n/a	wordpools/wordpool_categorized_EN.txt	SCANNER	Electronics	2	19	[0, 0, 0]	n/a	catFR1	1	R1135E
2378.613	2.567	2378827	WORD	n/a	wordpools/wordpool_categorized_EN.txt	BEACH	Landscapes	3	19	[0, 0, 0]	n/a	catFR1	1	R1135E
2381.18	2.583	2381394	WORD	n/a	wordpools/wordpool_categorized_EN.txt	WOODS	Landscapes	4	19	[0, 0, 0]	n/a	catFR1	1	R1135E
2383.763	2.417	2383977	WORD	n/a	wordpools/wordpool_categorized_EN.txt	FINCH	Birds	5	19	[0, 0, 0]	n/a	catFR1	1	R1135E
2386.18	2.551	2386393	WORD	n/a	wordpools/wordpool_categorized_EN.txt	SEAGULL	Birds	6	19	[0, 0, 0]	n/a	catFR1	1	R1135E
2388.731	2.567	2388944	WORD	n/a	wordpools/wordpool_categorized_EN.txt	COMPUTER	Electronics	7	19	[0, 0, 0]	n/a	catFR1	1	R1135E
2391.298	2.434	2391511	WORD	n/a	wordpools/wordpool_categorized_EN.txt	CALCULATOR	Electronics	8	19	[0, 0, 0]	n/a	catFR1	1	R1135E
2393.732	2.434	2393945	WORD	n/a	wordpools/wordpool_categorized_EN.txt	DOVE	Birds	9	19	[0, 0, 0]	n/a	catFR1	1	R1135E
2396.166	2.583	2396379	WORD	n/a	wordpools/wordpool_categorized_EN.txt	CARDINAL	Birds	10	19	[0, 0, 0]	n/a	catFR1	1	R1135E
2398.749	2.384	2398961	WORD	n/a	wordpools/wordpool_categorized_EN.txt	LAKE	Landscapes	11	19	[0, 0, 0]	n/a	catFR1	1	R1135E
2401.133	1.617	2401345	WORD	n/a	wordpools/wordpool_categorized_EN.txt	HILLS	Landscapes	12	19	[0, 0, 0]	n/a	catFR1	1	R1135E
2402.75	0.001	2402962	DISTRACT_START	n/a	n/a	n/a	n/a	-999	19	[0, 0, 0]	n/a	catFR1	1	R1135E
2402.751	0.016	2402963	START	n/a	n/a	n/a	n/a	-999	19	[-999, -999, -999]	n/a	catFR1	1	R1135E
2402.767	9.801	2402979	PROB	9.801	n/a	n/a	n/a	-999	19	[6, 5, 6]	17	catFR1	1	R1135E
2412.568	7.885	2412780	PROB	7.885	n/a	n/a	n/a	-999	19	[4, 2, 9]	15	catFR1	1	R1135E
2420.453	5.565	2420664	PROB	5.565	n/a	n/a	n/a	-999	19	[3, 3, 2]	8	catFR1	1	R1135E
2426.018	0.02	2426229	STOP	n/a	n/a	n/a	n/a	-999	19	[-999, -999, -999]	n/a	catFR1	1	R1135E
2426.038	1.067	2426249	DISTRACT_END	n/a	n/a	n/a	n/a	-999	19	[0, 0, 0]	n/a	catFR1	1	R1135E
2427.105	2.359	2427316	REC_START	n/a	n/a	n/a	n/a	-999	19	[0, 0, 0]	n/a	catFR1	1	R1135E
2429.464	10.277	2429674	REC_WORD	10.277	n/a	SEAGULL	Birds	6	19	[0, 0, 0]	n/a	catFR1	1	R1135E
2439.741	9.857	2439951	REC_WORD	9.857	n/a	BEACH	Landscapes	3	19	[0, 0, 0]	n/a	catFR1	1	R1135E
2449.598	4.348	2449807	REC_WORD	4.348	n/a	CALCULATOR	Electronics	8	19	[0, 0, 0]	n/a	catFR1	1	R1135E
2453.946	3.169	2454155	REC_WORD	3.169	n/a	COMPUTER	Electronics	7	19	[0, 0, 0]	n/a	catFR1	1	R1135E
2457.115	2.412	2457324	REC_END	n/a	n/a	n/a	n/a	-999	19	[0, 0, 0]	n/a	catFR1	1	R1135E
2459.527	0.0	2459735	TRIAL	n/a	n/a	n/a	n/a	-999	20	[0, 0, 0]	n/a	catFR1	1	R1135E
2459.527	10.428	2459735	COUNTDOWN_START	n/a	n/a	n/a	n/a	-999	20	[0, 0, 0]	n/a	catFR1	1	R1135E
2469.955	0.008	2470163	COUNTDOWN_END	n/a	n/a	n/a	n/a	-999	20	[0, 0, 0]	n/a	catFR1	1	R1135E
2469.963	3.649	2470171	ORIENT	n/a	n/a	n/a	n/a	-999	20	[0, 0, 0]	n/a	catFR1	1	R1135E
2473.612	2.518	2473819	WORD	n/a	wordpools/wordpool_categorized_EN.txt	GRAPE	Fruit	1	20	[0, 0, 0]	n/a	catFR1	1	R1135E
2476.13	2.55	2476337	WORD	n/a	wordpools/wordpool_categorized_EN.txt	PEACH	Fruit	2	20	[0, 0, 0]	n/a	catFR1	1	R1135E
2478.68	2.617	2478887	WORD	n/a	wordpools/wordpool_categorized_EN.txt	FREEZER	Appliances	3	20	[0, 0, 0]	n/a	catFR1	1	R1135E
2481.297	2.617	2481504	WORD	n/a	wordpools/wordpool_categorized_EN.txt	VACUUM	Appliances	4	20	[0, 0, 0]	n/a	catFR1	1	R1135E
2483.914	2.551	2484121	WORD	n/a	wordpools/wordpool_categorized_EN.txt	RECLINER	Furniture	5	20	[0, 0, 0]	n/a	catFR1	1	R1135E
2486.465	2.433	2486672	WORD	n/a	wordpools/wordpool_categorized_EN.txt	NIGHTSTAND	Furniture	6	20	[0, 0, 0]	n/a	catFR1	1	R1135E
2488.898	2.584	2489104	WORD	n/a	wordpools/wordpool_categorized_EN.txt	LIME	Fruit	7	20	[0, 0, 0]	n/a	catFR1	1	R1135E
2491.482	2.567	2491688	WORD	n/a	wordpools/wordpool_categorized_EN.txt	BLUEBERRY	Fruit	8	20	[0, 0, 0]	n/a	catFR1	1	R1135E
2494.049	2.534	2494255	WORD	n/a	wordpools/wordpool_categorized_EN.txt	DRESSER	Furniture	9	20	[0, 0, 0]	n/a	catFR1	1	R1135E
2496.583	2.551	2496789	WORD	n/a	wordpools/wordpool_categorized_EN.txt	BED	Furniture	10	20	[0, 0, 0]	n/a	catFR1	1	R1135E
2499.134	2.467	2499340	WORD	n/a	wordpools/wordpool_categorized_EN.txt	REFRIGERATOR	Appliances	11	20	[0, 0, 0]	n/a	catFR1	1	R1135E
2501.601	1.617	2501807	WORD	n/a	wordpools/wordpool_categorized_EN.txt	IRON	Appliances	12	20	[0, 0, 0]	n/a	catFR1	1	R1135E
2503.218	0.0	2503423	DISTRACT_START	n/a	n/a	n/a	n/a	-999	20	[0, 0, 0]	n/a	catFR1	1	R1135E
2503.218	0.016	2503423	START	n/a	n/a	n/a	n/a	-999	20	[-999, -999, -999]	n/a	catFR1	1	R1135E
2503.234	11.569	2503439	PROB	11.569	n/a	n/a	n/a	-999	20	[6, 4, 4]	14	catFR1	1	R1135E
2514.803	12.822	2515008	PROB	12.822	n/a	n/a	n/a	-999	20	[5, 8, 6]	19	catFR1	1	R1135E
2527.625	0.014	2527829	STOP	n/a	n/a	n/a	n/a	-999	20	[-999, -999, -999]	n/a	catFR1	1	R1135E
2527.639	1.184	2527843	DISTRACT_END	n/a	n/a	n/a	n/a	-999	20	[0, 0, 0]	n/a	catFR1	1	R1135E
2528.823	10.394	2529027	REC_START	n/a	n/a	n/a	n/a	-999	20	[0, 0, 0]	n/a	catFR1	1	R1135E
2539.217	8.415	2539420	REC_WORD	8.415	n/a	SEAGULL	n/a	-999	20	[0, 0, 0]	n/a	catFR1	1	R1135E
2547.632	10.565	2547834	REC_WORD	10.565	n/a	REFRIGERATOR	Appliances	11	20	[0, 0, 0]	n/a	catFR1	1	R1135E
2558.197	0.636	2558399	REC_WORD	0.636	n/a	RECLINER	Furniture	5	20	[0, 0, 0]	n/a	catFR1	1	R1135E
2558.833	2.045	2559035	REC_END	n/a	n/a	n/a	n/a	-999	20	[0, 0, 0]	n/a	catFR1	1	R1135E
2560.878	0.0	2561079	COUNTDOWN_START	n/a	n/a	n/a	n/a	-999	21	[0, 0, 0]	n/a	catFR1	1	R1135E
2560.878	10.428	2561079	TRIAL	n/a	n/a	n/a	n/a	-999	21	[0, 0, 0]	n/a	catFR1	1	R1135E
2571.306	0.007	2571507	COUNTDOWN_END	n/a	n/a	n/a	n/a	-999	21	[0, 0, 0]	n/a	catFR1	1	R1135E
2571.313	3.851	2571514	ORIENT	n/a	n/a	n/a	n/a	-999	21	[0, 0, 0]	n/a	catFR1	1	R1135E
2575.164	2.483	2575365	WORD	n/a	wordpools/wordpool_categorized_EN.txt	FISH	OceanAnimals	1	21	[0, 0, 0]	n/a	catFR1	1	R1135E
2577.647	2.401	2577847	WORD	n/a	wordpools/wordpool_categorized_EN.txt	SHRIMP	OceanAnimals	2	21	[0, 0, 0]	n/a	catFR1	1	R1135E
2580.048	2.5	2580248	WORD	n/a	wordpools/wordpool_categorized_EN.txt	TULIP	Flowers	3	21	[0, 0, 0]	n/a	catFR1	1	R1135E
2582.548	2.517	2582748	WORD	n/a	wordpools/wordpool_categorized_EN.txt	ORCHID	Flowers	4	21	[0, 0, 0]	n/a	catFR1	1	R1135E
2585.065	2.434	2585265	WORD	n/a	wordpools/wordpool_categorized_EN.txt	CHEESECAKE	Desserts	5	21	[0, 0, 0]	n/a	catFR1	1	R1135E
2587.499	2.417	2587699	WORD	n/a	wordpools/wordpool_categorized_EN.txt	CAKE	Desserts	6	21	[0, 0, 0]	n/a	catFR1	1	R1135E
2589.916	2.484	2590116	WORD	n/a	wordpools/wordpool_categorized_EN.txt	ROSE	Flowers	7	21	[0, 0, 0]	n/a	catFR1	1	R1135E
2592.4	2.6	2592599	WORD	n/a	wordpools/wordpool_categorized_EN.txt	PETUNIA	Flowers	8	21	[0, 0, 0]	n/a	catFR1	1	R1135E
2595.0	2.601	2595199	WORD	n/a	wordpools/wordpool_categorized_EN.txt	SQUID	OceanAnimals	9	21	[0, 0, 0]	n/a	catFR1	1	R1135E
2597.601	2.484	2597800	WORD	n/a	wordpools/wordpool_categorized_EN.txt	CRAB	OceanAnimals	10	21	[0, 0, 0]	n/a	catFR1	1	R1135E
2600.085	2.517	2600284	WORD	n/a	wordpools/wordpool_categorized_EN.txt	PIE	Desserts	11	21	[0, 0, 0]	n/a	catFR1	1	R1135E
2602.602	1.617	2602801	WORD	n/a	wordpools/wordpool_categorized_EN.txt	FUDGE	Desserts	12	21	[0, 0, 0]	n/a	catFR1	1	R1135E
2604.219	0.0	2604418	DISTRACT_START	n/a	n/a	n/a	n/a	-999	21	[0, 0, 0]	n/a	catFR1	1	R1135E
2604.219	0.016	2604418	START	n/a	n/a	n/a	n/a	-999	21	[-999, -999, -999]	n/a	catFR1	1	R1135E
2604.235	10.753	2604434	PROB	10.753	n/a	n/a	n/a	-999	21	[5, 2, 9]	16	catFR1	1	R1135E
2614.988	6.55	2615186	PROB	6.55	n/a	n/a	n/a	-999	21	[6, 3, 2]	11	catFR1	1	R1135E
2621.538	4.861	2621735	PROB	4.861	n/a	n/a	n/a	-999	21	[2, 3, 3]	8	catFR1	1	R1135E
2626.399	0.007	2626596	STOP	n/a	n/a	n/a	n/a	-999	21	[-999, -999, -999]	n/a	catFR1	1	R1135E
2626.406	1.101	2626603	DISTRACT_END	n/a	n/a	n/a	n/a	-999	21	[0, 0, 0]	n/a	catFR1	1	R1135E
2627.507	3.502	2627704	REC_START	n/a	n/a	n/a	n/a	-999	21	[0, 0, 0]	n/a	catFR1	1	R1135E
2631.009	1.569	2631206	REC_WORD	1.569	n/a	CRAB	OceanAnimals	10	21	[0, 0, 0]	n/a	catFR1	1	R1135E
2632.578	13.797	2632775	REC_WORD	13.797	n/a	SQUID	OceanAnimals	9	21	[0, 0, 0]	n/a	catFR1	1	R1135E
2646.375	11.141	2646571	REC_WORD	11.141	n/a	SEAGULL	n/a	-999	21	[0, 0, 0]	n/a	catFR1	1	R1135E
2657.516	2.429	2657711	REC_END	n/a	n/a	n/a	n/a	-999	21	[0, 0, 0]	n/a	catFR1	1	R1135E
2659.945	0.0	2660140	TRIAL	n/a	n/a	n/a	n/a	-999	22	[0, 0, 0]	n/a	catFR1	1	R1135E
2659.945	10.428	2660140	COUNTDOWN_START	n/a	n/a	n/a	n/a	-999	22	[0, 0, 0]	n/a	catFR1	1	R1135E
2670.373	0.007	2670567	COUNTDOWN_END	n/a	n/a	n/a	n/a	-999	22	[0, 0, 0]	n/a	catFR1	1	R1135E
2670.38	3.468	2670574	ORIENT	n/a	n/a	n/a	n/a	-999	22	[0, 0, 0]	n/a	catFR1	1	R1135E
2673.848	2.567	2674042	WORD	n/a	wordpools/wordpool_categorized_EN.txt	PEN	OfficeSupplies	1	22	[0, 0, 0]	n/a	catFR1	1	R1135E
2676.415	2.483	2676609	WORD	n/a	wordpools/wordpool_categorized_EN.txt	TAPE	OfficeSupplies	2	22	[0, 0, 0]	n/a	catFR1	1	R1135E
2678.898	2.568	2679091	WORD	n/a	wordpools/wordpool_categorized_EN.txt	OAK	Trees	3	22	[0, 0, 0]	n/a	catFR1	1	R1135E
2681.466	2.6	2681659	WORD	n/a	wordpools/wordpool_categorized_EN.txt	BIRCH	Trees	4	22	[0, 0, 0]	n/a	catFR1	1	R1135E
2684.066	2.567	2684259	WORD	n/a	wordpools/wordpool_categorized_EN.txt	JELLYFISH	OceanAnimals	5	22	[0, 0, 0]	n/a	catFR1	1	R1135E
2686.633	2.584	2686826	WORD	n/a	wordpools/wordpool_categorized_EN.txt	PLANKTON	OceanAnimals	6	22	[0, 0, 0]	n/a	catFR1	1	R1135E
2689.217	2.517	2689410	WORD	n/a	wordpools/wordpool_categorized_EN.txt	SPRUCE	Trees	7	22	[0, 0, 0]	n/a	catFR1	1	R1135E
2691.734	2.617	2691927	WORD	n/a	wordpools/wordpool_categorized_EN.txt	EVERGREEN	Trees	8	22	[0, 0, 0]	n/a	catFR1	1	R1135E
2694.351	2.434	2694543	WORD	n/a	wordpools/wordpool_categorized_EN.txt	GLUE	OfficeSupplies	9	22	[0, 0, 0]	n/a	catFR1	1	R1135E
2696.785	2.417	2696977	WORD	n/a	wordpools/wordpool_categorized_EN.txt	MARKER	OfficeSupplies	10	22	[0, 0, 0]	n/a	catFR1	1	R1135E
2699.202	2.584	2699394	WORD	n/a	wordpools/wordpool_categorized_EN.txt	OCTOPUS	OceanAnimals	11	22	[0, 0, 0]	n/a	catFR1	1	R1135E
2701.786	1.617	2701978	WORD	n/a	wordpools/wordpool_categorized_EN.txt	LOBSTER	OceanAnimals	12	22	[0, 0, 0]	n/a	catFR1	1	R1135E
2703.403	0.001	2703595	DISTRACT_START	n/a	n/a	n/a	n/a	-999	22	[0, 0, 0]	n/a	catFR1	1	R1135E
2703.404	0.015	2703596	START	n/a	n/a	n/a	n/a	-999	22	[-999, -999, -999]	n/a	catFR1	1	R1135E
2703.419	6.501	2703611	PROB	6.501	n/a	n/a	n/a	-999	22	[4, 6, 1]	11	catFR1	1	R1135E
2709.92	13.78	2710111	PROB	13.78	n/a	n/a	n/a	-999	22	[8, 2, 7]	17	catFR1	1	R1135E
2723.7	0.006	2723890	STOP	n/a	n/a	n/a	n/a	-999	22	[-999, -999, -999]	n/a	catFR1	1	R1135E
2723.706	1.201	2723896	DISTRACT_END	n/a	n/a	n/a	n/a	-999	22	[0, 0, 0]	n/a	catFR1	1	R1135E
2724.907	5.914	2725097	REC_START	n/a	n/a	n/a	n/a	-999	22	[0, 0, 0]	n/a	catFR1	1	R1135E
2730.821	9.326	2731011	REC_WORD	9.326	n/a	OCTOPUS	OceanAnimals	11	22	[0, 0, 0]	n/a	catFR1	1	R1135E
2740.147	14.774	2740336	REC_WORD	14.774	n/a	CRAB	n/a	-999	22	[0, 0, 0]	n/a	catFR1	1	R1135E
2754.921	2.158	2755109	REC_END	n/a	n/a	n/a	n/a	-999	22	[0, 0, 0]	n/a	catFR1	1	R1135E
2757.079	0.0	2757267	TRIAL	n/a	n/a	n/a	n/a	-999	23	[0, 0, 0]	n/a	catFR1	1	R1135E
2757.079	10.428	2757267	COUNTDOWN_START	n/a	n/a	n/a	n/a	-999	23	[0, 0, 0]	n/a	catFR1	1	R1135E
2767.507	0.007	2767694	COUNTDOWN_END	n/a	n/a	n/a	n/a	-999	23	[0, 0, 0]	n/a	catFR1	1	R1135E
2767.514	3.917	2767701	ORIENT	n/a	n/a	n/a	n/a	-999	23	[0, 0, 0]	n/a	catFR1	1	R1135E
2771.431	2.584	2771618	WORD	n/a	wordpools/wordpool_categorized_EN.txt	ZEBRA	Zoo	1	23	[0, 0, 0]	n/a	catFR1	1	R1135E
2774.015	2.601	2774202	WORD	n/a	wordpools/wordpool_categorized_EN.txt	MONKEY	Zoo	2	23	[0, 0, 0]	n/a	catFR1	1	R1135E
2776.616	2.517	2776803	WORD	n/a	wordpools/wordpool_categorized_EN.txt	SCOOTER	Vehicles	3	23	[0, 0, 0]	n/a	catFR1	1	R1135E
2779.133	2.567	2779320	WORD	n/a	wordpools/wordpool_categorized_EN.txt	MOPED	Vehicles	4	23	[0, 0, 0]	n/a	catFR1	1	R1135E
2781.7	2.584	2781887	WORD	n/a	wordpools/wordpool_categorized_EN.txt	MOUNTAIN	Landscapes	5	23	[0, 0, 0]	n/a	catFR1	1	R1135E
2784.284	2.467	2784470	WORD	n/a	wordpools/wordpool_categorized_EN.txt	FOREST	Landscapes	6	23	[0, 0, 0]	n/a	catFR1	1	R1135E
2786.751	2.467	2786937	WORD	n/a	wordpools/wordpool_categorized_EN.txt	PLANE	Vehicles	7	23	[0, 0, 0]	n/a	catFR1	1	R1135E
2789.218	2.434	2789404	WORD	n/a	wordpools/wordpool_categorized_EN.txt	TRUCK	Vehicles	8	23	[0, 0, 0]	n/a	catFR1	1	R1135E
2791.652	2.483	2791838	WORD	n/a	wordpools/wordpool_categorized_EN.txt	ELEPHANT	Zoo	9	23	[0, 0, 0]	n/a	catFR1	1	R1135E
2794.135	2.467	2794321	WORD	n/a	wordpools/wordpool_categorized_EN.txt	GIRAFFE	Zoo	10	23	[0, 0, 0]	n/a	catFR1	1	R1135E
2796.602	2.534	2796788	WORD	n/a	wordpools/wordpool_categorized_EN.txt	VALLEY	Landscapes	11	23	[0, 0, 0]	n/a	catFR1	1	R1135E
2799.136	1.617	2799321	WORD	n/a	wordpools/wordpool_categorized_EN.txt	STREAM	Landscapes	12	23	[0, 0, 0]	n/a	catFR1	1	R1135E
2800.753	0.001	2800938	DISTRACT_START	n/a	n/a	n/a	n/a	-999	23	[0, 0, 0]	n/a	catFR1	1	R1135E
2800.754	0.016	2800939	START	n/a	n/a	n/a	n/a	-999	23	[-999, -999, -999]	n/a	catFR1	1	R1135E
2800.77	11.602	2800955	PROB	11.602	n/a	n/a	n/a	-999	23	[9, 6, 2]	17	catFR1	1	R1135E
2812.372	6.585	2812556	PROB	6.585	n/a	n/a	n/a	-999	23	[8, 8, 1]	17	catFR1	1	R1135E
2818.957	5.955	2819141	PROB	5.955	n/a	n/a	n/a	-999	23	[1, 2, 9]	12	catFR1	1	R1135E
2824.912	0.012	2825096	STOP	n/a	n/a	n/a	n/a	-999	23	[-999, -999, -999]	n/a	catFR1	1	R1135E
2824.924	1.068	2825108	DISTRACT_END	n/a	n/a	n/a	n/a	-999	23	[0, 0, 0]	n/a	catFR1	1	R1135E
2825.992	8.352	2826176	REC_START	n/a	n/a	n/a	n/a	-999	23	[0, 0, 0]	n/a	catFR1	1	R1135E
2834.344	6.179	2834527	REC_WORD	6.179	n/a	OCTOPUS	n/a	-999	23	[0, 0, 0]	n/a	catFR1	1	R1135E
2840.523	15.481	2840706	REC_WORD_VV	15.481	n/a	<>	n/a	-999	23	[0, 0, 0]	n/a	catFR1	1	R1135E
2856.004	2.176	2856185	REC_END	n/a	n/a	n/a	n/a	-999	23	[0, 0, 0]	n/a	catFR1	1	R1135E
2858.18	0.0	2858361	TRIAL	n/a	n/a	n/a	n/a	-999	24	[0, 0, 0]	n/a	catFR1	1	R1135E
2858.18	10.428	2858361	COUNTDOWN_START	n/a	n/a	n/a	n/a	-999	24	[0, 0, 0]	n/a	catFR1	1	R1135E
2868.608	0.007	2868789	COUNTDOWN_END	n/a	n/a	n/a	n/a	-999	24	[0, 0, 0]	n/a	catFR1	1	R1135E
2868.615	3.667	2868796	ORIENT	n/a	n/a	n/a	n/a	-999	24	[0, 0, 0]	n/a	catFR1	1	R1135E
2872.282	2.501	2872462	WORD	n/a	wordpools/wordpool_categorized_EN.txt	NOTEBOOK	OfficeSupplies	1	24	[0, 0, 0]	n/a	catFR1	1	R1135E
2874.783	2.417	2874963	WORD	n/a	wordpools/wordpool_categorized_EN.txt	RULER	OfficeSupplies	2	24	[0, 0, 0]	n/a	catFR1	1	R1135E
2877.2	2.584	2877380	WORD	n/a	wordpools/wordpool_categorized_EN.txt	JACKET	Clothing	3	24	[0, 0, 0]	n/a	catFR1	1	R1135E
2879.784	2.483	2879964	WORD	n/a	wordpools/wordpool_categorized_EN.txt	SKIRT	Clothing	4	24	[0, 0, 0]	n/a	catFR1	1	R1135E
2882.267	2.534	2882447	WORD	n/a	wordpools/wordpool_categorized_EN.txt	ORANGE	Fruit	5	24	[0, 0, 0]	n/a	catFR1	1	R1135E
2884.801	2.384	2884981	WORD	n/a	wordpools/wordpool_categorized_EN.txt	STRAWBERRY	Fruit	6	24	[0, 0, 0]	n/a	catFR1	1	R1135E
2887.185	2.567	2887364	WORD	n/a	wordpools/wordpool_categorized_EN.txt	ERASER	OfficeSupplies	7	24	[0, 0, 0]	n/a	catFR1	1	R1135E
2889.752	2.384	2889931	WORD	n/a	wordpools/wordpool_categorized_EN.txt	FOLDER	OfficeSupplies	8	24	[0, 0, 0]	n/a	catFR1	1	R1135E
2892.136	2.467	2892315	WORD	n/a	wordpools/wordpool_categorized_EN.txt	CHERRY	Fruit	9	24	[0, 0, 0]	n/a	catFR1	1	R1135E
2894.603	2.385	2894782	WORD	n/a	wordpools/wordpool_categorized_EN.txt	LEMON	Fruit	10	24	[0, 0, 0]	n/a	catFR1	1	R1135E
2896.988	2.599	2897167	WORD	n/a	wordpools/wordpool_categorized_EN.txt	BLOUSE	Clothing	11	24	[0, 0, 0]	n/a	catFR1	1	R1135E
2899.587	1.617	2899766	WORD	n/a	wordpools/wordpool_categorized_EN.txt	SHOES	Clothing	12	24	[0, 0, 0]	n/a	catFR1	1	R1135E
2901.204	0.001	2901382	DISTRACT_START	n/a	n/a	n/a	n/a	-999	24	[0, 0, 0]	n/a	catFR1	1	R1135E
2901.205	0.016	2901383	START	n/a	n/a	n/a	n/a	-999	24	[-999, -999, -999]	n/a	catFR1	1	R1135E
2901.221	3.884	2901399	PROB	3.884	n/a	n/a	n/a	-999	24	[1, 1, 1]	3	catFR1	1	R1135E
2905.105	7.068	2905283	PROB	7.068	n/a	n/a	n/a	-999	24	[8, 4, 2]	14	catFR1	1	R1135E
2912.173	4.834	2912351	PROB	4.834	n/a	n/a	n/a	-999	24	[4, 1, 2]	7	catFR1	1	R1135E
2917.007	6.79	2917184	PROB	6.79	n/a	n/a	n/a	-999	24	[1, 6, 5]	12	catFR1	1	R1135E
2923.797	0.011	2923974	STOP	n/a	n/a	n/a	n/a	-999	24	[-999, -999, -999]	n/a	catFR1	1	R1135E
2923.808	1.152	2923985	DISTRACT_END	n/a	n/a	n/a	n/a	-999	24	[0, 0, 0]	n/a	catFR1	1	R1135E
2924.96	26.23	2925137	REC_START	n/a	n/a	n/a	n/a	-999	24	[0, 0, 0]	n/a	catFR1	1	R1135E
2951.19	3.779	2951365	REC_WORD	3.779	n/a	ERASER	OfficeSupplies	7	24	[0, 0, 0]	n/a	catFR1	1	R1135E
2954.969	1.945	2955144	REC_END	n/a	n/a	n/a	n/a	-999	24	[0, 0, 0]	n/a	catFR1	1	R1135E
2956.914	0.0	2957089	TRIAL	n/a	n/a	n/a	n/a	-999	25	[0, 0, 0]	n/a	catFR1	1	R1135E
2956.914	10.428	2957089	COUNTDOWN_START	n/a	n/a	n/a	n/a	-999	25	[0, 0, 0]	n/a	catFR1	1	R1135E
2967.342	0.007	2967516	COUNTDOWN_END	n/a	n/a	n/a	n/a	-999	25	[0, 0, 0]	n/a	catFR1	1	R1135E
2967.349	3.751	2967523	ORIENT	n/a	n/a	n/a	n/a	-999	25	[0, 0, 0]	n/a	catFR1	1	R1135E
2971.1	2.433	2971274	WORD	n/a	wordpools/wordpool_categorized_EN.txt	MAPLE	Trees	1	25	[0, 0, 0]	n/a	catFR1	1	R1135E
2973.533	2.568	2973707	WORD	n/a	wordpools/wordpool_categorized_EN.txt	ELM	Trees	2	25	[0, 0, 0]	n/a	catFR1	1	R1135E
2976.101	2.4	2976274	WORD	n/a	wordpools/wordpool_categorized_EN.txt	CUPCAKE	Desserts	3	25	[0, 0, 0]	n/a	catFR1	1	R1135E
2978.501	2.55	2978674	WORD	n/a	wordpools/wordpool_categorized_EN.txt	COBBLER	Desserts	4	25	[0, 0, 0]	n/a	catFR1	1	R1135E
2981.051	2.467	2981224	WORD	n/a	wordpools/wordpool_categorized_EN.txt	BUTTERFLY	Insects	5	25	[0, 0, 0]	n/a	catFR1	1	R1135E
2983.518	2.452	2983691	WORD	n/a	wordpools/wordpool_categorized_EN.txt	SPIDER	Insects	6	25	[0, 0, 0]	n/a	catFR1	1	R1135E
2985.97	2.566	2986143	WORD	n/a	wordpools/wordpool_categorized_EN.txt	WALNUT	Trees	7	25	[0, 0, 0]	n/a	catFR1	1	R1135E
2988.536	2.567	2988708	WORD	n/a	wordpools/wordpool_categorized_EN.txt	HICKORY	Trees	8	25	[0, 0, 0]	n/a	catFR1	1	R1135E
2991.103	2.384	2991275	WORD	n/a	wordpools/wordpool_categorized_EN.txt	LADYBUG	Insects	9	25	[0, 0, 0]	n/a	catFR1	1	R1135E
2993.487	2.485	2993659	WORD	n/a	wordpools/wordpool_categorized_EN.txt	MOSQUITO	Insects	10	25	[0, 0, 0]	n/a	catFR1	1	R1135E
2995.972	2.466	2996144	WORD	n/a	wordpools/wordpool_categorized_EN.txt	JELLO	Desserts	11	25	[0, 0, 0]	n/a	catFR1	1	R1135E
2998.438	1.617	2998610	WORD	n/a	wordpools/wordpool_categorized_EN.txt	PUDDING	Desserts	12	25	[0, 0, 0]	n/a	catFR1	1	R1135E
3000.055	0.001	3000227	DISTRACT_START	n/a	n/a	n/a	n/a	-999	25	[0, 0, 0]	n/a	catFR1	1	R1135E
3000.056	0.015	3000228	START	n/a	n/a	n/a	n/a	-999	25	[-999, -999, -999]	n/a	catFR1	1	R1135E
3000.071	6.285	3000243	PROB	6.285	n/a	n/a	n/a	-999	25	[5, 2, 5]	12	catFR1	1	R1135E
3006.356	8.251	3006527	PROB	8.251	n/a	n/a	n/a	-999	25	[4, 8, 4]	16	catFR1	1	R1135E
3014.607	10.33	3014778	PROB	10.33	n/a	n/a	n/a	-999	25	[2, 8, 9]	18	catFR1	1	R1135E
3024.937	0.005	3025107	STOP	n/a	n/a	n/a	n/a	-999	25	[-999, -999, -999]	n/a	catFR1	1	R1135E
3024.942	1.101	3025112	DISTRACT_END	n/a	n/a	n/a	n/a	-999	25	[0, 0, 0]	n/a	catFR1	1	R1135E
3026.043	21.49	3026213	REC_START	n/a	n/a	n/a	n/a	-999	25	[0, 0, 0]	n/a	catFR1	1	R1135E
3047.533	7.3	3047701	REC_WORD	7.3	n/a	MOSQUITO	Insects	10	25	[0, 0, 0]	n/a	catFR1	1	R1135E
3054.833	1.221	3055001	REC_WORD	1.221	n/a	BUTTERFLY	Insects	5	25	[0, 0, 0]	n/a	catFR1	1	R1135E
3056.054	17.831	3056222	REC_END	n/a	n/a	n/a	n/a	-999	25	[0, 0, 0]	n/a	catFR1	1	R1135E
3073.885	0.0	-1	SESS_END	n/a	n/a	n/a	n/a	-999	25	[0, 0, 0]	n/a	catFR1	1	R1135E
