onset	duration	sample	trial_type	response_time	stim_file	item_name	category	serialpos	list	test	answer	experiment	session	subject
0.0	1.866	7162	INSTRUCT_START	n/a	n/a	n/a	n/a	-999	-999	[0, 0, 0]	n/a	catFR1	2	R1405E
1.866	55.348	9028	INSTRUCT_END	n/a	n/a	n/a	n/a	-999	-999	[0, 0, 0]	n/a	catFR1	2	R1405E
57.214	10.399	64379	COUNTDOWN_START	n/a	n/a	n/a	n/a	-999	-999	[0, 0, 0]	n/a	catFR1	2	R1405E
67.613	0.001	74773	COUNTDOWN_END	n/a	n/a	n/a	n/a	-999	-999	[0, 0, 0]	n/a	catFR1	2	R1405E
67.614	2.116	74773	ENCODING_START	n/a	n/a	n/a	n/a	-999	-1	[0, 0, 0]	n/a	catFR1	2	R1405E
69.73	1.616	76893	WORD	n/a	n/a	DRYER	Appliances	1	-1	[0, 0, 0]	n/a	catFR1	2	R1405E
71.346	0.784	78504	WORD_OFF	n/a	n/a	DRYER	Appliances	1	-1	[0, 0, 0]	n/a	catFR1	2	R1405E
72.13	1.615	79287	WORD	n/a	n/a	TOASTER	Appliances	2	-1	[0, 0, 0]	n/a	catFR1	2	R1405E
73.745	0.818	80907	WORD_OFF	n/a	n/a	TOASTER	Appliances	2	-1	[0, 0, 0]	n/a	catFR1	2	R1405E
74.563	1.615	81726	WORD	n/a	n/a	DAISY	Flowers	3	-1	[0, 0, 0]	n/a	catFR1	2	R1405E
76.178	0.917	83337	WORD_OFF	n/a	n/a	DAISY	Flowers	3	-1	[0, 0, 0]	n/a	catFR1	2	R1405E
77.095	1.601	84256	WORD	n/a	n/a	PETUNIA	Flowers	4	-1	[0, 0, 0]	n/a	catFR1	2	R1405E
78.696	0.867	85858	WORD_OFF	n/a	n/a	PETUNIA	Flowers	4	-1	[0, 0, 0]	n/a	catFR1	2	R1405E
79.563	1.616	86722	WORD	n/a	n/a	MARKER	OfficeSupplies	5	-1	[0, 0, 0]	n/a	catFR1	2	R1405E
81.179	0.967	88342	WORD_OFF	n/a	n/a	MARKER	OfficeSupplies	5	-1	[0, 0, 0]	n/a	catFR1	2	R1405E
82.146	1.616	89307	WORD	n/a	n/a	PENCIL	OfficeSupplies	6	-1	[0, 0, 0]	n/a	catFR1	2	R1405E
83.762	0.817	90927	WORD_OFF	n/a	n/a	PENCIL	OfficeSupplies	6	-1	[0, 0, 0]	n/a	catFR1	2	R1405E
84.579	1.617	91746	WORD	n/a	n/a	DAFFODIL	Flowers	7	-1	[0, 0, 0]	n/a	catFR1	2	R1405E
86.196	0.8	93357	WORD_OFF	n/a	n/a	DAFFODIL	Flowers	7	-1	[0, 0, 0]	n/a	catFR1	2	R1405E
86.996	1.616	94158	WORD	n/a	n/a	LILAC	Flowers	8	-1	[0, 0, 0]	n/a	catFR1	2	R1405E
88.612	0.917	95768	WORD_OFF	n/a	n/a	LILAC	Flowers	8	-1	[0, 0, 0]	n/a	catFR1	2	R1405E
89.529	1.616	96688	WORD	n/a	n/a	RULER	OfficeSupplies	9	-1	[0, 0, 0]	n/a	catFR1	2	R1405E
91.145	0.933	98308	WORD_OFF	n/a	n/a	RULER	OfficeSupplies	9	-1	[0, 0, 0]	n/a	catFR1	2	R1405E
92.078	1.601	99236	WORD	n/a	n/a	PEN	OfficeSupplies	10	-1	[0, 0, 0]	n/a	catFR1	2	R1405E
93.679	1.0	100838	WORD_OFF	n/a	n/a	PEN	OfficeSupplies	10	-1	[0, 0, 0]	n/a	catFR1	2	R1405E
94.679	1.616	101839	WORD	n/a	n/a	MIXER	Appliances	11	-1	[0, 0, 0]	n/a	catFR1	2	R1405E
96.295	0.967	103459	WORD_OFF	n/a	n/a	MIXER	Appliances	11	-1	[0, 0, 0]	n/a	catFR1	2	R1405E
97.262	1.618	104423	WORD	n/a	n/a	FREEZER	Appliances	12	-1	[0, 0, 0]	n/a	catFR1	2	R1405E
98.88	0.0	106040	START	n/a	n/a	n/a	n/a	-999	-1	[-999, -999, -999]	n/a	catFR1	2	R1405E
98.88	0.0	106040	PROB	0.0	n/a	n/a	n/a	-999	-1	[8, 4, 5]	17	catFR1	2	R1405E
98.879	0.001	106043	WORD_OFF	n/a	n/a	FREEZER	Appliances	12	-1	[0, 0, 0]	n/a	catFR1	2	R1405E
98.88	0.0	106043	ENCODING_END	n/a	n/a	n/a	n/a	-999	-1	[0, 0, 0]	n/a	catFR1	2	R1405E
98.88	8.298	106043	DISTRACT_START	n/a	n/a	n/a	n/a	-999	-1	[0, 0, 0]	n/a	catFR1	2	R1405E
107.178	4.617	114338	PROB	4.617	n/a	n/a	n/a	-999	-1	[3, 1, 2]	6	catFR1	2	R1405E
111.795	3.151	118955	PROB	3.151	n/a	n/a	n/a	-999	-1	[2, 7, 7]	16	catFR1	2	R1405E
114.946	2.915	122106	PROB	2.915	n/a	n/a	n/a	-999	-1	[6, 2, 2]	10	catFR1	2	R1405E
117.861	4.5	125021	PROB	4.5	n/a	n/a	n/a	-999	-1	[3, 6, 2]	11	catFR1	2	R1405E
122.361	0.0	129521	STOP	n/a	n/a	n/a	n/a	-999	-1	[-999, -999, -999]	n/a	catFR1	2	R1405E
122.361	2.283	129524	DISTRACT_END	n/a	n/a	n/a	n/a	-999	-1	[0, 0, 0]	n/a	catFR1	2	R1405E
124.644	5.928	131807	REC_START	n/a	n/a	n/a	n/a	-999	-1	[0, 0, 0]	n/a	catFR1	2	R1405E
130.572	1.724	137732	REC_WORD	1.724	n/a	DRYER	Appliances	1	-1	[0, 0, 0]	n/a	catFR1	2	R1405E
132.296	2.172	139456	REC_WORD	2.172	n/a	FREEZER	Appliances	12	-1	[0, 0, 0]	n/a	catFR1	2	R1405E
134.468	1.673	141628	REC_WORD	1.673	n/a	DAISY	Flowers	3	-1	[0, 0, 0]	n/a	catFR1	2	R1405E
136.141	2.943	143301	REC_WORD	2.943	n/a	PENCIL	OfficeSupplies	6	-1	[0, 0, 0]	n/a	catFR1	2	R1405E
139.084	5.617	146244	REC_WORD	5.617	n/a	PETUNIA	Flowers	4	-1	[0, 0, 0]	n/a	catFR1	2	R1405E
144.701	8.946	151861	REC_WORD	8.946	n/a	PAPER	n/a	-999	-1	[0, 0, 0]	n/a	catFR1	2	R1405E
153.647	1.273	160807	REC_WORD	1.273	n/a	TOASTER	Appliances	2	-1	[0, 0, 0]	n/a	catFR1	2	R1405E
154.92	22.089	162078	REC_END	n/a	n/a	n/a	n/a	-999	-1	[0, 0, 0]	n/a	catFR1	2	R1405E
177.009	10.35	184175	COUNTDOWN_START	n/a	n/a	n/a	n/a	-999	1	[0, 0, 0]	n/a	catFR1	2	R1405E
187.359	0.001	194522	COUNTDOWN_END	n/a	n/a	n/a	n/a	-999	1	[0, 0, 0]	n/a	catFR1	2	R1405E
187.36	2.232	194522	ENCODING_START	n/a	n/a	n/a	n/a	-999	1	[0, 0, 0]	n/a	catFR1	2	R1405E
189.592	1.616	196752	WORD	n/a	wordpools/wordpool_categorized_EN.txt	CABBAGE	Vegetables	1	1	[0, 0, 0]	n/a	catFR1	2	R1405E
191.208	0.984	198372	WORD_OFF	n/a	n/a	CABBAGE	Vegetables	1	1	[0, 0, 0]	n/a	catFR1	2	R1405E
192.192	1.617	199355	WORD	n/a	wordpools/wordpool_categorized_EN.txt	BROCCOLI	Vegetables	2	1	[0, 0, 0]	n/a	catFR1	2	R1405E
193.809	0.882	200966	WORD_OFF	n/a	n/a	BROCCOLI	Vegetables	2	1	[0, 0, 0]	n/a	catFR1	2	R1405E
194.691	1.601	201849	WORD	n/a	wordpools/wordpool_categorized_EN.txt	THUNDERSTORM	Weather	3	1	[0, 0, 0]	n/a	catFR1	2	R1405E
196.292	0.766	203450	WORD_OFF	n/a	n/a	THUNDERSTORM	Weather	3	1	[0, 0, 0]	n/a	catFR1	2	R1405E
197.058	1.617	204215	WORD	n/a	wordpools/wordpool_categorized_EN.txt	CLOUD	Weather	4	1	[0, 0, 0]	n/a	catFR1	2	R1405E
198.675	0.8	205835	WORD_OFF	n/a	n/a	CLOUD	Weather	4	1	[0, 0, 0]	n/a	catFR1	2	R1405E
199.475	1.6	206636	WORD	n/a	wordpools/wordpool_categorized_EN.txt	PEELER	KitchenTools	5	1	[0, 0, 0]	n/a	catFR1	2	R1405E
201.075	1.0	208237	WORD_OFF	n/a	n/a	PEELER	KitchenTools	5	1	[0, 0, 0]	n/a	catFR1	2	R1405E
202.075	1.616	209239	WORD	n/a	wordpools/wordpool_categorized_EN.txt	SPOON	KitchenTools	6	1	[0, 0, 0]	n/a	catFR1	2	R1405E
203.691	0.783	210849	WORD_OFF	n/a	n/a	SPOON	KitchenTools	6	1	[0, 0, 0]	n/a	catFR1	2	R1405E
204.474	1.6	211632	WORD	n/a	wordpools/wordpool_categorized_EN.txt	DRIZZLE	Weather	7	1	[0, 0, 0]	n/a	catFR1	2	R1405E
206.074	0.784	213234	WORD_OFF	n/a	n/a	DRIZZLE	Weather	7	1	[0, 0, 0]	n/a	catFR1	2	R1405E
206.858	1.617	214017	WORD	n/a	wordpools/wordpool_categorized_EN.txt	THUNDER	Weather	8	1	[0, 0, 0]	n/a	catFR1	2	R1405E
208.475	1.0	215637	WORD_OFF	n/a	n/a	THUNDER	Weather	8	1	[0, 0, 0]	n/a	catFR1	2	R1405E
209.475	1.616	216638	WORD	n/a	wordpools/wordpool_categorized_EN.txt	GRATER	KitchenTools	9	1	[0, 0, 0]	n/a	catFR1	2	R1405E
211.091	0.867	218248	WORD_OFF	n/a	n/a	GRATER	KitchenTools	9	1	[0, 0, 0]	n/a	catFR1	2	R1405E
211.958	1.616	219122	WORD	n/a	wordpools/wordpool_categorized_EN.txt	CORKSCREW	KitchenTools	10	1	[0, 0, 0]	n/a	catFR1	2	R1405E
213.574	0.8	220733	WORD_OFF	n/a	n/a	CORKSCREW	KitchenTools	10	1	[0, 0, 0]	n/a	catFR1	2	R1405E
214.374	1.617	221534	WORD	n/a	wordpools/wordpool_categorized_EN.txt	CELERY	Vegetables	11	1	[0, 0, 0]	n/a	catFR1	2	R1405E
215.991	0.867	223154	WORD_OFF	n/a	n/a	CELERY	Vegetables	11	1	[0, 0, 0]	n/a	catFR1	2	R1405E
216.858	1.616	224018	WORD	n/a	wordpools/wordpool_categorized_EN.txt	CARROT	Vegetables	12	1	[0, 0, 0]	n/a	catFR1	2	R1405E
218.474	0.002	225634	PROB	0.002	n/a	n/a	n/a	-999	1	[4, 8, 2]	14	catFR1	2	R1405E
218.476	0.0	225636	START	n/a	n/a	n/a	n/a	-999	1	[-999, -999, -999]	n/a	catFR1	2	R1405E
218.474	0.002	225638	WORD_OFF	n/a	n/a	CARROT	Vegetables	12	1	[0, 0, 0]	n/a	catFR1	2	R1405E
218.476	0.0	225638	ENCODING_END	n/a	n/a	n/a	n/a	-999	1	[0, 0, 0]	n/a	catFR1	2	R1405E
218.476	3.799	225638	DISTRACT_START	n/a	n/a	n/a	n/a	-999	1	[0, 0, 0]	n/a	catFR1	2	R1405E
222.275	2.935	229435	PROB	2.935	n/a	n/a	n/a	-999	1	[5, 4, 7]	16	catFR1	2	R1405E
225.21	2.747	232370	PROB	2.747	n/a	n/a	n/a	-999	1	[5, 5, 6]	16	catFR1	2	R1405E
227.957	2.534	235117	PROB	2.534	n/a	n/a	n/a	-999	1	[1, 1, 5]	7	catFR1	2	R1405E
230.491	2.716	237651	PROB	2.716	n/a	n/a	n/a	-999	1	[5, 5, 1]	11	catFR1	2	R1405E
233.207	3.133	240367	PROB	3.133	n/a	n/a	n/a	-999	1	[5, 6, 4]	15	catFR1	2	R1405E
236.34	2.733	243500	PROB	2.733	n/a	n/a	n/a	-999	1	[6, 1, 5]	12	catFR1	2	R1405E
239.073	0.0	246233	STOP	n/a	n/a	n/a	n/a	-999	1	[-999, -999, -999]	n/a	catFR1	2	R1405E
239.073	2.25	246234	DISTRACT_END	n/a	n/a	n/a	n/a	-999	1	[0, 0, 0]	n/a	catFR1	2	R1405E
241.323	1.116	248481	REC_START	n/a	n/a	n/a	n/a	-999	1	[0, 0, 0]	n/a	catFR1	2	R1405E
242.439	1.648	249599	REC_WORD	1.648	n/a	THUNDERSTORM	Weather	3	1	[0, 0, 0]	n/a	catFR1	2	R1405E
244.087	7.834	251247	REC_WORD	7.834	n/a	CABBAGE	Vegetables	1	1	[0, 0, 0]	n/a	catFR1	2	R1405E
251.921	12.712	259081	REC_WORD	12.712	n/a	FREEZER	Appliances	-999	1	[0, 0, 0]	n/a	catFR1	2	R1405E
264.633	5.703	271793	REC_WORD	5.703	n/a	CABBAGE	Vegetables	1	1	[0, 0, 0]	n/a	catFR1	2	R1405E
270.336	1.25	277496	REC_WORD	1.25	n/a	BROCCOLI	Vegetables	2	1	[0, 0, 0]	n/a	catFR1	2	R1405E
271.586	4.953	278742	REC_END	n/a	n/a	n/a	n/a	-999	1	[0, 0, 0]	n/a	catFR1	2	R1405E
276.539	10.35	283702	COUNTDOWN_START	n/a	n/a	n/a	n/a	-999	2	[0, 0, 0]	n/a	catFR1	2	R1405E
286.889	0.0	294050	COUNTDOWN_END	n/a	n/a	n/a	n/a	-999	2	[0, 0, 0]	n/a	catFR1	2	R1405E
286.889	2.165	294050	ENCODING_START	n/a	n/a	n/a	n/a	-999	2	[0, 0, 0]	n/a	catFR1	2	R1405E
289.054	1.601	296216	WORD	n/a	wordpools/wordpool_categorized_EN.txt	SILK	Fabric	1	2	[0, 0, 0]	n/a	catFR1	2	R1405E
290.655	0.949	297818	WORD_OFF	n/a	n/a	SILK	Fabric	1	2	[0, 0, 0]	n/a	catFR1	2	R1405E
291.604	1.601	298764	WORD	n/a	wordpools/wordpool_categorized_EN.txt	WOOL	Fabric	2	2	[0, 0, 0]	n/a	catFR1	2	R1405E
293.205	0.966	300366	WORD_OFF	n/a	n/a	WOOL	Fabric	2	2	[0, 0, 0]	n/a	catFR1	2	R1405E
294.171	1.617	301331	WORD	n/a	wordpools/wordpool_categorized_EN.txt	FOLDER	OfficeSupplies	3	2	[0, 0, 0]	n/a	catFR1	2	R1405E
295.788	0.783	302951	WORD_OFF	n/a	n/a	FOLDER	OfficeSupplies	3	2	[0, 0, 0]	n/a	catFR1	2	R1405E
296.571	1.617	303733	WORD	n/a	wordpools/wordpool_categorized_EN.txt	BINDER	OfficeSupplies	4	2	[0, 0, 0]	n/a	catFR1	2	R1405E
298.188	0.933	305353	WORD_OFF	n/a	n/a	BINDER	OfficeSupplies	4	2	[0, 0, 0]	n/a	catFR1	2	R1405E
299.121	1.6	306282	WORD	n/a	wordpools/wordpool_categorized_EN.txt	TRUMPET	Instruments	5	2	[0, 0, 0]	n/a	catFR1	2	R1405E
300.721	0.867	307883	WORD_OFF	n/a	n/a	TRUMPET	Instruments	5	2	[0, 0, 0]	n/a	catFR1	2	R1405E
301.588	1.616	308748	WORD	n/a	wordpools/wordpool_categorized_EN.txt	ORGAN	Instruments	6	2	[0, 0, 0]	n/a	catFR1	2	R1405E
303.204	1.0	310368	WORD_OFF	n/a	n/a	ORGAN	Instruments	6	2	[0, 0, 0]	n/a	catFR1	2	R1405E
304.204	1.617	311369	WORD	n/a	wordpools/wordpool_categorized_EN.txt	GLUE	OfficeSupplies	7	2	[0, 0, 0]	n/a	catFR1	2	R1405E
305.821	0.949	312980	WORD_OFF	n/a	n/a	GLUE	OfficeSupplies	7	2	[0, 0, 0]	n/a	catFR1	2	R1405E
306.77	1.601	313935	WORD	n/a	wordpools/wordpool_categorized_EN.txt	NOTEBOOK	OfficeSupplies	8	2	[0, 0, 0]	n/a	catFR1	2	R1405E
308.371	1.0	315528	WORD_OFF	n/a	n/a	NOTEBOOK	OfficeSupplies	8	2	[0, 0, 0]	n/a	catFR1	2	R1405E
309.371	1.6	316529	WORD	n/a	wordpools/wordpool_categorized_EN.txt	BASS	Instruments	9	2	[0, 0, 0]	n/a	catFR1	2	R1405E
310.971	0.899	318131	WORD_OFF	n/a	n/a	BASS	Instruments	9	2	[0, 0, 0]	n/a	catFR1	2	R1405E
311.87	1.601	319032	WORD	n/a	wordpools/wordpool_categorized_EN.txt	FLUTE	Instruments	10	2	[0, 0, 0]	n/a	catFR1	2	R1405E
313.471	0.783	320634	WORD_OFF	n/a	n/a	FLUTE	Instruments	10	2	[0, 0, 0]	n/a	catFR1	2	R1405E
314.254	1.617	321416	WORD	n/a	wordpools/wordpool_categorized_EN.txt	LEATHER	Fabric	11	2	[0, 0, 0]	n/a	catFR1	2	R1405E
315.871	0.866	323027	WORD_OFF	n/a	n/a	LEATHER	Fabric	11	2	[0, 0, 0]	n/a	catFR1	2	R1405E
316.737	1.617	323901	WORD	n/a	wordpools/wordpool_categorized_EN.txt	COTTON	Fabric	12	2	[0, 0, 0]	n/a	catFR1	2	R1405E
318.354	0.001	325512	WORD_OFF	n/a	n/a	COTTON	Fabric	12	2	[0, 0, 0]	n/a	catFR1	2	R1405E
318.355	0.0	325512	ENCODING_END	n/a	n/a	n/a	n/a	-999	2	[0, 0, 0]	n/a	catFR1	2	R1405E
318.354	0.001	325514	PROB	0.001	n/a	n/a	n/a	-999	2	[7, 3, 5]	15	catFR1	2	R1405E
318.355	0.0	325515	START	n/a	n/a	n/a	n/a	-999	2	[-999, -999, -999]	n/a	catFR1	2	R1405E
318.355	3.915	325521	DISTRACT_START	n/a	n/a	n/a	n/a	-999	2	[0, 0, 0]	n/a	catFR1	2	R1405E
322.27	4.951	329430	PROB	4.951	n/a	n/a	n/a	-999	2	[2, 6, 7]	13	catFR1	2	R1405E
327.221	2.633	334381	PROB	2.633	n/a	n/a	n/a	-999	2	[1, 2, 1]	6	catFR1	2	R1405E
329.854	8.016	337014	PROB	8.016	n/a	n/a	n/a	-999	2	[7, 4, 1]	13	catFR1	2	R1405E
337.87	3.049	345030	PROB	3.049	n/a	n/a	n/a	-999	2	[5, 3, 4]	12	catFR1	2	R1405E
340.919	0.0	348079	STOP	n/a	n/a	n/a	n/a	-999	2	[-999, -999, -999]	n/a	catFR1	2	R1405E
340.919	2.283	348082	DISTRACT_END	n/a	n/a	n/a	n/a	-999	2	[0, 0, 0]	n/a	catFR1	2	R1405E
343.202	0.903	350365	REC_START	n/a	n/a	n/a	n/a	-999	2	[0, 0, 0]	n/a	catFR1	2	R1405E
344.105	1.268	351265	REC_WORD	1.268	n/a	SILK	Fabric	1	2	[0, 0, 0]	n/a	catFR1	2	R1405E
345.373	1.073	352533	REC_WORD	1.073	n/a	WOOL	Fabric	2	2	[0, 0, 0]	n/a	catFR1	2	R1405E
346.446	2.864	353606	REC_WORD	2.864	n/a	COTTON	Fabric	12	2	[0, 0, 0]	n/a	catFR1	2	R1405E
349.31	1.651	356470	REC_WORD	1.651	n/a	FLUTE	Instruments	10	2	[0, 0, 0]	n/a	catFR1	2	R1405E
350.961	5.881	358121	REC_WORD	5.881	n/a	TRUMPET	Instruments	5	2	[0, 0, 0]	n/a	catFR1	2	R1405E
356.842	8.422	364002	REC_WORD	8.422	n/a	THUNDER	Weather	-999	2	[0, 0, 0]	n/a	catFR1	2	R1405E
365.264	8.202	372424	REC_WORD	8.202	n/a	DRUM	n/a	-999	2	[0, 0, 0]	n/a	catFR1	2	R1405E
373.466	2.985	380627	REC_END	n/a	n/a	n/a	n/a	-999	2	[0, 0, 0]	n/a	catFR1	2	R1405E
376.451	10.351	383612	COUNTDOWN_START	n/a	n/a	n/a	n/a	-999	3	[0, 0, 0]	n/a	catFR1	2	R1405E
386.802	0.0	393960	COUNTDOWN_END	n/a	n/a	n/a	n/a	-999	3	[0, 0, 0]	n/a	catFR1	2	R1405E
386.802	1.966	393960	ENCODING_START	n/a	n/a	n/a	n/a	-999	3	[0, 0, 0]	n/a	catFR1	2	R1405E
388.768	1.617	395926	WORD	n/a	wordpools/wordpool_categorized_EN.txt	CABINET	Furniture	1	3	[0, 0, 0]	n/a	catFR1	2	R1405E
390.385	0.9	397546	WORD_OFF	n/a	n/a	CABINET	Furniture	1	3	[0, 0, 0]	n/a	catFR1	2	R1405E
391.285	1.616	398447	WORD	n/a	wordpools/wordpool_categorized_EN.txt	DRESSER	Furniture	2	3	[0, 0, 0]	n/a	catFR1	2	R1405E
392.901	0.95	400057	WORD_OFF	n/a	n/a	DRESSER	Furniture	2	3	[0, 0, 0]	n/a	catFR1	2	R1405E
393.851	1.616	401013	WORD	n/a	wordpools/wordpool_categorized_EN.txt	LEMONADE	Beverages	3	3	[0, 0, 0]	n/a	catFR1	2	R1405E
395.467	0.883	402624	WORD_OFF	n/a	n/a	LEMONADE	Beverages	3	3	[0, 0, 0]	n/a	catFR1	2	R1405E
396.35	1.601	403516	WORD	n/a	wordpools/wordpool_categorized_EN.txt	JUICE	Beverages	4	3	[0, 0, 0]	n/a	catFR1	2	R1405E
397.951	0.817	405108	WORD_OFF	n/a	n/a	JUICE	Beverages	4	3	[0, 0, 0]	n/a	catFR1	2	R1405E
398.768	1.616	405928	WORD	n/a	wordpools/wordpool_categorized_EN.txt	TOE	BodyParts	5	3	[0, 0, 0]	n/a	catFR1	2	R1405E
400.384	0.934	407547	WORD_OFF	n/a	n/a	TOE	BodyParts	5	3	[0, 0, 0]	n/a	catFR1	2	R1405E
401.318	1.616	408476	WORD	n/a	wordpools/wordpool_categorized_EN.txt	EAR	BodyParts	6	3	[0, 0, 0]	n/a	catFR1	2	R1405E
402.934	0.816	410096	WORD_OFF	n/a	n/a	EAR	BodyParts	6	3	[0, 0, 0]	n/a	catFR1	2	R1405E
403.75	1.6	410915	WORD	n/a	wordpools/wordpool_categorized_EN.txt	NIGHTSTAND	Furniture	7	3	[0, 0, 0]	n/a	catFR1	2	R1405E
405.35	0.967	412507	WORD_OFF	n/a	n/a	NIGHTSTAND	Furniture	7	3	[0, 0, 0]	n/a	catFR1	2	R1405E
406.317	1.617	413481	WORD	n/a	wordpools/wordpool_categorized_EN.txt	RECLINER	Furniture	8	3	[0, 0, 0]	n/a	catFR1	2	R1405E
407.934	0.967	415092	WORD_OFF	n/a	n/a	RECLINER	Furniture	8	3	[0, 0, 0]	n/a	catFR1	2	R1405E
408.901	1.616	416057	WORD	n/a	wordpools/wordpool_categorized_EN.txt	WATER	Beverages	9	3	[0, 0, 0]	n/a	catFR1	2	R1405E
410.517	0.867	417677	WORD_OFF	n/a	n/a	WATER	Beverages	9	3	[0, 0, 0]	n/a	catFR1	2	R1405E
411.384	1.616	418541	WORD	n/a	wordpools/wordpool_categorized_EN.txt	RUM	Beverages	10	3	[0, 0, 0]	n/a	catFR1	2	R1405E
413.0	1.0	420161	WORD_OFF	n/a	n/a	RUM	Beverages	10	3	[0, 0, 0]	n/a	catFR1	2	R1405E
414.0	1.617	421162	WORD	n/a	wordpools/wordpool_categorized_EN.txt	ELBOW	BodyParts	11	3	[0, 0, 0]	n/a	catFR1	2	R1405E
415.617	0.966	422782	WORD_OFF	n/a	n/a	ELBOW	BodyParts	11	3	[0, 0, 0]	n/a	catFR1	2	R1405E
416.583	1.601	423747	WORD	n/a	wordpools/wordpool_categorized_EN.txt	LEG	BodyParts	12	3	[0, 0, 0]	n/a	catFR1	2	R1405E
418.184	0.001	425344	PROB	0.001	n/a	n/a	n/a	-999	3	[5, 3, 8]	17	catFR1	2	R1405E
418.185	0.0	425345	START	n/a	n/a	n/a	n/a	-999	3	[-999, -999, -999]	n/a	catFR1	2	R1405E
418.184	0.001	425349	WORD_OFF	n/a	n/a	LEG	BodyParts	12	3	[0, 0, 0]	n/a	catFR1	2	R1405E
418.185	0.0	425349	ENCODING_END	n/a	n/a	n/a	n/a	-999	3	[0, 0, 0]	n/a	catFR1	2	R1405E
418.185	5.799	425349	DISTRACT_START	n/a	n/a	n/a	n/a	-999	3	[0, 0, 0]	n/a	catFR1	2	R1405E
423.984	2.683	431144	PROB	2.683	n/a	n/a	n/a	-999	3	[7, 2, 1]	10	catFR1	2	R1405E
426.667	4.183	433827	PROB	4.183	n/a	n/a	n/a	-999	3	[3, 2, 8]	13	catFR1	2	R1405E
430.85	3.617	438010	PROB	3.617	n/a	n/a	n/a	-999	3	[4, 8, 7]	19	catFR1	2	R1405E
434.467	3.233	441627	PROB	3.233	n/a	n/a	n/a	-999	3	[8, 6, 8]	22	catFR1	2	R1405E
437.7	3.116	444860	PROB	3.116	n/a	n/a	n/a	-999	3	[8, 5, 2]	15	catFR1	2	R1405E
440.816	0.0	447974	DISTRACT_END	n/a	n/a	n/a	n/a	-999	3	[0, 0, 0]	n/a	catFR1	2	R1405E
440.816	2.216	447976	STOP	n/a	n/a	n/a	n/a	-999	3	[-999, -999, -999]	n/a	catFR1	2	R1405E
443.032	1.013	450193	REC_START	n/a	n/a	n/a	n/a	-999	3	[0, 0, 0]	n/a	catFR1	2	R1405E
444.045	0.84	451205	REC_WORD	0.84	n/a	TOE	BodyParts	5	3	[0, 0, 0]	n/a	catFR1	2	R1405E
444.885	1.873	452045	REC_WORD	1.873	n/a	LEG	BodyParts	12	3	[0, 0, 0]	n/a	catFR1	2	R1405E
446.758	1.522	453918	REC_WORD	1.522	n/a	ELBOW	BodyParts	11	3	[0, 0, 0]	n/a	catFR1	2	R1405E
448.28	1.358	455440	REC_WORD	1.358	n/a	LEMONADE	Beverages	3	3	[0, 0, 0]	n/a	catFR1	2	R1405E
449.638	2.108	456798	REC_WORD	2.108	n/a	JUICE	Beverages	4	3	[0, 0, 0]	n/a	catFR1	2	R1405E
451.746	9.657	458906	REC_WORD	9.657	n/a	RUM	Beverages	10	3	[0, 0, 0]	n/a	catFR1	2	R1405E
461.403	4.173	468563	REC_WORD	4.173	n/a	CABINET	Furniture	1	3	[0, 0, 0]	n/a	catFR1	2	R1405E
465.576	7.723	472736	REC_WORD	7.723	n/a	ELBOW	BodyParts	11	3	[0, 0, 0]	n/a	catFR1	2	R1405E
473.299	2.965	480460	REC_END	n/a	n/a	n/a	n/a	-999	3	[0, 0, 0]	n/a	catFR1	2	R1405E
476.264	10.351	483431	COUNTDOWN_START	n/a	n/a	n/a	n/a	-999	4	[0, 0, 0]	n/a	catFR1	2	R1405E
486.615	0.0	493779	COUNTDOWN_END	n/a	n/a	n/a	n/a	-999	4	[0, 0, 0]	n/a	catFR1	2	R1405E
486.615	2.066	493779	ENCODING_START	n/a	n/a	n/a	n/a	-999	4	[0, 0, 0]	n/a	catFR1	2	R1405E
488.681	1.617	495844	WORD	n/a	wordpools/wordpool_categorized_EN.txt	TEA	Beverages	1	4	[0, 0, 0]	n/a	catFR1	2	R1405E
490.298	0.782	497455	WORD_OFF	n/a	n/a	TEA	Beverages	1	4	[0, 0, 0]	n/a	catFR1	2	R1405E
491.08	1.601	498238	WORD	n/a	wordpools/wordpool_categorized_EN.txt	SODA	Beverages	2	4	[0, 0, 0]	n/a	catFR1	2	R1405E
492.681	0.85	499840	WORD_OFF	n/a	n/a	SODA	Beverages	2	4	[0, 0, 0]	n/a	catFR1	2	R1405E
493.531	1.616	500695	WORD	n/a	wordpools/wordpool_categorized_EN.txt	TONGS	KitchenTools	3	4	[0, 0, 0]	n/a	catFR1	2	R1405E
495.147	0.817	502306	WORD_OFF	n/a	n/a	TONGS	KitchenTools	3	4	[0, 0, 0]	n/a	catFR1	2	R1405E
495.964	1.617	503125	WORD	n/a	wordpools/wordpool_categorized_EN.txt	WHISK	KitchenTools	4	4	[0, 0, 0]	n/a	catFR1	2	R1405E
497.581	0.8	504745	WORD_OFF	n/a	n/a	WHISK	KitchenTools	4	4	[0, 0, 0]	n/a	catFR1	2	R1405E
498.381	1.616	505546	WORD	n/a	wordpools/wordpool_categorized_EN.txt	KNEE	BodyParts	5	4	[0, 0, 0]	n/a	catFR1	2	R1405E
499.997	0.884	507157	WORD_OFF	n/a	n/a	KNEE	BodyParts	5	4	[0, 0, 0]	n/a	catFR1	2	R1405E
500.881	1.6	508040	WORD	n/a	wordpools/wordpool_categorized_EN.txt	FINGERS	BodyParts	6	4	[0, 0, 0]	n/a	catFR1	2	R1405E
502.481	0.9	509641	WORD_OFF	n/a	n/a	FINGERS	BodyParts	6	4	[0, 0, 0]	n/a	catFR1	2	R1405E
503.381	1.599	510542	WORD	n/a	wordpools/wordpool_categorized_EN.txt	COLANDER	KitchenTools	7	4	[0, 0, 0]	n/a	catFR1	2	R1405E
504.98	0.818	512144	WORD_OFF	n/a	n/a	COLANDER	KitchenTools	7	4	[0, 0, 0]	n/a	catFR1	2	R1405E
505.798	1.616	512954	WORD	n/a	wordpools/wordpool_categorized_EN.txt	FORK	KitchenTools	8	4	[0, 0, 0]	n/a	catFR1	2	R1405E
507.414	0.983	514574	WORD_OFF	n/a	n/a	FORK	KitchenTools	8	4	[0, 0, 0]	n/a	catFR1	2	R1405E
508.397	1.617	515557	WORD	n/a	wordpools/wordpool_categorized_EN.txt	FOOT	BodyParts	9	4	[0, 0, 0]	n/a	catFR1	2	R1405E
510.014	0.932	517177	WORD_OFF	n/a	n/a	FOOT	BodyParts	9	4	[0, 0, 0]	n/a	catFR1	2	R1405E
510.946	1.6	518105	WORD	n/a	wordpools/wordpool_categorized_EN.txt	HEAD	BodyParts	10	4	[0, 0, 0]	n/a	catFR1	2	R1405E
512.546	0.851	519707	WORD_OFF	n/a	n/a	HEAD	BodyParts	10	4	[0, 0, 0]	n/a	catFR1	2	R1405E
513.397	1.616	520553	WORD	n/a	wordpools/wordpool_categorized_EN.txt	COFFEE	Beverages	11	4	[0, 0, 0]	n/a	catFR1	2	R1405E
515.013	0.849	522173	WORD_OFF	n/a	n/a	COFFEE	Beverages	11	4	[0, 0, 0]	n/a	catFR1	2	R1405E
515.862	1.601	523020	WORD	n/a	wordpools/wordpool_categorized_EN.txt	MILK	Beverages	12	4	[0, 0, 0]	n/a	catFR1	2	R1405E
517.463	0.002	524622	WORD_OFF	n/a	n/a	MILK	Beverages	12	4	[0, 0, 0]	n/a	catFR1	2	R1405E
517.465	0.0	524622	ENCODING_END	n/a	n/a	n/a	n/a	-999	4	[0, 0, 0]	n/a	catFR1	2	R1405E
517.464	0.001	524624	PROB	0.001	n/a	n/a	n/a	-999	4	[2, 2, 4]	8	catFR1	2	R1405E
517.465	0.0	524625	START	n/a	n/a	n/a	n/a	-999	4	[-999, -999, -999]	n/a	catFR1	2	R1405E
517.465	3.448	524631	DISTRACT_START	n/a	n/a	n/a	n/a	-999	4	[0, 0, 0]	n/a	catFR1	2	R1405E
520.913	6.0	528073	PROB	6.0	n/a	n/a	n/a	-999	4	[8, 3, 3]	14	catFR1	2	R1405E
526.913	4.432	534073	PROB	4.432	n/a	n/a	n/a	-999	4	[4, 3, 5]	12	catFR1	2	R1405E
531.345	2.851	538505	PROB	2.851	n/a	n/a	n/a	-999	4	[3, 1, 2]	6	catFR1	2	R1405E
534.196	2.467	541356	PROB	2.467	n/a	n/a	n/a	-999	4	[4, 2, 4]	10	catFR1	2	R1405E
536.663	2.65	543823	PROB	2.65	n/a	n/a	n/a	-999	4	[6, 5, 4]	15	catFR1	2	R1405E
539.313	0.0	546473	DISTRACT_END	n/a	n/a	n/a	n/a	-999	4	[0, 0, 0]	n/a	catFR1	2	R1405E
539.313	2.166	546473	STOP	n/a	n/a	n/a	n/a	-999	4	[-999, -999, -999]	n/a	catFR1	2	R1405E
541.479	1.444	548638	REC_START	n/a	n/a	n/a	n/a	-999	4	[0, 0, 0]	n/a	catFR1	2	R1405E
542.923	2.729	550084	REC_WORD	2.729	n/a	TOE	BodyParts	-999	4	[0, 0, 0]	n/a	catFR1	2	R1405E
545.652	2.267	552813	REC_WORD	2.267	n/a	TONGS	KitchenTools	3	4	[0, 0, 0]	n/a	catFR1	2	R1405E
547.919	20.081	555080	REC_WORD	20.081	n/a	ARM	n/a	-999	4	[0, 0, 0]	n/a	catFR1	2	R1405E
568.0	2.621	575161	REC_WORD	2.621	n/a	RECYCLER	n/a	-999	4	[0, 0, 0]	n/a	catFR1	2	R1405E
570.621	1.121	577782	REC_WORD	1.121	n/a	PAPER	n/a	-999	4	[0, 0, 0]	n/a	catFR1	2	R1405E
571.742	4.703	578899	REC_END	n/a	n/a	n/a	n/a	-999	4	[0, 0, 0]	n/a	catFR1	2	R1405E
576.445	10.349	583605	COUNTDOWN_START	n/a	n/a	n/a	n/a	-999	5	[0, 0, 0]	n/a	catFR1	2	R1405E
586.794	0.0	593952	COUNTDOWN_END	n/a	n/a	n/a	n/a	-999	5	[0, 0, 0]	n/a	catFR1	2	R1405E
586.794	2.117	593961	ENCODING_START	n/a	n/a	n/a	n/a	-999	5	[0, 0, 0]	n/a	catFR1	2	R1405E
588.911	1.616	596073	WORD	n/a	wordpools/wordpool_categorized_EN.txt	PEAS	Vegetables	1	5	[0, 0, 0]	n/a	catFR1	2	R1405E
590.527	0.8	597693	WORD_OFF	n/a	n/a	PEAS	Vegetables	1	5	[0, 0, 0]	n/a	catFR1	2	R1405E
591.327	1.617	598485	WORD	n/a	wordpools/wordpool_categorized_EN.txt	ONION	Vegetables	2	5	[0, 0, 0]	n/a	catFR1	2	R1405E
592.944	0.949	600105	WORD_OFF	n/a	n/a	ONION	Vegetables	2	5	[0, 0, 0]	n/a	catFR1	2	R1405E
593.893	1.616	601060	WORD	n/a	wordpools/wordpool_categorized_EN.txt	TABLET	Electronics	3	5	[0, 0, 0]	n/a	catFR1	2	R1405E
595.509	0.985	602671	WORD_OFF	n/a	n/a	TABLET	Electronics	3	5	[0, 0, 0]	n/a	catFR1	2	R1405E
596.494	1.616	603654	WORD	n/a	wordpools/wordpool_categorized_EN.txt	CALCULATOR	Electronics	4	5	[0, 0, 0]	n/a	catFR1	2	R1405E
598.11	1.0	605274	WORD_OFF	n/a	n/a	CALCULATOR	Electronics	4	5	[0, 0, 0]	n/a	catFR1	2	R1405E
599.11	1.6	606275	WORD	n/a	wordpools/wordpool_categorized_EN.txt	TRUCK	Vehicles	5	5	[0, 0, 0]	n/a	catFR1	2	R1405E
600.71	0.917	607868	WORD_OFF	n/a	n/a	TRUCK	Vehicles	5	5	[0, 0, 0]	n/a	catFR1	2	R1405E
601.627	1.616	608787	WORD	n/a	wordpools/wordpool_categorized_EN.txt	BOAT	Vehicles	6	5	[0, 0, 0]	n/a	catFR1	2	R1405E
603.243	0.834	610407	WORD_OFF	n/a	n/a	BOAT	Vehicles	6	5	[0, 0, 0]	n/a	catFR1	2	R1405E
604.077	1.6	611235	WORD	n/a	wordpools/wordpool_categorized_EN.txt	STEREO	Electronics	7	5	[0, 0, 0]	n/a	catFR1	2	R1405E
605.677	0.782	612837	WORD_OFF	n/a	n/a	STEREO	Electronics	7	5	[0, 0, 0]	n/a	catFR1	2	R1405E
606.459	1.601	613619	WORD	n/a	wordpools/wordpool_categorized_EN.txt	RADIO	Electronics	8	5	[0, 0, 0]	n/a	catFR1	2	R1405E
608.06	0.9	615221	WORD_OFF	n/a	n/a	RADIO	Electronics	8	5	[0, 0, 0]	n/a	catFR1	2	R1405E
608.96	1.6	616122	WORD	n/a	wordpools/wordpool_categorized_EN.txt	CUCUMBER	Vegetables	9	5	[0, 0, 0]	n/a	catFR1	2	R1405E
610.56	0.833	617724	WORD_OFF	n/a	n/a	CUCUMBER	Vegetables	9	5	[0, 0, 0]	n/a	catFR1	2	R1405E
611.393	1.6	618552	WORD	n/a	wordpools/wordpool_categorized_EN.txt	LETTUCE	Vegetables	10	5	[0, 0, 0]	n/a	catFR1	2	R1405E
612.993	0.833	620154	WORD_OFF	n/a	n/a	LETTUCE	Vegetables	10	5	[0, 0, 0]	n/a	catFR1	2	R1405E
613.826	1.6	620982	WORD	n/a	wordpools/wordpool_categorized_EN.txt	BUS	Vehicles	11	5	[0, 0, 0]	n/a	catFR1	2	R1405E
615.426	0.917	622584	WORD_OFF	n/a	n/a	BUS	Vehicles	11	5	[0, 0, 0]	n/a	catFR1	2	R1405E
616.343	1.617	623503	WORD	n/a	wordpools/wordpool_categorized_EN.txt	MOPED	Vehicles	12	5	[0, 0, 0]	n/a	catFR1	2	R1405E
617.96	0.001	625121	PROB	0.001	n/a	n/a	n/a	-999	5	[2, 6, 2]	10	catFR1	2	R1405E
617.961	0.0	625122	START	n/a	n/a	n/a	n/a	-999	5	[-999, -999, -999]	n/a	catFR1	2	R1405E
617.96	0.001	625123	WORD_OFF	n/a	n/a	MOPED	Vehicles	12	5	[0, 0, 0]	n/a	catFR1	2	R1405E
617.961	0.0	625123	ENCODING_END	n/a	n/a	n/a	n/a	-999	5	[0, 0, 0]	n/a	catFR1	2	R1405E
617.961	2.733	625123	DISTRACT_START	n/a	n/a	n/a	n/a	-999	5	[0, 0, 0]	n/a	catFR1	2	R1405E
620.694	2.114	627855	PROB	2.114	n/a	n/a	n/a	-999	5	[1, 8, 3]	12	catFR1	2	R1405E
622.808	2.469	629969	PROB	2.469	n/a	n/a	n/a	-999	5	[5, 2, 8]	15	catFR1	2	R1405E
625.277	4.8	632438	PROB	4.8	n/a	n/a	n/a	-999	5	[2, 6, 7]	13	catFR1	2	R1405E
630.077	6.166	637238	PROB	6.166	n/a	n/a	n/a	-999	5	[3, 8, 3]	15	catFR1	2	R1405E
636.243	3.299	643404	PROB	3.299	n/a	n/a	n/a	-999	5	[5, 3, 7]	15	catFR1	2	R1405E
639.542	0.0	646701	DISTRACT_END	n/a	n/a	n/a	n/a	-999	5	[0, 0, 0]	n/a	catFR1	2	R1405E
639.542	2.099	646703	STOP	n/a	n/a	n/a	n/a	-999	5	[-999, -999, -999]	n/a	catFR1	2	R1405E
641.641	6.873	648802	REC_START	n/a	n/a	n/a	n/a	-999	5	[0, 0, 0]	n/a	catFR1	2	R1405E
648.514	2.826	655675	REC_WORD	2.826	n/a	TRUCK	Vehicles	5	5	[0, 0, 0]	n/a	catFR1	2	R1405E
651.34	5.9	658501	REC_WORD	5.9	n/a	CAR	n/a	-999	5	[0, 0, 0]	n/a	catFR1	2	R1405E
657.24	2.485	664401	REC_WORD	2.485	n/a	CABINET	Furniture	-999	5	[0, 0, 0]	n/a	catFR1	2	R1405E
659.725	4.09	666886	REC_WORD	4.09	n/a	PEAS	Vegetables	1	5	[0, 0, 0]	n/a	catFR1	2	R1405E
663.815	8.089	670976	REC_WORD	8.089	n/a	ONION	Vegetables	2	5	[0, 0, 0]	n/a	catFR1	2	R1405E
671.904	3.053	679064	REC_END	n/a	n/a	n/a	n/a	-999	5	[0, 0, 0]	n/a	catFR1	2	R1405E
674.957	10.35	682122	COUNTDOWN_START	n/a	n/a	n/a	n/a	-999	6	[0, 0, 0]	n/a	catFR1	2	R1405E
685.307	0.001	692470	COUNTDOWN_END	n/a	n/a	n/a	n/a	-999	6	[0, 0, 0]	n/a	catFR1	2	R1405E
685.308	2.299	692470	ENCODING_START	n/a	n/a	n/a	n/a	-999	6	[0, 0, 0]	n/a	catFR1	2	R1405E
687.607	1.617	694772	WORD	n/a	wordpools/wordpool_categorized_EN.txt	CARNATION	Flowers	1	6	[0, 0, 0]	n/a	catFR1	2	R1405E
689.224	0.816	696383	WORD_OFF	n/a	n/a	CARNATION	Flowers	1	6	[0, 0, 0]	n/a	catFR1	2	R1405E
690.04	1.601	697202	WORD	n/a	wordpools/wordpool_categorized_EN.txt	TULIP	Flowers	2	6	[0, 0, 0]	n/a	catFR1	2	R1405E
691.641	0.883	698804	WORD_OFF	n/a	n/a	TULIP	Flowers	2	6	[0, 0, 0]	n/a	catFR1	2	R1405E
692.524	1.615	699687	WORD	n/a	wordpools/wordpool_categorized_EN.txt	ROOM	Building	3	6	[0, 0, 0]	n/a	catFR1	2	R1405E
694.139	0.951	701298	WORD_OFF	n/a	n/a	ROOM	Building	3	6	[0, 0, 0]	n/a	catFR1	2	R1405E
695.09	1.617	702253	WORD	n/a	wordpools/wordpool_categorized_EN.txt	FLOOR	Building	4	6	[0, 0, 0]	n/a	catFR1	2	R1405E
696.707	0.983	703864	WORD_OFF	n/a	n/a	FLOOR	Building	4	6	[0, 0, 0]	n/a	catFR1	2	R1405E
697.69	1.617	704847	WORD	n/a	wordpools/wordpool_categorized_EN.txt	SPATULA	KitchenTools	5	6	[0, 0, 0]	n/a	catFR1	2	R1405E
699.307	0.85	706467	WORD_OFF	n/a	n/a	SPATULA	KitchenTools	5	6	[0, 0, 0]	n/a	catFR1	2	R1405E
700.157	1.616	707322	WORD	n/a	wordpools/wordpool_categorized_EN.txt	LADLE	KitchenTools	6	6	[0, 0, 0]	n/a	catFR1	2	R1405E
701.773	0.834	708933	WORD_OFF	n/a	n/a	LADLE	KitchenTools	6	6	[0, 0, 0]	n/a	catFR1	2	R1405E
702.607	1.6	709771	WORD	n/a	wordpools/wordpool_categorized_EN.txt	MARIGOLD	Flowers	7	6	[0, 0, 0]	n/a	catFR1	2	R1405E
704.207	0.816	711372	WORD_OFF	n/a	n/a	MARIGOLD	Flowers	7	6	[0, 0, 0]	n/a	catFR1	2	R1405E
705.023	1.617	712182	WORD	n/a	wordpools/wordpool_categorized_EN.txt	ORCHID	Flowers	8	6	[0, 0, 0]	n/a	catFR1	2	R1405E
706.64	0.8	713802	WORD_OFF	n/a	n/a	ORCHID	Flowers	8	6	[0, 0, 0]	n/a	catFR1	2	R1405E
707.44	1.616	714603	WORD	n/a	wordpools/wordpool_categorized_EN.txt	DOOR	Building	9	6	[0, 0, 0]	n/a	catFR1	2	R1405E
709.056	0.9	716214	WORD_OFF	n/a	n/a	DOOR	Building	9	6	[0, 0, 0]	n/a	catFR1	2	R1405E
709.956	1.6	717115	WORD	n/a	wordpools/wordpool_categorized_EN.txt	CEILING	Building	10	6	[0, 0, 0]	n/a	catFR1	2	R1405E
711.556	1.0	718717	WORD_OFF	n/a	n/a	CEILING	Building	10	6	[0, 0, 0]	n/a	catFR1	2	R1405E
712.556	1.6	719718	WORD	n/a	wordpools/wordpool_categorized_EN.txt	STRAINER	KitchenTools	11	6	[0, 0, 0]	n/a	catFR1	2	R1405E
714.156	0.883	721320	WORD_OFF	n/a	n/a	STRAINER	KitchenTools	11	6	[0, 0, 0]	n/a	catFR1	2	R1405E
715.039	1.617	722202	WORD	n/a	wordpools/wordpool_categorized_EN.txt	KNIFE	KitchenTools	12	6	[0, 0, 0]	n/a	catFR1	2	R1405E
716.656	0.0	723814	WORD_OFF	n/a	n/a	KNIFE	KitchenTools	12	6	[0, 0, 0]	n/a	catFR1	2	R1405E
716.656	0.002	723817	PROB	0.002	n/a	n/a	n/a	-999	6	[7, 4, 4]	15	catFR1	2	R1405E
716.658	0.0	723819	START	n/a	n/a	n/a	n/a	-999	6	[-999, -999, -999]	n/a	catFR1	2	R1405E
716.658	0.0	723822	ENCODING_END	n/a	n/a	n/a	n/a	-999	6	[0, 0, 0]	n/a	catFR1	2	R1405E
716.658	5.031	723822	DISTRACT_START	n/a	n/a	n/a	n/a	-999	6	[0, 0, 0]	n/a	catFR1	2	R1405E
721.689	2.65	728850	PROB	2.65	n/a	n/a	n/a	-999	6	[5, 2, 1]	8	catFR1	2	R1405E
724.339	4.801	731500	PROB	4.801	n/a	n/a	n/a	-999	6	[8, 1, 3]	13	catFR1	2	R1405E
729.14	3.086	736301	PROB	3.086	n/a	n/a	n/a	-999	6	[4, 6, 2]	12	catFR1	2	R1405E
732.226	3.33	739387	PROB	3.33	n/a	n/a	n/a	-999	6	[8, 3, 2]	13	catFR1	2	R1405E
735.556	6.865	742717	PROB	6.865	n/a	n/a	n/a	-999	6	[8, 5, 7]	20	catFR1	2	R1405E
742.421	0.0	749578	DISTRACT_END	n/a	n/a	n/a	n/a	-999	6	[0, 0, 0]	n/a	catFR1	2	R1405E
742.421	2.184	749582	STOP	n/a	n/a	n/a	n/a	-999	6	[-999, -999, -999]	n/a	catFR1	2	R1405E
744.605	1.53	751770	REC_START	n/a	n/a	n/a	n/a	-999	6	[0, 0, 0]	n/a	catFR1	2	R1405E
746.135	28.734	753296	REC_WORD	28.734	n/a	PETUNIA	Flowers	-999	6	[0, 0, 0]	n/a	catFR1	2	R1405E
774.869	5.117	782032	REC_END	n/a	n/a	n/a	n/a	-999	6	[0, 0, 0]	n/a	catFR1	2	R1405E
779.986	10.351	787146	COUNTDOWN_START	n/a	n/a	n/a	n/a	-999	7	[0, 0, 0]	n/a	catFR1	2	R1405E
790.337	0.0	797494	COUNTDOWN_END	n/a	n/a	n/a	n/a	-999	7	[0, 0, 0]	n/a	catFR1	2	R1405E
790.337	2.166	797503	ENCODING_START	n/a	n/a	n/a	n/a	-999	7	[0, 0, 0]	n/a	catFR1	2	R1405E
792.503	1.6	799660	WORD	n/a	wordpools/wordpool_categorized_EN.txt	SPEAKER	Electronics	1	7	[0, 0, 0]	n/a	catFR1	2	R1405E
794.103	0.8	801262	WORD_OFF	n/a	n/a	SPEAKER	Electronics	1	7	[0, 0, 0]	n/a	catFR1	2	R1405E
794.903	1.6	802063	WORD	n/a	wordpools/wordpool_categorized_EN.txt	TELEVISION	Electronics	2	7	[0, 0, 0]	n/a	catFR1	2	R1405E
796.503	0.817	803665	WORD_OFF	n/a	n/a	TELEVISION	Electronics	2	7	[0, 0, 0]	n/a	catFR1	2	R1405E
797.32	1.616	804484	WORD	n/a	wordpools/wordpool_categorized_EN.txt	WINE	Beverages	3	7	[0, 0, 0]	n/a	catFR1	2	R1405E
798.936	0.9	806095	WORD_OFF	n/a	n/a	WINE	Beverages	3	7	[0, 0, 0]	n/a	catFR1	2	R1405E
799.836	1.616	806996	WORD	n/a	wordpools/wordpool_categorized_EN.txt	BEER	Beverages	4	7	[0, 0, 0]	n/a	catFR1	2	R1405E
801.452	0.767	808616	WORD_OFF	n/a	n/a	BEER	Beverages	4	7	[0, 0, 0]	n/a	catFR1	2	R1405E
802.219	1.601	809380	WORD	n/a	wordpools/wordpool_categorized_EN.txt	BOOKCASE	Furniture	5	7	[0, 0, 0]	n/a	catFR1	2	R1405E
803.82	0.883	810982	WORD_OFF	n/a	n/a	BOOKCASE	Furniture	5	7	[0, 0, 0]	n/a	catFR1	2	R1405E
804.703	1.616	811865	WORD	n/a	wordpools/wordpool_categorized_EN.txt	BED	Furniture	6	7	[0, 0, 0]	n/a	catFR1	2	R1405E
806.319	0.967	813475	WORD_OFF	n/a	n/a	BED	Furniture	6	7	[0, 0, 0]	n/a	catFR1	2	R1405E
807.286	1.6	814449	WORD	n/a	wordpools/wordpool_categorized_EN.txt	CIDER	Beverages	7	7	[0, 0, 0]	n/a	catFR1	2	R1405E
808.886	0.867	816051	WORD_OFF	n/a	n/a	CIDER	Beverages	7	7	[0, 0, 0]	n/a	catFR1	2	R1405E
809.753	1.6	816916	WORD	n/a	wordpools/wordpool_categorized_EN.txt	COLA	Beverages	8	7	[0, 0, 0]	n/a	catFR1	2	R1405E
811.353	0.866	818517	WORD_OFF	n/a	n/a	COLA	Beverages	8	7	[0, 0, 0]	n/a	catFR1	2	R1405E
812.219	1.6	819382	WORD	n/a	wordpools/wordpool_categorized_EN.txt	DESK	Furniture	9	7	[0, 0, 0]	n/a	catFR1	2	R1405E
813.819	0.783	820984	WORD_OFF	n/a	n/a	DESK	Furniture	9	7	[0, 0, 0]	n/a	catFR1	2	R1405E
814.602	1.617	821766	WORD	n/a	wordpools/wordpool_categorized_EN.txt	TABLE	Furniture	10	7	[0, 0, 0]	n/a	catFR1	2	R1405E
816.219	0.917	823377	WORD_OFF	n/a	n/a	TABLE	Furniture	10	7	[0, 0, 0]	n/a	catFR1	2	R1405E
817.136	1.616	824296	WORD	n/a	wordpools/wordpool_categorized_EN.txt	HEADPHONES	Electronics	11	7	[0, 0, 0]	n/a	catFR1	2	R1405E
818.752	0.983	825916	WORD_OFF	n/a	n/a	HEADPHONES	Electronics	11	7	[0, 0, 0]	n/a	catFR1	2	R1405E
819.735	1.601	826899	WORD	n/a	wordpools/wordpool_categorized_EN.txt	COMPUTER	Electronics	12	7	[0, 0, 0]	n/a	catFR1	2	R1405E
821.336	0.001	828497	PROB	0.001	n/a	n/a	n/a	-999	7	[8, 4, 1]	13	catFR1	2	R1405E
821.337	0.0	828498	START	n/a	n/a	n/a	n/a	-999	7	[-999, -999, -999]	n/a	catFR1	2	R1405E
821.336	0.001	828501	WORD_OFF	n/a	n/a	COMPUTER	Electronics	12	7	[0, 0, 0]	n/a	catFR1	2	R1405E
821.337	0.0	828501	ENCODING_END	n/a	n/a	n/a	n/a	-999	7	[0, 0, 0]	n/a	catFR1	2	R1405E
821.337	3.916	828501	DISTRACT_START	n/a	n/a	n/a	n/a	-999	7	[0, 0, 0]	n/a	catFR1	2	R1405E
825.253	2.883	832414	PROB	2.883	n/a	n/a	n/a	-999	7	[8, 2, 3]	13	catFR1	2	R1405E
828.136	5.816	835297	PROB	5.816	n/a	n/a	n/a	-999	7	[4, 3, 8]	15	catFR1	2	R1405E
833.952	2.3	841113	PROB	2.3	n/a	n/a	n/a	-999	7	[1, 2, 1]	4	catFR1	2	R1405E
836.252	2.983	843413	PROB	2.983	n/a	n/a	n/a	-999	7	[5, 8, 2]	15	catFR1	2	R1405E
839.235	8.282	846396	PROB	8.282	n/a	n/a	n/a	-999	7	[4, 2, 4]	10	catFR1	2	R1405E
847.517	0.0	854675	DISTRACT_END	n/a	n/a	n/a	n/a	-999	7	[0, 0, 0]	n/a	catFR1	2	R1405E
847.517	2.301	854678	STOP	n/a	n/a	n/a	n/a	-999	7	[-999, -999, -999]	n/a	catFR1	2	R1405E
849.818	2.552	856977	REC_START	n/a	n/a	n/a	n/a	-999	7	[0, 0, 0]	n/a	catFR1	2	R1405E
852.37	2.302	859531	REC_WORD	2.302	n/a	SPEAKER	Electronics	1	7	[0, 0, 0]	n/a	catFR1	2	R1405E
854.672	3.682	861833	REC_WORD	3.682	n/a	CABINET	Furniture	-999	7	[0, 0, 0]	n/a	catFR1	2	R1405E
858.354	1.163	865515	REC_WORD	1.163	n/a	BORDER	n/a	-999	7	[0, 0, 0]	n/a	catFR1	2	R1405E
859.517	4.433	866678	REC_WORD	4.433	n/a	WINE	Beverages	3	7	[0, 0, 0]	n/a	catFR1	2	R1405E
863.95	16.099	871111	REC_WORD	16.099	n/a	DOOR	Building	-999	7	[0, 0, 0]	n/a	catFR1	2	R1405E
880.049	3.318	887211	REC_END	n/a	n/a	n/a	n/a	-999	7	[0, 0, 0]	n/a	catFR1	2	R1405E
883.367	10.35	890533	COUNTDOWN_START	n/a	n/a	n/a	n/a	-999	8	[0, 0, 0]	n/a	catFR1	2	R1405E
893.717	0.0	900881	COUNTDOWN_END	n/a	n/a	n/a	n/a	-999	8	[0, 0, 0]	n/a	catFR1	2	R1405E
893.717	2.066	900881	ENCODING_START	n/a	n/a	n/a	n/a	-999	8	[0, 0, 0]	n/a	catFR1	2	R1405E
895.783	1.6	902946	WORD	n/a	wordpools/wordpool_categorized_EN.txt	CORN	Vegetables	1	8	[0, 0, 0]	n/a	catFR1	2	R1405E
897.383	0.933	904548	WORD_OFF	n/a	n/a	CORN	Vegetables	1	8	[0, 0, 0]	n/a	catFR1	2	R1405E
898.316	1.617	905477	WORD	n/a	wordpools/wordpool_categorized_EN.txt	POTATO	Vegetables	2	8	[0, 0, 0]	n/a	catFR1	2	R1405E
899.933	1.0	907096	WORD_OFF	n/a	n/a	POTATO	Vegetables	2	8	[0, 0, 0]	n/a	catFR1	2	R1405E
900.933	1.616	908098	WORD	n/a	wordpools/wordpool_categorized_EN.txt	ROBIN	Birds	3	8	[0, 0, 0]	n/a	catFR1	2	R1405E
902.549	0.899	909708	WORD_OFF	n/a	n/a	ROBIN	Birds	3	8	[0, 0, 0]	n/a	catFR1	2	R1405E
903.448	1.601	910609	WORD	n/a	wordpools/wordpool_categorized_EN.txt	PIGEON	Birds	4	8	[0, 0, 0]	n/a	catFR1	2	R1405E
905.049	0.934	912211	WORD_OFF	n/a	n/a	PIGEON	Birds	4	8	[0, 0, 0]	n/a	catFR1	2	R1405E
905.983	1.616	913147	WORD	n/a	wordpools/wordpool_categorized_EN.txt	BULL	FarmAnimals	5	8	[0, 0, 0]	n/a	catFR1	2	R1405E
907.599	0.917	914759	WORD_OFF	n/a	n/a	BULL	FarmAnimals	5	8	[0, 0, 0]	n/a	catFR1	2	R1405E
908.516	1.617	915679	WORD	n/a	wordpools/wordpool_categorized_EN.txt	ROOSTER	FarmAnimals	6	8	[0, 0, 0]	n/a	catFR1	2	R1405E
910.133	1.001	917299	WORD_OFF	n/a	n/a	ROOSTER	FarmAnimals	6	8	[0, 0, 0]	n/a	catFR1	2	R1405E
911.134	1.598	918300	WORD	n/a	wordpools/wordpool_categorized_EN.txt	BLUEBIRD	Birds	7	8	[0, 0, 0]	n/a	catFR1	2	R1405E
912.732	0.767	919892	WORD_OFF	n/a	n/a	BLUEBIRD	Birds	7	8	[0, 0, 0]	n/a	catFR1	2	R1405E
913.499	1.616	920657	WORD	n/a	wordpools/wordpool_categorized_EN.txt	SPARROW	Birds	8	8	[0, 0, 0]	n/a	catFR1	2	R1405E
915.115	0.884	922277	WORD_OFF	n/a	n/a	SPARROW	Birds	8	8	[0, 0, 0]	n/a	catFR1	2	R1405E
915.999	1.6	923160	WORD	n/a	wordpools/wordpool_categorized_EN.txt	SHEEP	FarmAnimals	9	8	[0, 0, 0]	n/a	catFR1	2	R1405E
917.599	0.899	924761	WORD_OFF	n/a	n/a	SHEEP	FarmAnimals	9	8	[0, 0, 0]	n/a	catFR1	2	R1405E
918.498	1.601	925662	WORD	n/a	wordpools/wordpool_categorized_EN.txt	COW	FarmAnimals	10	8	[0, 0, 0]	n/a	catFR1	2	R1405E
920.099	0.966	927264	WORD_OFF	n/a	n/a	COW	FarmAnimals	10	8	[0, 0, 0]	n/a	catFR1	2	R1405E
921.065	1.6	928229	WORD	n/a	wordpools/wordpool_categorized_EN.txt	SPINACH	Vegetables	11	8	[0, 0, 0]	n/a	catFR1	2	R1405E
922.665	0.85	929831	WORD_OFF	n/a	n/a	SPINACH	Vegetables	11	8	[0, 0, 0]	n/a	catFR1	2	R1405E
923.515	1.616	930677	WORD	n/a	wordpools/wordpool_categorized_EN.txt	CAULIFLOWER	Vegetables	12	8	[0, 0, 0]	n/a	catFR1	2	R1405E
925.131	0.002	932292	PROB	0.002	n/a	n/a	n/a	-999	8	[1, 8, 7]	16	catFR1	2	R1405E
925.133	0.0	932294	START	n/a	n/a	n/a	n/a	-999	8	[-999, -999, -999]	n/a	catFR1	2	R1405E
925.131	0.002	932297	WORD_OFF	n/a	n/a	CAULIFLOWER	Vegetables	12	8	[0, 0, 0]	n/a	catFR1	2	R1405E
925.133	0.0	932297	ENCODING_END	n/a	n/a	n/a	n/a	-999	8	[0, 0, 0]	n/a	catFR1	2	R1405E
925.133	3.233	932297	DISTRACT_START	n/a	n/a	n/a	n/a	-999	8	[0, 0, 0]	n/a	catFR1	2	R1405E
928.366	3.316	935527	PROB	3.316	n/a	n/a	n/a	-999	8	[4, 5, 4]	14	catFR1	2	R1405E
931.682	4.2	938843	PROB	4.2	n/a	n/a	n/a	-999	8	[1, 2, 3]	6	catFR1	2	R1405E
935.882	4.083	943043	PROB	4.083	n/a	n/a	n/a	-999	8	[3, 4, 7]	14	catFR1	2	R1405E
939.965	4.55	947126	PROB	4.55	n/a	n/a	n/a	-999	8	[2, 7, 6]	15	catFR1	2	R1405E
944.515	5.215	951676	PROB	5.215	n/a	n/a	n/a	-999	8	[5, 7, 4]	16	catFR1	2	R1405E
949.73	0.0	956888	DISTRACT_END	n/a	n/a	n/a	n/a	-999	8	[0, 0, 0]	n/a	catFR1	2	R1405E
949.73	2.034	956891	STOP	n/a	n/a	n/a	n/a	-999	8	[-999, -999, -999]	n/a	catFR1	2	R1405E
951.764	0.822	958925	REC_START	n/a	n/a	n/a	n/a	-999	8	[0, 0, 0]	n/a	catFR1	2	R1405E
952.586	0.454	959747	REC_WORD	0.454	n/a	COW	FarmAnimals	10	8	[0, 0, 0]	n/a	catFR1	2	R1405E
953.04	0.903	960201	REC_WORD	0.903	n/a	SHEEP	FarmAnimals	9	8	[0, 0, 0]	n/a	catFR1	2	R1405E
953.943	3.839	961104	REC_WORD	3.839	n/a	SHEPHERD	n/a	-999	8	[0, 0, 0]	n/a	catFR1	2	R1405E
957.782	12.79	964943	REC_WORD	12.79	n/a	DOOR	Building	-999	8	[0, 0, 0]	n/a	catFR1	2	R1405E
970.572	11.454	977733	REC_WORD	11.454	n/a	WOOL	Fabric	-999	8	[0, 0, 0]	n/a	catFR1	2	R1405E
982.026	4.586	989187	REC_END	n/a	n/a	n/a	n/a	-999	8	[0, 0, 0]	n/a	catFR1	2	R1405E
986.612	10.352	993774	COUNTDOWN_START	n/a	n/a	n/a	n/a	-999	9	[0, 0, 0]	n/a	catFR1	2	R1405E
996.964	0.001	1004130	COUNTDOWN_END	n/a	n/a	n/a	n/a	-999	9	[0, 0, 0]	n/a	catFR1	2	R1405E
996.965	1.947	1004130	ENCODING_START	n/a	n/a	n/a	n/a	-999	9	[0, 0, 0]	n/a	catFR1	2	R1405E
998.912	1.617	1006078	WORD	n/a	wordpools/wordpool_categorized_EN.txt	CYPRESS	Trees	1	9	[0, 0, 0]	n/a	catFR1	2	R1405E
1000.529	0.95	1007689	WORD_OFF	n/a	n/a	CYPRESS	Trees	1	9	[0, 0, 0]	n/a	catFR1	2	R1405E
1001.479	1.617	1008644	WORD	n/a	wordpools/wordpool_categorized_EN.txt	SPRUCE	Trees	2	9	[0, 0, 0]	n/a	catFR1	2	R1405E
1003.096	0.933	1010255	WORD_OFF	n/a	n/a	SPRUCE	Trees	2	9	[0, 0, 0]	n/a	catFR1	2	R1405E
1004.029	1.6	1011193	WORD	n/a	wordpools/wordpool_categorized_EN.txt	CHICKEN	FarmAnimals	3	9	[0, 0, 0]	n/a	catFR1	2	R1405E
1005.629	0.766	1012795	WORD_OFF	n/a	n/a	CHICKEN	FarmAnimals	3	9	[0, 0, 0]	n/a	catFR1	2	R1405E
1006.395	1.6	1013559	WORD	n/a	wordpools/wordpool_categorized_EN.txt	HEN	FarmAnimals	4	9	[0, 0, 0]	n/a	catFR1	2	R1405E
1007.995	0.834	1015161	WORD_OFF	n/a	n/a	HEN	FarmAnimals	4	9	[0, 0, 0]	n/a	catFR1	2	R1405E
1008.829	1.616	1015989	WORD	n/a	wordpools/wordpool_categorized_EN.txt	WHALE	OceanAnimals	5	9	[0, 0, 0]	n/a	catFR1	2	R1405E
1010.445	1.0	1017609	WORD_OFF	n/a	n/a	WHALE	OceanAnimals	5	9	[0, 0, 0]	n/a	catFR1	2	R1405E
1011.445	1.617	1018610	WORD	n/a	wordpools/wordpool_categorized_EN.txt	SQUID	OceanAnimals	6	9	[0, 0, 0]	n/a	catFR1	2	R1405E
1013.062	0.8	1020221	WORD_OFF	n/a	n/a	SQUID	OceanAnimals	6	9	[0, 0, 0]	n/a	catFR1	2	R1405E
1013.862	1.6	1021022	WORD	n/a	wordpools/wordpool_categorized_EN.txt	EVERGREEN	Trees	7	9	[0, 0, 0]	n/a	catFR1	2	R1405E
1015.462	0.8	1022623	WORD_OFF	n/a	n/a	EVERGREEN	Trees	7	9	[0, 0, 0]	n/a	catFR1	2	R1405E
1016.262	1.6	1023424	WORD	n/a	wordpools/wordpool_categorized_EN.txt	HICKORY	Trees	8	9	[0, 0, 0]	n/a	catFR1	2	R1405E
1017.862	0.917	1025026	WORD_OFF	n/a	n/a	HICKORY	Trees	8	9	[0, 0, 0]	n/a	catFR1	2	R1405E
1018.779	1.6	1025936	WORD	n/a	wordpools/wordpool_categorized_EN.txt	DOLPHIN	OceanAnimals	9	9	[0, 0, 0]	n/a	catFR1	2	R1405E
1020.379	0.766	1027538	WORD_OFF	n/a	n/a	DOLPHIN	OceanAnimals	9	9	[0, 0, 0]	n/a	catFR1	2	R1405E
1021.145	1.6	1028302	WORD	n/a	wordpools/wordpool_categorized_EN.txt	OYSTER	OceanAnimals	10	9	[0, 0, 0]	n/a	catFR1	2	R1405E
1022.745	0.799	1029904	WORD_OFF	n/a	n/a	OYSTER	OceanAnimals	10	9	[0, 0, 0]	n/a	catFR1	2	R1405E
1023.544	1.601	1030705	WORD	n/a	wordpools/wordpool_categorized_EN.txt	CALF	FarmAnimals	11	9	[0, 0, 0]	n/a	catFR1	2	R1405E
1025.145	0.767	1032307	WORD_OFF	n/a	n/a	CALF	FarmAnimals	11	9	[0, 0, 0]	n/a	catFR1	2	R1405E
1025.912	1.599	1033071	WORD	n/a	wordpools/wordpool_categorized_EN.txt	TURKEY	FarmAnimals	12	9	[0, 0, 0]	n/a	catFR1	2	R1405E
1027.511	0.002	1034673	WORD_OFF	n/a	n/a	TURKEY	FarmAnimals	12	9	[0, 0, 0]	n/a	catFR1	2	R1405E
1027.513	0.0	1034673	ENCODING_END	n/a	n/a	n/a	n/a	-999	9	[0, 0, 0]	n/a	catFR1	2	R1405E
1027.513	0.0	1034673	DISTRACT_START	n/a	n/a	n/a	n/a	-999	9	[0, 0, 0]	n/a	catFR1	2	R1405E
1027.512	0.001	1034673	PROB	0.001	n/a	n/a	n/a	-999	9	[3, 1, 7]	11	catFR1	2	R1405E
1027.513	2.449	1034674	START	n/a	n/a	n/a	n/a	-999	9	[-999, -999, -999]	n/a	catFR1	2	R1405E
1029.962	2.15	1037123	PROB	2.15	n/a	n/a	n/a	-999	9	[3, 7, 5]	15	catFR1	2	R1405E
1032.112	4.749	1039273	PROB	4.749	n/a	n/a	n/a	-999	9	[5, 3, 8]	16	catFR1	2	R1405E
1036.861	2.55	1044022	PROB	2.55	n/a	n/a	n/a	-999	9	[7, 2, 7]	16	catFR1	2	R1405E
1039.411	3.351	1046572	PROB	3.351	n/a	n/a	n/a	-999	9	[3, 3, 2]	8	catFR1	2	R1405E
1042.762	4.366	1049923	PROB	4.366	n/a	n/a	n/a	-999	9	[7, 7, 3]	17	catFR1	2	R1405E
1047.128	2.783	1054289	PROB	2.783	n/a	n/a	n/a	-999	9	[3, 5, 4]	12	catFR1	2	R1405E
1049.911	0.0	1057070	DISTRACT_END	n/a	n/a	n/a	n/a	-999	9	[0, 0, 0]	n/a	catFR1	2	R1405E
1049.911	2.349	1057072	STOP	n/a	n/a	n/a	n/a	-999	9	[-999, -999, -999]	n/a	catFR1	2	R1405E
1052.26	0.863	1059417	REC_START	n/a	n/a	n/a	n/a	-999	9	[0, 0, 0]	n/a	catFR1	2	R1405E
1053.123	0.803	1060284	REC_WORD	0.803	n/a	WHALE	OceanAnimals	5	9	[0, 0, 0]	n/a	catFR1	2	R1405E
1053.926	2.363	1061087	REC_WORD	2.363	n/a	DOLPHIN	OceanAnimals	9	9	[0, 0, 0]	n/a	catFR1	2	R1405E
1056.289	14.613	1063450	REC_WORD	14.613	n/a	HICKORY	Trees	8	9	[0, 0, 0]	n/a	catFR1	2	R1405E
1070.902	11.599	1078063	REC_WORD	11.599	n/a	CYPRESS	Trees	1	9	[0, 0, 0]	n/a	catFR1	2	R1405E
1082.501	3.991	1089661	REC_END	n/a	n/a	n/a	n/a	-999	9	[0, 0, 0]	n/a	catFR1	2	R1405E
1086.492	10.351	1093656	COUNTDOWN_START	n/a	n/a	n/a	n/a	-999	10	[0, 0, 0]	n/a	catFR1	2	R1405E
1096.843	0.0	1104004	COUNTDOWN_END	n/a	n/a	n/a	n/a	-999	10	[0, 0, 0]	n/a	catFR1	2	R1405E
1096.843	2.066	1104004	ENCODING_START	n/a	n/a	n/a	n/a	-999	10	[0, 0, 0]	n/a	catFR1	2	R1405E
1098.909	1.616	1106070	WORD	n/a	wordpools/wordpool_categorized_EN.txt	PIG	FarmAnimals	1	10	[0, 0, 0]	n/a	catFR1	2	R1405E
1100.525	0.917	1107690	WORD_OFF	n/a	n/a	PIG	FarmAnimals	1	10	[0, 0, 0]	n/a	catFR1	2	R1405E
1101.442	1.6	1108600	WORD	n/a	wordpools/wordpool_categorized_EN.txt	LAMB	FarmAnimals	2	10	[0, 0, 0]	n/a	catFR1	2	R1405E
1103.042	0.767	1110202	WORD_OFF	n/a	n/a	LAMB	FarmAnimals	2	10	[0, 0, 0]	n/a	catFR1	2	R1405E
1103.809	1.616	1110975	WORD	n/a	wordpools/wordpool_categorized_EN.txt	CROWBAR	Tools	3	10	[0, 0, 0]	n/a	catFR1	2	R1405E
1105.425	0.984	1112586	WORD_OFF	n/a	n/a	CROWBAR	Tools	3	10	[0, 0, 0]	n/a	catFR1	2	R1405E
1106.409	1.6	1113569	WORD	n/a	wordpools/wordpool_categorized_EN.txt	HAMMER	Tools	4	10	[0, 0, 0]	n/a	catFR1	2	R1405E
1108.009	0.799	1115171	WORD_OFF	n/a	n/a	HAMMER	Tools	4	10	[0, 0, 0]	n/a	catFR1	2	R1405E
1108.808	1.617	1115972	WORD	n/a	wordpools/wordpool_categorized_EN.txt	FOG	Weather	5	10	[0, 0, 0]	n/a	catFR1	2	R1405E
1110.425	1.0	1117582	WORD_OFF	n/a	n/a	FOG	Weather	5	10	[0, 0, 0]	n/a	catFR1	2	R1405E
1111.425	1.617	1118584	WORD	n/a	wordpools/wordpool_categorized_EN.txt	WIND	Weather	6	10	[0, 0, 0]	n/a	catFR1	2	R1405E
1113.042	0.783	1120203	WORD_OFF	n/a	n/a	WIND	Weather	6	10	[0, 0, 0]	n/a	catFR1	2	R1405E
1113.825	1.6	1120986	WORD	n/a	wordpools/wordpool_categorized_EN.txt	HORSE	FarmAnimals	7	10	[0, 0, 0]	n/a	catFR1	2	R1405E
1115.425	0.816	1122588	WORD_OFF	n/a	n/a	HORSE	FarmAnimals	7	10	[0, 0, 0]	n/a	catFR1	2	R1405E
1116.241	1.6	1123407	WORD	n/a	wordpools/wordpool_categorized_EN.txt	GOAT	FarmAnimals	8	10	[0, 0, 0]	n/a	catFR1	2	R1405E
1117.841	0.801	1125000	WORD_OFF	n/a	n/a	GOAT	FarmAnimals	8	10	[0, 0, 0]	n/a	catFR1	2	R1405E
1118.642	1.599	1125801	WORD	n/a	wordpools/wordpool_categorized_EN.txt	HUMIDITY	Weather	9	10	[0, 0, 0]	n/a	catFR1	2	R1405E
1120.241	0.9	1127402	WORD_OFF	n/a	n/a	HUMIDITY	Weather	9	10	[0, 0, 0]	n/a	catFR1	2	R1405E
1121.141	1.6	1128303	WORD	n/a	wordpools/wordpool_categorized_EN.txt	HURRICANE	Weather	10	10	[0, 0, 0]	n/a	catFR1	2	R1405E
1122.741	0.917	1129905	WORD_OFF	n/a	n/a	HURRICANE	Weather	10	10	[0, 0, 0]	n/a	catFR1	2	R1405E
1123.658	1.6	1130824	WORD	n/a	wordpools/wordpool_categorized_EN.txt	DRILL	Tools	11	10	[0, 0, 0]	n/a	catFR1	2	R1405E
1125.258	0.767	1132417	WORD_OFF	n/a	n/a	DRILL	Tools	11	10	[0, 0, 0]	n/a	catFR1	2	R1405E
1126.025	1.599	1133190	WORD	n/a	wordpools/wordpool_categorized_EN.txt	SAW	Tools	12	10	[0, 0, 0]	n/a	catFR1	2	R1405E
1127.624	0.001	1134783	WORD_OFF	n/a	n/a	SAW	Tools	12	10	[0, 0, 0]	n/a	catFR1	2	R1405E
1127.625	0.001	1134786	PROB	0.001	n/a	n/a	n/a	-999	10	[3, 5, 6]	14	catFR1	2	R1405E
1127.626	0.0	1134787	START	n/a	n/a	n/a	n/a	-999	10	[-999, -999, -999]	n/a	catFR1	2	R1405E
1127.626	0.0	1134792	ENCODING_END	n/a	n/a	n/a	n/a	-999	10	[0, 0, 0]	n/a	catFR1	2	R1405E
1127.626	3.033	1134792	DISTRACT_START	n/a	n/a	n/a	n/a	-999	10	[0, 0, 0]	n/a	catFR1	2	R1405E
1130.659	3.099	1137820	PROB	3.099	n/a	n/a	n/a	-999	10	[8, 8, 2]	18	catFR1	2	R1405E
1133.758	3.267	1140919	PROB	3.267	n/a	n/a	n/a	-999	10	[4, 5, 5]	14	catFR1	2	R1405E
1137.025	5.666	1144186	PROB	5.666	n/a	n/a	n/a	-999	10	[4, 7, 6]	15	catFR1	2	R1405E
1142.691	3.35	1149852	PROB	3.35	n/a	n/a	n/a	-999	10	[2, 7, 3]	12	catFR1	2	R1405E
1146.041	4.366	1153202	PROB	4.366	n/a	n/a	n/a	-999	10	[8, 6, 4]	18	catFR1	2	R1405E
1150.407	0.0	1157568	STOP	n/a	n/a	n/a	n/a	-999	10	[-999, -999, -999]	n/a	catFR1	2	R1405E
1150.407	2.066	1157572	DISTRACT_END	n/a	n/a	n/a	n/a	-999	10	[0, 0, 0]	n/a	catFR1	2	R1405E
1152.473	2.363	1159637	REC_START	n/a	n/a	n/a	n/a	-999	10	[0, 0, 0]	n/a	catFR1	2	R1405E
1154.836	8.664	1161997	REC_WORD	8.664	n/a	HAMMER	Tools	4	10	[0, 0, 0]	n/a	catFR1	2	R1405E
1163.5	2.947	1170661	REC_WORD	2.947	n/a	CABIN	n/a	-999	10	[0, 0, 0]	n/a	catFR1	2	R1405E
1166.447	2.63	1173608	REC_WORD	2.63	n/a	WHALE	OceanAnimals	-999	10	[0, 0, 0]	n/a	catFR1	2	R1405E
1169.077	5.211	1176238	REC_WORD	5.211	n/a	DOLPHIN	OceanAnimals	-999	10	[0, 0, 0]	n/a	catFR1	2	R1405E
1174.288	8.448	1181449	REC_WORD	8.448	n/a	SQUID	OceanAnimals	-999	10	[0, 0, 0]	n/a	catFR1	2	R1405E
1182.736	4.486	1189898	REC_END	n/a	n/a	n/a	n/a	-999	10	[0, 0, 0]	n/a	catFR1	2	R1405E
1187.222	10.352	1194385	COUNTDOWN_START	n/a	n/a	n/a	n/a	-999	11	[0, 0, 0]	n/a	catFR1	2	R1405E
1197.574	0.001	1204733	COUNTDOWN_END	n/a	n/a	n/a	n/a	-999	11	[0, 0, 0]	n/a	catFR1	2	R1405E
1197.575	1.964	1204733	ENCODING_START	n/a	n/a	n/a	n/a	-999	11	[0, 0, 0]	n/a	catFR1	2	R1405E
1199.539	1.6	1206699	WORD	n/a	wordpools/wordpool_categorized_EN.txt	STAIRS	Building	1	11	[0, 0, 0]	n/a	catFR1	2	R1405E
1201.139	0.967	1208300	WORD_OFF	n/a	n/a	STAIRS	Building	1	11	[0, 0, 0]	n/a	catFR1	2	R1405E
1202.106	1.599	1209265	WORD	n/a	wordpools/wordpool_categorized_EN.txt	WINDOW	Building	2	11	[0, 0, 0]	n/a	catFR1	2	R1405E
1203.705	0.967	1210867	WORD_OFF	n/a	n/a	WINDOW	Building	2	11	[0, 0, 0]	n/a	catFR1	2	R1405E
1204.672	1.615	1211831	WORD	n/a	wordpools/wordpool_categorized_EN.txt	RATCHET	Tools	3	11	[0, 0, 0]	n/a	catFR1	2	R1405E
1206.287	0.935	1213451	WORD_OFF	n/a	n/a	RATCHET	Tools	3	11	[0, 0, 0]	n/a	catFR1	2	R1405E
1207.222	1.6	1214380	WORD	n/a	wordpools/wordpool_categorized_EN.txt	PLIERS	Tools	4	11	[0, 0, 0]	n/a	catFR1	2	R1405E
1208.822	0.9	1215981	WORD_OFF	n/a	n/a	PLIERS	Tools	4	11	[0, 0, 0]	n/a	catFR1	2	R1405E
1209.722	1.616	1216882	WORD	n/a	wordpools/wordpool_categorized_EN.txt	CHIMPANZEE	Zoo	5	11	[0, 0, 0]	n/a	catFR1	2	R1405E
1211.338	0.816	1218502	WORD_OFF	n/a	n/a	CHIMPANZEE	Zoo	5	11	[0, 0, 0]	n/a	catFR1	2	R1405E
1212.154	1.601	1219312	WORD	n/a	wordpools/wordpool_categorized_EN.txt	MONKEY	Zoo	6	11	[0, 0, 0]	n/a	catFR1	2	R1405E
1213.755	0.95	1220914	WORD_OFF	n/a	n/a	MONKEY	Zoo	6	11	[0, 0, 0]	n/a	catFR1	2	R1405E
1214.705	1.616	1221870	WORD	n/a	wordpools/wordpool_categorized_EN.txt	BATHROOM	Building	7	11	[0, 0, 0]	n/a	catFR1	2	R1405E
1216.321	0.95	1223481	WORD_OFF	n/a	n/a	BATHROOM	Building	7	11	[0, 0, 0]	n/a	catFR1	2	R1405E
1217.271	1.616	1224436	WORD	n/a	wordpools/wordpool_categorized_EN.txt	WALL	Building	8	11	[0, 0, 0]	n/a	catFR1	2	R1405E
1218.887	0.918	1226047	WORD_OFF	n/a	n/a	WALL	Building	8	11	[0, 0, 0]	n/a	catFR1	2	R1405E
1219.805	1.599	1226966	WORD	n/a	wordpools/wordpool_categorized_EN.txt	SANDER	Tools	9	11	[0, 0, 0]	n/a	catFR1	2	R1405E
1221.404	0.784	1228568	WORD_OFF	n/a	n/a	SANDER	Tools	9	11	[0, 0, 0]	n/a	catFR1	2	R1405E
1222.188	1.616	1229351	WORD	n/a	wordpools/wordpool_categorized_EN.txt	WRENCH	Tools	10	11	[0, 0, 0]	n/a	catFR1	2	R1405E
1223.804	0.834	1230962	WORD_OFF	n/a	n/a	WRENCH	Tools	10	11	[0, 0, 0]	n/a	catFR1	2	R1405E
1224.638	1.616	1231799	WORD	n/a	wordpools/wordpool_categorized_EN.txt	ELEPHANT	Zoo	11	11	[0, 0, 0]	n/a	catFR1	2	R1405E
1226.254	0.984	1233419	WORD_OFF	n/a	n/a	ELEPHANT	Zoo	11	11	[0, 0, 0]	n/a	catFR1	2	R1405E
1227.238	1.6	1234402	WORD	n/a	wordpools/wordpool_categorized_EN.txt	PANDA	Zoo	12	11	[0, 0, 0]	n/a	catFR1	2	R1405E
1228.838	0.001	1235999	PROB	0.001	n/a	n/a	n/a	-999	11	[5, 7, 4]	18	catFR1	2	R1405E
1228.839	0.0	1236000	START	n/a	n/a	n/a	n/a	-999	11	[-999, -999, -999]	n/a	catFR1	2	R1405E
1228.837	0.002	1236003	WORD_OFF	n/a	n/a	PANDA	Zoo	12	11	[0, 0, 0]	n/a	catFR1	2	R1405E
1228.839	0.0	1236003	ENCODING_END	n/a	n/a	n/a	n/a	-999	11	[0, 0, 0]	n/a	catFR1	2	R1405E
1228.839	3.916	1236003	DISTRACT_START	n/a	n/a	n/a	n/a	-999	11	[0, 0, 0]	n/a	catFR1	2	R1405E
1232.755	2.432	1239916	PROB	2.432	n/a	n/a	n/a	-999	11	[1, 4, 1]	6	catFR1	2	R1405E
1235.187	2.134	1242348	PROB	2.134	n/a	n/a	n/a	-999	11	[1, 1, 3]	5	catFR1	2	R1405E
1237.321	4.149	1244482	PROB	4.149	n/a	n/a	n/a	-999	11	[5, 6, 8]	10	catFR1	2	R1405E
1241.47	4.718	1248631	PROB	4.718	n/a	n/a	n/a	-999	11	[3, 5, 1]	9	catFR1	2	R1405E
1246.188	6.315	1253349	PROB	6.315	n/a	n/a	n/a	-999	11	[8, 8, 3]	19	catFR1	2	R1405E
1252.503	0.0	1259664	STOP	n/a	n/a	n/a	n/a	-999	11	[-999, -999, -999]	n/a	catFR1	2	R1405E
1252.503	2.117	1259666	DISTRACT_END	n/a	n/a	n/a	n/a	-999	11	[0, 0, 0]	n/a	catFR1	2	R1405E
1254.62	1.399	1261785	REC_START	n/a	n/a	n/a	n/a	-999	11	[0, 0, 0]	n/a	catFR1	2	R1405E
1256.019	1.191	1263180	REC_WORD	1.191	n/a	CHIMPANZEE	Zoo	5	11	[0, 0, 0]	n/a	catFR1	2	R1405E
1257.21	6.098	1264371	REC_WORD	6.098	n/a	MONKEY	Zoo	6	11	[0, 0, 0]	n/a	catFR1	2	R1405E
1263.308	13.816	1270469	REC_WORD	13.816	n/a	HAMMER	Tools	-999	11	[0, 0, 0]	n/a	catFR1	2	R1405E
1277.124	5.405	1284285	REC_WORD	5.405	n/a	CABIN	n/a	-999	11	[0, 0, 0]	n/a	catFR1	2	R1405E
1282.529	2.349	1289690	REC_WORD	2.349	n/a	MONKEY	Zoo	6	11	[0, 0, 0]	n/a	catFR1	2	R1405E
1284.878	4.274	1292038	REC_END	n/a	n/a	n/a	n/a	-999	11	[0, 0, 0]	n/a	catFR1	2	R1405E
1289.152	10.35	1296315	COUNTDOWN_START	n/a	n/a	n/a	n/a	-999	12	[0, 0, 0]	n/a	catFR1	2	R1405E
1299.502	0.0	1306663	COUNTDOWN_END	n/a	n/a	n/a	n/a	-999	12	[0, 0, 0]	n/a	catFR1	2	R1405E
1299.502	2.166	1306663	ENCODING_START	n/a	n/a	n/a	n/a	-999	12	[0, 0, 0]	n/a	catFR1	2	R1405E
1301.668	1.617	1308829	WORD	n/a	wordpools/wordpool_categorized_EN.txt	RAIN	Weather	1	12	[0, 0, 0]	n/a	catFR1	2	R1405E
1303.285	0.783	1310449	WORD_OFF	n/a	n/a	RAIN	Weather	1	12	[0, 0, 0]	n/a	catFR1	2	R1405E
1304.068	1.617	1311232	WORD	n/a	wordpools/wordpool_categorized_EN.txt	SNOW	Weather	2	12	[0, 0, 0]	n/a	catFR1	2	R1405E
1305.685	0.966	1312842	WORD_OFF	n/a	n/a	SNOW	Weather	2	12	[0, 0, 0]	n/a	catFR1	2	R1405E
1306.651	1.6	1313816	WORD	n/a	wordpools/wordpool_categorized_EN.txt	GIRAFFE	Zoo	3	12	[0, 0, 0]	n/a	catFR1	2	R1405E
1308.251	0.9	1315409	WORD_OFF	n/a	n/a	GIRAFFE	Zoo	3	12	[0, 0, 0]	n/a	catFR1	2	R1405E
1309.151	1.6	1316310	WORD	n/a	wordpools/wordpool_categorized_EN.txt	TIGER	Zoo	4	12	[0, 0, 0]	n/a	catFR1	2	R1405E
1310.751	0.783	1317912	WORD_OFF	n/a	n/a	TIGER	Zoo	4	12	[0, 0, 0]	n/a	catFR1	2	R1405E
1311.534	1.617	1318694	WORD	n/a	wordpools/wordpool_categorized_EN.txt	FOUNDATION	Building	5	12	[0, 0, 0]	n/a	catFR1	2	R1405E
1313.151	0.9	1320314	WORD_OFF	n/a	n/a	FOUNDATION	Building	5	12	[0, 0, 0]	n/a	catFR1	2	R1405E
1314.051	1.6	1321215	WORD	n/a	wordpools/wordpool_categorized_EN.txt	ATTIC	Building	6	12	[0, 0, 0]	n/a	catFR1	2	R1405E
1315.651	0.917	1322817	WORD_OFF	n/a	n/a	ATTIC	Building	6	12	[0, 0, 0]	n/a	catFR1	2	R1405E
1316.568	1.616	1323727	WORD	n/a	wordpools/wordpool_categorized_EN.txt	CHEETAH	Zoo	7	12	[0, 0, 0]	n/a	catFR1	2	R1405E
1318.184	0.767	1325347	WORD_OFF	n/a	n/a	CHEETAH	Zoo	7	12	[0, 0, 0]	n/a	catFR1	2	R1405E
1318.951	1.616	1326112	WORD	n/a	wordpools/wordpool_categorized_EN.txt	BEAR	Zoo	8	12	[0, 0, 0]	n/a	catFR1	2	R1405E
1320.567	0.967	1327732	WORD_OFF	n/a	n/a	BEAR	Zoo	8	12	[0, 0, 0]	n/a	catFR1	2	R1405E
1321.534	1.617	1328696	WORD	n/a	wordpools/wordpool_categorized_EN.txt	TORNADO	Weather	9	12	[0, 0, 0]	n/a	catFR1	2	R1405E
1323.151	0.849	1330316	WORD_OFF	n/a	n/a	TORNADO	Weather	9	12	[0, 0, 0]	n/a	catFR1	2	R1405E
1324.0	1.601	1331163	WORD	n/a	wordpools/wordpool_categorized_EN.txt	LIGHTNING	Weather	10	12	[0, 0, 0]	n/a	catFR1	2	R1405E
1325.601	0.999	1332764	WORD_OFF	n/a	n/a	LIGHTNING	Weather	10	12	[0, 0, 0]	n/a	catFR1	2	R1405E
1326.6	1.617	1333765	WORD	n/a	wordpools/wordpool_categorized_EN.txt	ROOF	Building	11	12	[0, 0, 0]	n/a	catFR1	2	R1405E
1328.217	1.0	1335376	WORD_OFF	n/a	n/a	ROOF	Building	11	12	[0, 0, 0]	n/a	catFR1	2	R1405E
1329.217	1.6	1336377	WORD	n/a	wordpools/wordpool_categorized_EN.txt	HALLWAY	Building	12	12	[0, 0, 0]	n/a	catFR1	2	R1405E
1330.817	0.0	1337978	PROB	0.0	n/a	n/a	n/a	-999	12	[7, 8, 4]	19	catFR1	2	R1405E
1330.817	0.003	1337979	WORD_OFF	n/a	n/a	HALLWAY	Building	12	12	[0, 0, 0]	n/a	catFR1	2	R1405E
1330.82	0.0	1337979	ENCODING_END	n/a	n/a	n/a	n/a	-999	12	[0, 0, 0]	n/a	catFR1	2	R1405E
1330.82	0.0	1337979	DISTRACT_START	n/a	n/a	n/a	n/a	-999	12	[0, 0, 0]	n/a	catFR1	2	R1405E
1330.82	3.447	1337981	START	n/a	n/a	n/a	n/a	-999	12	[-999, -999, -999]	n/a	catFR1	2	R1405E
1334.267	3.9	1341428	PROB	3.9	n/a	n/a	n/a	-999	12	[5, 3, 8]	16	catFR1	2	R1405E
1338.167	3.283	1345328	PROB	3.283	n/a	n/a	n/a	-999	12	[8, 1, 6]	15	catFR1	2	R1405E
1341.45	4.35	1348611	PROB	4.35	n/a	n/a	n/a	-999	12	[3, 5, 2]	8	catFR1	2	R1405E
1345.8	3.834	1352961	PROB	3.834	n/a	n/a	n/a	-999	12	[2, 7, 8]	17	catFR1	2	R1405E
1349.634	3.949	1356795	PROB	3.949	n/a	n/a	n/a	-999	12	[3, 5, 4]	13	catFR1	2	R1405E
1353.583	0.0	1360741	DISTRACT_END	n/a	n/a	n/a	n/a	-999	12	[0, 0, 0]	n/a	catFR1	2	R1405E
1353.583	2.266	1360745	STOP	n/a	n/a	n/a	n/a	-999	12	[-999, -999, -999]	n/a	catFR1	2	R1405E
1355.849	1.476	1363015	REC_START	n/a	n/a	n/a	n/a	-999	12	[0, 0, 0]	n/a	catFR1	2	R1405E
1357.325	8.785	1364487	REC_WORD	8.785	n/a	GIRAFFE	Zoo	3	12	[0, 0, 0]	n/a	catFR1	2	R1405E
1366.11	1.873	1373272	REC_WORD	1.873	n/a	RAIN	Weather	1	12	[0, 0, 0]	n/a	catFR1	2	R1405E
1367.983	12.815	1375145	REC_WORD	12.815	n/a	SNOW	Weather	2	12	[0, 0, 0]	n/a	catFR1	2	R1405E
1380.798	2.707	1387960	REC_WORD	2.707	n/a	CHIMPANZEE	Zoo	-999	12	[0, 0, 0]	n/a	catFR1	2	R1405E
1383.505	2.583	1390667	REC_WORD	2.583	n/a	CHEETAH	Zoo	7	12	[0, 0, 0]	n/a	catFR1	2	R1405E
1386.088	0.0	1393249	REC_END	n/a	n/a	n/a	n/a	-999	12	[0, 0, 0]	n/a	catFR1	2	R1405E
