onset	duration	sample	trial_type	response_time	stim_file	item_name	category	serialpos	list	test	answer	experiment	session	subject
0.0	0.0	8275	INSTRUCT_START	n/a	n/a	n/a	n/a	-999	-999	[0, 0, 0]	n/a	catFR1	0	R1158T
0.0	10.85	8275	INSTRUCT_END	n/a	n/a	n/a	n/a	-999	-999	[0, 0, 0]	n/a	catFR1	0	R1158T
10.85	0.0	19124	SESS_START	n/a	n/a	n/a	n/a	-999	-999	[0, 0, 0]	n/a	catFR1	0	R1158T
10.85	195.536	19124	MIC_TEST	n/a	n/a	n/a	n/a	-999	-999	[0, 0, 0]	n/a	catFR1	0	R1158T
206.386	6.452	214649	PRACTICE_TRIAL	n/a	n/a	n/a	n/a	-999	-1	[0, 0, 0]	n/a	catFR1	0	R1158T
212.838	10.428	221100	COUNTDOWN_START	n/a	n/a	n/a	n/a	-999	-1	[0, 0, 0]	n/a	catFR1	0	R1158T
223.266	0.007	231528	COUNTDOWN_END	n/a	n/a	n/a	n/a	-999	-1	[0, 0, 0]	n/a	catFR1	0	R1158T
223.273	1.602	231535	PRACTICE_ORIENT	n/a	n/a	n/a	n/a	-999	-1	[0, 0, 0]	n/a	catFR1	0	R1158T
224.875	2.067	233137	PRACTICE_ORIENT_OFF	n/a	n/a	n/a	n/a	-999	-1	[0, 0, 0]	n/a	catFR1	0	R1158T
226.942	1.616	235204	PRACTICE_WORD	n/a	n/a	TONGUE	n/a	-1	-1	[0, 0, 0]	n/a	catFR1	0	R1158T
228.558	0.883	236819	PRACTICE_WORD_OFF	n/a	n/a	TONGUE	n/a	-999	-1	[0, 0, 0]	n/a	catFR1	0	R1158T
229.441	1.601	237702	PRACTICE_WORD	n/a	n/a	RHINO	n/a	-1	-1	[0, 0, 0]	n/a	catFR1	0	R1158T
231.042	0.867	239303	PRACTICE_WORD_OFF	n/a	n/a	RHINO	n/a	-999	-1	[0, 0, 0]	n/a	catFR1	0	R1158T
231.909	1.616	240170	PRACTICE_WORD	n/a	n/a	WAGON	n/a	-1	-1	[0, 0, 0]	n/a	catFR1	0	R1158T
233.525	0.933	241786	PRACTICE_WORD_OFF	n/a	n/a	WAGON	n/a	-999	-1	[0, 0, 0]	n/a	catFR1	0	R1158T
234.458	1.602	242719	PRACTICE_WORD	n/a	n/a	COTTON	n/a	-1	-1	[0, 0, 0]	n/a	catFR1	0	R1158T
236.06	1.0	244321	PRACTICE_WORD_OFF	n/a	n/a	COTTON	n/a	-999	-1	[0, 0, 0]	n/a	catFR1	0	R1158T
237.06	1.617	245321	PRACTICE_WORD	n/a	n/a	CHEST	n/a	-1	-1	[0, 0, 0]	n/a	catFR1	0	R1158T
238.677	0.833	246938	PRACTICE_WORD_OFF	n/a	n/a	CHEST	n/a	-999	-1	[0, 0, 0]	n/a	catFR1	0	R1158T
239.51	1.618	247771	PRACTICE_WORD	n/a	n/a	ATTIC	n/a	-1	-1	[0, 0, 0]	n/a	catFR1	0	R1158T
241.128	0.8	249389	PRACTICE_WORD_OFF	n/a	n/a	ATTIC	n/a	-999	-1	[0, 0, 0]	n/a	catFR1	0	R1158T
241.928	1.616	250189	PRACTICE_WORD	n/a	n/a	IRON	n/a	-1	-1	[0, 0, 0]	n/a	catFR1	0	R1158T
243.544	0.867	251805	PRACTICE_WORD_OFF	n/a	n/a	IRON	n/a	-999	-1	[0, 0, 0]	n/a	catFR1	0	R1158T
244.411	1.617	252672	PRACTICE_WORD	n/a	n/a	FLOOD	n/a	-1	-1	[0, 0, 0]	n/a	catFR1	0	R1158T
246.028	0.867	254288	PRACTICE_WORD_OFF	n/a	n/a	FLOOD	n/a	-999	-1	[0, 0, 0]	n/a	catFR1	0	R1158T
246.895	1.616	255155	PRACTICE_WORD	n/a	n/a	BEAM	n/a	-1	-1	[0, 0, 0]	n/a	catFR1	0	R1158T
248.511	0.784	256771	PRACTICE_WORD_OFF	n/a	n/a	BEAM	n/a	-999	-1	[0, 0, 0]	n/a	catFR1	0	R1158T
249.295	1.618	257555	PRACTICE_WORD	n/a	n/a	CAMEL	n/a	-1	-1	[0, 0, 0]	n/a	catFR1	0	R1158T
250.913	0.8	259173	PRACTICE_WORD_OFF	n/a	n/a	CAMEL	n/a	-999	-1	[0, 0, 0]	n/a	catFR1	0	R1158T
251.713	1.616	259973	PRACTICE_WORD	n/a	n/a	WATCH	n/a	-1	-1	[0, 0, 0]	n/a	catFR1	0	R1158T
253.329	0.768	261589	PRACTICE_WORD_OFF	n/a	n/a	WATCH	n/a	-999	-1	[0, 0, 0]	n/a	catFR1	0	R1158T
254.097	1.617	262357	PRACTICE_WORD	n/a	n/a	RING	n/a	-1	-1	[0, 0, 0]	n/a	catFR1	0	R1158T
255.714	0.0	263974	ENCODING_END	n/a	n/a	n/a	n/a	-999	-1	[0, 0, 0]	n/a	catFR1	0	R1158T
255.714	0.0	263974	PRACTICE_WORD_OFF	n/a	n/a	RING	n/a	-999	-1	[0, 0, 0]	n/a	catFR1	0	R1158T
255.714	0.0	263974	DISTRACT_START	n/a	n/a	n/a	n/a	-999	-1	[0, 0, 0]	n/a	catFR1	0	R1158T
255.714	0.016	263974	START	n/a	n/a	n/a	n/a	-999	-1	[-999, -999, -999]	n/a	catFR1	0	R1158T
255.73	8.018	263990	PROB	8.018	n/a	n/a	n/a	-999	-1	[4, 8, 5]	17	catFR1	0	R1158T
263.748	4.285	272007	PROB	4.285	n/a	n/a	n/a	-999	-1	[8, 1, 2]	11	catFR1	0	R1158T
268.033	4.617	276292	PROB	4.617	n/a	n/a	n/a	-999	-1	[6, 6, 3]	15	catFR1	0	R1158T
272.65	4.874	280909	PROB	4.874	n/a	n/a	n/a	-999	-1	[9, 2, 7]	18	catFR1	0	R1158T
277.524	0.01	285783	STOP	n/a	n/a	n/a	n/a	-999	-1	[-999, -999, -999]	n/a	catFR1	0	R1158T
277.534	0.601	285793	DISTRACT_END	n/a	n/a	n/a	n/a	-999	-1	[0, 0, 0]	n/a	catFR1	0	R1158T
278.135	0.52	286394	RETRIEVAL_ORIENT	n/a	n/a	n/a	n/a	-999	-1	[0, 0, 0]	n/a	catFR1	0	R1158T
278.655	30.008	286913	PRACTICE_REC_START	n/a	n/a	n/a	n/a	-999	-1	[0, 0, 0]	n/a	catFR1	0	R1158T
308.663	31.715	316920	PRACTICE_REC_END	n/a	n/a	n/a	n/a	-999	-1	[0, 0, 0]	n/a	catFR1	0	R1158T
340.378	0.5	348633	TRIAL	n/a	n/a	n/a	n/a	-999	1	[0, 0, 0]	n/a	catFR1	0	R1158T
340.878	10.428	349133	COUNTDOWN_START	n/a	n/a	n/a	n/a	-999	1	[0, 0, 0]	n/a	catFR1	0	R1158T
351.306	0.007	359560	COUNTDOWN_END	n/a	n/a	n/a	n/a	-999	1	[0, 0, 0]	n/a	catFR1	0	R1158T
351.313	1.601	359567	ORIENT	n/a	n/a	n/a	n/a	-999	1	[0, 0, 0]	n/a	catFR1	0	R1158T
352.914	1.934	361168	ORIENT_OFF	n/a	n/a	n/a	n/a	-999	1	[0, 0, 0]	n/a	catFR1	0	R1158T
354.848	1.616	363102	WORD	n/a	wordpools/wordpool_categorized_EN.txt	RUM	Beverages	1	1	[0, 0, 0]	n/a	catFR1	0	R1158T
356.464	0.95	364718	WORD_OFF	n/a	n/a	RUM	n/a	1	1	[0, 0, 0]	n/a	catFR1	0	R1158T
357.414	1.602	365668	WORD	n/a	wordpools/wordpool_categorized_EN.txt	COFFEE	Beverages	2	1	[0, 0, 0]	n/a	catFR1	0	R1158T
359.016	0.8	367270	WORD_OFF	n/a	n/a	COFFEE	n/a	2	1	[0, 0, 0]	n/a	catFR1	0	R1158T
359.816	1.616	368070	WORD	n/a	wordpools/wordpool_categorized_EN.txt	UNDERWEAR	Clothing	3	1	[0, 0, 0]	n/a	catFR1	0	R1158T
361.432	0.833	369686	WORD_OFF	n/a	n/a	UNDERWEAR	n/a	3	1	[0, 0, 0]	n/a	catFR1	0	R1158T
362.265	1.618	370519	WORD	n/a	wordpools/wordpool_categorized_EN.txt	SHOES	Clothing	4	1	[0, 0, 0]	n/a	catFR1	0	R1158T
363.883	0.85	372136	WORD_OFF	n/a	n/a	SHOES	n/a	4	1	[0, 0, 0]	n/a	catFR1	0	R1158T
364.733	1.616	372986	WORD	n/a	wordpools/wordpool_categorized_EN.txt	CEDAR	Trees	5	1	[0, 0, 0]	n/a	catFR1	0	R1158T
366.349	0.902	374602	WORD_OFF	n/a	n/a	CEDAR	n/a	5	1	[0, 0, 0]	n/a	catFR1	0	R1158T
367.251	1.617	375504	WORD	n/a	wordpools/wordpool_categorized_EN.txt	MAPLE	Trees	6	1	[0, 0, 0]	n/a	catFR1	0	R1158T
368.868	0.816	377121	WORD_OFF	n/a	n/a	MAPLE	n/a	6	1	[0, 0, 0]	n/a	catFR1	0	R1158T
369.684	1.616	377937	WORD	n/a	wordpools/wordpool_categorized_EN.txt	BEER	Beverages	7	1	[0, 0, 0]	n/a	catFR1	0	R1158T
371.3	0.852	379553	WORD_OFF	n/a	n/a	BEER	n/a	7	1	[0, 0, 0]	n/a	catFR1	0	R1158T
372.152	1.616	380405	WORD	n/a	wordpools/wordpool_categorized_EN.txt	COLA	Beverages	8	1	[0, 0, 0]	n/a	catFR1	0	R1158T
373.768	0.85	382021	WORD_OFF	n/a	n/a	COLA	n/a	8	1	[0, 0, 0]	n/a	catFR1	0	R1158T
374.618	1.618	382871	WORD	n/a	wordpools/wordpool_categorized_EN.txt	SHIRT	Clothing	9	1	[0, 0, 0]	n/a	catFR1	0	R1158T
376.236	0.916	384489	WORD_OFF	n/a	n/a	SHIRT	n/a	9	1	[0, 0, 0]	n/a	catFR1	0	R1158T
377.152	1.617	385405	WORD	n/a	wordpools/wordpool_categorized_EN.txt	JACKET	Clothing	10	1	[0, 0, 0]	n/a	catFR1	0	R1158T
378.769	0.951	387022	WORD_OFF	n/a	n/a	JACKET	n/a	10	1	[0, 0, 0]	n/a	catFR1	0	R1158T
379.72	1.616	387973	WORD	n/a	wordpools/wordpool_categorized_EN.txt	WILLOW	Trees	11	1	[0, 0, 0]	n/a	catFR1	0	R1158T
381.336	0.851	389588	WORD_OFF	n/a	n/a	WILLOW	n/a	11	1	[0, 0, 0]	n/a	catFR1	0	R1158T
382.187	1.617	390439	WORD	n/a	wordpools/wordpool_categorized_EN.txt	WALNUT	Trees	12	1	[0, 0, 0]	n/a	catFR1	0	R1158T
383.804	0.0	392056	ENCODING_END	n/a	n/a	n/a	n/a	-999	1	[0, 0, 0]	n/a	catFR1	0	R1158T
383.804	0.136	392056	WORD_OFF	n/a	n/a	WALNUT	n/a	12	1	[0, 0, 0]	n/a	catFR1	0	R1158T
383.94	0.0	392192	DISTRACT_START	n/a	n/a	n/a	n/a	-999	1	[0, 0, 0]	n/a	catFR1	0	R1158T
383.94	0.014	392192	START	n/a	n/a	n/a	n/a	-999	1	[-999, -999, -999]	n/a	catFR1	0	R1158T
383.954	7.134	392206	PROB	7.134	n/a	n/a	n/a	-999	1	[1, 2, 6]	9	catFR1	0	R1158T
391.088	5.601	399340	PROB	5.601	n/a	n/a	n/a	-999	1	[8, 6, 6]	20	catFR1	0	R1158T
396.689	6.968	404940	PROB	6.968	n/a	n/a	n/a	-999	1	[3, 9, 3]	15	catFR1	0	R1158T
403.657	3.9	411908	PROB	3.9	n/a	n/a	n/a	-999	1	[8, 4, 4]	16	catFR1	0	R1158T
407.557	0.017	415808	STOP	n/a	n/a	n/a	n/a	-999	1	[-999, -999, -999]	n/a	catFR1	0	R1158T
407.574	0.567	415825	DISTRACT_END	n/a	n/a	n/a	n/a	-999	1	[0, 0, 0]	n/a	catFR1	0	R1158T
408.141	0.518	416392	RETRIEVAL_ORIENT	n/a	n/a	n/a	n/a	-999	1	[0, 0, 0]	n/a	catFR1	0	R1158T
408.659	2.239	416910	REC_START	n/a	n/a	n/a	n/a	-999	1	[0, 0, 0]	n/a	catFR1	0	R1158T
410.898	0.891	419149	REC_WORD	0.891	n/a	COFFEE	Beverages	2	1	[0, 0, 0]	n/a	catFR1	0	R1158T
411.789	2.607	420040	REC_WORD	2.607	n/a	RUM	Beverages	1	1	[0, 0, 0]	n/a	catFR1	0	R1158T
414.396	4.474	422646	REC_WORD	4.474	n/a	UNDERWEAR	Clothing	3	1	[0, 0, 0]	n/a	catFR1	0	R1158T
418.87	1.0	427120	REC_WORD_VV	1.0	n/a	<>	n/a	-999	1	[0, 0, 0]	n/a	catFR1	0	R1158T
419.87	1.077	428120	REC_WORD_VV	1.077	n/a	<>	n/a	-999	1	[0, 0, 0]	n/a	catFR1	0	R1158T
420.947	14.599	429197	REC_WORD	14.599	n/a	COKE	n/a	-999	1	[0, 0, 0]	n/a	catFR1	0	R1158T
435.546	3.125	443795	REC_WORD	3.125	n/a	SWIM	n/a	-999	1	[0, 0, 0]	n/a	catFR1	0	R1158T
438.671	6.56	446920	REC_END	n/a	n/a	n/a	n/a	-999	1	[0, 0, 0]	n/a	catFR1	0	R1158T
445.231	0.5	453480	TRIAL	n/a	n/a	n/a	n/a	-999	2	[0, 0, 0]	n/a	catFR1	0	R1158T
445.731	10.428	453980	COUNTDOWN_START	n/a	n/a	n/a	n/a	-999	2	[0, 0, 0]	n/a	catFR1	0	R1158T
456.159	0.008	464407	COUNTDOWN_END	n/a	n/a	n/a	n/a	-999	2	[0, 0, 0]	n/a	catFR1	0	R1158T
456.167	1.617	464415	ORIENT	n/a	n/a	n/a	n/a	-999	2	[0, 0, 0]	n/a	catFR1	0	R1158T
457.784	2.05	466032	ORIENT_OFF	n/a	n/a	n/a	n/a	-999	2	[0, 0, 0]	n/a	catFR1	0	R1158T
459.834	1.616	468082	WORD	n/a	wordpools/wordpool_categorized_EN.txt	LION	Zoo	1	2	[0, 0, 0]	n/a	catFR1	0	R1158T
461.45	0.934	469698	WORD_OFF	n/a	n/a	LION	n/a	1	2	[0, 0, 0]	n/a	catFR1	0	R1158T
462.384	1.618	470632	WORD	n/a	wordpools/wordpool_categorized_EN.txt	CHEETAH	Zoo	2	2	[0, 0, 0]	n/a	catFR1	0	R1158T
464.002	0.8	472250	WORD_OFF	n/a	n/a	CHEETAH	n/a	2	2	[0, 0, 0]	n/a	catFR1	0	R1158T
464.802	1.616	473049	WORD	n/a	wordpools/wordpool_categorized_EN.txt	ANT	Insects	3	2	[0, 0, 0]	n/a	catFR1	0	R1158T
466.418	0.933	474665	WORD_OFF	n/a	n/a	ANT	n/a	3	2	[0, 0, 0]	n/a	catFR1	0	R1158T
467.351	1.618	475598	WORD	n/a	wordpools/wordpool_categorized_EN.txt	GNAT	Insects	4	2	[0, 0, 0]	n/a	catFR1	0	R1158T
468.969	0.784	477216	WORD_OFF	n/a	n/a	GNAT	n/a	4	2	[0, 0, 0]	n/a	catFR1	0	R1158T
469.753	1.616	478000	WORD	n/a	wordpools/wordpool_categorized_EN.txt	PIANO	Instruments	5	2	[0, 0, 0]	n/a	catFR1	0	R1158T
471.369	1.016	479616	WORD_OFF	n/a	n/a	PIANO	n/a	5	2	[0, 0, 0]	n/a	catFR1	0	R1158T
472.385	1.601	480632	WORD	n/a	wordpools/wordpool_categorized_EN.txt	VIOLIN	Instruments	6	2	[0, 0, 0]	n/a	catFR1	0	R1158T
473.986	0.934	482233	WORD_OFF	n/a	n/a	VIOLIN	n/a	6	2	[0, 0, 0]	n/a	catFR1	0	R1158T
474.92	1.616	483167	WORD	n/a	wordpools/wordpool_categorized_EN.txt	GORILLA	Zoo	7	2	[0, 0, 0]	n/a	catFR1	0	R1158T
476.536	0.834	484783	WORD_OFF	n/a	n/a	GORILLA	n/a	7	2	[0, 0, 0]	n/a	catFR1	0	R1158T
477.37	1.618	485617	WORD	n/a	wordpools/wordpool_categorized_EN.txt	GIRAFFE	Zoo	8	2	[0, 0, 0]	n/a	catFR1	0	R1158T
478.988	0.766	487235	WORD_OFF	n/a	n/a	GIRAFFE	n/a	8	2	[0, 0, 0]	n/a	catFR1	0	R1158T
479.754	1.616	488001	WORD	n/a	wordpools/wordpool_categorized_EN.txt	LADYBUG	Insects	9	2	[0, 0, 0]	n/a	catFR1	0	R1158T
481.37	0.835	489616	WORD_OFF	n/a	n/a	LADYBUG	n/a	9	2	[0, 0, 0]	n/a	catFR1	0	R1158T
482.205	1.617	490451	WORD	n/a	wordpools/wordpool_categorized_EN.txt	BEETLE	Insects	10	2	[0, 0, 0]	n/a	catFR1	0	R1158T
483.822	0.8	492068	WORD_OFF	n/a	n/a	BEETLE	n/a	10	2	[0, 0, 0]	n/a	catFR1	0	R1158T
484.622	1.617	492868	WORD	n/a	wordpools/wordpool_categorized_EN.txt	ORGAN	Instruments	11	2	[0, 0, 0]	n/a	catFR1	0	R1158T
486.239	0.767	494485	WORD_OFF	n/a	n/a	ORGAN	n/a	11	2	[0, 0, 0]	n/a	catFR1	0	R1158T
487.006	1.617	495252	WORD	n/a	wordpools/wordpool_categorized_EN.txt	DRUM	Instruments	12	2	[0, 0, 0]	n/a	catFR1	0	R1158T
488.623	0.0	496869	ENCODING_END	n/a	n/a	n/a	n/a	-999	2	[0, 0, 0]	n/a	catFR1	0	R1158T
488.623	0.105	496869	WORD_OFF	n/a	n/a	DRUM	n/a	12	2	[0, 0, 0]	n/a	catFR1	0	R1158T
488.728	0.0	496974	DISTRACT_START	n/a	n/a	n/a	n/a	-999	2	[0, 0, 0]	n/a	catFR1	0	R1158T
488.728	0.011	496974	START	n/a	n/a	n/a	n/a	-999	2	[-999, -999, -999]	n/a	catFR1	0	R1158T
488.739	6.202	496985	PROB	6.202	n/a	n/a	n/a	-999	2	[8, 6, 5]	19	catFR1	0	R1158T
494.941	4.917	503187	PROB	4.917	n/a	n/a	n/a	-999	2	[5, 9, 4]	18	catFR1	0	R1158T
499.858	4.218	508103	PROB	4.218	n/a	n/a	n/a	-999	2	[4, 3, 7]	14	catFR1	0	R1158T
504.076	5.849	512321	PROB	5.849	n/a	n/a	n/a	-999	2	[8, 6, 6]	20	catFR1	0	R1158T
509.925	0.019	518170	STOP	n/a	n/a	n/a	n/a	-999	2	[-999, -999, -999]	n/a	catFR1	0	R1158T
509.944	0.548	518189	DISTRACT_END	n/a	n/a	n/a	n/a	-999	2	[0, 0, 0]	n/a	catFR1	0	R1158T
510.492	0.519	518737	RETRIEVAL_ORIENT	n/a	n/a	n/a	n/a	-999	2	[0, 0, 0]	n/a	catFR1	0	R1158T
511.011	2.012	519256	REC_START	n/a	n/a	n/a	n/a	-999	2	[0, 0, 0]	n/a	catFR1	0	R1158T
513.023	2.385	521268	REC_WORD	2.385	n/a	CHEETAH	Zoo	2	2	[0, 0, 0]	n/a	catFR1	0	R1158T
515.408	7.212	523652	REC_WORD	7.212	n/a	LION	Zoo	1	2	[0, 0, 0]	n/a	catFR1	0	R1158T
522.62	0.385	530864	REC_WORD_VV	0.385	n/a	<>	n/a	-999	2	[0, 0, 0]	n/a	catFR1	0	R1158T
523.005	18.016	531249	REC_WORD	18.016	n/a	GIRAFFE	Zoo	8	2	[0, 0, 0]	n/a	catFR1	0	R1158T
541.021	10.947	549264	REC_END	n/a	n/a	n/a	n/a	-999	2	[0, 0, 0]	n/a	catFR1	0	R1158T
551.968	0.5	560210	TRIAL	n/a	n/a	n/a	n/a	-999	3	[0, 0, 0]	n/a	catFR1	0	R1158T
552.468	10.428	560710	COUNTDOWN_START	n/a	n/a	n/a	n/a	-999	3	[0, 0, 0]	n/a	catFR1	0	R1158T
562.896	0.007	571138	COUNTDOWN_END	n/a	n/a	n/a	n/a	-999	3	[0, 0, 0]	n/a	catFR1	0	R1158T
562.903	1.616	571145	ORIENT	n/a	n/a	n/a	n/a	-999	3	[0, 0, 0]	n/a	catFR1	0	R1158T
564.519	1.983	572761	ORIENT_OFF	n/a	n/a	n/a	n/a	-999	3	[0, 0, 0]	n/a	catFR1	0	R1158T
566.502	1.602	574743	WORD	n/a	wordpools/wordpool_categorized_EN.txt	MOTORCYCLE	Vehicles	1	3	[0, 0, 0]	n/a	catFR1	0	R1158T
568.104	0.883	576345	WORD_OFF	n/a	n/a	MOTORCYCLE	n/a	1	3	[0, 0, 0]	n/a	catFR1	0	R1158T
568.987	1.617	577228	WORD	n/a	wordpools/wordpool_categorized_EN.txt	BUS	Vehicles	2	3	[0, 0, 0]	n/a	catFR1	0	R1158T
570.604	0.816	578845	WORD_OFF	n/a	n/a	BUS	n/a	2	3	[0, 0, 0]	n/a	catFR1	0	R1158T
571.42	1.601	579661	WORD	n/a	wordpools/wordpool_categorized_EN.txt	MILK	Beverages	3	3	[0, 0, 0]	n/a	catFR1	0	R1158T
573.021	0.884	581262	WORD_OFF	n/a	n/a	MILK	n/a	3	3	[0, 0, 0]	n/a	catFR1	0	R1158T
573.905	1.616	582146	WORD	n/a	wordpools/wordpool_categorized_EN.txt	JUICE	Beverages	4	3	[0, 0, 0]	n/a	catFR1	0	R1158T
575.521	0.967	583762	WORD_OFF	n/a	n/a	JUICE	n/a	4	3	[0, 0, 0]	n/a	catFR1	0	R1158T
576.488	1.618	584729	WORD	n/a	wordpools/wordpool_categorized_EN.txt	BED	Furniture	5	3	[0, 0, 0]	n/a	catFR1	0	R1158T
578.106	0.883	586347	WORD_OFF	n/a	n/a	BED	n/a	5	3	[0, 0, 0]	n/a	catFR1	0	R1158T
578.989	1.617	587230	WORD	n/a	wordpools/wordpool_categorized_EN.txt	BOOKCASE	Furniture	6	3	[0, 0, 0]	n/a	catFR1	0	R1158T
580.606	0.833	588847	WORD_OFF	n/a	n/a	BOOKCASE	n/a	6	3	[0, 0, 0]	n/a	catFR1	0	R1158T
581.439	1.618	589680	WORD	n/a	wordpools/wordpool_categorized_EN.txt	WINE	Beverages	7	3	[0, 0, 0]	n/a	catFR1	0	R1158T
583.057	0.883	591297	WORD_OFF	n/a	n/a	WINE	n/a	7	3	[0, 0, 0]	n/a	catFR1	0	R1158T
583.94	1.616	592180	WORD	n/a	wordpools/wordpool_categorized_EN.txt	LEMONADE	Beverages	8	3	[0, 0, 0]	n/a	catFR1	0	R1158T
585.556	0.934	593796	WORD_OFF	n/a	n/a	LEMONADE	n/a	8	3	[0, 0, 0]	n/a	catFR1	0	R1158T
586.49	1.618	594730	WORD	n/a	wordpools/wordpool_categorized_EN.txt	BIKE	Vehicles	9	3	[0, 0, 0]	n/a	catFR1	0	R1158T
588.108	0.833	596348	WORD_OFF	n/a	n/a	BIKE	n/a	9	3	[0, 0, 0]	n/a	catFR1	0	R1158T
588.941	1.616	597181	WORD	n/a	wordpools/wordpool_categorized_EN.txt	SCOOTER	Vehicles	10	3	[0, 0, 0]	n/a	catFR1	0	R1158T
590.557	0.833	598797	WORD_OFF	n/a	n/a	SCOOTER	n/a	10	3	[0, 0, 0]	n/a	catFR1	0	R1158T
591.39	1.602	599630	WORD	n/a	wordpools/wordpool_categorized_EN.txt	SOFA	Furniture	11	3	[0, 0, 0]	n/a	catFR1	0	R1158T
592.992	0.95	601232	WORD_OFF	n/a	n/a	SOFA	n/a	11	3	[0, 0, 0]	n/a	catFR1	0	R1158T
593.942	1.616	602182	WORD	n/a	wordpools/wordpool_categorized_EN.txt	DRESSER	Furniture	12	3	[0, 0, 0]	n/a	catFR1	0	R1158T
595.558	0.0	603798	ENCODING_END	n/a	n/a	n/a	n/a	-999	3	[0, 0, 0]	n/a	catFR1	0	R1158T
595.558	0.11	603798	WORD_OFF	n/a	n/a	DRESSER	n/a	12	3	[0, 0, 0]	n/a	catFR1	0	R1158T
595.668	0.0	603908	DISTRACT_START	n/a	n/a	n/a	n/a	-999	3	[0, 0, 0]	n/a	catFR1	0	R1158T
595.668	0.007	603908	START	n/a	n/a	n/a	n/a	-999	3	[-999, -999, -999]	n/a	catFR1	0	R1158T
595.675	6.068	603915	PROB	6.068	n/a	n/a	n/a	-999	3	[8, 5, 3]	16	catFR1	0	R1158T
601.743	32.564	609982	PROB	32.564	n/a	n/a	n/a	-999	3	[9, 4, 8]	21	catFR1	0	R1158T
634.307	0.008	642544	STOP	n/a	n/a	n/a	n/a	-999	3	[-999, -999, -999]	n/a	catFR1	0	R1158T
634.315	0.568	642552	DISTRACT_END	n/a	n/a	n/a	n/a	-999	3	[0, 0, 0]	n/a	catFR1	0	R1158T
634.883	0.516	643120	RETRIEVAL_ORIENT	n/a	n/a	n/a	n/a	-999	3	[0, 0, 0]	n/a	catFR1	0	R1158T
635.399	3.212	643636	REC_START	n/a	n/a	n/a	n/a	-999	3	[0, 0, 0]	n/a	catFR1	0	R1158T
638.611	0.325	646848	REC_WORD_VV	0.325	n/a	<>	n/a	-999	3	[0, 0, 0]	n/a	catFR1	0	R1158T
638.936	4.027	647173	REC_WORD	4.027	n/a	MOTORCYCLE	Vehicles	1	3	[0, 0, 0]	n/a	catFR1	0	R1158T
642.963	1.223	651200	REC_WORD_VV	1.223	n/a	<>	n/a	-999	3	[0, 0, 0]	n/a	catFR1	0	R1158T
644.186	0.945	652423	REC_WORD	0.945	n/a	VAN	n/a	-999	3	[0, 0, 0]	n/a	catFR1	0	R1158T
645.131	12.149	653368	REC_WORD	12.149	n/a	BIKE	Vehicles	9	3	[0, 0, 0]	n/a	catFR1	0	R1158T
657.28	2.371	665516	REC_WORD	2.371	n/a	VAN	n/a	-999	3	[0, 0, 0]	n/a	catFR1	0	R1158T
659.651	5.762	667887	REC_WORD_VV	5.762	n/a	<>	n/a	-999	3	[0, 0, 0]	n/a	catFR1	0	R1158T
665.413	22.078	673649	REC_END	n/a	n/a	n/a	n/a	-999	3	[0, 0, 0]	n/a	catFR1	0	R1158T
687.491	0.5	695725	TRIAL	n/a	n/a	n/a	n/a	-999	4	[0, 0, 0]	n/a	catFR1	0	R1158T
687.991	10.428	696225	COUNTDOWN_START	n/a	n/a	n/a	n/a	-999	4	[0, 0, 0]	n/a	catFR1	0	R1158T
698.419	0.008	706653	COUNTDOWN_END	n/a	n/a	n/a	n/a	-999	4	[0, 0, 0]	n/a	catFR1	0	R1158T
698.427	1.601	706661	ORIENT	n/a	n/a	n/a	n/a	-999	4	[0, 0, 0]	n/a	catFR1	0	R1158T
700.028	2.266	708262	ORIENT_OFF	n/a	n/a	n/a	n/a	-999	4	[0, 0, 0]	n/a	catFR1	0	R1158T
702.294	1.601	710527	WORD	n/a	wordpools/wordpool_categorized_EN.txt	SCANNER	Electronics	1	4	[0, 0, 0]	n/a	catFR1	0	R1158T
703.895	0.801	712128	WORD_OFF	n/a	n/a	SCANNER	n/a	1	4	[0, 0, 0]	n/a	catFR1	0	R1158T
704.696	1.615	712929	WORD	n/a	wordpools/wordpool_categorized_EN.txt	STEREO	Electronics	2	4	[0, 0, 0]	n/a	catFR1	0	R1158T
706.311	0.785	714544	WORD_OFF	n/a	n/a	STEREO	n/a	2	4	[0, 0, 0]	n/a	catFR1	0	R1158T
707.096	1.617	715329	WORD	n/a	wordpools/wordpool_categorized_EN.txt	TRAIN	Vehicles	3	4	[0, 0, 0]	n/a	catFR1	0	R1158T
708.713	0.933	716946	WORD_OFF	n/a	n/a	TRAIN	n/a	3	4	[0, 0, 0]	n/a	catFR1	0	R1158T
709.646	1.616	717879	WORD	n/a	wordpools/wordpool_categorized_EN.txt	TRUCK	Vehicles	4	4	[0, 0, 0]	n/a	catFR1	0	R1158T
711.262	0.802	719495	WORD_OFF	n/a	n/a	TRUCK	n/a	4	4	[0, 0, 0]	n/a	catFR1	0	R1158T
712.064	1.617	720297	WORD	n/a	wordpools/wordpool_categorized_EN.txt	TRUMPET	Instruments	5	4	[0, 0, 0]	n/a	catFR1	0	R1158T
713.681	0.916	721914	WORD_OFF	n/a	n/a	TRUMPET	n/a	5	4	[0, 0, 0]	n/a	catFR1	0	R1158T
714.597	1.617	722830	WORD	n/a	wordpools/wordpool_categorized_EN.txt	GUITAR	Instruments	6	4	[0, 0, 0]	n/a	catFR1	0	R1158T
716.214	0.934	724447	WORD_OFF	n/a	n/a	GUITAR	n/a	6	4	[0, 0, 0]	n/a	catFR1	0	R1158T
717.148	1.617	725380	WORD	n/a	wordpools/wordpool_categorized_EN.txt	CALCULATOR	Electronics	7	4	[0, 0, 0]	n/a	catFR1	0	R1158T
718.765	0.933	726997	WORD_OFF	n/a	n/a	CALCULATOR	n/a	7	4	[0, 0, 0]	n/a	catFR1	0	R1158T
719.698	1.616	727930	WORD	n/a	wordpools/wordpool_categorized_EN.txt	HEADPHONES	Electronics	8	4	[0, 0, 0]	n/a	catFR1	0	R1158T
721.314	0.835	729546	WORD_OFF	n/a	n/a	HEADPHONES	n/a	8	4	[0, 0, 0]	n/a	catFR1	0	R1158T
722.149	1.617	730381	WORD	n/a	wordpools/wordpool_categorized_EN.txt	CAR	Vehicles	9	4	[0, 0, 0]	n/a	catFR1	0	R1158T
723.766	0.9	731998	WORD_OFF	n/a	n/a	CAR	n/a	9	4	[0, 0, 0]	n/a	catFR1	0	R1158T
724.666	1.616	732898	WORD	n/a	wordpools/wordpool_categorized_EN.txt	BOAT	Vehicles	10	4	[0, 0, 0]	n/a	catFR1	0	R1158T
726.282	0.983	734514	WORD_OFF	n/a	n/a	BOAT	n/a	10	4	[0, 0, 0]	n/a	catFR1	0	R1158T
727.265	1.601	735497	WORD	n/a	wordpools/wordpool_categorized_EN.txt	BASS	Instruments	11	4	[0, 0, 0]	n/a	catFR1	0	R1158T
728.866	0.817	737098	WORD_OFF	n/a	n/a	BASS	n/a	11	4	[0, 0, 0]	n/a	catFR1	0	R1158T
729.683	1.616	737915	WORD	n/a	wordpools/wordpool_categorized_EN.txt	TROMBONE	Instruments	12	4	[0, 0, 0]	n/a	catFR1	0	R1158T
731.299	0.001	739531	WORD_OFF	n/a	n/a	TROMBONE	n/a	12	4	[0, 0, 0]	n/a	catFR1	0	R1158T
731.3	0.131	739532	ENCODING_END	n/a	n/a	n/a	n/a	-999	4	[0, 0, 0]	n/a	catFR1	0	R1158T
731.431	0.0	739663	DISTRACT_START	n/a	n/a	n/a	n/a	-999	4	[0, 0, 0]	n/a	catFR1	0	R1158T
731.431	0.018	739663	START	n/a	n/a	n/a	n/a	-999	4	[-999, -999, -999]	n/a	catFR1	0	R1158T
731.449	4.435	739681	PROB	4.435	n/a	n/a	n/a	-999	4	[5, 4, 2]	11	catFR1	0	R1158T
735.884	4.45	744115	PROB	4.45	n/a	n/a	n/a	-999	4	[4, 5, 9]	18	catFR1	0	R1158T
740.334	4.352	748565	PROB	4.352	n/a	n/a	n/a	-999	4	[7, 2, 4]	13	catFR1	0	R1158T
744.686	5.468	752917	PROB	5.468	n/a	n/a	n/a	-999	4	[6, 2, 1]	9	catFR1	0	R1158T
750.154	7.251	758385	PROB	7.251	n/a	n/a	n/a	-999	4	[3, 9, 8]	20	catFR1	0	R1158T
757.405	0.016	765635	STOP	n/a	n/a	n/a	n/a	-999	4	[-999, -999, -999]	n/a	catFR1	0	R1158T
757.421	0.618	765651	DISTRACT_END	n/a	n/a	n/a	n/a	-999	4	[0, 0, 0]	n/a	catFR1	0	R1158T
758.039	0.516	766269	RETRIEVAL_ORIENT	n/a	n/a	n/a	n/a	-999	4	[0, 0, 0]	n/a	catFR1	0	R1158T
758.555	0.413	766785	REC_START	n/a	n/a	n/a	n/a	-999	4	[0, 0, 0]	n/a	catFR1	0	R1158T
758.968	1.225	767198	REC_WORD	1.225	n/a	SCANNER	Electronics	1	4	[0, 0, 0]	n/a	catFR1	0	R1158T
760.193	2.159	768423	REC_WORD	2.159	n/a	STEREO	Electronics	2	4	[0, 0, 0]	n/a	catFR1	0	R1158T
762.352	4.97	770582	REC_WORD	4.97	n/a	TRAIN	Vehicles	3	4	[0, 0, 0]	n/a	catFR1	0	R1158T
767.322	8.395	775552	REC_WORD	8.395	n/a	BED	n/a	-999	4	[0, 0, 0]	n/a	catFR1	0	R1158T
775.717	0.687	783946	REC_WORD	0.687	n/a	CAR	Vehicles	9	4	[0, 0, 0]	n/a	catFR1	0	R1158T
776.404	2.969	784633	REC_WORD	2.969	n/a	TRUCK	Vehicles	4	4	[0, 0, 0]	n/a	catFR1	0	R1158T
779.373	9.192	787602	REC_WORD	9.192	n/a	TRAIN	Vehicles	3	4	[0, 0, 0]	n/a	catFR1	0	R1158T
788.565	5.963	796793	REC_END	n/a	n/a	n/a	n/a	-999	4	[0, 0, 0]	n/a	catFR1	0	R1158T
794.528	0.5	802756	TRIAL	n/a	n/a	n/a	n/a	-999	5	[0, 0, 0]	n/a	catFR1	0	R1158T
795.028	10.428	803256	COUNTDOWN_START	n/a	n/a	n/a	n/a	-999	5	[0, 0, 0]	n/a	catFR1	0	R1158T
805.456	0.007	813683	COUNTDOWN_END	n/a	n/a	n/a	n/a	-999	5	[0, 0, 0]	n/a	catFR1	0	R1158T
805.463	1.618	813690	ORIENT	n/a	n/a	n/a	n/a	-999	5	[0, 0, 0]	n/a	catFR1	0	R1158T
807.081	2.233	815308	ORIENT_OFF	n/a	n/a	n/a	n/a	-999	5	[0, 0, 0]	n/a	catFR1	0	R1158T
809.314	1.617	817541	WORD	n/a	wordpools/wordpool_categorized_EN.txt	EVERGREEN	Trees	1	5	[0, 0, 0]	n/a	catFR1	0	R1158T
810.931	0.984	819158	WORD_OFF	n/a	n/a	EVERGREEN	n/a	1	5	[0, 0, 0]	n/a	catFR1	0	R1158T
811.915	1.616	820142	WORD	n/a	wordpools/wordpool_categorized_EN.txt	OAK	Trees	2	5	[0, 0, 0]	n/a	catFR1	0	R1158T
813.531	0.9	821758	WORD_OFF	n/a	n/a	OAK	n/a	2	5	[0, 0, 0]	n/a	catFR1	0	R1158T
814.431	1.618	822658	WORD	n/a	wordpools/wordpool_categorized_EN.txt	ROOSTER	FarmAnimals	3	5	[0, 0, 0]	n/a	catFR1	0	R1158T
816.049	1.0	824276	WORD_OFF	n/a	n/a	ROOSTER	n/a	3	5	[0, 0, 0]	n/a	catFR1	0	R1158T
817.049	1.617	825276	WORD	n/a	wordpools/wordpool_categorized_EN.txt	CHICKEN	FarmAnimals	4	5	[0, 0, 0]	n/a	catFR1	0	R1158T
818.666	0.799	826892	WORD_OFF	n/a	n/a	CHICKEN	n/a	4	5	[0, 0, 0]	n/a	catFR1	0	R1158T
819.465	1.618	827691	WORD	n/a	wordpools/wordpool_categorized_EN.txt	CARDINAL	Birds	5	5	[0, 0, 0]	n/a	catFR1	0	R1158T
821.083	0.934	829309	WORD_OFF	n/a	n/a	CARDINAL	n/a	5	5	[0, 0, 0]	n/a	catFR1	0	R1158T
822.017	1.617	830243	WORD	n/a	wordpools/wordpool_categorized_EN.txt	ROBIN	Birds	6	5	[0, 0, 0]	n/a	catFR1	0	R1158T
823.634	0.782	831860	WORD_OFF	n/a	n/a	ROBIN	n/a	6	5	[0, 0, 0]	n/a	catFR1	0	R1158T
824.416	1.618	832642	WORD	n/a	wordpools/wordpool_categorized_EN.txt	ELM	Trees	7	5	[0, 0, 0]	n/a	catFR1	0	R1158T
826.034	0.934	834260	WORD_OFF	n/a	n/a	ELM	n/a	7	5	[0, 0, 0]	n/a	catFR1	0	R1158T
826.968	1.616	835194	WORD	n/a	wordpools/wordpool_categorized_EN.txt	PINE	Trees	8	5	[0, 0, 0]	n/a	catFR1	0	R1158T
828.584	0.9	836810	WORD_OFF	n/a	n/a	PINE	n/a	8	5	[0, 0, 0]	n/a	catFR1	0	R1158T
829.484	1.618	837710	WORD	n/a	wordpools/wordpool_categorized_EN.txt	SHEEP	FarmAnimals	9	5	[0, 0, 0]	n/a	catFR1	0	R1158T
831.102	0.917	839328	WORD_OFF	n/a	n/a	SHEEP	n/a	9	5	[0, 0, 0]	n/a	catFR1	0	R1158T
832.019	1.617	840245	WORD	n/a	wordpools/wordpool_categorized_EN.txt	COW	FarmAnimals	10	5	[0, 0, 0]	n/a	catFR1	0	R1158T
833.636	0.849	841862	WORD_OFF	n/a	n/a	COW	n/a	10	5	[0, 0, 0]	n/a	catFR1	0	R1158T
834.485	1.601	842711	WORD	n/a	wordpools/wordpool_categorized_EN.txt	SPARROW	Birds	11	5	[0, 0, 0]	n/a	catFR1	0	R1158T
836.086	0.967	844311	WORD_OFF	n/a	n/a	SPARROW	n/a	11	5	[0, 0, 0]	n/a	catFR1	0	R1158T
837.053	1.617	845278	WORD	n/a	wordpools/wordpool_categorized_EN.txt	FINCH	Birds	12	5	[0, 0, 0]	n/a	catFR1	0	R1158T
838.67	0.0	846895	WORD_OFF	n/a	n/a	FINCH	n/a	12	5	[0, 0, 0]	n/a	catFR1	0	R1158T
838.67	0.102	846895	ENCODING_END	n/a	n/a	n/a	n/a	-999	5	[0, 0, 0]	n/a	catFR1	0	R1158T
838.772	0.0	846997	DISTRACT_START	n/a	n/a	n/a	n/a	-999	5	[0, 0, 0]	n/a	catFR1	0	R1158T
838.772	0.015	846997	START	n/a	n/a	n/a	n/a	-999	5	[-999, -999, -999]	n/a	catFR1	0	R1158T
838.787	6.051	847012	PROB	6.051	n/a	n/a	n/a	-999	5	[4, 3, 6]	13	catFR1	0	R1158T
844.838	3.367	853063	PROB	3.367	n/a	n/a	n/a	-999	5	[1, 3, 2]	6	catFR1	0	R1158T
848.205	4.35	856430	PROB	4.35	n/a	n/a	n/a	-999	5	[2, 7, 8]	17	catFR1	0	R1158T
852.555	4.834	860779	PROB	4.834	n/a	n/a	n/a	-999	5	[3, 2, 5]	10	catFR1	0	R1158T
857.389	3.689	865613	PROB	3.689	n/a	n/a	n/a	-999	5	[4, 7, 2]	13	catFR1	0	R1158T
861.078	0.013	869302	STOP	n/a	n/a	n/a	n/a	-999	5	[-999, -999, -999]	n/a	catFR1	0	R1158T
861.091	0.583	869315	DISTRACT_END	n/a	n/a	n/a	n/a	-999	5	[0, 0, 0]	n/a	catFR1	0	R1158T
861.674	0.517	869898	RETRIEVAL_ORIENT	n/a	n/a	n/a	n/a	-999	5	[0, 0, 0]	n/a	catFR1	0	R1158T
862.191	2.127	870415	REC_START	n/a	n/a	n/a	n/a	-999	5	[0, 0, 0]	n/a	catFR1	0	R1158T
864.318	2.173	872542	REC_WORD	2.173	n/a	SPARROW	Birds	11	5	[0, 0, 0]	n/a	catFR1	0	R1158T
866.491	3.951	874715	REC_WORD	3.951	n/a	TREE	n/a	-999	5	[0, 0, 0]	n/a	catFR1	0	R1158T
870.442	5.85	878665	REC_WORD_VV	5.85	n/a	<>	n/a	-999	5	[0, 0, 0]	n/a	catFR1	0	R1158T
876.292	2.585	884515	REC_WORD	2.585	n/a	BIRD	n/a	-999	5	[0, 0, 0]	n/a	catFR1	0	R1158T
878.877	1.818	887100	REC_WORD	1.818	n/a	FUR	n/a	-999	5	[0, 0, 0]	n/a	catFR1	0	R1158T
880.695	11.508	888918	REC_WORD	11.508	n/a	TREE	n/a	-999	5	[0, 0, 0]	n/a	catFR1	0	R1158T
892.203	16.379	900425	REC_END	n/a	n/a	n/a	n/a	-999	5	[0, 0, 0]	n/a	catFR1	0	R1158T
908.582	0.5	916803	TRIAL	n/a	n/a	n/a	n/a	-999	6	[0, 0, 0]	n/a	catFR1	0	R1158T
909.082	10.428	917303	COUNTDOWN_START	n/a	n/a	n/a	n/a	-999	6	[0, 0, 0]	n/a	catFR1	0	R1158T
919.51	0.007	927730	COUNTDOWN_END	n/a	n/a	n/a	n/a	-999	6	[0, 0, 0]	n/a	catFR1	0	R1158T
919.517	1.601	927737	ORIENT	n/a	n/a	n/a	n/a	-999	6	[0, 0, 0]	n/a	catFR1	0	R1158T
921.118	1.834	929338	ORIENT_OFF	n/a	n/a	n/a	n/a	-999	6	[0, 0, 0]	n/a	catFR1	0	R1158T
922.952	1.616	931172	WORD	n/a	wordpools/wordpool_categorized_EN.txt	BALL	Toys	1	6	[0, 0, 0]	n/a	catFR1	0	R1158T
924.568	0.9	932788	WORD_OFF	n/a	n/a	BALL	n/a	1	6	[0, 0, 0]	n/a	catFR1	0	R1158T
925.468	1.601	933688	WORD	n/a	wordpools/wordpool_categorized_EN.txt	BASEBALL	Toys	2	6	[0, 0, 0]	n/a	catFR1	0	R1158T
927.069	0.817	935289	WORD_OFF	n/a	n/a	BASEBALL	n/a	2	6	[0, 0, 0]	n/a	catFR1	0	R1158T
927.886	1.616	936106	WORD	n/a	wordpools/wordpool_categorized_EN.txt	RECLINER	Furniture	3	6	[0, 0, 0]	n/a	catFR1	0	R1158T
929.502	0.934	937722	WORD_OFF	n/a	n/a	RECLINER	n/a	3	6	[0, 0, 0]	n/a	catFR1	0	R1158T
930.436	1.618	938656	WORD	n/a	wordpools/wordpool_categorized_EN.txt	CABINET	Furniture	4	6	[0, 0, 0]	n/a	catFR1	0	R1158T
932.054	0.8	940274	WORD_OFF	n/a	n/a	CABINET	n/a	4	6	[0, 0, 0]	n/a	catFR1	0	R1158T
932.854	1.616	941074	WORD	n/a	wordpools/wordpool_categorized_EN.txt	EAR	BodyParts	5	6	[0, 0, 0]	n/a	catFR1	0	R1158T
934.47	0.784	942690	WORD_OFF	n/a	n/a	EAR	n/a	5	6	[0, 0, 0]	n/a	catFR1	0	R1158T
935.254	1.617	943474	WORD	n/a	wordpools/wordpool_categorized_EN.txt	NOSE	BodyParts	6	6	[0, 0, 0]	n/a	catFR1	0	R1158T
936.871	0.984	945090	WORD_OFF	n/a	n/a	NOSE	n/a	6	6	[0, 0, 0]	n/a	catFR1	0	R1158T
937.855	1.616	946074	WORD	n/a	wordpools/wordpool_categorized_EN.txt	DESK	Furniture	7	6	[0, 0, 0]	n/a	catFR1	0	R1158T
939.471	0.784	947690	WORD_OFF	n/a	n/a	DESK	n/a	7	6	[0, 0, 0]	n/a	catFR1	0	R1158T
940.255	1.617	948474	WORD	n/a	wordpools/wordpool_categorized_EN.txt	TABLE	Furniture	8	6	[0, 0, 0]	n/a	catFR1	0	R1158T
941.872	0.834	950091	WORD_OFF	n/a	n/a	TABLE	n/a	8	6	[0, 0, 0]	n/a	catFR1	0	R1158T
942.706	1.616	950925	WORD	n/a	wordpools/wordpool_categorized_EN.txt	PUZZLE	Toys	9	6	[0, 0, 0]	n/a	catFR1	0	R1158T
944.322	0.801	952541	WORD_OFF	n/a	n/a	PUZZLE	n/a	9	6	[0, 0, 0]	n/a	catFR1	0	R1158T
945.123	1.617	953342	WORD	n/a	wordpools/wordpool_categorized_EN.txt	BLOCKS	Toys	10	6	[0, 0, 0]	n/a	catFR1	0	R1158T
946.74	0.799	954959	WORD_OFF	n/a	n/a	BLOCKS	n/a	10	6	[0, 0, 0]	n/a	catFR1	0	R1158T
947.539	1.618	955758	WORD	n/a	wordpools/wordpool_categorized_EN.txt	ARM	BodyParts	11	6	[0, 0, 0]	n/a	catFR1	0	R1158T
949.157	0.967	957376	WORD_OFF	n/a	n/a	ARM	n/a	11	6	[0, 0, 0]	n/a	catFR1	0	R1158T
950.124	1.617	958343	WORD	n/a	wordpools/wordpool_categorized_EN.txt	FINGERS	BodyParts	12	6	[0, 0, 0]	n/a	catFR1	0	R1158T
951.741	0.0	959960	WORD_OFF	n/a	n/a	FINGERS	n/a	12	6	[0, 0, 0]	n/a	catFR1	0	R1158T
951.741	0.104	959960	ENCODING_END	n/a	n/a	n/a	n/a	-999	6	[0, 0, 0]	n/a	catFR1	0	R1158T
951.845	0.0	960064	DISTRACT_START	n/a	n/a	n/a	n/a	-999	6	[0, 0, 0]	n/a	catFR1	0	R1158T
951.845	0.012	960064	START	n/a	n/a	n/a	n/a	-999	6	[-999, -999, -999]	n/a	catFR1	0	R1158T
951.857	5.734	960076	PROB	5.734	n/a	n/a	n/a	-999	6	[2, 5, 9]	16	catFR1	0	R1158T
957.591	5.402	965809	PROB	5.402	n/a	n/a	n/a	-999	6	[2, 3, 4]	9	catFR1	0	R1158T
962.993	11.491	971211	PROB	11.491	n/a	n/a	n/a	-999	6	[4, 6, 7]	17	catFR1	0	R1158T
974.484	0.01	982701	STOP	n/a	n/a	n/a	n/a	-999	6	[-999, -999, -999]	n/a	catFR1	0	R1158T
974.494	0.534	982711	DISTRACT_END	n/a	n/a	n/a	n/a	-999	6	[0, 0, 0]	n/a	catFR1	0	R1158T
975.028	0.517	983245	RETRIEVAL_ORIENT	n/a	n/a	n/a	n/a	-999	6	[0, 0, 0]	n/a	catFR1	0	R1158T
975.545	1.896	983762	REC_START	n/a	n/a	n/a	n/a	-999	6	[0, 0, 0]	n/a	catFR1	0	R1158T
977.441	0.807	985658	REC_WORD	0.807	n/a	BALL	Toys	1	6	[0, 0, 0]	n/a	catFR1	0	R1158T
978.248	1.35	986465	REC_WORD	1.35	n/a	BASEBALL	Toys	2	6	[0, 0, 0]	n/a	catFR1	0	R1158T
979.598	25.957	987815	REC_WORD	25.957	n/a	RECLINER	Furniture	3	6	[0, 0, 0]	n/a	catFR1	0	R1158T
1005.555	6.463	1013770	REC_END	n/a	n/a	n/a	n/a	-999	6	[0, 0, 0]	n/a	catFR1	0	R1158T
1012.018	0.5	1020233	TRIAL	n/a	n/a	n/a	n/a	-999	7	[0, 0, 0]	n/a	catFR1	0	R1158T
1012.518	10.428	1020733	COUNTDOWN_START	n/a	n/a	n/a	n/a	-999	7	[0, 0, 0]	n/a	catFR1	0	R1158T
1022.946	0.008	1031160	COUNTDOWN_END	n/a	n/a	n/a	n/a	-999	7	[0, 0, 0]	n/a	catFR1	0	R1158T
1022.954	1.616	1031168	ORIENT	n/a	n/a	n/a	n/a	-999	7	[0, 0, 0]	n/a	catFR1	0	R1158T
1024.57	1.933	1032784	ORIENT_OFF	n/a	n/a	n/a	n/a	-999	7	[0, 0, 0]	n/a	catFR1	0	R1158T
1026.503	1.601	1034717	WORD	n/a	wordpools/wordpool_categorized_EN.txt	SHORTS	Clothing	1	7	[0, 0, 0]	n/a	catFR1	0	R1158T
1028.104	0.967	1036318	WORD_OFF	n/a	n/a	SHORTS	n/a	1	7	[0, 0, 0]	n/a	catFR1	0	R1158T
1029.071	1.617	1037285	WORD	n/a	wordpools/wordpool_categorized_EN.txt	SKIRT	Clothing	2	7	[0, 0, 0]	n/a	catFR1	0	R1158T
1030.688	0.967	1038902	WORD_OFF	n/a	n/a	SKIRT	n/a	2	7	[0, 0, 0]	n/a	catFR1	0	R1158T
1031.655	1.616	1039869	WORD	n/a	wordpools/wordpool_categorized_EN.txt	OYSTER	OceanAnimals	3	7	[0, 0, 0]	n/a	catFR1	0	R1158T
1033.271	0.818	1041485	WORD_OFF	n/a	n/a	OYSTER	n/a	3	7	[0, 0, 0]	n/a	catFR1	0	R1158T
1034.089	1.617	1042303	WORD	n/a	wordpools/wordpool_categorized_EN.txt	SHRIMP	OceanAnimals	4	7	[0, 0, 0]	n/a	catFR1	0	R1158T
1035.706	0.983	1043920	WORD_OFF	n/a	n/a	SHRIMP	n/a	4	7	[0, 0, 0]	n/a	catFR1	0	R1158T
1036.689	1.616	1044903	WORD	n/a	wordpools/wordpool_categorized_EN.txt	DOVE	Birds	5	7	[0, 0, 0]	n/a	catFR1	0	R1158T
1038.305	0.868	1046518	WORD_OFF	n/a	n/a	DOVE	n/a	5	7	[0, 0, 0]	n/a	catFR1	0	R1158T
1039.173	1.617	1047386	WORD	n/a	wordpools/wordpool_categorized_EN.txt	CROW	Birds	6	7	[0, 0, 0]	n/a	catFR1	0	R1158T
1040.79	0.95	1049003	WORD_OFF	n/a	n/a	CROW	n/a	6	7	[0, 0, 0]	n/a	catFR1	0	R1158T
1041.74	1.616	1049953	WORD	n/a	wordpools/wordpool_categorized_EN.txt	OCTOPUS	OceanAnimals	7	7	[0, 0, 0]	n/a	catFR1	0	R1158T
1043.356	0.951	1051569	WORD_OFF	n/a	n/a	OCTOPUS	n/a	7	7	[0, 0, 0]	n/a	catFR1	0	R1158T
1044.307	1.617	1052520	WORD	n/a	wordpools/wordpool_categorized_EN.txt	SQUID	OceanAnimals	8	7	[0, 0, 0]	n/a	catFR1	0	R1158T
1045.924	0.834	1054137	WORD_OFF	n/a	n/a	SQUID	n/a	8	7	[0, 0, 0]	n/a	catFR1	0	R1158T
1046.758	1.616	1054971	WORD	n/a	wordpools/wordpool_categorized_EN.txt	SOCKS	Clothing	9	7	[0, 0, 0]	n/a	catFR1	0	R1158T
1048.374	0.834	1056587	WORD_OFF	n/a	n/a	SOCKS	n/a	9	7	[0, 0, 0]	n/a	catFR1	0	R1158T
1049.208	1.617	1057421	WORD	n/a	wordpools/wordpool_categorized_EN.txt	COAT	Clothing	10	7	[0, 0, 0]	n/a	catFR1	0	R1158T
1050.825	0.934	1059038	WORD_OFF	n/a	n/a	COAT	n/a	10	7	[0, 0, 0]	n/a	catFR1	0	R1158T
1051.759	1.616	1059972	WORD	n/a	wordpools/wordpool_categorized_EN.txt	SEAGULL	Birds	11	7	[0, 0, 0]	n/a	catFR1	0	R1158T
1053.375	1.0	1061588	WORD_OFF	n/a	n/a	SEAGULL	n/a	11	7	[0, 0, 0]	n/a	catFR1	0	R1158T
1054.375	1.601	1062587	WORD	n/a	wordpools/wordpool_categorized_EN.txt	DUCK	Birds	12	7	[0, 0, 0]	n/a	catFR1	0	R1158T
1055.976	0.0	1064188	ENCODING_END	n/a	n/a	n/a	n/a	-999	7	[0, 0, 0]	n/a	catFR1	0	R1158T
1055.976	0.134	1064188	WORD_OFF	n/a	n/a	DUCK	n/a	12	7	[0, 0, 0]	n/a	catFR1	0	R1158T
1056.11	0.001	1064322	DISTRACT_START	n/a	n/a	n/a	n/a	-999	7	[0, 0, 0]	n/a	catFR1	0	R1158T
1056.111	0.015	1064323	START	n/a	n/a	n/a	n/a	-999	7	[-999, -999, -999]	n/a	catFR1	0	R1158T
1056.126	7.317	1064338	PROB	7.317	n/a	n/a	n/a	-999	7	[7, 4, 2]	13	catFR1	0	R1158T
1063.443	9.069	1071655	PROB	9.069	n/a	n/a	n/a	-999	7	[8, 9, 8]	19	catFR1	0	R1158T
1072.512	4.781	1080723	PROB	4.781	n/a	n/a	n/a	-999	7	[5, 9, 3]	17	catFR1	0	R1158T
1077.293	0.02	1085504	STOP	n/a	n/a	n/a	n/a	-999	7	[-999, -999, -999]	n/a	catFR1	0	R1158T
1077.313	0.667	1085524	DISTRACT_END	n/a	n/a	n/a	n/a	-999	7	[0, 0, 0]	n/a	catFR1	0	R1158T
1077.98	0.517	1086191	RETRIEVAL_ORIENT	n/a	n/a	n/a	n/a	-999	7	[0, 0, 0]	n/a	catFR1	0	R1158T
1078.497	6.559	1086708	REC_START	n/a	n/a	n/a	n/a	-999	7	[0, 0, 0]	n/a	catFR1	0	R1158T
1085.056	1.0	1093267	REC_WORD_VV	1.0	n/a	<>	n/a	-999	7	[0, 0, 0]	n/a	catFR1	0	R1158T
1086.056	1.0	1094267	REC_WORD_VV	1.0	n/a	<>	n/a	-999	7	[0, 0, 0]	n/a	catFR1	0	R1158T
1087.056	8.929	1095267	REC_WORD_VV	8.929	n/a	<>	n/a	-999	7	[0, 0, 0]	n/a	catFR1	0	R1158T
1095.985	1.0	1104195	REC_WORD_VV	1.0	n/a	<>	n/a	-999	7	[0, 0, 0]	n/a	catFR1	0	R1158T
1096.985	1.0	1105195	REC_WORD_VV	1.0	n/a	<>	n/a	-999	7	[0, 0, 0]	n/a	catFR1	0	R1158T
1097.985	6.51	1106195	REC_WORD_VV	6.51	n/a	<>	n/a	-999	7	[0, 0, 0]	n/a	catFR1	0	R1158T
1104.495	4.012	1112705	REC_WORD_VV	4.012	n/a	<>	n/a	-999	7	[0, 0, 0]	n/a	catFR1	0	R1158T
1108.507	5.597	1116716	REC_END	n/a	n/a	n/a	n/a	-999	7	[0, 0, 0]	n/a	catFR1	0	R1158T
1114.104	0.5	1122313	TRIAL	n/a	n/a	n/a	n/a	-999	8	[0, 0, 0]	n/a	catFR1	0	R1158T
1114.604	10.428	1122813	COUNTDOWN_START	n/a	n/a	n/a	n/a	-999	8	[0, 0, 0]	n/a	catFR1	0	R1158T
1125.032	0.007	1133240	COUNTDOWN_END	n/a	n/a	n/a	n/a	-999	8	[0, 0, 0]	n/a	catFR1	0	R1158T
1125.039	1.617	1133247	ORIENT	n/a	n/a	n/a	n/a	-999	8	[0, 0, 0]	n/a	catFR1	0	R1158T
1126.656	2.267	1134864	ORIENT_OFF	n/a	n/a	n/a	n/a	-999	8	[0, 0, 0]	n/a	catFR1	0	R1158T
1128.923	1.616	1137131	WORD	n/a	wordpools/wordpool_categorized_EN.txt	SHELF	Furniture	1	8	[0, 0, 0]	n/a	catFR1	0	R1158T
1130.539	0.9	1138747	WORD_OFF	n/a	n/a	SHELF	n/a	1	8	[0, 0, 0]	n/a	catFR1	0	R1158T
1131.439	1.618	1139647	WORD	n/a	wordpools/wordpool_categorized_EN.txt	NIGHTSTAND	Furniture	2	8	[0, 0, 0]	n/a	catFR1	0	R1158T
1133.057	0.784	1141265	WORD_OFF	n/a	n/a	NIGHTSTAND	n/a	2	8	[0, 0, 0]	n/a	catFR1	0	R1158T
1133.841	1.615	1142049	WORD	n/a	wordpools/wordpool_categorized_EN.txt	BULL	FarmAnimals	3	8	[0, 0, 0]	n/a	catFR1	0	R1158T
1135.456	0.917	1143664	WORD_OFF	n/a	n/a	BULL	n/a	3	8	[0, 0, 0]	n/a	catFR1	0	R1158T
1136.373	1.618	1144581	WORD	n/a	wordpools/wordpool_categorized_EN.txt	LAMB	FarmAnimals	4	8	[0, 0, 0]	n/a	catFR1	0	R1158T
1137.991	0.95	1146199	WORD_OFF	n/a	n/a	LAMB	n/a	4	8	[0, 0, 0]	n/a	catFR1	0	R1158T
1138.941	1.616	1147148	WORD	n/a	wordpools/wordpool_categorized_EN.txt	TURTLE	OceanAnimals	5	8	[0, 0, 0]	n/a	catFR1	0	R1158T
1140.557	0.934	1148764	WORD_OFF	n/a	n/a	TURTLE	n/a	5	8	[0, 0, 0]	n/a	catFR1	0	R1158T
1141.491	1.601	1149698	WORD	n/a	wordpools/wordpool_categorized_EN.txt	CRAB	OceanAnimals	6	8	[0, 0, 0]	n/a	catFR1	0	R1158T
1143.092	0.817	1151299	WORD_OFF	n/a	n/a	CRAB	n/a	6	8	[0, 0, 0]	n/a	catFR1	0	R1158T
1143.909	1.616	1152116	WORD	n/a	wordpools/wordpool_categorized_EN.txt	COUCH	Furniture	7	8	[0, 0, 0]	n/a	catFR1	0	R1158T
1145.525	1.0	1153732	WORD_OFF	n/a	n/a	COUCH	n/a	7	8	[0, 0, 0]	n/a	catFR1	0	R1158T
1146.525	1.618	1154732	WORD	n/a	wordpools/wordpool_categorized_EN.txt	CHAIR	Furniture	8	8	[0, 0, 0]	n/a	catFR1	0	R1158T
1148.143	0.767	1156350	WORD_OFF	n/a	n/a	CHAIR	n/a	8	8	[0, 0, 0]	n/a	catFR1	0	R1158T
1148.91	1.616	1157117	WORD	n/a	wordpools/wordpool_categorized_EN.txt	CALF	FarmAnimals	9	8	[0, 0, 0]	n/a	catFR1	0	R1158T
1150.526	0.883	1158733	WORD_OFF	n/a	n/a	CALF	n/a	9	8	[0, 0, 0]	n/a	catFR1	0	R1158T
1151.409	1.618	1159616	WORD	n/a	wordpools/wordpool_categorized_EN.txt	PIG	FarmAnimals	10	8	[0, 0, 0]	n/a	catFR1	0	R1158T
1153.027	0.834	1161234	WORD_OFF	n/a	n/a	PIG	n/a	10	8	[0, 0, 0]	n/a	catFR1	0	R1158T
1153.861	1.616	1162068	WORD	n/a	wordpools/wordpool_categorized_EN.txt	FISH	OceanAnimals	11	8	[0, 0, 0]	n/a	catFR1	0	R1158T
1155.477	0.883	1163683	WORD_OFF	n/a	n/a	FISH	n/a	11	8	[0, 0, 0]	n/a	catFR1	0	R1158T
1156.36	1.601	1164566	WORD	n/a	wordpools/wordpool_categorized_EN.txt	PLANKTON	OceanAnimals	12	8	[0, 0, 0]	n/a	catFR1	0	R1158T
1157.961	0.0	1166167	ENCODING_END	n/a	n/a	n/a	n/a	-999	8	[0, 0, 0]	n/a	catFR1	0	R1158T
1157.961	0.104	1166167	WORD_OFF	n/a	n/a	PLANKTON	n/a	12	8	[0, 0, 0]	n/a	catFR1	0	R1158T
1158.065	0.0	1166271	DISTRACT_START	n/a	n/a	n/a	n/a	-999	8	[0, 0, 0]	n/a	catFR1	0	R1158T
1158.065	0.013	1166271	START	n/a	n/a	n/a	n/a	-999	8	[-999, -999, -999]	n/a	catFR1	0	R1158T
1158.078	4.568	1166284	PROB	4.568	n/a	n/a	n/a	-999	8	[1, 5, 1]	7	catFR1	0	R1158T
1162.646	3.067	1170852	PROB	3.067	n/a	n/a	n/a	-999	8	[1, 6, 4]	11	catFR1	0	R1158T
1165.713	4.284	1173919	PROB	4.284	n/a	n/a	n/a	-999	8	[2, 1, 8]	11	catFR1	0	R1158T
1169.997	5.001	1178203	PROB	5.001	n/a	n/a	n/a	-999	8	[8, 6, 1]	15	catFR1	0	R1158T
1174.998	3.391	1183203	PROB	3.391	n/a	n/a	n/a	-999	8	[6, 7, 1]	14	catFR1	0	R1158T
1178.389	0.009	1186594	STOP	n/a	n/a	n/a	n/a	-999	8	[-999, -999, -999]	n/a	catFR1	0	R1158T
1178.398	0.701	1186603	DISTRACT_END	n/a	n/a	n/a	n/a	-999	8	[0, 0, 0]	n/a	catFR1	0	R1158T
1179.099	0.517	1187304	RETRIEVAL_ORIENT	n/a	n/a	n/a	n/a	-999	8	[0, 0, 0]	n/a	catFR1	0	R1158T
1179.616	1.128	1187821	REC_START	n/a	n/a	n/a	n/a	-999	8	[0, 0, 0]	n/a	catFR1	0	R1158T
1180.744	0.663	1188949	REC_WORD	0.663	n/a	BULL	FarmAnimals	3	8	[0, 0, 0]	n/a	catFR1	0	R1158T
1181.407	1.523	1189612	REC_WORD	1.523	n/a	LAMB	FarmAnimals	4	8	[0, 0, 0]	n/a	catFR1	0	R1158T
1182.93	2.593	1191135	REC_WORD	2.593	n/a	TURTLE	OceanAnimals	5	8	[0, 0, 0]	n/a	catFR1	0	R1158T
1185.523	3.802	1193728	REC_WORD	3.802	n/a	PIG	FarmAnimals	10	8	[0, 0, 0]	n/a	catFR1	0	R1158T
1189.325	20.303	1197529	REC_WORD_VV	20.303	n/a	<>	n/a	-999	8	[0, 0, 0]	n/a	catFR1	0	R1158T
1209.628	8.328	1217831	REC_END	n/a	n/a	n/a	n/a	-999	8	[0, 0, 0]	n/a	catFR1	0	R1158T
1217.956	0.5	1226159	TRIAL	n/a	n/a	n/a	n/a	-999	9	[0, 0, 0]	n/a	catFR1	0	R1158T
1218.456	10.428	1226659	COUNTDOWN_START	n/a	n/a	n/a	n/a	-999	9	[0, 0, 0]	n/a	catFR1	0	R1158T
1228.884	0.007	1237086	COUNTDOWN_END	n/a	n/a	n/a	n/a	-999	9	[0, 0, 0]	n/a	catFR1	0	R1158T
1228.891	1.616	1237093	ORIENT	n/a	n/a	n/a	n/a	-999	9	[0, 0, 0]	n/a	catFR1	0	R1158T
1230.507	2.152	1238709	ORIENT_OFF	n/a	n/a	n/a	n/a	-999	9	[0, 0, 0]	n/a	catFR1	0	R1158T
1232.659	1.615	1240861	WORD	n/a	wordpools/wordpool_categorized_EN.txt	DRESS	Clothing	1	9	[0, 0, 0]	n/a	catFR1	0	R1158T
1234.274	0.802	1242476	WORD_OFF	n/a	n/a	DRESS	n/a	1	9	[0, 0, 0]	n/a	catFR1	0	R1158T
1235.076	1.617	1243278	WORD	n/a	wordpools/wordpool_categorized_EN.txt	BLOUSE	Clothing	2	9	[0, 0, 0]	n/a	catFR1	0	R1158T
1236.693	0.799	1244895	WORD_OFF	n/a	n/a	BLOUSE	n/a	2	9	[0, 0, 0]	n/a	catFR1	0	R1158T
1237.492	1.618	1245694	WORD	n/a	wordpools/wordpool_categorized_EN.txt	CELLO	Instruments	3	9	[0, 0, 0]	n/a	catFR1	0	R1158T
1239.11	0.966	1247312	WORD_OFF	n/a	n/a	CELLO	n/a	3	9	[0, 0, 0]	n/a	catFR1	0	R1158T
1240.076	1.617	1248277	WORD	n/a	wordpools/wordpool_categorized_EN.txt	FLUTE	Instruments	4	9	[0, 0, 0]	n/a	catFR1	0	R1158T
1241.693	1.001	1249894	WORD_OFF	n/a	n/a	FLUTE	n/a	4	9	[0, 0, 0]	n/a	catFR1	0	R1158T
1242.694	1.616	1250895	WORD	n/a	wordpools/wordpool_categorized_EN.txt	BASKETBALL	Toys	5	9	[0, 0, 0]	n/a	catFR1	0	R1158T
1244.31	0.767	1252511	WORD_OFF	n/a	n/a	BASKETBALL	n/a	5	9	[0, 0, 0]	n/a	catFR1	0	R1158T
1245.077	1.617	1253278	WORD	n/a	wordpools/wordpool_categorized_EN.txt	DOLLHOUSE	Toys	6	9	[0, 0, 0]	n/a	catFR1	0	R1158T
1246.694	1.017	1254895	WORD_OFF	n/a	n/a	DOLLHOUSE	n/a	6	9	[0, 0, 0]	n/a	catFR1	0	R1158T
1247.711	1.616	1255912	WORD	n/a	wordpools/wordpool_categorized_EN.txt	TUBA	Instruments	7	9	[0, 0, 0]	n/a	catFR1	0	R1158T
1249.327	0.835	1257528	WORD_OFF	n/a	n/a	TUBA	n/a	7	9	[0, 0, 0]	n/a	catFR1	0	R1158T
1250.162	1.617	1258363	WORD	n/a	wordpools/wordpool_categorized_EN.txt	BANJO	Instruments	8	9	[0, 0, 0]	n/a	catFR1	0	R1158T
1251.779	0.983	1259980	WORD_OFF	n/a	n/a	BANJO	n/a	8	9	[0, 0, 0]	n/a	catFR1	0	R1158T
1252.762	1.616	1260963	WORD	n/a	wordpools/wordpool_categorized_EN.txt	JEANS	Clothing	9	9	[0, 0, 0]	n/a	catFR1	0	R1158T
1254.378	0.95	1262579	WORD_OFF	n/a	n/a	JEANS	n/a	9	9	[0, 0, 0]	n/a	catFR1	0	R1158T
1255.328	1.618	1263529	WORD	n/a	wordpools/wordpool_categorized_EN.txt	PANTS	Clothing	10	9	[0, 0, 0]	n/a	catFR1	0	R1158T
1256.946	0.817	1265146	WORD_OFF	n/a	n/a	PANTS	n/a	10	9	[0, 0, 0]	n/a	catFR1	0	R1158T
1257.763	1.616	1265963	WORD	n/a	wordpools/wordpool_categorized_EN.txt	SLINKY	Toys	11	9	[0, 0, 0]	n/a	catFR1	0	R1158T
1259.379	0.801	1267579	WORD_OFF	n/a	n/a	SLINKY	n/a	11	9	[0, 0, 0]	n/a	catFR1	0	R1158T
1260.18	1.617	1268380	WORD	n/a	wordpools/wordpool_categorized_EN.txt	FOOTBALL	Toys	12	9	[0, 0, 0]	n/a	catFR1	0	R1158T
1261.797	0.0	1269997	ENCODING_END	n/a	n/a	n/a	n/a	-999	9	[0, 0, 0]	n/a	catFR1	0	R1158T
1261.797	0.134	1269997	WORD_OFF	n/a	n/a	FOOTBALL	n/a	12	9	[0, 0, 0]	n/a	catFR1	0	R1158T
1261.931	0.0	1270131	DISTRACT_START	n/a	n/a	n/a	n/a	-999	9	[0, 0, 0]	n/a	catFR1	0	R1158T
1261.931	0.016	1270131	START	n/a	n/a	n/a	n/a	-999	9	[-999, -999, -999]	n/a	catFR1	0	R1158T
1261.947	7.852	1270147	PROB	7.852	n/a	n/a	n/a	-999	9	[9, 9, 8]	26	catFR1	0	R1158T
1269.799	6.384	1277999	PROB	6.384	n/a	n/a	n/a	-999	9	[4, 5, 9]	18	catFR1	0	R1158T
1276.183	4.383	1284382	PROB	4.383	n/a	n/a	n/a	-999	9	[4, 1, 3]	8	catFR1	0	R1158T
1280.566	7.231	1288765	PROB	7.231	n/a	n/a	n/a	-999	9	[4, 2, 9]	15	catFR1	0	R1158T
1287.797	0.022	1295996	STOP	n/a	n/a	n/a	n/a	-999	9	[-999, -999, -999]	n/a	catFR1	0	R1158T
1287.819	0.649	1296018	DISTRACT_END	n/a	n/a	n/a	n/a	-999	9	[0, 0, 0]	n/a	catFR1	0	R1158T
1288.468	0.518	1296667	RETRIEVAL_ORIENT	n/a	n/a	n/a	n/a	-999	9	[0, 0, 0]	n/a	catFR1	0	R1158T
1288.986	1.383	1297185	REC_START	n/a	n/a	n/a	n/a	-999	9	[0, 0, 0]	n/a	catFR1	0	R1158T
1290.369	1.0	1298567	REC_WORD_VV	1.0	n/a	<>	n/a	-999	9	[0, 0, 0]	n/a	catFR1	0	R1158T
1291.369	2.751	1299567	REC_WORD_VV	2.751	n/a	<>	n/a	-999	9	[0, 0, 0]	n/a	catFR1	0	R1158T
1294.12	3.076	1302318	REC_WORD_VV	3.076	n/a	<>	n/a	-999	9	[0, 0, 0]	n/a	catFR1	0	R1158T
1297.196	1.0	1305394	REC_WORD_VV	1.0	n/a	<>	n/a	-999	9	[0, 0, 0]	n/a	catFR1	0	R1158T
1298.196	3.247	1306394	REC_WORD_VV	3.247	n/a	<>	n/a	-999	9	[0, 0, 0]	n/a	catFR1	0	R1158T
1301.443	2.48	1309641	REC_WORD	2.48	n/a	DRESSES	n/a	-999	9	[0, 0, 0]	n/a	catFR1	0	R1158T
1303.923	15.075	1312121	REC_WORD	15.075	n/a	CELLO	Instruments	3	9	[0, 0, 0]	n/a	catFR1	0	R1158T
1318.998	4.509	1327195	REC_END	n/a	n/a	n/a	n/a	-999	9	[0, 0, 0]	n/a	catFR1	0	R1158T
1323.507	0.5	1331704	TRIAL	n/a	n/a	n/a	n/a	-999	10	[0, 0, 0]	n/a	catFR1	0	R1158T
1324.007	10.428	1332203	COUNTDOWN_START	n/a	n/a	n/a	n/a	-999	10	[0, 0, 0]	n/a	catFR1	0	R1158T
1334.435	0.008	1342631	COUNTDOWN_END	n/a	n/a	n/a	n/a	-999	10	[0, 0, 0]	n/a	catFR1	0	R1158T
1334.443	1.618	1342639	ORIENT	n/a	n/a	n/a	n/a	-999	10	[0, 0, 0]	n/a	catFR1	0	R1158T
1336.061	1.967	1344257	ORIENT_OFF	n/a	n/a	n/a	n/a	-999	10	[0, 0, 0]	n/a	catFR1	0	R1158T
1338.028	1.617	1346224	WORD	n/a	wordpools/wordpool_categorized_EN.txt	SPIDER	Insects	1	10	[0, 0, 0]	n/a	catFR1	0	R1158T
1339.645	0.799	1347841	WORD_OFF	n/a	n/a	SPIDER	n/a	1	10	[0, 0, 0]	n/a	catFR1	0	R1158T
1340.444	1.618	1348640	WORD	n/a	wordpools/wordpool_categorized_EN.txt	CRICKET	Insects	2	10	[0, 0, 0]	n/a	catFR1	0	R1158T
1342.062	0.8	1350257	WORD_OFF	n/a	n/a	CRICKET	n/a	2	10	[0, 0, 0]	n/a	catFR1	0	R1158T
1342.862	1.616	1351057	WORD	n/a	wordpools/wordpool_categorized_EN.txt	PIGEON	Birds	3	10	[0, 0, 0]	n/a	catFR1	0	R1158T
1344.478	0.917	1352673	WORD_OFF	n/a	n/a	PIGEON	n/a	3	10	[0, 0, 0]	n/a	catFR1	0	R1158T
1345.395	1.618	1353590	WORD	n/a	wordpools/wordpool_categorized_EN.txt	HAWK	Birds	4	10	[0, 0, 0]	n/a	catFR1	0	R1158T
1347.013	1.0	1355208	WORD_OFF	n/a	n/a	HAWK	n/a	4	10	[0, 0, 0]	n/a	catFR1	0	R1158T
1348.013	1.617	1356208	WORD	n/a	wordpools/wordpool_categorized_EN.txt	COLANDER	KitchenTools	5	10	[0, 0, 0]	n/a	catFR1	0	R1158T
1349.63	0.932	1357825	WORD_OFF	n/a	n/a	COLANDER	n/a	5	10	[0, 0, 0]	n/a	catFR1	0	R1158T
1350.562	1.602	1358757	WORD	n/a	wordpools/wordpool_categorized_EN.txt	SPOON	KitchenTools	6	10	[0, 0, 0]	n/a	catFR1	0	R1158T
1352.164	0.816	1360359	WORD_OFF	n/a	n/a	SPOON	n/a	6	10	[0, 0, 0]	n/a	catFR1	0	R1158T
1352.98	1.617	1361175	WORD	n/a	wordpools/wordpool_categorized_EN.txt	GOOSE	Birds	7	10	[0, 0, 0]	n/a	catFR1	0	R1158T
1354.597	0.966	1362792	WORD_OFF	n/a	n/a	GOOSE	n/a	7	10	[0, 0, 0]	n/a	catFR1	0	R1158T
1355.563	1.601	1363758	WORD	n/a	wordpools/wordpool_categorized_EN.txt	BLUEBIRD	Birds	8	10	[0, 0, 0]	n/a	catFR1	0	R1158T
1357.164	0.967	1365359	WORD_OFF	n/a	n/a	BLUEBIRD	n/a	8	10	[0, 0, 0]	n/a	catFR1	0	R1158T
1358.131	1.617	1366325	WORD	n/a	wordpools/wordpool_categorized_EN.txt	MOSQUITO	Insects	9	10	[0, 0, 0]	n/a	catFR1	0	R1158T
1359.748	0.783	1367942	WORD_OFF	n/a	n/a	MOSQUITO	n/a	9	10	[0, 0, 0]	n/a	catFR1	0	R1158T
1360.531	1.601	1368725	WORD	n/a	wordpools/wordpool_categorized_EN.txt	BEE	Insects	10	10	[0, 0, 0]	n/a	catFR1	0	R1158T
1362.132	0.8	1370326	WORD_OFF	n/a	n/a	BEE	n/a	10	10	[0, 0, 0]	n/a	catFR1	0	R1158T
1362.932	1.616	1371126	WORD	n/a	wordpools/wordpool_categorized_EN.txt	SPATULA	KitchenTools	11	10	[0, 0, 0]	n/a	catFR1	0	R1158T
1364.548	0.967	1372742	WORD_OFF	n/a	n/a	SPATULA	n/a	11	10	[0, 0, 0]	n/a	catFR1	0	R1158T
1365.515	1.618	1373709	WORD	n/a	wordpools/wordpool_categorized_EN.txt	CORKSCREW	KitchenTools	12	10	[0, 0, 0]	n/a	catFR1	0	R1158T
1367.133	0.0	1375327	ENCODING_END	n/a	n/a	n/a	n/a	-999	10	[0, 0, 0]	n/a	catFR1	0	R1158T
1367.133	0.136	1375327	WORD_OFF	n/a	n/a	CORKSCREW	n/a	12	10	[0, 0, 0]	n/a	catFR1	0	R1158T
1367.269	0.001	1375463	DISTRACT_START	n/a	n/a	n/a	n/a	-999	10	[0, 0, 0]	n/a	catFR1	0	R1158T
1367.27	0.012	1375464	START	n/a	n/a	n/a	n/a	-999	10	[-999, -999, -999]	n/a	catFR1	0	R1158T
1367.282	6.869	1375476	PROB	6.869	n/a	n/a	n/a	-999	10	[3, 5, 2]	10	catFR1	0	R1158T
1374.151	6.234	1382345	PROB	6.234	n/a	n/a	n/a	-999	10	[8, 2, 6]	16	catFR1	0	R1158T
1380.385	4.485	1388578	PROB	4.485	n/a	n/a	n/a	-999	10	[1, 2, 9]	12	catFR1	0	R1158T
1384.87	3.766	1393063	PROB	3.766	n/a	n/a	n/a	-999	10	[8, 8, 4]	20	catFR1	0	R1158T
1388.636	0.018	1396829	STOP	n/a	n/a	n/a	n/a	-999	10	[-999, -999, -999]	n/a	catFR1	0	R1158T
1388.654	0.55	1396847	DISTRACT_END	n/a	n/a	n/a	n/a	-999	10	[0, 0, 0]	n/a	catFR1	0	R1158T
1389.204	0.517	1397397	RETRIEVAL_ORIENT	n/a	n/a	n/a	n/a	-999	10	[0, 0, 0]	n/a	catFR1	0	R1158T
1389.721	0.509	1397914	REC_START	n/a	n/a	n/a	n/a	-999	10	[0, 0, 0]	n/a	catFR1	0	R1158T
1390.23	0.703	1398423	REC_WORD	0.703	n/a	SPIDER	Insects	1	10	[0, 0, 0]	n/a	catFR1	0	R1158T
1390.933	1.617	1399126	REC_WORD	1.617	n/a	CRICKET	Insects	2	10	[0, 0, 0]	n/a	catFR1	0	R1158T
1392.55	1.404	1400742	REC_WORD	1.404	n/a	MOSQUITO	Insects	9	10	[0, 0, 0]	n/a	catFR1	0	R1158T
1393.954	2.278	1402146	REC_WORD	2.278	n/a	BEE	Insects	10	10	[0, 0, 0]	n/a	catFR1	0	R1158T
1396.232	1.0	1404424	REC_WORD_VV	1.0	n/a	<>	n/a	-999	10	[0, 0, 0]	n/a	catFR1	0	R1158T
1397.232	22.5	1405424	REC_WORD_VV	22.5	n/a	<>	n/a	-999	10	[0, 0, 0]	n/a	catFR1	0	R1158T
1419.732	6.078	1427923	REC_END	n/a	n/a	n/a	n/a	-999	10	[0, 0, 0]	n/a	catFR1	0	R1158T
1425.81	0.5	1434000	TRIAL	n/a	n/a	n/a	n/a	-999	11	[0, 0, 0]	n/a	catFR1	0	R1158T
1426.31	10.428	1434500	COUNTDOWN_START	n/a	n/a	n/a	n/a	-999	11	[0, 0, 0]	n/a	catFR1	0	R1158T
1436.738	0.008	1444928	COUNTDOWN_END	n/a	n/a	n/a	n/a	-999	11	[0, 0, 0]	n/a	catFR1	0	R1158T
1436.746	1.616	1444936	ORIENT	n/a	n/a	n/a	n/a	-999	11	[0, 0, 0]	n/a	catFR1	0	R1158T
1438.362	2.183	1446552	ORIENT_OFF	n/a	n/a	n/a	n/a	-999	11	[0, 0, 0]	n/a	catFR1	0	R1158T
1440.545	1.602	1448735	WORD	n/a	wordpools/wordpool_categorized_EN.txt	TEA	Beverages	1	11	[0, 0, 0]	n/a	catFR1	0	R1158T
1442.147	1.017	1450336	WORD_OFF	n/a	n/a	TEA	n/a	1	11	[0, 0, 0]	n/a	catFR1	0	R1158T
1443.164	1.617	1451353	WORD	n/a	wordpools/wordpool_categorized_EN.txt	WATER	Beverages	2	11	[0, 0, 0]	n/a	catFR1	0	R1158T
1444.781	1.0	1452970	WORD_OFF	n/a	n/a	WATER	n/a	2	11	[0, 0, 0]	n/a	catFR1	0	R1158T
1445.781	1.616	1453970	WORD	n/a	wordpools/wordpool_categorized_EN.txt	SAW	Tools	3	11	[0, 0, 0]	n/a	catFR1	0	R1158T
1447.397	0.966	1455586	WORD_OFF	n/a	n/a	SAW	n/a	3	11	[0, 0, 0]	n/a	catFR1	0	R1158T
1448.363	1.602	1456552	WORD	n/a	wordpools/wordpool_categorized_EN.txt	CROWBAR	Tools	4	11	[0, 0, 0]	n/a	catFR1	0	R1158T
1449.965	0.817	1458154	WORD_OFF	n/a	n/a	CROWBAR	n/a	4	11	[0, 0, 0]	n/a	catFR1	0	R1158T
1450.782	1.616	1458971	WORD	n/a	wordpools/wordpool_categorized_EN.txt	CHIMPANZEE	Zoo	5	11	[0, 0, 0]	n/a	catFR1	0	R1158T
1452.398	0.834	1460587	WORD_OFF	n/a	n/a	CHIMPANZEE	n/a	5	11	[0, 0, 0]	n/a	catFR1	0	R1158T
1453.232	1.617	1461421	WORD	n/a	wordpools/wordpool_categorized_EN.txt	PANDA	Zoo	6	11	[0, 0, 0]	n/a	catFR1	0	R1158T
1454.849	0.9	1463038	WORD_OFF	n/a	n/a	PANDA	n/a	6	11	[0, 0, 0]	n/a	catFR1	0	R1158T
1455.749	1.616	1463938	WORD	n/a	wordpools/wordpool_categorized_EN.txt	DRILL	Tools	7	11	[0, 0, 0]	n/a	catFR1	0	R1158T
1457.365	0.868	1465554	WORD_OFF	n/a	n/a	DRILL	n/a	7	11	[0, 0, 0]	n/a	catFR1	0	R1158T
1458.233	1.617	1466422	WORD	n/a	wordpools/wordpool_categorized_EN.txt	WRENCH	Tools	8	11	[0, 0, 0]	n/a	catFR1	0	R1158T
1459.85	0.9	1468038	WORD_OFF	n/a	n/a	WRENCH	n/a	8	11	[0, 0, 0]	n/a	catFR1	0	R1158T
1460.75	1.616	1468938	WORD	n/a	wordpools/wordpool_categorized_EN.txt	SODA	Beverages	9	11	[0, 0, 0]	n/a	catFR1	0	R1158T
1462.366	0.917	1470554	WORD_OFF	n/a	n/a	SODA	n/a	9	11	[0, 0, 0]	n/a	catFR1	0	R1158T
1463.283	1.618	1471471	WORD	n/a	wordpools/wordpool_categorized_EN.txt	CIDER	Beverages	10	11	[0, 0, 0]	n/a	catFR1	0	R1158T
1464.901	0.8	1473089	WORD_OFF	n/a	n/a	CIDER	n/a	10	11	[0, 0, 0]	n/a	catFR1	0	R1158T
1465.701	1.616	1473889	WORD	n/a	wordpools/wordpool_categorized_EN.txt	MONKEY	Zoo	11	11	[0, 0, 0]	n/a	catFR1	0	R1158T
1467.317	0.934	1475505	WORD_OFF	n/a	n/a	MONKEY	n/a	11	11	[0, 0, 0]	n/a	catFR1	0	R1158T
1468.251	1.618	1476439	WORD	n/a	wordpools/wordpool_categorized_EN.txt	TIGER	Zoo	12	11	[0, 0, 0]	n/a	catFR1	0	R1158T
1469.869	0.0	1478057	ENCODING_END	n/a	n/a	n/a	n/a	-999	11	[0, 0, 0]	n/a	catFR1	0	R1158T
1469.869	0.103	1478057	WORD_OFF	n/a	n/a	TIGER	n/a	12	11	[0, 0, 0]	n/a	catFR1	0	R1158T
1469.972	0.0	1478160	DISTRACT_START	n/a	n/a	n/a	n/a	-999	11	[0, 0, 0]	n/a	catFR1	0	R1158T
1469.972	0.013	1478160	START	n/a	n/a	n/a	n/a	-999	11	[-999, -999, -999]	n/a	catFR1	0	R1158T
1469.985	7.118	1478173	PROB	7.118	n/a	n/a	n/a	-999	11	[5, 7, 3]	15	catFR1	0	R1158T
1477.103	4.367	1485290	PROB	4.367	n/a	n/a	n/a	-999	11	[6, 8, 1]	15	catFR1	0	R1158T
1481.47	4.884	1489657	PROB	4.884	n/a	n/a	n/a	-999	11	[5, 4, 2]	11	catFR1	0	R1158T
1486.354	4.388	1494541	PROB	4.388	n/a	n/a	n/a	-999	11	[2, 9, 5]	16	catFR1	0	R1158T
1490.742	0.014	1498929	STOP	n/a	n/a	n/a	n/a	-999	11	[-999, -999, -999]	n/a	catFR1	0	R1158T
1490.756	0.549	1498943	DISTRACT_END	n/a	n/a	n/a	n/a	-999	11	[0, 0, 0]	n/a	catFR1	0	R1158T
1491.305	0.518	1499492	RETRIEVAL_ORIENT	n/a	n/a	n/a	n/a	-999	11	[0, 0, 0]	n/a	catFR1	0	R1158T
1491.823	0.897	1500010	REC_START	n/a	n/a	n/a	n/a	-999	11	[0, 0, 0]	n/a	catFR1	0	R1158T
1492.72	0.378	1500906	REC_WORD	0.378	n/a	TEA	Beverages	1	11	[0, 0, 0]	n/a	catFR1	0	R1158T
1493.098	0.845	1501284	REC_WORD	0.845	n/a	WATER	Beverages	2	11	[0, 0, 0]	n/a	catFR1	0	R1158T
1493.943	3.009	1502129	REC_WORD	3.009	n/a	SODA	Beverages	9	11	[0, 0, 0]	n/a	catFR1	0	R1158T
1496.952	7.243	1505138	REC_WORD	7.243	n/a	MESQUITE	n/a	-999	11	[0, 0, 0]	n/a	catFR1	0	R1158T
1504.195	17.638	1512381	REC_WORD	17.638	n/a	TOVE	n/a	-999	11	[0, 0, 0]	n/a	catFR1	0	R1158T
1521.833	5.796	1530018	REC_END	n/a	n/a	n/a	n/a	-999	11	[0, 0, 0]	n/a	catFR1	0	R1158T
1527.629	0.5	1535813	TRIAL	n/a	n/a	n/a	n/a	-999	12	[0, 0, 0]	n/a	catFR1	0	R1158T
1528.129	10.428	1536313	COUNTDOWN_START	n/a	n/a	n/a	n/a	-999	12	[0, 0, 0]	n/a	catFR1	0	R1158T
1538.557	0.006	1546741	COUNTDOWN_END	n/a	n/a	n/a	n/a	-999	12	[0, 0, 0]	n/a	catFR1	0	R1158T
1538.563	1.618	1546747	ORIENT	n/a	n/a	n/a	n/a	-999	12	[0, 0, 0]	n/a	catFR1	0	R1158T
1540.181	2.2	1548365	ORIENT_OFF	n/a	n/a	n/a	n/a	-999	12	[0, 0, 0]	n/a	catFR1	0	R1158T
1542.381	1.618	1550565	WORD	n/a	wordpools/wordpool_categorized_EN.txt	MARBLES	Toys	1	12	[0, 0, 0]	n/a	catFR1	0	R1158T
1543.999	0.883	1552182	WORD_OFF	n/a	n/a	MARBLES	n/a	1	12	[0, 0, 0]	n/a	catFR1	0	R1158T
1544.882	1.616	1553065	WORD	n/a	wordpools/wordpool_categorized_EN.txt	DOLL	Toys	2	12	[0, 0, 0]	n/a	catFR1	0	R1158T
1546.498	0.867	1554681	WORD_OFF	n/a	n/a	DOLL	n/a	2	12	[0, 0, 0]	n/a	catFR1	0	R1158T
1547.365	1.618	1555548	WORD	n/a	wordpools/wordpool_categorized_EN.txt	GLUE	OfficeSupplies	3	12	[0, 0, 0]	n/a	catFR1	0	R1158T
1548.983	1.0	1557166	WORD_OFF	n/a	n/a	GLUE	n/a	3	12	[0, 0, 0]	n/a	catFR1	0	R1158T
1549.983	1.617	1558166	WORD	n/a	wordpools/wordpool_categorized_EN.txt	ERASER	OfficeSupplies	4	12	[0, 0, 0]	n/a	catFR1	0	R1158T
1551.6	0.933	1559783	WORD_OFF	n/a	n/a	ERASER	n/a	4	12	[0, 0, 0]	n/a	catFR1	0	R1158T
1552.533	1.617	1560716	WORD	n/a	wordpools/wordpool_categorized_EN.txt	TABLET	Electronics	5	12	[0, 0, 0]	n/a	catFR1	0	R1158T
1554.15	0.967	1562333	WORD_OFF	n/a	n/a	TABLET	n/a	5	12	[0, 0, 0]	n/a	catFR1	0	R1158T
1555.117	1.617	1563300	WORD	n/a	wordpools/wordpool_categorized_EN.txt	TELEVISION	Electronics	6	12	[0, 0, 0]	n/a	catFR1	0	R1158T
1556.734	0.8	1564917	WORD_OFF	n/a	n/a	TELEVISION	n/a	6	12	[0, 0, 0]	n/a	catFR1	0	R1158T
1557.534	1.617	1565717	WORD	n/a	wordpools/wordpool_categorized_EN.txt	BARBIE	Toys	7	12	[0, 0, 0]	n/a	catFR1	0	R1158T
1559.151	1.001	1567334	WORD_OFF	n/a	n/a	BARBIE	n/a	7	12	[0, 0, 0]	n/a	catFR1	0	R1158T
1560.152	1.617	1568334	WORD	n/a	wordpools/wordpool_categorized_EN.txt	FRISBEE	Toys	8	12	[0, 0, 0]	n/a	catFR1	0	R1158T
1561.769	0.815	1569951	WORD_OFF	n/a	n/a	FRISBEE	n/a	8	12	[0, 0, 0]	n/a	catFR1	0	R1158T
1562.584	1.601	1570766	WORD	n/a	wordpools/wordpool_categorized_EN.txt	PAPER	OfficeSupplies	9	12	[0, 0, 0]	n/a	catFR1	0	R1158T
1564.185	0.984	1572367	WORD_OFF	n/a	n/a	PAPER	n/a	9	12	[0, 0, 0]	n/a	catFR1	0	R1158T
1565.169	1.617	1573351	WORD	n/a	wordpools/wordpool_categorized_EN.txt	NOTEBOOK	OfficeSupplies	10	12	[0, 0, 0]	n/a	catFR1	0	R1158T
1566.786	0.934	1574968	WORD_OFF	n/a	n/a	NOTEBOOK	n/a	10	12	[0, 0, 0]	n/a	catFR1	0	R1158T
1567.72	1.616	1575902	WORD	n/a	wordpools/wordpool_categorized_EN.txt	PHONE	Electronics	11	12	[0, 0, 0]	n/a	catFR1	0	R1158T
1569.336	0.884	1577518	WORD_OFF	n/a	n/a	PHONE	n/a	11	12	[0, 0, 0]	n/a	catFR1	0	R1158T
1570.22	1.617	1578402	WORD	n/a	wordpools/wordpool_categorized_EN.txt	COMPUTER	Electronics	12	12	[0, 0, 0]	n/a	catFR1	0	R1158T
1571.837	0.0	1580019	WORD_OFF	n/a	n/a	COMPUTER	n/a	12	12	[0, 0, 0]	n/a	catFR1	0	R1158T
1571.837	0.145	1580019	ENCODING_END	n/a	n/a	n/a	n/a	-999	12	[0, 0, 0]	n/a	catFR1	0	R1158T
1571.982	0.0	1580164	DISTRACT_START	n/a	n/a	n/a	n/a	-999	12	[0, 0, 0]	n/a	catFR1	0	R1158T
1571.982	0.022	1580164	START	n/a	n/a	n/a	n/a	-999	12	[-999, -999, -999]	n/a	catFR1	0	R1158T
1572.004	9.018	1580186	PROB	9.018	n/a	n/a	n/a	-999	12	[9, 4, 7]	20	catFR1	0	R1158T
1581.022	7.185	1589203	PROB	7.185	n/a	n/a	n/a	-999	12	[4, 9, 3]	16	catFR1	0	R1158T
1588.207	4.086	1596388	PROB	4.086	n/a	n/a	n/a	-999	12	[9, 7, 3]	19	catFR1	0	R1158T
1592.293	0.014	1600474	STOP	n/a	n/a	n/a	n/a	-999	12	[-999, -999, -999]	n/a	catFR1	0	R1158T
1592.307	0.634	1600488	DISTRACT_END	n/a	n/a	n/a	n/a	-999	12	[0, 0, 0]	n/a	catFR1	0	R1158T
1592.941	0.516	1601122	RETRIEVAL_ORIENT	n/a	n/a	n/a	n/a	-999	12	[0, 0, 0]	n/a	catFR1	0	R1158T
1593.457	0.821	1601638	REC_START	n/a	n/a	n/a	n/a	-999	12	[0, 0, 0]	n/a	catFR1	0	R1158T
1594.278	0.69	1602458	REC_WORD	0.69	n/a	PAPER	OfficeSupplies	9	12	[0, 0, 0]	n/a	catFR1	0	R1158T
1594.968	1.731	1603148	REC_WORD	1.731	n/a	NOTEBOOK	OfficeSupplies	10	12	[0, 0, 0]	n/a	catFR1	0	R1158T
1596.699	2.907	1604879	REC_WORD	2.907	n/a	PHONE	Electronics	11	12	[0, 0, 0]	n/a	catFR1	0	R1158T
1599.606	23.863	1607786	REC_WORD_VV	23.863	n/a	<>	n/a	-999	12	[0, 0, 0]	n/a	catFR1	0	R1158T
1623.469	5.429	1631648	REC_END	n/a	n/a	n/a	n/a	-999	12	[0, 0, 0]	n/a	catFR1	0	R1158T
1628.898	0.5	1637076	TRIAL	n/a	n/a	n/a	n/a	-999	13	[0, 0, 0]	n/a	catFR1	0	R1158T
1629.398	10.428	1637576	COUNTDOWN_START	n/a	n/a	n/a	n/a	-999	13	[0, 0, 0]	n/a	catFR1	0	R1158T
1639.826	0.007	1648004	COUNTDOWN_END	n/a	n/a	n/a	n/a	-999	13	[0, 0, 0]	n/a	catFR1	0	R1158T
1639.833	1.616	1648011	ORIENT	n/a	n/a	n/a	n/a	-999	13	[0, 0, 0]	n/a	catFR1	0	R1158T
1641.449	2.05	1649627	ORIENT_OFF	n/a	n/a	n/a	n/a	-999	13	[0, 0, 0]	n/a	catFR1	0	R1158T
1643.499	1.601	1651677	WORD	n/a	wordpools/wordpool_categorized_EN.txt	SUNFLOWER	Flowers	1	13	[0, 0, 0]	n/a	catFR1	0	R1158T
1645.1	0.767	1653277	WORD_OFF	n/a	n/a	SUNFLOWER	n/a	1	13	[0, 0, 0]	n/a	catFR1	0	R1158T
1645.867	1.616	1654044	WORD	n/a	wordpools/wordpool_categorized_EN.txt	DAISY	Flowers	2	13	[0, 0, 0]	n/a	catFR1	0	R1158T
1647.483	0.884	1655660	WORD_OFF	n/a	n/a	DAISY	n/a	2	13	[0, 0, 0]	n/a	catFR1	0	R1158T
1648.367	1.618	1656544	WORD	n/a	wordpools/wordpool_categorized_EN.txt	HILLS	Landscapes	3	13	[0, 0, 0]	n/a	catFR1	0	R1158T
1649.985	0.883	1658162	WORD_OFF	n/a	n/a	HILLS	n/a	3	13	[0, 0, 0]	n/a	catFR1	0	R1158T
1650.868	1.616	1659045	WORD	n/a	wordpools/wordpool_categorized_EN.txt	OCEAN	Landscapes	4	13	[0, 0, 0]	n/a	catFR1	0	R1158T
1652.484	0.784	1660661	WORD_OFF	n/a	n/a	OCEAN	n/a	4	13	[0, 0, 0]	n/a	catFR1	0	R1158T
1653.268	1.618	1661445	WORD	n/a	wordpools/wordpool_categorized_EN.txt	JEEP	Vehicles	5	13	[0, 0, 0]	n/a	catFR1	0	R1158T
1654.886	0.816	1663063	WORD_OFF	n/a	n/a	JEEP	n/a	5	13	[0, 0, 0]	n/a	catFR1	0	R1158T
1655.702	1.616	1663879	WORD	n/a	wordpools/wordpool_categorized_EN.txt	MOPED	Vehicles	6	13	[0, 0, 0]	n/a	catFR1	0	R1158T
1657.318	0.901	1665495	WORD_OFF	n/a	n/a	MOPED	n/a	6	13	[0, 0, 0]	n/a	catFR1	0	R1158T
1658.219	1.617	1666396	WORD	n/a	wordpools/wordpool_categorized_EN.txt	VIOLET	Flowers	7	13	[0, 0, 0]	n/a	catFR1	0	R1158T
1659.836	0.984	1668013	WORD_OFF	n/a	n/a	VIOLET	n/a	7	13	[0, 0, 0]	n/a	catFR1	0	R1158T
1660.82	1.616	1668997	WORD	n/a	wordpools/wordpool_categorized_EN.txt	LILY	Flowers	8	13	[0, 0, 0]	n/a	catFR1	0	R1158T
1662.436	0.917	1670612	WORD_OFF	n/a	n/a	LILY	n/a	8	13	[0, 0, 0]	n/a	catFR1	0	R1158T
1663.353	1.618	1671529	WORD	n/a	wordpools/wordpool_categorized_EN.txt	ISLAND	Landscapes	9	13	[0, 0, 0]	n/a	catFR1	0	R1158T
1664.971	1.0	1673147	WORD_OFF	n/a	n/a	ISLAND	n/a	9	13	[0, 0, 0]	n/a	catFR1	0	R1158T
1665.971	1.616	1674147	WORD	n/a	wordpools/wordpool_categorized_EN.txt	STREAM	Landscapes	10	13	[0, 0, 0]	n/a	catFR1	0	R1158T
1667.587	0.9	1675763	WORD_OFF	n/a	n/a	STREAM	n/a	10	13	[0, 0, 0]	n/a	catFR1	0	R1158T
1668.487	1.601	1676663	WORD	n/a	wordpools/wordpool_categorized_EN.txt	VAN	Vehicles	11	13	[0, 0, 0]	n/a	catFR1	0	R1158T
1670.088	0.851	1678264	WORD_OFF	n/a	n/a	VAN	n/a	11	13	[0, 0, 0]	n/a	catFR1	0	R1158T
1670.939	1.615	1679115	WORD	n/a	wordpools/wordpool_categorized_EN.txt	PLANE	Vehicles	12	13	[0, 0, 0]	n/a	catFR1	0	R1158T
1672.554	0.001	1680730	WORD_OFF	n/a	n/a	PLANE	n/a	12	13	[0, 0, 0]	n/a	catFR1	0	R1158T
1672.555	0.105	1680731	ENCODING_END	n/a	n/a	n/a	n/a	-999	13	[0, 0, 0]	n/a	catFR1	0	R1158T
1672.66	0.0	1680836	DISTRACT_START	n/a	n/a	n/a	n/a	-999	13	[0, 0, 0]	n/a	catFR1	0	R1158T
1672.66	0.012	1680836	START	n/a	n/a	n/a	n/a	-999	13	[-999, -999, -999]	n/a	catFR1	0	R1158T
1672.672	4.6	1680848	PROB	4.6	n/a	n/a	n/a	-999	13	[2, 8, 7]	17	catFR1	0	R1158T
1677.272	4.718	1685448	PROB	4.718	n/a	n/a	n/a	-999	13	[4, 5, 9]	18	catFR1	0	R1158T
1681.99	4.918	1690165	PROB	4.918	n/a	n/a	n/a	-999	13	[2, 3, 4]	9	catFR1	0	R1158T
1686.908	3.867	1695083	PROB	3.867	n/a	n/a	n/a	-999	13	[5, 8, 5]	18	catFR1	0	R1158T
1690.775	8.766	1698950	PROB	8.766	n/a	n/a	n/a	-999	13	[8, 5, 7]	20	catFR1	0	R1158T
1699.541	0.019	1707715	STOP	n/a	n/a	n/a	n/a	-999	13	[-999, -999, -999]	n/a	catFR1	0	R1158T
1699.56	0.699	1707734	DISTRACT_END	n/a	n/a	n/a	n/a	-999	13	[0, 0, 0]	n/a	catFR1	0	R1158T
1700.259	0.519	1708433	RETRIEVAL_ORIENT	n/a	n/a	n/a	n/a	-999	13	[0, 0, 0]	n/a	catFR1	0	R1158T
1700.778	1.913	1708952	REC_START	n/a	n/a	n/a	n/a	-999	13	[0, 0, 0]	n/a	catFR1	0	R1158T
1702.691	1.877	1710865	REC_WORD	1.877	n/a	SUNFLOWER	Flowers	1	13	[0, 0, 0]	n/a	catFR1	0	R1158T
1704.568	2.09	1712742	REC_WORD	2.09	n/a	DAISY	Flowers	2	13	[0, 0, 0]	n/a	catFR1	0	R1158T
1706.658	5.048	1714832	REC_WORD	5.048	n/a	HILLS	Landscapes	3	13	[0, 0, 0]	n/a	catFR1	0	R1158T
1711.706	19.083	1719880	REC_WORD	19.083	n/a	FLOWER	n/a	-999	13	[0, 0, 0]	n/a	catFR1	0	R1158T
1730.789	5.51	1738961	REC_END	n/a	n/a	n/a	n/a	-999	13	[0, 0, 0]	n/a	catFR1	0	R1158T
1736.299	0.5	1744471	TRIAL	n/a	n/a	n/a	n/a	-999	14	[0, 0, 0]	n/a	catFR1	0	R1158T
1736.799	10.428	1744971	COUNTDOWN_START	n/a	n/a	n/a	n/a	-999	14	[0, 0, 0]	n/a	catFR1	0	R1158T
1747.227	0.009	1755398	COUNTDOWN_END	n/a	n/a	n/a	n/a	-999	14	[0, 0, 0]	n/a	catFR1	0	R1158T
1747.236	1.617	1755407	ORIENT	n/a	n/a	n/a	n/a	-999	14	[0, 0, 0]	n/a	catFR1	0	R1158T
1748.853	1.833	1757024	ORIENT_OFF	n/a	n/a	n/a	n/a	-999	14	[0, 0, 0]	n/a	catFR1	0	R1158T
1750.686	1.616	1758857	WORD	n/a	wordpools/wordpool_categorized_EN.txt	STAIRS	Building	1	14	[0, 0, 0]	n/a	catFR1	0	R1158T
1752.302	0.818	1760473	WORD_OFF	n/a	n/a	STAIRS	n/a	1	14	[0, 0, 0]	n/a	catFR1	0	R1158T
1753.12	1.617	1761291	WORD	n/a	wordpools/wordpool_categorized_EN.txt	BATHROOM	Building	2	14	[0, 0, 0]	n/a	catFR1	0	R1158T
1754.737	1.0	1762908	WORD_OFF	n/a	n/a	BATHROOM	n/a	2	14	[0, 0, 0]	n/a	catFR1	0	R1158T
1755.737	1.616	1763908	WORD	n/a	wordpools/wordpool_categorized_EN.txt	SPEAKER	Electronics	3	14	[0, 0, 0]	n/a	catFR1	0	R1158T
1757.353	0.934	1765524	WORD_OFF	n/a	n/a	SPEAKER	n/a	3	14	[0, 0, 0]	n/a	catFR1	0	R1158T
1758.287	1.618	1766458	WORD	n/a	wordpools/wordpool_categorized_EN.txt	PRINTER	Electronics	4	14	[0, 0, 0]	n/a	catFR1	0	R1158T
1759.905	0.983	1768076	WORD_OFF	n/a	n/a	PRINTER	n/a	4	14	[0, 0, 0]	n/a	catFR1	0	R1158T
1760.888	1.616	1769059	WORD	n/a	wordpools/wordpool_categorized_EN.txt	PUDDING	Desserts	5	14	[0, 0, 0]	n/a	catFR1	0	R1158T
1762.504	0.884	1770674	WORD_OFF	n/a	n/a	PUDDING	n/a	5	14	[0, 0, 0]	n/a	catFR1	0	R1158T
1763.388	1.618	1771558	WORD	n/a	wordpools/wordpool_categorized_EN.txt	PASTRY	Desserts	6	14	[0, 0, 0]	n/a	catFR1	0	R1158T
1765.006	0.85	1773176	WORD_OFF	n/a	n/a	PASTRY	n/a	6	14	[0, 0, 0]	n/a	catFR1	0	R1158T
1765.856	1.616	1774026	WORD	n/a	wordpools/wordpool_categorized_EN.txt	MICROWAVE	Electronics	7	14	[0, 0, 0]	n/a	catFR1	0	R1158T
1767.472	0.967	1775642	WORD_OFF	n/a	n/a	MICROWAVE	n/a	7	14	[0, 0, 0]	n/a	catFR1	0	R1158T
1768.439	1.618	1776609	WORD	n/a	wordpools/wordpool_categorized_EN.txt	RADIO	Electronics	8	14	[0, 0, 0]	n/a	catFR1	0	R1158T
1770.057	0.983	1778227	WORD_OFF	n/a	n/a	RADIO	n/a	8	14	[0, 0, 0]	n/a	catFR1	0	R1158T
1771.04	1.617	1779210	WORD	n/a	wordpools/wordpool_categorized_EN.txt	WINDOW	Building	9	14	[0, 0, 0]	n/a	catFR1	0	R1158T
1772.657	0.849	1780827	WORD_OFF	n/a	n/a	WINDOW	n/a	9	14	[0, 0, 0]	n/a	catFR1	0	R1158T
1773.506	1.601	1781676	WORD	n/a	wordpools/wordpool_categorized_EN.txt	HALLWAY	Building	10	14	[0, 0, 0]	n/a	catFR1	0	R1158T
1775.107	0.984	1783277	WORD_OFF	n/a	n/a	HALLWAY	n/a	10	14	[0, 0, 0]	n/a	catFR1	0	R1158T
1776.091	1.617	1784261	WORD	n/a	wordpools/wordpool_categorized_EN.txt	CUPCAKE	Desserts	11	14	[0, 0, 0]	n/a	catFR1	0	R1158T
1777.708	0.967	1785878	WORD_OFF	n/a	n/a	CUPCAKE	n/a	11	14	[0, 0, 0]	n/a	catFR1	0	R1158T
1778.675	1.616	1786845	WORD	n/a	wordpools/wordpool_categorized_EN.txt	CHEESECAKE	Desserts	12	14	[0, 0, 0]	n/a	catFR1	0	R1158T
1780.291	0.0	1788460	ENCODING_END	n/a	n/a	n/a	n/a	-999	14	[0, 0, 0]	n/a	catFR1	0	R1158T
1780.291	0.102	1788460	WORD_OFF	n/a	n/a	CHEESECAKE	n/a	12	14	[0, 0, 0]	n/a	catFR1	0	R1158T
1780.393	0.0	1788562	DISTRACT_START	n/a	n/a	n/a	n/a	-999	14	[0, 0, 0]	n/a	catFR1	0	R1158T
1780.393	0.015	1788562	START	n/a	n/a	n/a	n/a	-999	14	[-999, -999, -999]	n/a	catFR1	0	R1158T
1780.408	8.352	1788577	PROB	8.352	n/a	n/a	n/a	-999	14	[5, 2, 4]	11	catFR1	0	R1158T
1788.76	4.6	1796929	PROB	4.6	n/a	n/a	n/a	-999	14	[6, 9, 5]	20	catFR1	0	R1158T
1793.36	6.485	1801529	PROB	6.485	n/a	n/a	n/a	-999	14	[7, 5, 8]	20	catFR1	0	R1158T
1799.845	5.793	1808013	PROB	5.793	n/a	n/a	n/a	-999	14	[5, 9, 6]	20	catFR1	0	R1158T
1805.638	0.009	1813806	STOP	n/a	n/a	n/a	n/a	-999	14	[-999, -999, -999]	n/a	catFR1	0	R1158T
1805.647	0.566	1813815	DISTRACT_END	n/a	n/a	n/a	n/a	-999	14	[0, 0, 0]	n/a	catFR1	0	R1158T
1806.213	0.518	1814381	RETRIEVAL_ORIENT	n/a	n/a	n/a	n/a	-999	14	[0, 0, 0]	n/a	catFR1	0	R1158T
1806.731	0.559	1814899	REC_START	n/a	n/a	n/a	n/a	-999	14	[0, 0, 0]	n/a	catFR1	0	R1158T
1807.29	0.622	1815458	REC_WORD	0.622	n/a	STAIRS	Building	1	14	[0, 0, 0]	n/a	catFR1	0	R1158T
1807.912	1.284	1816080	REC_WORD	1.284	n/a	PUDDING	Desserts	5	14	[0, 0, 0]	n/a	catFR1	0	R1158T
1809.196	2.965	1817364	REC_WORD	2.965	n/a	PANTRY	n/a	-999	14	[0, 0, 0]	n/a	catFR1	0	R1158T
1812.161	4.077	1820329	REC_WORD_VV	4.077	n/a	<>	n/a	-999	14	[0, 0, 0]	n/a	catFR1	0	R1158T
1816.238	13.071	1824405	REC_WORD	13.071	n/a	PAPER	n/a	-999	14	[0, 0, 0]	n/a	catFR1	0	R1158T
1829.309	7.434	1837476	REC_WORD_VV	7.434	n/a	<>	n/a	-999	14	[0, 0, 0]	n/a	catFR1	0	R1158T
1836.743	7.094	1844909	REC_END	n/a	n/a	n/a	n/a	-999	14	[0, 0, 0]	n/a	catFR1	0	R1158T
1843.837	0.5	1852003	TRIAL	n/a	n/a	n/a	n/a	-999	15	[0, 0, 0]	n/a	catFR1	0	R1158T
1844.337	10.428	1852503	COUNTDOWN_START	n/a	n/a	n/a	n/a	-999	15	[0, 0, 0]	n/a	catFR1	0	R1158T
1854.765	0.007	1862930	COUNTDOWN_END	n/a	n/a	n/a	n/a	-999	15	[0, 0, 0]	n/a	catFR1	0	R1158T
1854.772	1.616	1862937	ORIENT	n/a	n/a	n/a	n/a	-999	15	[0, 0, 0]	n/a	catFR1	0	R1158T
1856.388	2.167	1864553	ORIENT_OFF	n/a	n/a	n/a	n/a	-999	15	[0, 0, 0]	n/a	catFR1	0	R1158T
1858.555	1.618	1866720	WORD	n/a	wordpools/wordpool_categorized_EN.txt	BIRCH	Trees	1	15	[0, 0, 0]	n/a	catFR1	0	R1158T
1860.173	0.934	1868338	WORD_OFF	n/a	n/a	BIRCH	n/a	1	15	[0, 0, 0]	n/a	catFR1	0	R1158T
1861.107	1.616	1869272	WORD	n/a	wordpools/wordpool_categorized_EN.txt	HICKORY	Trees	2	15	[0, 0, 0]	n/a	catFR1	0	R1158T
1862.723	0.917	1870888	WORD_OFF	n/a	n/a	HICKORY	n/a	2	15	[0, 0, 0]	n/a	catFR1	0	R1158T
1863.64	1.617	1871804	WORD	n/a	wordpools/wordpool_categorized_EN.txt	JELLYFISH	OceanAnimals	3	15	[0, 0, 0]	n/a	catFR1	0	R1158T
1865.257	0.951	1873421	WORD_OFF	n/a	n/a	JELLYFISH	n/a	3	15	[0, 0, 0]	n/a	catFR1	0	R1158T
1866.208	1.616	1874372	WORD	n/a	wordpools/wordpool_categorized_EN.txt	LOBSTER	OceanAnimals	4	15	[0, 0, 0]	n/a	catFR1	0	R1158T
1867.824	0.934	1875988	WORD_OFF	n/a	n/a	LOBSTER	n/a	4	15	[0, 0, 0]	n/a	catFR1	0	R1158T
1868.758	1.616	1876922	WORD	n/a	wordpools/wordpool_categorized_EN.txt	ELBOW	BodyParts	5	15	[0, 0, 0]	n/a	catFR1	0	R1158T
1870.374	0.851	1878538	WORD_OFF	n/a	n/a	ELBOW	n/a	5	15	[0, 0, 0]	n/a	catFR1	0	R1158T
1871.225	1.617	1879389	WORD	n/a	wordpools/wordpool_categorized_EN.txt	FOOT	BodyParts	6	15	[0, 0, 0]	n/a	catFR1	0	R1158T
1872.842	0.767	1881006	WORD_OFF	n/a	n/a	FOOT	n/a	6	15	[0, 0, 0]	n/a	catFR1	0	R1158T
1873.609	1.617	1881773	WORD	n/a	wordpools/wordpool_categorized_EN.txt	CYPRESS	Trees	7	15	[0, 0, 0]	n/a	catFR1	0	R1158T
1875.226	0.816	1883390	WORD_OFF	n/a	n/a	CYPRESS	n/a	7	15	[0, 0, 0]	n/a	catFR1	0	R1158T
1876.042	1.617	1884206	WORD	n/a	wordpools/wordpool_categorized_EN.txt	SPRUCE	Trees	8	15	[0, 0, 0]	n/a	catFR1	0	R1158T
1877.659	0.866	1885823	WORD_OFF	n/a	n/a	SPRUCE	n/a	8	15	[0, 0, 0]	n/a	catFR1	0	R1158T
1878.525	1.602	1886689	WORD	n/a	wordpools/wordpool_categorized_EN.txt	DOLPHIN	OceanAnimals	9	15	[0, 0, 0]	n/a	catFR1	0	R1158T
1880.127	0.8	1888291	WORD_OFF	n/a	n/a	DOLPHIN	n/a	9	15	[0, 0, 0]	n/a	catFR1	0	R1158T
1880.927	1.616	1889090	WORD	n/a	wordpools/wordpool_categorized_EN.txt	WHALE	OceanAnimals	10	15	[0, 0, 0]	n/a	catFR1	0	R1158T
1882.543	0.833	1890706	WORD_OFF	n/a	n/a	WHALE	n/a	10	15	[0, 0, 0]	n/a	catFR1	0	R1158T
1883.376	1.618	1891539	WORD	n/a	wordpools/wordpool_categorized_EN.txt	KNEE	BodyParts	11	15	[0, 0, 0]	n/a	catFR1	0	R1158T
1884.994	0.884	1893157	WORD_OFF	n/a	n/a	KNEE	n/a	11	15	[0, 0, 0]	n/a	catFR1	0	R1158T
1885.878	1.616	1894041	WORD	n/a	wordpools/wordpool_categorized_EN.txt	EYE	BodyParts	12	15	[0, 0, 0]	n/a	catFR1	0	R1158T
1887.494	0.0	1895657	WORD_OFF	n/a	n/a	EYE	n/a	12	15	[0, 0, 0]	n/a	catFR1	0	R1158T
1887.494	0.143	1895657	ENCODING_END	n/a	n/a	n/a	n/a	-999	15	[0, 0, 0]	n/a	catFR1	0	R1158T
1887.637	0.0	1895800	DISTRACT_START	n/a	n/a	n/a	n/a	-999	15	[0, 0, 0]	n/a	catFR1	0	R1158T
1887.637	0.007	1895800	START	n/a	n/a	n/a	n/a	-999	15	[-999, -999, -999]	n/a	catFR1	0	R1158T
1887.644	6.252	1895807	PROB	6.252	n/a	n/a	n/a	-999	15	[6, 1, 3]	10	catFR1	0	R1158T
1893.896	5.417	1902059	PROB	5.417	n/a	n/a	n/a	-999	15	[5, 6, 9]	20	catFR1	0	R1158T
1899.313	5.718	1907475	PROB	5.718	n/a	n/a	n/a	-999	15	[9, 5, 3]	17	catFR1	0	R1158T
1905.031	3.35	1913193	PROB	3.35	n/a	n/a	n/a	-999	15	[3, 6, 3]	12	catFR1	0	R1158T
1908.381	0.017	1916543	STOP	n/a	n/a	n/a	n/a	-999	15	[-999, -999, -999]	n/a	catFR1	0	R1158T
1908.398	0.567	1916560	DISTRACT_END	n/a	n/a	n/a	n/a	-999	15	[0, 0, 0]	n/a	catFR1	0	R1158T
1908.965	0.517	1917127	RETRIEVAL_ORIENT	n/a	n/a	n/a	n/a	-999	15	[0, 0, 0]	n/a	catFR1	0	R1158T
1909.482	0.673	1917644	REC_START	n/a	n/a	n/a	n/a	-999	15	[0, 0, 0]	n/a	catFR1	0	R1158T
1910.155	0.997	1918317	REC_WORD	0.997	n/a	JELLYFISH	OceanAnimals	3	15	[0, 0, 0]	n/a	catFR1	0	R1158T
1911.152	3.886	1919314	REC_WORD	3.886	n/a	LOBSTER	OceanAnimals	4	15	[0, 0, 0]	n/a	catFR1	0	R1158T
1915.038	6.845	1923199	REC_WORD_VV	6.845	n/a	<>	n/a	-999	15	[0, 0, 0]	n/a	catFR1	0	R1158T
1921.883	17.61	1930044	REC_WORD	17.61	n/a	CRAB	n/a	-999	15	[0, 0, 0]	n/a	catFR1	0	R1158T
1939.493	14.647	1947653	REC_END	n/a	n/a	n/a	n/a	-999	15	[0, 0, 0]	n/a	catFR1	0	R1158T
1954.14	0.5	1962299	TRIAL	n/a	n/a	n/a	n/a	-999	16	[0, 0, 0]	n/a	catFR1	0	R1158T
1954.64	10.428	1962799	COUNTDOWN_START	n/a	n/a	n/a	n/a	-999	16	[0, 0, 0]	n/a	catFR1	0	R1158T
1965.068	0.008	1973226	COUNTDOWN_END	n/a	n/a	n/a	n/a	-999	16	[0, 0, 0]	n/a	catFR1	0	R1158T
1965.076	1.617	1973234	ORIENT	n/a	n/a	n/a	n/a	-999	16	[0, 0, 0]	n/a	catFR1	0	R1158T
1966.693	1.799	1974851	ORIENT_OFF	n/a	n/a	n/a	n/a	-999	16	[0, 0, 0]	n/a	catFR1	0	R1158T
1968.492	1.618	1976650	WORD	n/a	wordpools/wordpool_categorized_EN.txt	HAND	BodyParts	1	16	[0, 0, 0]	n/a	catFR1	0	R1158T
1970.11	0.817	1978268	WORD_OFF	n/a	n/a	HAND	n/a	1	16	[0, 0, 0]	n/a	catFR1	0	R1158T
1970.927	1.616	1979085	WORD	n/a	wordpools/wordpool_categorized_EN.txt	TOE	BodyParts	2	16	[0, 0, 0]	n/a	catFR1	0	R1158T
1972.543	0.833	1980701	WORD_OFF	n/a	n/a	TOE	n/a	2	16	[0, 0, 0]	n/a	catFR1	0	R1158T
1973.376	1.618	1981534	WORD	n/a	wordpools/wordpool_categorized_EN.txt	ZEBRA	Zoo	3	16	[0, 0, 0]	n/a	catFR1	0	R1158T
1974.994	0.9	1983152	WORD_OFF	n/a	n/a	ZEBRA	n/a	3	16	[0, 0, 0]	n/a	catFR1	0	R1158T
1975.894	1.616	1984052	WORD	n/a	wordpools/wordpool_categorized_EN.txt	ORANGUTAN	Zoo	4	16	[0, 0, 0]	n/a	catFR1	0	R1158T
1977.51	0.867	1985668	WORD_OFF	n/a	n/a	ORANGUTAN	n/a	4	16	[0, 0, 0]	n/a	catFR1	0	R1158T
1978.377	1.601	1986535	WORD	n/a	wordpools/wordpool_categorized_EN.txt	PLUM	Fruit	5	16	[0, 0, 0]	n/a	catFR1	0	R1158T
1979.978	0.85	1988136	WORD_OFF	n/a	n/a	PLUM	n/a	5	16	[0, 0, 0]	n/a	catFR1	0	R1158T
1980.828	1.616	1988986	WORD	n/a	wordpools/wordpool_categorized_EN.txt	BANANA	Fruit	6	16	[0, 0, 0]	n/a	catFR1	0	R1158T
1982.444	0.967	1990601	WORD_OFF	n/a	n/a	BANANA	n/a	6	16	[0, 0, 0]	n/a	catFR1	0	R1158T
1983.411	1.601	1991568	WORD	n/a	wordpools/wordpool_categorized_EN.txt	HEAD	BodyParts	7	16	[0, 0, 0]	n/a	catFR1	0	R1158T
1985.012	0.784	1993169	WORD_OFF	n/a	n/a	HEAD	n/a	7	16	[0, 0, 0]	n/a	catFR1	0	R1158T
1985.796	1.616	1993953	WORD	n/a	wordpools/wordpool_categorized_EN.txt	LEG	BodyParts	8	16	[0, 0, 0]	n/a	catFR1	0	R1158T
1987.412	0.983	1995569	WORD_OFF	n/a	n/a	LEG	n/a	8	16	[0, 0, 0]	n/a	catFR1	0	R1158T
1988.395	1.618	1996552	WORD	n/a	wordpools/wordpool_categorized_EN.txt	ELEPHANT	Zoo	9	16	[0, 0, 0]	n/a	catFR1	0	R1158T
1990.013	0.8	1998170	WORD_OFF	n/a	n/a	ELEPHANT	n/a	9	16	[0, 0, 0]	n/a	catFR1	0	R1158T
1990.813	1.617	1998970	WORD	n/a	wordpools/wordpool_categorized_EN.txt	BEAR	Zoo	10	16	[0, 0, 0]	n/a	catFR1	0	R1158T
1992.43	0.916	2000587	WORD_OFF	n/a	n/a	BEAR	n/a	10	16	[0, 0, 0]	n/a	catFR1	0	R1158T
1993.346	1.618	2001503	WORD	n/a	wordpools/wordpool_categorized_EN.txt	LIME	Fruit	11	16	[0, 0, 0]	n/a	catFR1	0	R1158T
1994.964	0.967	2003121	WORD_OFF	n/a	n/a	LIME	n/a	11	16	[0, 0, 0]	n/a	catFR1	0	R1158T
1995.931	1.616	2004088	WORD	n/a	wordpools/wordpool_categorized_EN.txt	LEMON	Fruit	12	16	[0, 0, 0]	n/a	catFR1	0	R1158T
1997.547	0.001	2005704	WORD_OFF	n/a	n/a	LEMON	n/a	12	16	[0, 0, 0]	n/a	catFR1	0	R1158T
1997.548	0.109	2005705	ENCODING_END	n/a	n/a	n/a	n/a	-999	16	[0, 0, 0]	n/a	catFR1	0	R1158T
1997.657	0.0	2005814	DISTRACT_START	n/a	n/a	n/a	n/a	-999	16	[0, 0, 0]	n/a	catFR1	0	R1158T
1997.657	0.008	2005814	START	n/a	n/a	n/a	n/a	-999	16	[-999, -999, -999]	n/a	catFR1	0	R1158T
1997.665	4.15	2005822	PROB	4.15	n/a	n/a	n/a	-999	16	[1, 7, 1]	6	catFR1	0	R1158T
2001.815	0.434	2009971	PROB	0.434	n/a	n/a	n/a	-999	16	[7, 5, 5]	6	catFR1	0	R1158T
2002.249	0.65	2010405	PROB	0.65	n/a	n/a	n/a	-999	16	[4, 8, 2]	6	catFR1	0	R1158T
2002.899	0.817	2011055	PROB	0.817	n/a	n/a	n/a	-999	16	[5, 1, 7]	6	catFR1	0	R1158T
2003.716	0.0	2011872	PROB	0.0	n/a	n/a	n/a	-999	16	[7, 7, 9]	6	catFR1	0	R1158T
