onset	duration	sample	trial_type	response_time	stim_file	item_name	category	serialpos	list	test	answer	experiment	session	subject
0.0	0.0	5203	INSTRUCT_START	n/a	n/a	n/a	n/a	-999	-999	[0, 0, 0]	n/a	catFR1	1	R1264P
0.0	10.987	5203	INSTRUCT_END	n/a	n/a	n/a	n/a	-999	-999	[0, 0, 0]	n/a	catFR1	1	R1264P
10.987	0.0	16190	SESS_START	n/a	n/a	n/a	n/a	-999	-999	[0, 0, 0]	n/a	catFR1	1	R1264P
10.987	11.002	16190	MIC_TEST	n/a	n/a	n/a	n/a	-999	-999	[0, 0, 0]	n/a	catFR1	1	R1264P
21.989	1.466	27191	PRACTICE_TRIAL	n/a	n/a	n/a	n/a	-999	-1	[0, 0, 0]	n/a	catFR1	1	R1264P
23.455	10.0	28657	COUNTDOWN_START	n/a	n/a	n/a	n/a	-999	-1	[0, 0, 0]	n/a	catFR1	1	R1264P
33.883	0.007	39084	COUNTDOWN_END	n/a	n/a	n/a	n/a	-999	-1	[0, 0, 0]	n/a	catFR1	1	R1264P
33.89	1.6	39091	PRACTICE_ORIENT	n/a	n/a	n/a	n/a	-999	-1	[0, 0, 0]	n/a	catFR1	1	R1264P
35.507	1.95	40708	PRACTICE_ORIENT_OFF	n/a	n/a	n/a	n/a	-999	-1	[0, 0, 0]	n/a	catFR1	1	R1264P
37.457	1.6	42658	PRACTICE_WORD	n/a	n/a	RHINO	n/a	-1	-1	[0, 0, 0]	n/a	catFR1	1	R1264P
39.074	0.934	44275	PRACTICE_WORD_OFF	n/a	n/a	RHINO	n/a	-999	-1	[0, 0, 0]	n/a	catFR1	1	R1264P
40.008	1.6	45209	PRACTICE_WORD	n/a	n/a	CAMEL	n/a	-1	-1	[0, 0, 0]	n/a	catFR1	1	R1264P
41.625	0.833	46826	PRACTICE_WORD_OFF	n/a	n/a	CAMEL	n/a	-999	-1	[0, 0, 0]	n/a	catFR1	1	R1264P
42.458	1.6	47659	PRACTICE_WORD	n/a	n/a	RING	n/a	-1	-1	[0, 0, 0]	n/a	catFR1	1	R1264P
44.075	0.767	49276	PRACTICE_WORD_OFF	n/a	n/a	RING	n/a	-999	-1	[0, 0, 0]	n/a	catFR1	1	R1264P
44.842	1.6	50043	PRACTICE_WORD	n/a	n/a	CHEST	n/a	-1	-1	[0, 0, 0]	n/a	catFR1	1	R1264P
46.459	0.934	51660	PRACTICE_WORD_OFF	n/a	n/a	CHEST	n/a	-999	-1	[0, 0, 0]	n/a	catFR1	1	R1264P
47.393	1.6	52594	PRACTICE_WORD	n/a	n/a	IRON	n/a	-1	-1	[0, 0, 0]	n/a	catFR1	1	R1264P
49.01	0.816	54211	PRACTICE_WORD_OFF	n/a	n/a	IRON	n/a	-999	-1	[0, 0, 0]	n/a	catFR1	1	R1264P
49.826	1.6	55027	PRACTICE_WORD	n/a	n/a	FLOOD	n/a	-1	-1	[0, 0, 0]	n/a	catFR1	1	R1264P
51.443	0.9	56643	PRACTICE_WORD_OFF	n/a	n/a	FLOOD	n/a	-999	-1	[0, 0, 0]	n/a	catFR1	1	R1264P
52.343	1.6	57543	PRACTICE_WORD	n/a	n/a	COTTON	n/a	-1	-1	[0, 0, 0]	n/a	catFR1	1	R1264P
53.96	0.951	59160	PRACTICE_WORD_OFF	n/a	n/a	COTTON	n/a	-999	-1	[0, 0, 0]	n/a	catFR1	1	R1264P
54.911	1.6	60111	PRACTICE_WORD	n/a	n/a	BEAM	n/a	-1	-1	[0, 0, 0]	n/a	catFR1	1	R1264P
56.529	1.0	61729	PRACTICE_WORD_OFF	n/a	n/a	BEAM	n/a	-999	-1	[0, 0, 0]	n/a	catFR1	1	R1264P
57.529	1.6	62729	PRACTICE_WORD	n/a	n/a	TONGUE	n/a	-1	-1	[0, 0, 0]	n/a	catFR1	1	R1264P
59.145	0.783	64345	PRACTICE_WORD_OFF	n/a	n/a	TONGUE	n/a	-999	-1	[0, 0, 0]	n/a	catFR1	1	R1264P
59.928	1.6	65128	PRACTICE_WORD	n/a	n/a	ATTIC	n/a	-1	-1	[0, 0, 0]	n/a	catFR1	1	R1264P
61.545	0.834	66745	PRACTICE_WORD_OFF	n/a	n/a	ATTIC	n/a	-999	-1	[0, 0, 0]	n/a	catFR1	1	R1264P
62.379	1.6	67579	PRACTICE_WORD	n/a	n/a	WATCH	n/a	-1	-1	[0, 0, 0]	n/a	catFR1	1	R1264P
63.996	1.0	69196	PRACTICE_WORD_OFF	n/a	n/a	WATCH	n/a	-999	-1	[0, 0, 0]	n/a	catFR1	1	R1264P
64.996	1.6	70196	PRACTICE_WORD	n/a	n/a	WAGON	n/a	-1	-1	[0, 0, 0]	n/a	catFR1	1	R1264P
66.613	0.0	71813	PRACTICE_WORD_OFF	n/a	n/a	WAGON	n/a	-999	-1	[0, 0, 0]	n/a	catFR1	1	R1264P
66.613	0.001	71813	ENCODING_END	n/a	n/a	n/a	n/a	-999	-1	[0, 0, 0]	n/a	catFR1	1	R1264P
66.614	0.0	71814	DISTRACT_START	n/a	n/a	n/a	n/a	-999	-1	[0, 0, 0]	n/a	catFR1	1	R1264P
66.614	0.015	71814	START	n/a	n/a	n/a	n/a	-999	-1	[-999, -999, -999]	n/a	catFR1	1	R1264P
66.629	4.868	71829	PROB	4.83	n/a	n/a	n/a	-999	-1	[6, 8, 3]	17.0	catFR1	1	R1264P
71.497	2.667	76696	PROB	2.634	n/a	n/a	n/a	-999	-1	[7, 7, 2]	16.0	catFR1	1	R1264P
74.164	2.267	79363	PROB	2.231	n/a	n/a	n/a	-999	-1	[2, 1, 8]	11.0	catFR1	1	R1264P
76.431	2.951	81630	PROB	2.924	n/a	n/a	n/a	-999	-1	[2, 2, 4]	8.0	catFR1	1	R1264P
79.382	5.851	84581	PROB	5.822	n/a	n/a	n/a	-999	-1	[8, 6, 5]	19.0	catFR1	1	R1264P
85.233	3.274	90432	PROB	3.274	n/a	n/a	n/a	-999	-1	[2, 2, 4]	8.0	catFR1	1	R1264P
88.507	0.01	93706	STOP	n/a	n/a	n/a	n/a	-999	-1	[-999, -999, -999]	n/a	catFR1	1	R1264P
88.517	0.6	93716	DISTRACT_END	n/a	n/a	n/a	n/a	-999	-1	[0, 0, 0]	n/a	catFR1	1	R1264P
89.117	0.518	94315	RETRIEVAL_ORIENT	n/a	n/a	n/a	n/a	-999	-1	[0, 0, 0]	n/a	catFR1	1	R1264P
89.635	30.012	94833	PRACTICE_REC_START	n/a	n/a	n/a	n/a	-999	-1	[0, 0, 0]	n/a	catFR1	1	R1264P
119.647	19.446	124844	PRACTICE_REC_END	n/a	n/a	n/a	n/a	-999	-1	[0, 0, 0]	n/a	catFR1	1	R1264P
139.093	0.5	144289	TRIAL	n/a	n/a	n/a	n/a	-999	1	[0, 0, 0]	n/a	catFR1	1	R1264P
139.593	10.0	144789	COUNTDOWN_START	n/a	n/a	n/a	n/a	-999	1	[0, 0, 0]	n/a	catFR1	1	R1264P
150.021	0.008	155216	COUNTDOWN_END	n/a	n/a	n/a	n/a	-999	1	[0, 0, 0]	n/a	catFR1	1	R1264P
150.029	1.6	155224	ORIENT	n/a	n/a	n/a	n/a	-999	1	[0, 0, 0]	n/a	catFR1	1	R1264P
151.646	2.05	156841	ORIENT_OFF	n/a	n/a	n/a	n/a	-999	1	[0, 0, 0]	n/a	catFR1	1	R1264P
153.696	1.6	158891	WORD	n/a	wordpools/wordpool_categorized_EN.txt	CORKSCREW	KitchenTools	1	1	[0, 0, 0]	n/a	catFR1	1	R1264P
155.313	0.983	160508	WORD_OFF	n/a	n/a	CORKSCREW	n/a	1	1	[0, 0, 0]	n/a	catFR1	1	R1264P
156.296	1.6	161491	WORD	n/a	wordpools/wordpool_categorized_EN.txt	FORK	KitchenTools	2	1	[0, 0, 0]	n/a	catFR1	1	R1264P
157.913	0.817	163108	WORD_OFF	n/a	n/a	FORK	n/a	2	1	[0, 0, 0]	n/a	catFR1	1	R1264P
158.73	1.6	163925	WORD	n/a	wordpools/wordpool_categorized_EN.txt	ORCHID	Flowers	3	1	[0, 0, 0]	n/a	catFR1	1	R1264P
160.347	0.8	165542	WORD_OFF	n/a	n/a	ORCHID	n/a	3	1	[0, 0, 0]	n/a	catFR1	1	R1264P
161.147	1.6	166342	WORD	n/a	wordpools/wordpool_categorized_EN.txt	SUNFLOWER	Flowers	4	1	[0, 0, 0]	n/a	catFR1	1	R1264P
162.764	0.834	167959	WORD_OFF	n/a	n/a	SUNFLOWER	n/a	4	1	[0, 0, 0]	n/a	catFR1	1	R1264P
163.598	1.6	168793	WORD	n/a	wordpools/wordpool_categorized_EN.txt	CEILING	Building	5	1	[0, 0, 0]	n/a	catFR1	1	R1264P
165.215	0.767	170409	WORD_OFF	n/a	n/a	CEILING	n/a	5	1	[0, 0, 0]	n/a	catFR1	1	R1264P
165.982	1.6	171176	WORD	n/a	wordpools/wordpool_categorized_EN.txt	FLOOR	Building	6	1	[0, 0, 0]	n/a	catFR1	1	R1264P
167.599	0.983	172793	WORD_OFF	n/a	n/a	FLOOR	n/a	6	1	[0, 0, 0]	n/a	catFR1	1	R1264P
168.582	1.6	173776	WORD	n/a	wordpools/wordpool_categorized_EN.txt	KNIFE	KitchenTools	7	1	[0, 0, 0]	n/a	catFR1	1	R1264P
170.199	0.9	175393	WORD_OFF	n/a	n/a	KNIFE	n/a	7	1	[0, 0, 0]	n/a	catFR1	1	R1264P
171.099	1.6	176293	WORD	n/a	wordpools/wordpool_categorized_EN.txt	SPATULA	KitchenTools	8	1	[0, 0, 0]	n/a	catFR1	1	R1264P
172.716	0.867	177910	WORD_OFF	n/a	n/a	SPATULA	n/a	8	1	[0, 0, 0]	n/a	catFR1	1	R1264P
173.583	1.6	178777	WORD	n/a	wordpools/wordpool_categorized_EN.txt	DAFFODIL	Flowers	9	1	[0, 0, 0]	n/a	catFR1	1	R1264P
175.2	0.95	180394	WORD_OFF	n/a	n/a	DAFFODIL	n/a	9	1	[0, 0, 0]	n/a	catFR1	1	R1264P
176.15	1.6	181344	WORD	n/a	wordpools/wordpool_categorized_EN.txt	VIOLET	Flowers	10	1	[0, 0, 0]	n/a	catFR1	1	R1264P
177.767	0.768	182961	WORD_OFF	n/a	n/a	VIOLET	n/a	10	1	[0, 0, 0]	n/a	catFR1	1	R1264P
178.535	1.6	183729	WORD	n/a	wordpools/wordpool_categorized_EN.txt	ROOM	Building	11	1	[0, 0, 0]	n/a	catFR1	1	R1264P
180.151	0.983	185345	WORD_OFF	n/a	n/a	ROOM	n/a	11	1	[0, 0, 0]	n/a	catFR1	1	R1264P
181.134	1.6	186328	WORD	n/a	wordpools/wordpool_categorized_EN.txt	DOOR	Building	12	1	[0, 0, 0]	n/a	catFR1	1	R1264P
182.751	0.001	187945	WORD_OFF	n/a	n/a	DOOR	n/a	12	1	[0, 0, 0]	n/a	catFR1	1	R1264P
182.752	0.132	187946	ENCODING_END	n/a	n/a	n/a	n/a	-999	1	[0, 0, 0]	n/a	catFR1	1	R1264P
182.884	0.0	188078	DISTRACT_START	n/a	n/a	n/a	n/a	-999	1	[0, 0, 0]	n/a	catFR1	1	R1264P
182.884	0.017	188078	START	n/a	n/a	n/a	n/a	-999	1	[-999, -999, -999]	n/a	catFR1	1	R1264P
182.901	5.001	188095	PROB	4.975	n/a	n/a	n/a	-999	1	[1, 4, 5]	10.0	catFR1	1	R1264P
187.902	3.518	193095	PROB	3.486	n/a	n/a	n/a	-999	1	[5, 9, 5]	19.0	catFR1	1	R1264P
191.42	2.6	196613	PROB	2.566	n/a	n/a	n/a	-999	1	[5, 5, 4]	14.0	catFR1	1	R1264P
194.02	2.518	199213	PROB	2.487	n/a	n/a	n/a	-999	1	[6, 1, 1]	8.0	catFR1	1	R1264P
196.538	3.383	201731	PROB	3.345	n/a	n/a	n/a	-999	1	[7, 4, 1]	12.0	catFR1	1	R1264P
199.921	3.515	205114	PROB	3.515	n/a	n/a	n/a	-999	1	[5, 4, 6]	15.0	catFR1	1	R1264P
203.436	0.019	208629	STOP	n/a	n/a	n/a	n/a	-999	1	[-999, -999, -999]	n/a	catFR1	1	R1264P
203.455	0.55	208647	DISTRACT_END	n/a	n/a	n/a	n/a	-999	1	[0, 0, 0]	n/a	catFR1	1	R1264P
204.005	0.519	209197	RETRIEVAL_ORIENT	n/a	n/a	n/a	n/a	-999	1	[0, 0, 0]	n/a	catFR1	1	R1264P
204.524	0.92	209716	REC_START	n/a	n/a	n/a	n/a	-999	1	[0, 0, 0]	n/a	catFR1	1	R1264P
205.444	1.773	210636	REC_WORD	0.92	n/a	CORKSCREW	KitchenTools	1	1	[0, 0, 0]	n/a	catFR1	1	R1264P
207.217	1.389	212409	REC_WORD	2.693	n/a	ORCHID	Flowers	3	1	[0, 0, 0]	n/a	catFR1	1	R1264P
208.606	1.317	213798	REC_WORD	4.082	n/a	DOOR	Building	12	1	[0, 0, 0]	n/a	catFR1	1	R1264P
209.923	1.453	215115	REC_WORD	5.399	n/a	CEILING	Building	5	1	[0, 0, 0]	n/a	catFR1	1	R1264P
211.376	1.491	216568	REC_WORD	6.852	n/a	FLOOR	Building	6	1	[0, 0, 0]	n/a	catFR1	1	R1264P
212.867	2.456	218059	REC_WORD	8.343	n/a	ROOF	n/a	-999	1	[0, 0, 0]	n/a	catFR1	1	R1264P
215.323	1.022	220515	REC_WORD	10.799	n/a	ORCHID	Flowers	3	1	[0, 0, 0]	n/a	catFR1	1	R1264P
216.345	7.916	221537	REC_WORD	11.821	n/a	VIOLET	Flowers	10	1	[0, 0, 0]	n/a	catFR1	1	R1264P
224.261	10.274	229452	REC_WORD	19.737	n/a	DAFFODIL	Flowers	9	1	[0, 0, 0]	n/a	catFR1	1	R1264P
234.535	5.627	239726	REC_END	n/a	n/a	n/a	n/a	-999	1	[0, 0, 0]	n/a	catFR1	1	R1264P
240.162	0.5	245353	TRIAL	n/a	n/a	n/a	n/a	-999	2	[0, 0, 0]	n/a	catFR1	1	R1264P
240.662	10.0	245853	COUNTDOWN_START	n/a	n/a	n/a	n/a	-999	2	[0, 0, 0]	n/a	catFR1	1	R1264P
251.09	0.008	256280	COUNTDOWN_END	n/a	n/a	n/a	n/a	-999	2	[0, 0, 0]	n/a	catFR1	1	R1264P
251.098	1.6	256288	ORIENT	n/a	n/a	n/a	n/a	-999	2	[0, 0, 0]	n/a	catFR1	1	R1264P
252.714	1.968	257904	ORIENT_OFF	n/a	n/a	n/a	n/a	-999	2	[0, 0, 0]	n/a	catFR1	1	R1264P
254.682	1.6	259872	WORD	n/a	wordpools/wordpool_categorized_EN.txt	FOG	Weather	1	2	[0, 0, 0]	n/a	catFR1	1	R1264P
256.299	0.883	261489	WORD_OFF	n/a	n/a	FOG	n/a	1	2	[0, 0, 0]	n/a	catFR1	1	R1264P
257.182	1.6	262372	WORD	n/a	wordpools/wordpool_categorized_EN.txt	DRIZZLE	Weather	2	2	[0, 0, 0]	n/a	catFR1	1	R1264P
258.799	0.95	263989	WORD_OFF	n/a	n/a	DRIZZLE	n/a	2	2	[0, 0, 0]	n/a	catFR1	1	R1264P
259.749	1.6	264939	WORD	n/a	wordpools/wordpool_categorized_EN.txt	EAR	BodyParts	3	2	[0, 0, 0]	n/a	catFR1	1	R1264P
261.366	0.867	266555	WORD_OFF	n/a	n/a	EAR	n/a	3	2	[0, 0, 0]	n/a	catFR1	1	R1264P
262.233	1.6	267422	WORD	n/a	wordpools/wordpool_categorized_EN.txt	KNEE	BodyParts	4	2	[0, 0, 0]	n/a	catFR1	1	R1264P
263.85	0.8	269039	WORD_OFF	n/a	n/a	KNEE	n/a	4	2	[0, 0, 0]	n/a	catFR1	1	R1264P
264.65	1.6	269839	WORD	n/a	wordpools/wordpool_categorized_EN.txt	SPOON	KitchenTools	5	2	[0, 0, 0]	n/a	catFR1	1	R1264P
266.267	1.0	271456	WORD_OFF	n/a	n/a	SPOON	n/a	5	2	[0, 0, 0]	n/a	catFR1	1	R1264P
267.267	1.6	272456	WORD	n/a	wordpools/wordpool_categorized_EN.txt	STRAINER	KitchenTools	6	2	[0, 0, 0]	n/a	catFR1	1	R1264P
268.884	0.817	274073	WORD_OFF	n/a	n/a	STRAINER	n/a	6	2	[0, 0, 0]	n/a	catFR1	1	R1264P
269.701	1.6	274890	WORD	n/a	wordpools/wordpool_categorized_EN.txt	FINGERS	BodyParts	7	2	[0, 0, 0]	n/a	catFR1	1	R1264P
271.318	0.95	276507	WORD_OFF	n/a	n/a	FINGERS	n/a	7	2	[0, 0, 0]	n/a	catFR1	1	R1264P
272.268	1.6	277457	WORD	n/a	wordpools/wordpool_categorized_EN.txt	TOE	BodyParts	8	2	[0, 0, 0]	n/a	catFR1	1	R1264P
273.885	0.917	279074	WORD_OFF	n/a	n/a	TOE	n/a	8	2	[0, 0, 0]	n/a	catFR1	1	R1264P
274.802	1.6	279991	WORD	n/a	wordpools/wordpool_categorized_EN.txt	LIGHTNING	Weather	9	2	[0, 0, 0]	n/a	catFR1	1	R1264P
276.419	1.017	281608	WORD_OFF	n/a	n/a	LIGHTNING	n/a	9	2	[0, 0, 0]	n/a	catFR1	1	R1264P
277.436	1.6	282625	WORD	n/a	wordpools/wordpool_categorized_EN.txt	THUNDER	Weather	10	2	[0, 0, 0]	n/a	catFR1	1	R1264P
279.053	0.933	284242	WORD_OFF	n/a	n/a	THUNDER	n/a	10	2	[0, 0, 0]	n/a	catFR1	1	R1264P
279.986	1.6	285174	WORD	n/a	wordpools/wordpool_categorized_EN.txt	LADLE	KitchenTools	11	2	[0, 0, 0]	n/a	catFR1	1	R1264P
281.603	0.8	286791	WORD_OFF	n/a	n/a	LADLE	n/a	11	2	[0, 0, 0]	n/a	catFR1	1	R1264P
282.403	1.6	287591	WORD	n/a	wordpools/wordpool_categorized_EN.txt	COLANDER	KitchenTools	12	2	[0, 0, 0]	n/a	catFR1	1	R1264P
284.021	0.0	289209	ENCODING_END	n/a	n/a	n/a	n/a	-999	2	[0, 0, 0]	n/a	catFR1	1	R1264P
284.021	0.103	289209	WORD_OFF	n/a	n/a	COLANDER	n/a	12	2	[0, 0, 0]	n/a	catFR1	1	R1264P
284.124	0.001	289312	DISTRACT_START	n/a	n/a	n/a	n/a	-999	2	[0, 0, 0]	n/a	catFR1	1	R1264P
284.125	0.012	289313	START	n/a	n/a	n/a	n/a	-999	2	[-999, -999, -999]	n/a	catFR1	1	R1264P
284.137	2.967	289325	PROB	2.939	n/a	n/a	n/a	-999	2	[6, 4, 6]	16.0	catFR1	1	R1264P
287.104	3.084	292292	PROB	3.051	n/a	n/a	n/a	-999	2	[6, 6, 6]	18.0	catFR1	1	R1264P
290.188	3.434	295376	PROB	3.408	n/a	n/a	n/a	-999	2	[7, 3, 9]	19.0	catFR1	1	R1264P
293.622	3.451	298810	PROB	3.414	n/a	n/a	n/a	-999	2	[6, 9, 2]	17.0	catFR1	1	R1264P
297.073	4.667	302261	PROB	4.642	n/a	n/a	n/a	-999	2	[9, 8, 8]	15.0	catFR1	1	R1264P
301.74	2.847	306927	PROB	2.847	n/a	n/a	n/a	-999	2	[2, 3, 6]	11.0	catFR1	1	R1264P
304.587	0.021	309774	STOP	n/a	n/a	n/a	n/a	-999	2	[-999, -999, -999]	n/a	catFR1	1	R1264P
304.608	0.583	309795	DISTRACT_END	n/a	n/a	n/a	n/a	-999	2	[0, 0, 0]	n/a	catFR1	1	R1264P
305.191	0.518	310378	RETRIEVAL_ORIENT	n/a	n/a	n/a	n/a	-999	2	[0, 0, 0]	n/a	catFR1	1	R1264P
305.709	2.4	310896	REC_START	n/a	n/a	n/a	n/a	-999	2	[0, 0, 0]	n/a	catFR1	1	R1264P
308.109	1.06	313296	REC_WORD	2.4	n/a	FOG	Weather	1	2	[0, 0, 0]	n/a	catFR1	1	R1264P
309.169	2.225	314356	REC_WORD	3.46	n/a	THUNDER	Weather	10	2	[0, 0, 0]	n/a	catFR1	1	R1264P
311.394	1.936	316581	REC_WORD	5.685	n/a	LIGHTNING	Weather	9	2	[0, 0, 0]	n/a	catFR1	1	R1264P
313.33	0.565	318517	REC_WORD_VV	7.621	n/a	<>	n/a	-999	2	[0, 0, 0]	n/a	catFR1	1	R1264P
313.895	1.883	319082	REC_WORD	8.186	n/a	DRIZZLE	Weather	2	2	[0, 0, 0]	n/a	catFR1	1	R1264P
315.778	1.751	320965	REC_WORD	10.069	n/a	LADLE	KitchenTools	11	2	[0, 0, 0]	n/a	catFR1	1	R1264P
317.529	1.027	322716	REC_WORD	11.82	n/a	FORK	n/a	-999	2	[0, 0, 0]	n/a	catFR1	1	R1264P
318.556	2.692	323742	REC_WORD	12.847	n/a	SPOON	KitchenTools	5	2	[0, 0, 0]	n/a	catFR1	1	R1264P
321.248	3.537	326434	REC_WORD	15.539	n/a	DOOR	n/a	-999	2	[0, 0, 0]	n/a	catFR1	1	R1264P
324.785	6.853	329971	REC_WORD	19.076	n/a	DAFFODIL	n/a	-999	2	[0, 0, 0]	n/a	catFR1	1	R1264P
331.638	1.507	336824	REC_WORD	25.929	n/a	FINGERS	BodyParts	7	2	[0, 0, 0]	n/a	catFR1	1	R1264P
333.145	2.575	338331	REC_WORD	27.436	n/a	HAND	n/a	-999	2	[0, 0, 0]	n/a	catFR1	1	R1264P
335.72	5.495	340906	REC_END	n/a	n/a	n/a	n/a	-999	2	[0, 0, 0]	n/a	catFR1	1	R1264P
341.215	0.5	346400	TRIAL	n/a	n/a	n/a	n/a	-999	3	[0, 0, 0]	n/a	catFR1	1	R1264P
341.715	10.0	346900	COUNTDOWN_START	n/a	n/a	n/a	n/a	-999	3	[0, 0, 0]	n/a	catFR1	1	R1264P
352.143	0.007	357328	COUNTDOWN_END	n/a	n/a	n/a	n/a	-999	3	[0, 0, 0]	n/a	catFR1	1	R1264P
352.15	1.6	357335	ORIENT	n/a	n/a	n/a	n/a	-999	3	[0, 0, 0]	n/a	catFR1	1	R1264P
353.767	2.1	358952	ORIENT_OFF	n/a	n/a	n/a	n/a	-999	3	[0, 0, 0]	n/a	catFR1	1	R1264P
355.867	1.6	361052	WORD	n/a	wordpools/wordpool_categorized_EN.txt	MONKEY	Zoo	1	3	[0, 0, 0]	n/a	catFR1	1	R1264P
357.484	0.817	362668	WORD_OFF	n/a	n/a	MONKEY	n/a	1	3	[0, 0, 0]	n/a	catFR1	1	R1264P
358.301	1.6	363485	WORD	n/a	wordpools/wordpool_categorized_EN.txt	TIGER	Zoo	2	3	[0, 0, 0]	n/a	catFR1	1	R1264P
359.918	0.867	365102	WORD_OFF	n/a	n/a	TIGER	n/a	2	3	[0, 0, 0]	n/a	catFR1	1	R1264P
360.785	1.6	365969	WORD	n/a	wordpools/wordpool_categorized_EN.txt	SPARROW	Birds	3	3	[0, 0, 0]	n/a	catFR1	1	R1264P
362.402	0.933	367586	WORD_OFF	n/a	n/a	SPARROW	n/a	3	3	[0, 0, 0]	n/a	catFR1	1	R1264P
363.335	1.6	368519	WORD	n/a	wordpools/wordpool_categorized_EN.txt	SEAGULL	Birds	4	3	[0, 0, 0]	n/a	catFR1	1	R1264P
364.952	0.967	370136	WORD_OFF	n/a	n/a	SEAGULL	n/a	4	3	[0, 0, 0]	n/a	catFR1	1	R1264P
365.919	1.6	371103	WORD	n/a	wordpools/wordpool_categorized_EN.txt	MOTH	Insects	5	3	[0, 0, 0]	n/a	catFR1	1	R1264P
367.537	0.966	372721	WORD_OFF	n/a	n/a	MOTH	n/a	5	3	[0, 0, 0]	n/a	catFR1	1	R1264P
368.503	1.6	373687	WORD	n/a	wordpools/wordpool_categorized_EN.txt	ANT	Insects	6	3	[0, 0, 0]	n/a	catFR1	1	R1264P
370.12	0.967	375304	WORD_OFF	n/a	n/a	ANT	n/a	6	3	[0, 0, 0]	n/a	catFR1	1	R1264P
371.087	1.6	376271	WORD	n/a	wordpools/wordpool_categorized_EN.txt	CROW	Birds	7	3	[0, 0, 0]	n/a	catFR1	1	R1264P
372.704	0.883	377888	WORD_OFF	n/a	n/a	CROW	n/a	7	3	[0, 0, 0]	n/a	catFR1	1	R1264P
373.587	1.6	378771	WORD	n/a	wordpools/wordpool_categorized_EN.txt	CARDINAL	Birds	8	3	[0, 0, 0]	n/a	catFR1	1	R1264P
375.204	1.0	380388	WORD_OFF	n/a	n/a	CARDINAL	n/a	8	3	[0, 0, 0]	n/a	catFR1	1	R1264P
376.204	1.6	381387	WORD	n/a	wordpools/wordpool_categorized_EN.txt	ORANGUTAN	Zoo	9	3	[0, 0, 0]	n/a	catFR1	1	R1264P
377.821	0.917	383004	WORD_OFF	n/a	n/a	ORANGUTAN	n/a	9	3	[0, 0, 0]	n/a	catFR1	1	R1264P
378.738	1.6	383921	WORD	n/a	wordpools/wordpool_categorized_EN.txt	CHEETAH	Zoo	10	3	[0, 0, 0]	n/a	catFR1	1	R1264P
380.355	0.767	385538	WORD_OFF	n/a	n/a	CHEETAH	n/a	10	3	[0, 0, 0]	n/a	catFR1	1	R1264P
381.122	1.6	386305	WORD	n/a	wordpools/wordpool_categorized_EN.txt	LADYBUG	Insects	11	3	[0, 0, 0]	n/a	catFR1	1	R1264P
382.739	0.817	387922	WORD_OFF	n/a	n/a	LADYBUG	n/a	11	3	[0, 0, 0]	n/a	catFR1	1	R1264P
383.556	1.6	388739	WORD	n/a	wordpools/wordpool_categorized_EN.txt	MOSQUITO	Insects	12	3	[0, 0, 0]	n/a	catFR1	1	R1264P
385.173	0.0	390356	ENCODING_END	n/a	n/a	n/a	n/a	-999	3	[0, 0, 0]	n/a	catFR1	1	R1264P
385.173	0.105	390356	WORD_OFF	n/a	n/a	MOSQUITO	n/a	12	3	[0, 0, 0]	n/a	catFR1	1	R1264P
385.278	0.0	390461	DISTRACT_START	n/a	n/a	n/a	n/a	-999	3	[0, 0, 0]	n/a	catFR1	1	R1264P
385.278	0.012	390461	START	n/a	n/a	n/a	n/a	-999	3	[-999, -999, -999]	n/a	catFR1	1	R1264P
385.29	5.734	390473	PROB	5.698	n/a	n/a	n/a	-999	3	[6, 8, 6]	20.0	catFR1	1	R1264P
391.024	2.434	396207	PROB	2.395	n/a	n/a	n/a	-999	3	[1, 6, 1]	6.0	catFR1	1	R1264P
393.458	3.9	398641	PROB	3.873	n/a	n/a	n/a	-999	3	[1, 4, 1]	6.0	catFR1	1	R1264P
397.358	3.885	402540	PROB	3.853	n/a	n/a	n/a	-999	3	[8, 6, 4]	18.0	catFR1	1	R1264P
401.243	3.067	406425	PROB	3.041	n/a	n/a	n/a	-999	3	[1, 2, 5]	8.0	catFR1	1	R1264P
404.31	2.301	409492	PROB	2.301	n/a	n/a	n/a	-999	3	[4, 1, 1]	6.0	catFR1	1	R1264P
406.611	0.016	411793	STOP	n/a	n/a	n/a	n/a	-999	3	[-999, -999, -999]	n/a	catFR1	1	R1264P
406.627	0.667	411809	DISTRACT_END	n/a	n/a	n/a	n/a	-999	3	[0, 0, 0]	n/a	catFR1	1	R1264P
407.294	0.517	412476	RETRIEVAL_ORIENT	n/a	n/a	n/a	n/a	-999	3	[0, 0, 0]	n/a	catFR1	1	R1264P
407.811	1.456	412993	REC_START	n/a	n/a	n/a	n/a	-999	3	[0, 0, 0]	n/a	catFR1	1	R1264P
409.267	4.259	414449	REC_WORD	1.456	n/a	ORANGUTAN	Zoo	9	3	[0, 0, 0]	n/a	catFR1	1	R1264P
413.526	1.501	418708	REC_WORD	5.715	n/a	MOSQUITO	Insects	12	3	[0, 0, 0]	n/a	catFR1	1	R1264P
415.027	0.957	420208	REC_WORD	7.216	n/a	ANT	Insects	6	3	[0, 0, 0]	n/a	catFR1	1	R1264P
415.984	2.008	421165	REC_WORD	8.173	n/a	LADYBUG	Insects	11	3	[0, 0, 0]	n/a	catFR1	1	R1264P
417.992	1.17	423173	REC_WORD	10.181	n/a	MONKEY	Zoo	1	3	[0, 0, 0]	n/a	catFR1	1	R1264P
419.162	7.241	424343	REC_WORD	11.351	n/a	GORILLA	n/a	-999	3	[0, 0, 0]	n/a	catFR1	1	R1264P
426.403	4.261	431584	REC_WORD	18.592	n/a	OSTRICH	n/a	-999	3	[0, 0, 0]	n/a	catFR1	1	R1264P
430.664	3.561	435845	REC_WORD	22.853	n/a	TIGER	Zoo	2	3	[0, 0, 0]	n/a	catFR1	1	R1264P
434.225	1.894	439405	REC_WORD	26.414	n/a	LION	n/a	-999	3	[0, 0, 0]	n/a	catFR1	1	R1264P
436.119	1.702	441299	REC_WORD	28.308	n/a	BEAR	n/a	-999	3	[0, 0, 0]	n/a	catFR1	1	R1264P
437.821	33.585	443001	REC_END	n/a	n/a	n/a	n/a	-999	3	[0, 0, 0]	n/a	catFR1	1	R1264P
471.406	0.5	476584	TRIAL	n/a	n/a	n/a	n/a	-999	4	[0, 0, 0]	n/a	catFR1	1	R1264P
471.906	10.0	477084	COUNTDOWN_START	n/a	n/a	n/a	n/a	-999	4	[0, 0, 0]	n/a	catFR1	1	R1264P
482.334	0.007	487512	COUNTDOWN_END	n/a	n/a	n/a	n/a	-999	4	[0, 0, 0]	n/a	catFR1	1	R1264P
482.341	1.6	487519	ORIENT	n/a	n/a	n/a	n/a	-999	4	[0, 0, 0]	n/a	catFR1	1	R1264P
483.958	2.351	489136	ORIENT_OFF	n/a	n/a	n/a	n/a	-999	4	[0, 0, 0]	n/a	catFR1	1	R1264P
486.309	1.6	491487	WORD	n/a	wordpools/wordpool_categorized_EN.txt	COLA	Beverages	1	4	[0, 0, 0]	n/a	catFR1	1	R1264P
487.926	0.966	493104	WORD_OFF	n/a	n/a	COLA	n/a	1	4	[0, 0, 0]	n/a	catFR1	1	R1264P
488.892	1.6	494070	WORD	n/a	wordpools/wordpool_categorized_EN.txt	LEMONADE	Beverages	2	4	[0, 0, 0]	n/a	catFR1	1	R1264P
490.509	0.934	495686	WORD_OFF	n/a	n/a	LEMONADE	n/a	2	4	[0, 0, 0]	n/a	catFR1	1	R1264P
491.443	1.6	496620	WORD	n/a	wordpools/wordpool_categorized_EN.txt	MOTORCYCLE	Vehicles	3	4	[0, 0, 0]	n/a	catFR1	1	R1264P
493.06	0.783	498237	WORD_OFF	n/a	n/a	MOTORCYCLE	n/a	3	4	[0, 0, 0]	n/a	catFR1	1	R1264P
493.843	1.6	499020	WORD	n/a	wordpools/wordpool_categorized_EN.txt	SCOOTER	Vehicles	4	4	[0, 0, 0]	n/a	catFR1	1	R1264P
495.46	0.834	500637	WORD_OFF	n/a	n/a	SCOOTER	n/a	4	4	[0, 0, 0]	n/a	catFR1	1	R1264P
496.294	1.6	501471	WORD	n/a	wordpools/wordpool_categorized_EN.txt	SLINKY	Toys	5	4	[0, 0, 0]	n/a	catFR1	1	R1264P
497.911	1.0	503088	WORD_OFF	n/a	n/a	SLINKY	n/a	5	4	[0, 0, 0]	n/a	catFR1	1	R1264P
498.911	1.6	504088	WORD	n/a	wordpools/wordpool_categorized_EN.txt	FRISBEE	Toys	6	4	[0, 0, 0]	n/a	catFR1	1	R1264P
500.529	1.016	505706	WORD_OFF	n/a	n/a	FRISBEE	n/a	6	4	[0, 0, 0]	n/a	catFR1	1	R1264P
501.545	1.6	506722	WORD	n/a	wordpools/wordpool_categorized_EN.txt	VAN	Vehicles	7	4	[0, 0, 0]	n/a	catFR1	1	R1264P
503.162	0.883	508339	WORD_OFF	n/a	n/a	VAN	n/a	7	4	[0, 0, 0]	n/a	catFR1	1	R1264P
504.045	1.6	509222	WORD	n/a	wordpools/wordpool_categorized_EN.txt	BUS	Vehicles	8	4	[0, 0, 0]	n/a	catFR1	1	R1264P
505.662	0.868	510839	WORD_OFF	n/a	n/a	BUS	n/a	8	4	[0, 0, 0]	n/a	catFR1	1	R1264P
506.53	1.6	511707	WORD	n/a	wordpools/wordpool_categorized_EN.txt	SODA	Beverages	9	4	[0, 0, 0]	n/a	catFR1	1	R1264P
508.146	0.867	513323	WORD_OFF	n/a	n/a	SODA	n/a	9	4	[0, 0, 0]	n/a	catFR1	1	R1264P
509.013	1.6	514190	WORD	n/a	wordpools/wordpool_categorized_EN.txt	JUICE	Beverages	10	4	[0, 0, 0]	n/a	catFR1	1	R1264P
510.63	0.95	515806	WORD_OFF	n/a	n/a	JUICE	n/a	10	4	[0, 0, 0]	n/a	catFR1	1	R1264P
511.58	1.6	516756	WORD	n/a	wordpools/wordpool_categorized_EN.txt	BARBIE	Toys	11	4	[0, 0, 0]	n/a	catFR1	1	R1264P
513.197	0.85	518373	WORD_OFF	n/a	n/a	BARBIE	n/a	11	4	[0, 0, 0]	n/a	catFR1	1	R1264P
514.047	1.6	519223	WORD	n/a	wordpools/wordpool_categorized_EN.txt	BASKETBALL	Toys	12	4	[0, 0, 0]	n/a	catFR1	1	R1264P
515.664	0.0	520840	WORD_OFF	n/a	n/a	BASKETBALL	n/a	12	4	[0, 0, 0]	n/a	catFR1	1	R1264P
515.664	0.128	520840	ENCODING_END	n/a	n/a	n/a	n/a	-999	4	[0, 0, 0]	n/a	catFR1	1	R1264P
515.792	0.0	520968	DISTRACT_START	n/a	n/a	n/a	n/a	-999	4	[0, 0, 0]	n/a	catFR1	1	R1264P
515.792	0.022	520968	START	n/a	n/a	n/a	n/a	-999	4	[-999, -999, -999]	n/a	catFR1	1	R1264P
515.814	3.617	520990	PROB	3.589	n/a	n/a	n/a	-999	4	[3, 9, 6]	18.0	catFR1	1	R1264P
519.431	3.001	524607	PROB	2.972	n/a	n/a	n/a	-999	4	[6, 2, 5]	13.0	catFR1	1	R1264P
522.432	4.368	527608	PROB	4.339	n/a	n/a	n/a	-999	4	[4, 4, 8]	16.0	catFR1	1	R1264P
526.8	2.533	531976	PROB	2.508	n/a	n/a	n/a	-999	4	[5, 5, 5]	15.0	catFR1	1	R1264P
529.333	3.584	534508	PROB	3.55	n/a	n/a	n/a	-999	4	[4, 4, 6]	14.0	catFR1	1	R1264P
532.917	3.382	538092	PROB	3.382	n/a	n/a	n/a	-999	4	[3, 1, 3]	7.0	catFR1	1	R1264P
536.299	0.019	541474	STOP	n/a	n/a	n/a	n/a	-999	4	[-999, -999, -999]	n/a	catFR1	1	R1264P
536.318	0.617	541493	DISTRACT_END	n/a	n/a	n/a	n/a	-999	4	[0, 0, 0]	n/a	catFR1	1	R1264P
536.935	0.518	542110	RETRIEVAL_ORIENT	n/a	n/a	n/a	n/a	-999	4	[0, 0, 0]	n/a	catFR1	1	R1264P
537.453	3.057	542628	REC_START	n/a	n/a	n/a	n/a	-999	4	[0, 0, 0]	n/a	catFR1	1	R1264P
540.51	4.397	545685	REC_WORD	3.057	n/a	MOTORCYCLE	Vehicles	3	4	[0, 0, 0]	n/a	catFR1	1	R1264P
544.907	2.752	550082	REC_WORD	7.454	n/a	VAN	Vehicles	7	4	[0, 0, 0]	n/a	catFR1	1	R1264P
547.659	1.251	552834	REC_WORD	10.206	n/a	WATER	n/a	-999	4	[0, 0, 0]	n/a	catFR1	1	R1264P
548.91	0.759	554084	REC_WORD_VV	11.457	n/a	<>	n/a	-999	4	[0, 0, 0]	n/a	catFR1	1	R1264P
549.669	1.31	554843	REC_WORD	12.216	n/a	COLA	Beverages	1	4	[0, 0, 0]	n/a	catFR1	1	R1264P
550.979	1.732	556153	REC_WORD	13.526	n/a	LEMONADE	Beverages	2	4	[0, 0, 0]	n/a	catFR1	1	R1264P
552.711	1.388	557885	REC_WORD	15.258	n/a	GLASS	n/a	-999	4	[0, 0, 0]	n/a	catFR1	1	R1264P
554.099	7.26	559273	REC_WORD	16.646	n/a	CUP	n/a	-999	4	[0, 0, 0]	n/a	catFR1	1	R1264P
561.359	5.054	566533	REC_WORD	23.906	n/a	SCOOTER	Vehicles	4	4	[0, 0, 0]	n/a	catFR1	1	R1264P
566.413	1.05	571587	REC_WORD	28.96	n/a	MOTORCYCLE	Vehicles	3	4	[0, 0, 0]	n/a	catFR1	1	R1264P
567.463	6.379	572636	REC_END	n/a	n/a	n/a	n/a	-999	4	[0, 0, 0]	n/a	catFR1	1	R1264P
573.842	0.5	579015	TRIAL	n/a	n/a	n/a	n/a	-999	5	[0, 0, 0]	n/a	catFR1	1	R1264P
574.342	10.0	579515	COUNTDOWN_START	n/a	n/a	n/a	n/a	-999	5	[0, 0, 0]	n/a	catFR1	1	R1264P
584.77	0.007	589943	COUNTDOWN_END	n/a	n/a	n/a	n/a	-999	5	[0, 0, 0]	n/a	catFR1	1	R1264P
584.777	1.6	589950	ORIENT	n/a	n/a	n/a	n/a	-999	5	[0, 0, 0]	n/a	catFR1	1	R1264P
586.394	1.934	591566	ORIENT_OFF	n/a	n/a	n/a	n/a	-999	5	[0, 0, 0]	n/a	catFR1	1	R1264P
588.328	1.6	593500	WORD	n/a	wordpools/wordpool_categorized_EN.txt	PANTS	Clothing	1	5	[0, 0, 0]	n/a	catFR1	1	R1264P
589.945	0.783	595117	WORD_OFF	n/a	n/a	PANTS	n/a	1	5	[0, 0, 0]	n/a	catFR1	1	R1264P
590.728	1.6	595900	WORD	n/a	wordpools/wordpool_categorized_EN.txt	JEANS	Clothing	2	5	[0, 0, 0]	n/a	catFR1	1	R1264P
592.345	0.884	597517	WORD_OFF	n/a	n/a	JEANS	n/a	2	5	[0, 0, 0]	n/a	catFR1	1	R1264P
593.229	1.6	598401	WORD	n/a	wordpools/wordpool_categorized_EN.txt	CABINET	Furniture	3	5	[0, 0, 0]	n/a	catFR1	1	R1264P
594.846	0.783	600018	WORD_OFF	n/a	n/a	CABINET	n/a	3	5	[0, 0, 0]	n/a	catFR1	1	R1264P
595.629	1.6	600801	WORD	n/a	wordpools/wordpool_categorized_EN.txt	BOOKCASE	Furniture	4	5	[0, 0, 0]	n/a	catFR1	1	R1264P
597.246	1.0	602418	WORD_OFF	n/a	n/a	BOOKCASE	n/a	4	5	[0, 0, 0]	n/a	catFR1	1	R1264P
598.246	1.6	603418	WORD	n/a	wordpools/wordpool_categorized_EN.txt	ROACH	Insects	5	5	[0, 0, 0]	n/a	catFR1	1	R1264P
599.863	0.984	605035	WORD_OFF	n/a	n/a	ROACH	n/a	5	5	[0, 0, 0]	n/a	catFR1	1	R1264P
600.847	1.6	606019	WORD	n/a	wordpools/wordpool_categorized_EN.txt	GNAT	Insects	6	5	[0, 0, 0]	n/a	catFR1	1	R1264P
602.464	0.833	607636	WORD_OFF	n/a	n/a	GNAT	n/a	6	5	[0, 0, 0]	n/a	catFR1	1	R1264P
603.297	1.6	608469	WORD	n/a	wordpools/wordpool_categorized_EN.txt	CHAIR	Furniture	7	5	[0, 0, 0]	n/a	catFR1	1	R1264P
604.914	0.95	610086	WORD_OFF	n/a	n/a	CHAIR	n/a	7	5	[0, 0, 0]	n/a	catFR1	1	R1264P
605.864	1.6	611035	WORD	n/a	wordpools/wordpool_categorized_EN.txt	TABLE	Furniture	8	5	[0, 0, 0]	n/a	catFR1	1	R1264P
607.481	0.901	612652	WORD_OFF	n/a	n/a	TABLE	n/a	8	5	[0, 0, 0]	n/a	catFR1	1	R1264P
608.382	1.6	613553	WORD	n/a	wordpools/wordpool_categorized_EN.txt	JACKET	Clothing	9	5	[0, 0, 0]	n/a	catFR1	1	R1264P
609.999	0.966	615170	WORD_OFF	n/a	n/a	JACKET	n/a	9	5	[0, 0, 0]	n/a	catFR1	1	R1264P
610.965	1.6	616136	WORD	n/a	wordpools/wordpool_categorized_EN.txt	SHOES	Clothing	10	5	[0, 0, 0]	n/a	catFR1	1	R1264P
612.582	0.767	617753	WORD_OFF	n/a	n/a	SHOES	n/a	10	5	[0, 0, 0]	n/a	catFR1	1	R1264P
613.349	1.6	618520	WORD	n/a	wordpools/wordpool_categorized_EN.txt	BEE	Insects	11	5	[0, 0, 0]	n/a	catFR1	1	R1264P
614.966	0.784	620137	WORD_OFF	n/a	n/a	BEE	n/a	11	5	[0, 0, 0]	n/a	catFR1	1	R1264P
615.75	1.6	620921	WORD	n/a	wordpools/wordpool_categorized_EN.txt	CRICKET	Insects	12	5	[0, 0, 0]	n/a	catFR1	1	R1264P
617.367	0.0	622538	ENCODING_END	n/a	n/a	n/a	n/a	-999	5	[0, 0, 0]	n/a	catFR1	1	R1264P
617.367	0.102	622538	WORD_OFF	n/a	n/a	CRICKET	n/a	12	5	[0, 0, 0]	n/a	catFR1	1	R1264P
617.469	0.0	622640	DISTRACT_START	n/a	n/a	n/a	n/a	-999	5	[0, 0, 0]	n/a	catFR1	1	R1264P
617.469	0.014	622640	START	n/a	n/a	n/a	n/a	-999	5	[-999, -999, -999]	n/a	catFR1	1	R1264P
617.483	3.251	622654	PROB	3.217	n/a	n/a	n/a	-999	5	[1, 7, 6]	14.0	catFR1	1	R1264P
620.734	3.067	625905	PROB	3.037	n/a	n/a	n/a	-999	5	[3, 7, 7]	17.0	catFR1	1	R1264P
623.801	2.917	628972	PROB	2.882	n/a	n/a	n/a	-999	5	[1, 2, 4]	7.0	catFR1	1	R1264P
626.718	3.084	631888	PROB	3.052	n/a	n/a	n/a	-999	5	[2, 4, 1]	7.0	catFR1	1	R1264P
629.802	2.867	634972	PROB	2.833	n/a	n/a	n/a	-999	5	[9, 9, 2]	20.0	catFR1	1	R1264P
632.669	5.215	637839	PROB	5.215	n/a	n/a	n/a	-999	5	[6, 5, 6]	17.0	catFR1	1	R1264P
637.884	0.02	643054	STOP	n/a	n/a	n/a	n/a	-999	5	[-999, -999, -999]	n/a	catFR1	1	R1264P
637.904	0.583	643074	DISTRACT_END	n/a	n/a	n/a	n/a	-999	5	[0, 0, 0]	n/a	catFR1	1	R1264P
638.487	0.518	643657	RETRIEVAL_ORIENT	n/a	n/a	n/a	n/a	-999	5	[0, 0, 0]	n/a	catFR1	1	R1264P
639.005	2.864	644175	REC_START	n/a	n/a	n/a	n/a	-999	5	[0, 0, 0]	n/a	catFR1	1	R1264P
641.869	1.065	647039	REC_WORD	2.864	n/a	PANTS	Clothing	1	5	[0, 0, 0]	n/a	catFR1	1	R1264P
642.934	2.933	648104	REC_WORD	3.929	n/a	JEANS	Clothing	2	5	[0, 0, 0]	n/a	catFR1	1	R1264P
645.867	1.537	651036	REC_WORD	6.862	n/a	GNAT	Insects	6	5	[0, 0, 0]	n/a	catFR1	1	R1264P
647.404	1.946	652573	REC_WORD	8.399	n/a	BEE	Insects	11	5	[0, 0, 0]	n/a	catFR1	1	R1264P
649.35	4.065	654519	REC_WORD	10.345	n/a	LADYBUG	n/a	-999	5	[0, 0, 0]	n/a	catFR1	1	R1264P
653.415	4.903	658584	REC_WORD_VV	14.41	n/a	<>	n/a	-999	5	[0, 0, 0]	n/a	catFR1	1	R1264P
658.318	4.144	663487	REC_WORD	19.313	n/a	LEMONADE	n/a	-999	5	[0, 0, 0]	n/a	catFR1	1	R1264P
662.462	1.466	667631	REC_WORD	23.457	n/a	WATER	n/a	-999	5	[0, 0, 0]	n/a	catFR1	1	R1264P
663.928	5.087	669096	REC_WORD	24.923	n/a	SODA	n/a	-999	5	[0, 0, 0]	n/a	catFR1	1	R1264P
669.015	7.613	674183	REC_END	n/a	n/a	n/a	n/a	-999	5	[0, 0, 0]	n/a	catFR1	1	R1264P
676.628	0.5	681796	TRIAL	n/a	n/a	n/a	n/a	-999	6	[0, 0, 0]	n/a	catFR1	1	R1264P
677.128	10.0	682296	COUNTDOWN_START	n/a	n/a	n/a	n/a	-999	6	[0, 0, 0]	n/a	catFR1	1	R1264P
687.556	0.007	692723	COUNTDOWN_END	n/a	n/a	n/a	n/a	-999	6	[0, 0, 0]	n/a	catFR1	1	R1264P
687.563	1.6	692730	ORIENT	n/a	n/a	n/a	n/a	-999	6	[0, 0, 0]	n/a	catFR1	1	R1264P
689.18	1.867	694347	ORIENT_OFF	n/a	n/a	n/a	n/a	-999	6	[0, 0, 0]	n/a	catFR1	1	R1264P
691.047	1.6	696214	WORD	n/a	wordpools/wordpool_categorized_EN.txt	OAK	Trees	1	6	[0, 0, 0]	n/a	catFR1	1	R1264P
692.664	0.8	697831	WORD_OFF	n/a	n/a	OAK	n/a	1	6	[0, 0, 0]	n/a	catFR1	1	R1264P
693.464	1.6	698631	WORD	n/a	wordpools/wordpool_categorized_EN.txt	ELM	Trees	2	6	[0, 0, 0]	n/a	catFR1	1	R1264P
695.081	0.917	700248	WORD_OFF	n/a	n/a	ELM	n/a	2	6	[0, 0, 0]	n/a	catFR1	1	R1264P
695.998	1.6	701165	WORD	n/a	wordpools/wordpool_categorized_EN.txt	BED	Furniture	3	6	[0, 0, 0]	n/a	catFR1	1	R1264P
697.615	0.867	702782	WORD_OFF	n/a	n/a	BED	n/a	3	6	[0, 0, 0]	n/a	catFR1	1	R1264P
698.482	1.6	703649	WORD	n/a	wordpools/wordpool_categorized_EN.txt	RECLINER	Furniture	4	6	[0, 0, 0]	n/a	catFR1	1	R1264P
700.099	0.817	705266	WORD_OFF	n/a	n/a	RECLINER	n/a	4	6	[0, 0, 0]	n/a	catFR1	1	R1264P
700.916	1.6	706082	WORD	n/a	wordpools/wordpool_categorized_EN.txt	MOPED	Vehicles	5	6	[0, 0, 0]	n/a	catFR1	1	R1264P
702.534	0.982	707700	WORD_OFF	n/a	n/a	MOPED	n/a	5	6	[0, 0, 0]	n/a	catFR1	1	R1264P
703.516	1.6	708682	WORD	n/a	wordpools/wordpool_categorized_EN.txt	CAR	Vehicles	6	6	[0, 0, 0]	n/a	catFR1	1	R1264P
705.133	1.0	710299	WORD_OFF	n/a	n/a	CAR	n/a	6	6	[0, 0, 0]	n/a	catFR1	1	R1264P
706.133	1.6	711299	WORD	n/a	wordpools/wordpool_categorized_EN.txt	DESK	Furniture	7	6	[0, 0, 0]	n/a	catFR1	1	R1264P
707.75	0.95	712916	WORD_OFF	n/a	n/a	DESK	n/a	7	6	[0, 0, 0]	n/a	catFR1	1	R1264P
708.7	1.6	713866	WORD	n/a	wordpools/wordpool_categorized_EN.txt	SOFA	Furniture	8	6	[0, 0, 0]	n/a	catFR1	1	R1264P
710.317	0.834	715483	WORD_OFF	n/a	n/a	SOFA	n/a	8	6	[0, 0, 0]	n/a	catFR1	1	R1264P
711.151	1.6	716317	WORD	n/a	wordpools/wordpool_categorized_EN.txt	CYPRESS	Trees	9	6	[0, 0, 0]	n/a	catFR1	1	R1264P
712.768	0.783	717934	WORD_OFF	n/a	n/a	CYPRESS	n/a	9	6	[0, 0, 0]	n/a	catFR1	1	R1264P
713.551	1.6	718717	WORD	n/a	wordpools/wordpool_categorized_EN.txt	BIRCH	Trees	10	6	[0, 0, 0]	n/a	catFR1	1	R1264P
715.168	0.984	720334	WORD_OFF	n/a	n/a	BIRCH	n/a	10	6	[0, 0, 0]	n/a	catFR1	1	R1264P
716.152	1.6	721318	WORD	n/a	wordpools/wordpool_categorized_EN.txt	JEEP	Vehicles	11	6	[0, 0, 0]	n/a	catFR1	1	R1264P
717.769	0.9	722935	WORD_OFF	n/a	n/a	JEEP	n/a	11	6	[0, 0, 0]	n/a	catFR1	1	R1264P
718.669	1.6	723835	WORD	n/a	wordpools/wordpool_categorized_EN.txt	TRUCK	Vehicles	12	6	[0, 0, 0]	n/a	catFR1	1	R1264P
720.286	0.0	725451	ENCODING_END	n/a	n/a	n/a	n/a	-999	6	[0, 0, 0]	n/a	catFR1	1	R1264P
720.286	0.14	725451	WORD_OFF	n/a	n/a	TRUCK	n/a	12	6	[0, 0, 0]	n/a	catFR1	1	R1264P
720.426	0.0	725591	DISTRACT_START	n/a	n/a	n/a	n/a	-999	6	[0, 0, 0]	n/a	catFR1	1	R1264P
720.426	0.01	725591	START	n/a	n/a	n/a	n/a	-999	6	[-999, -999, -999]	n/a	catFR1	1	R1264P
720.436	3.517	725601	PROB	3.494	n/a	n/a	n/a	-999	6	[8, 1, 9]	18.0	catFR1	1	R1264P
723.953	3.301	729118	PROB	3.274	n/a	n/a	n/a	-999	6	[8, 1, 7]	16.0	catFR1	1	R1264P
727.254	2.867	732419	PROB	2.838	n/a	n/a	n/a	-999	6	[7, 5, 1]	13.0	catFR1	1	R1264P
730.121	3.367	735286	PROB	3.338	n/a	n/a	n/a	-999	6	[8, 7, 5]	20.0	catFR1	1	R1264P
733.488	5.668	738653	PROB	5.634	n/a	n/a	n/a	-999	6	[9, 6, 6]	21.0	catFR1	1	R1264P
739.156	5.535	744320	PROB	5.535	n/a	n/a	n/a	-999	6	[8, 9, 8]	25.0	catFR1	1	R1264P
744.691	0.016	749855	STOP	n/a	n/a	n/a	n/a	-999	6	[-999, -999, -999]	n/a	catFR1	1	R1264P
744.707	0.584	749871	DISTRACT_END	n/a	n/a	n/a	n/a	-999	6	[0, 0, 0]	n/a	catFR1	1	R1264P
745.291	0.517	750455	RETRIEVAL_ORIENT	n/a	n/a	n/a	n/a	-999	6	[0, 0, 0]	n/a	catFR1	1	R1264P
745.808	1.739	750972	REC_START	n/a	n/a	n/a	n/a	-999	6	[0, 0, 0]	n/a	catFR1	1	R1264P
747.547	1.327	752711	REC_WORD	1.739	n/a	RECLINER	Furniture	4	6	[0, 0, 0]	n/a	catFR1	1	R1264P
748.874	1.773	754038	REC_WORD	3.066	n/a	SOFA	Furniture	8	6	[0, 0, 0]	n/a	catFR1	1	R1264P
750.647	3.136	755811	REC_WORD	4.839	n/a	CHAIR	n/a	-999	6	[0, 0, 0]	n/a	catFR1	1	R1264P
753.783	1.0	758947	REC_WORD	7.975	n/a	CYPRESS	Trees	9	6	[0, 0, 0]	n/a	catFR1	1	R1264P
754.783	2.594	759947	REC_WORD_VV	8.975	n/a	<>	n/a	-999	6	[0, 0, 0]	n/a	catFR1	1	R1264P
757.377	1.515	762541	REC_WORD	11.569	n/a	LADYBUG	n/a	-999	6	[0, 0, 0]	n/a	catFR1	1	R1264P
758.892	16.927	764055	REC_WORD	13.084	n/a	ANT	n/a	-999	6	[0, 0, 0]	n/a	catFR1	1	R1264P
775.819	6.129	780982	REC_END	n/a	n/a	n/a	n/a	-999	6	[0, 0, 0]	n/a	catFR1	1	R1264P
781.948	0.5	787110	TRIAL	n/a	n/a	n/a	n/a	-999	7	[0, 0, 0]	n/a	catFR1	1	R1264P
782.448	10.0	787610	COUNTDOWN_START	n/a	n/a	n/a	n/a	-999	7	[0, 0, 0]	n/a	catFR1	1	R1264P
792.876	0.007	798038	COUNTDOWN_END	n/a	n/a	n/a	n/a	-999	7	[0, 0, 0]	n/a	catFR1	1	R1264P
792.883	1.6	798045	ORIENT	n/a	n/a	n/a	n/a	-999	7	[0, 0, 0]	n/a	catFR1	1	R1264P
794.5	1.867	799662	ORIENT_OFF	n/a	n/a	n/a	n/a	-999	7	[0, 0, 0]	n/a	catFR1	1	R1264P
796.367	1.6	801528	WORD	n/a	wordpools/wordpool_categorized_EN.txt	TORNADO	Weather	1	7	[0, 0, 0]	n/a	catFR1	1	R1264P
797.984	1.017	803145	WORD_OFF	n/a	n/a	TORNADO	n/a	1	7	[0, 0, 0]	n/a	catFR1	1	R1264P
799.001	1.6	804162	WORD	n/a	wordpools/wordpool_categorized_EN.txt	HURRICANE	Weather	2	7	[0, 0, 0]	n/a	catFR1	1	R1264P
800.618	0.95	805779	WORD_OFF	n/a	n/a	HURRICANE	n/a	2	7	[0, 0, 0]	n/a	catFR1	1	R1264P
801.568	1.6	806729	WORD	n/a	wordpools/wordpool_categorized_EN.txt	PLANKTON	OceanAnimals	3	7	[0, 0, 0]	n/a	catFR1	1	R1264P
803.185	0.867	808346	WORD_OFF	n/a	n/a	PLANKTON	n/a	3	7	[0, 0, 0]	n/a	catFR1	1	R1264P
804.052	1.6	809213	WORD	n/a	wordpools/wordpool_categorized_EN.txt	DOLPHIN	OceanAnimals	4	7	[0, 0, 0]	n/a	catFR1	1	R1264P
805.669	0.868	810830	WORD_OFF	n/a	n/a	DOLPHIN	n/a	4	7	[0, 0, 0]	n/a	catFR1	1	R1264P
806.537	1.6	811698	WORD	n/a	wordpools/wordpool_categorized_EN.txt	COFFEE	Beverages	5	7	[0, 0, 0]	n/a	catFR1	1	R1264P
808.152	0.984	813313	WORD_OFF	n/a	n/a	COFFEE	n/a	5	7	[0, 0, 0]	n/a	catFR1	1	R1264P
809.136	1.6	814297	WORD	n/a	wordpools/wordpool_categorized_EN.txt	CIDER	Beverages	6	7	[0, 0, 0]	n/a	catFR1	1	R1264P
810.753	0.883	815914	WORD_OFF	n/a	n/a	CIDER	n/a	6	7	[0, 0, 0]	n/a	catFR1	1	R1264P
811.636	1.6	816797	WORD	n/a	wordpools/wordpool_categorized_EN.txt	SNOW	Weather	7	7	[0, 0, 0]	n/a	catFR1	1	R1264P
813.253	0.784	818414	WORD_OFF	n/a	n/a	SNOW	n/a	7	7	[0, 0, 0]	n/a	catFR1	1	R1264P
814.037	1.6	819198	WORD	n/a	wordpools/wordpool_categorized_EN.txt	THUNDERSTORM	Weather	8	7	[0, 0, 0]	n/a	catFR1	1	R1264P
815.654	0.967	820814	WORD_OFF	n/a	n/a	THUNDERSTORM	n/a	8	7	[0, 0, 0]	n/a	catFR1	1	R1264P
816.621	1.6	821781	WORD	n/a	wordpools/wordpool_categorized_EN.txt	CRAB	OceanAnimals	9	7	[0, 0, 0]	n/a	catFR1	1	R1264P
818.238	1.0	823398	WORD_OFF	n/a	n/a	CRAB	n/a	9	7	[0, 0, 0]	n/a	catFR1	1	R1264P
819.238	1.6	824398	WORD	n/a	wordpools/wordpool_categorized_EN.txt	FISH	OceanAnimals	10	7	[0, 0, 0]	n/a	catFR1	1	R1264P
820.855	0.9	826015	WORD_OFF	n/a	n/a	FISH	n/a	10	7	[0, 0, 0]	n/a	catFR1	1	R1264P
821.755	1.6	826915	WORD	n/a	wordpools/wordpool_categorized_EN.txt	BEER	Beverages	11	7	[0, 0, 0]	n/a	catFR1	1	R1264P
823.372	0.884	828532	WORD_OFF	n/a	n/a	BEER	n/a	11	7	[0, 0, 0]	n/a	catFR1	1	R1264P
824.256	1.6	829416	WORD	n/a	wordpools/wordpool_categorized_EN.txt	WATER	Beverages	12	7	[0, 0, 0]	n/a	catFR1	1	R1264P
825.872	0.001	831032	WORD_OFF	n/a	n/a	WATER	n/a	12	7	[0, 0, 0]	n/a	catFR1	1	R1264P
825.873	0.129	831033	ENCODING_END	n/a	n/a	n/a	n/a	-999	7	[0, 0, 0]	n/a	catFR1	1	R1264P
826.002	0.001	831162	DISTRACT_START	n/a	n/a	n/a	n/a	-999	7	[0, 0, 0]	n/a	catFR1	1	R1264P
826.003	0.02	831163	START	n/a	n/a	n/a	n/a	-999	7	[-999, -999, -999]	n/a	catFR1	1	R1264P
826.023	3.283	831183	PROB	3.253	n/a	n/a	n/a	-999	7	[1, 1, 8]	10.0	catFR1	1	R1264P
829.306	5.401	834466	PROB	5.368	n/a	n/a	n/a	-999	7	[7, 9, 7]	23.0	catFR1	1	R1264P
834.707	3.435	839866	PROB	3.4	n/a	n/a	n/a	-999	7	[8, 9, 3]	20.0	catFR1	1	R1264P
838.142	5.1	843301	PROB	5.078	n/a	n/a	n/a	-999	7	[2, 9, 5]	16.0	catFR1	1	R1264P
843.242	5.409	848401	PROB	5.409	n/a	n/a	n/a	-999	7	[4, 7, 5]	16.0	catFR1	1	R1264P
848.651	0.009	853810	STOP	n/a	n/a	n/a	n/a	-999	7	[-999, -999, -999]	n/a	catFR1	1	R1264P
848.66	0.7	853819	DISTRACT_END	n/a	n/a	n/a	n/a	-999	7	[0, 0, 0]	n/a	catFR1	1	R1264P
849.36	0.518	854519	RETRIEVAL_ORIENT	n/a	n/a	n/a	n/a	-999	7	[0, 0, 0]	n/a	catFR1	1	R1264P
849.878	6.058	855037	REC_START	n/a	n/a	n/a	n/a	-999	7	[0, 0, 0]	n/a	catFR1	1	R1264P
855.936	2.097	861094	REC_WORD	6.058	n/a	PLANKTON	OceanAnimals	3	7	[0, 0, 0]	n/a	catFR1	1	R1264P
858.033	1.359	863191	REC_WORD	8.155	n/a	THUNDERSTORM	Weather	8	7	[0, 0, 0]	n/a	catFR1	1	R1264P
859.392	2.094	864550	REC_WORD	9.514	n/a	SNOW	Weather	7	7	[0, 0, 0]	n/a	catFR1	1	R1264P
861.486	9.207	866644	REC_WORD	11.608	n/a	TORNADO	Weather	1	7	[0, 0, 0]	n/a	catFR1	1	R1264P
870.693	1.471	875851	REC_WORD	20.815	n/a	WATER	Beverages	12	7	[0, 0, 0]	n/a	catFR1	1	R1264P
872.164	5.667	877322	REC_WORD	22.286	n/a	DRINK	n/a	-999	7	[0, 0, 0]	n/a	catFR1	1	R1264P
877.831	2.056	882988	REC_WORD	27.953	n/a	LIVING ROOM	n/a	-999	7	[0, 0, 0]	n/a	catFR1	1	R1264P
879.887	9.381	885044	REC_END	n/a	n/a	n/a	n/a	-999	7	[0, 0, 0]	n/a	catFR1	1	R1264P
889.268	0.5	894425	TRIAL	n/a	n/a	n/a	n/a	-999	8	[0, 0, 0]	n/a	catFR1	1	R1264P
889.768	10.0	894925	COUNTDOWN_START	n/a	n/a	n/a	n/a	-999	8	[0, 0, 0]	n/a	catFR1	1	R1264P
900.196	0.007	905352	COUNTDOWN_END	n/a	n/a	n/a	n/a	-999	8	[0, 0, 0]	n/a	catFR1	1	R1264P
900.203	1.6	905359	ORIENT	n/a	n/a	n/a	n/a	-999	8	[0, 0, 0]	n/a	catFR1	1	R1264P
901.82	1.934	906976	ORIENT_OFF	n/a	n/a	n/a	n/a	-999	8	[0, 0, 0]	n/a	catFR1	1	R1264P
903.754	1.6	908910	WORD	n/a	wordpools/wordpool_categorized_EN.txt	PINE	Trees	1	8	[0, 0, 0]	n/a	catFR1	1	R1264P
905.371	0.833	910527	WORD_OFF	n/a	n/a	PINE	n/a	1	8	[0, 0, 0]	n/a	catFR1	1	R1264P
906.204	1.6	911360	WORD	n/a	wordpools/wordpool_categorized_EN.txt	WALNUT	Trees	2	8	[0, 0, 0]	n/a	catFR1	1	R1264P
907.821	1.0	912977	WORD_OFF	n/a	n/a	WALNUT	n/a	2	8	[0, 0, 0]	n/a	catFR1	1	R1264P
908.821	1.6	913977	WORD	n/a	wordpools/wordpool_categorized_EN.txt	CABBAGE	Vegetables	3	8	[0, 0, 0]	n/a	catFR1	1	R1264P
910.438	0.867	915594	WORD_OFF	n/a	n/a	CABBAGE	n/a	3	8	[0, 0, 0]	n/a	catFR1	1	R1264P
911.305	1.6	916460	WORD	n/a	wordpools/wordpool_categorized_EN.txt	CUCUMBER	Vegetables	4	8	[0, 0, 0]	n/a	catFR1	1	R1264P
912.922	0.834	918077	WORD_OFF	n/a	n/a	CUCUMBER	n/a	4	8	[0, 0, 0]	n/a	catFR1	1	R1264P
913.756	1.6	918911	WORD	n/a	wordpools/wordpool_categorized_EN.txt	WINE	Beverages	5	8	[0, 0, 0]	n/a	catFR1	1	R1264P
915.373	0.883	920528	WORD_OFF	n/a	n/a	WINE	n/a	5	8	[0, 0, 0]	n/a	catFR1	1	R1264P
916.256	1.6	921411	WORD	n/a	wordpools/wordpool_categorized_EN.txt	TEA	Beverages	6	8	[0, 0, 0]	n/a	catFR1	1	R1264P
917.873	0.784	923028	WORD_OFF	n/a	n/a	TEA	n/a	6	8	[0, 0, 0]	n/a	catFR1	1	R1264P
918.657	1.6	923812	WORD	n/a	wordpools/wordpool_categorized_EN.txt	MAPLE	Trees	7	8	[0, 0, 0]	n/a	catFR1	1	R1264P
920.274	0.933	925429	WORD_OFF	n/a	n/a	MAPLE	n/a	7	8	[0, 0, 0]	n/a	catFR1	1	R1264P
921.207	1.6	926362	WORD	n/a	wordpools/wordpool_categorized_EN.txt	EVERGREEN	Trees	8	8	[0, 0, 0]	n/a	catFR1	1	R1264P
922.824	0.9	927979	WORD_OFF	n/a	n/a	EVERGREEN	n/a	8	8	[0, 0, 0]	n/a	catFR1	1	R1264P
923.724	1.6	928879	WORD	n/a	wordpools/wordpool_categorized_EN.txt	CARROT	Vegetables	9	8	[0, 0, 0]	n/a	catFR1	1	R1264P
925.341	0.767	930496	WORD_OFF	n/a	n/a	CARROT	n/a	9	8	[0, 0, 0]	n/a	catFR1	1	R1264P
926.108	1.6	931263	WORD	n/a	wordpools/wordpool_categorized_EN.txt	CAULIFLOWER	Vegetables	10	8	[0, 0, 0]	n/a	catFR1	1	R1264P
927.725	0.967	932880	WORD_OFF	n/a	n/a	CAULIFLOWER	n/a	10	8	[0, 0, 0]	n/a	catFR1	1	R1264P
928.692	1.6	933847	WORD	n/a	wordpools/wordpool_categorized_EN.txt	MILK	Beverages	11	8	[0, 0, 0]	n/a	catFR1	1	R1264P
930.309	0.95	935463	WORD_OFF	n/a	n/a	MILK	n/a	11	8	[0, 0, 0]	n/a	catFR1	1	R1264P
931.259	1.6	936413	WORD	n/a	wordpools/wordpool_categorized_EN.txt	RUM	Beverages	12	8	[0, 0, 0]	n/a	catFR1	1	R1264P
932.876	0.0	938030	ENCODING_END	n/a	n/a	n/a	n/a	-999	8	[0, 0, 0]	n/a	catFR1	1	R1264P
932.876	0.103	938030	WORD_OFF	n/a	n/a	RUM	n/a	12	8	[0, 0, 0]	n/a	catFR1	1	R1264P
932.979	0.0	938133	DISTRACT_START	n/a	n/a	n/a	n/a	-999	8	[0, 0, 0]	n/a	catFR1	1	R1264P
932.979	0.014	938133	START	n/a	n/a	n/a	n/a	-999	8	[-999, -999, -999]	n/a	catFR1	1	R1264P
932.993	3.85	938147	PROB	3.826	n/a	n/a	n/a	-999	8	[3, 3, 4]	10.0	catFR1	1	R1264P
936.843	3.551	941997	PROB	3.521	n/a	n/a	n/a	-999	8	[3, 8, 7]	18.0	catFR1	1	R1264P
940.394	4.618	945548	PROB	4.586	n/a	n/a	n/a	-999	8	[8, 9, 5]	22.0	catFR1	1	R1264P
945.012	2.117	950166	PROB	2.087	n/a	n/a	n/a	-999	8	[6, 4, 2]	12.0	catFR1	1	R1264P
947.129	3.45	952283	PROB	3.426	n/a	n/a	n/a	-999	8	[7, 3, 2]	12.0	catFR1	1	R1264P
950.579	3.472	955732	PROB	3.472	n/a	n/a	n/a	-999	8	[4, 8, 5]	17.0	catFR1	1	R1264P
954.051	0.013	959204	STOP	n/a	n/a	n/a	n/a	-999	8	[-999, -999, -999]	n/a	catFR1	1	R1264P
954.064	0.633	959217	DISTRACT_END	n/a	n/a	n/a	n/a	-999	8	[0, 0, 0]	n/a	catFR1	1	R1264P
954.697	0.517	959850	RETRIEVAL_ORIENT	n/a	n/a	n/a	n/a	-999	8	[0, 0, 0]	n/a	catFR1	1	R1264P
955.214	0.892	960367	REC_START	n/a	n/a	n/a	n/a	-999	8	[0, 0, 0]	n/a	catFR1	1	R1264P
956.106	2.336	961259	REC_WORD	0.892	n/a	CAULIFLOWER	Vegetables	10	8	[0, 0, 0]	n/a	catFR1	1	R1264P
958.442	2.106	963595	REC_WORD	3.228	n/a	MAPLE	Trees	7	8	[0, 0, 0]	n/a	catFR1	1	R1264P
960.548	3.167	965701	REC_WORD	5.334	n/a	CARROT	Vegetables	9	8	[0, 0, 0]	n/a	catFR1	1	R1264P
963.715	3.096	968868	REC_WORD	8.501	n/a	CABBAGE	Vegetables	3	8	[0, 0, 0]	n/a	catFR1	1	R1264P
966.811	6.263	971964	REC_WORD	11.597	n/a	CAULIFLOWER	Vegetables	10	8	[0, 0, 0]	n/a	catFR1	1	R1264P
973.074	3.913	978226	REC_WORD	17.86	n/a	WALNUT	Trees	2	8	[0, 0, 0]	n/a	catFR1	1	R1264P
976.987	8.237	982139	REC_WORD	21.773	n/a	PINE	Trees	1	8	[0, 0, 0]	n/a	catFR1	1	R1264P
985.224	6.08	990376	REC_END	n/a	n/a	n/a	n/a	-999	8	[0, 0, 0]	n/a	catFR1	1	R1264P
991.304	0.5	996455	TRIAL	n/a	n/a	n/a	n/a	-999	9	[0, 0, 0]	n/a	catFR1	1	R1264P
991.804	10.0	996955	COUNTDOWN_START	n/a	n/a	n/a	n/a	-999	9	[0, 0, 0]	n/a	catFR1	1	R1264P
1002.232	0.007	1007383	COUNTDOWN_END	n/a	n/a	n/a	n/a	-999	9	[0, 0, 0]	n/a	catFR1	1	R1264P
1002.239	1.6	1007390	ORIENT	n/a	n/a	n/a	n/a	-999	9	[0, 0, 0]	n/a	catFR1	1	R1264P
1003.856	2.134	1009007	ORIENT_OFF	n/a	n/a	n/a	n/a	-999	9	[0, 0, 0]	n/a	catFR1	1	R1264P
1005.99	1.6	1011141	WORD	n/a	wordpools/wordpool_categorized_EN.txt	SHRIMP	OceanAnimals	1	9	[0, 0, 0]	n/a	catFR1	1	R1264P
1007.607	0.967	1012757	WORD_OFF	n/a	n/a	SHRIMP	n/a	1	9	[0, 0, 0]	n/a	catFR1	1	R1264P
1008.574	1.6	1013724	WORD	n/a	wordpools/wordpool_categorized_EN.txt	OCTOPUS	OceanAnimals	2	9	[0, 0, 0]	n/a	catFR1	1	R1264P
1010.191	0.799	1015341	WORD_OFF	n/a	n/a	OCTOPUS	n/a	2	9	[0, 0, 0]	n/a	catFR1	1	R1264P
1010.99	1.6	1016140	WORD	n/a	wordpools/wordpool_categorized_EN.txt	COAT	Clothing	3	9	[0, 0, 0]	n/a	catFR1	1	R1264P
1012.608	0.766	1017758	WORD_OFF	n/a	n/a	COAT	n/a	3	9	[0, 0, 0]	n/a	catFR1	1	R1264P
1013.374	1.6	1018524	WORD	n/a	wordpools/wordpool_categorized_EN.txt	DRESS	Clothing	4	9	[0, 0, 0]	n/a	catFR1	1	R1264P
1014.991	0.801	1020141	WORD_OFF	n/a	n/a	DRESS	n/a	4	9	[0, 0, 0]	n/a	catFR1	1	R1264P
1015.792	1.6	1020942	WORD	n/a	wordpools/wordpool_categorized_EN.txt	JELLO	Desserts	5	9	[0, 0, 0]	n/a	catFR1	1	R1264P
1017.409	0.933	1022559	WORD_OFF	n/a	n/a	JELLO	n/a	5	9	[0, 0, 0]	n/a	catFR1	1	R1264P
1018.342	1.6	1023492	WORD	n/a	wordpools/wordpool_categorized_EN.txt	CUPCAKE	Desserts	6	9	[0, 0, 0]	n/a	catFR1	1	R1264P
1019.959	0.783	1025109	WORD_OFF	n/a	n/a	CUPCAKE	n/a	6	9	[0, 0, 0]	n/a	catFR1	1	R1264P
1020.742	1.6	1025892	WORD	n/a	wordpools/wordpool_categorized_EN.txt	SKIRT	Clothing	7	9	[0, 0, 0]	n/a	catFR1	1	R1264P
1022.36	0.816	1027510	WORD_OFF	n/a	n/a	SKIRT	n/a	7	9	[0, 0, 0]	n/a	catFR1	1	R1264P
1023.176	1.6	1028326	WORD	n/a	wordpools/wordpool_categorized_EN.txt	BLOUSE	Clothing	8	9	[0, 0, 0]	n/a	catFR1	1	R1264P
1024.793	0.8	1029943	WORD_OFF	n/a	n/a	BLOUSE	n/a	8	9	[0, 0, 0]	n/a	catFR1	1	R1264P
1025.593	1.6	1030743	WORD	n/a	wordpools/wordpool_categorized_EN.txt	SQUID	OceanAnimals	9	9	[0, 0, 0]	n/a	catFR1	1	R1264P
1027.21	0.884	1032359	WORD_OFF	n/a	n/a	SQUID	n/a	9	9	[0, 0, 0]	n/a	catFR1	1	R1264P
1028.094	1.6	1033243	WORD	n/a	wordpools/wordpool_categorized_EN.txt	LOBSTER	OceanAnimals	10	9	[0, 0, 0]	n/a	catFR1	1	R1264P
1029.711	1.0	1034860	WORD_OFF	n/a	n/a	LOBSTER	n/a	10	9	[0, 0, 0]	n/a	catFR1	1	R1264P
1030.711	1.6	1035860	WORD	n/a	wordpools/wordpool_categorized_EN.txt	CHEESECAKE	Desserts	11	9	[0, 0, 0]	n/a	catFR1	1	R1264P
1032.328	0.95	1037477	WORD_OFF	n/a	n/a	CHEESECAKE	n/a	11	9	[0, 0, 0]	n/a	catFR1	1	R1264P
1033.278	1.6	1038427	WORD	n/a	wordpools/wordpool_categorized_EN.txt	BROWNIES	Desserts	12	9	[0, 0, 0]	n/a	catFR1	1	R1264P
1034.895	0.0	1040044	ENCODING_END	n/a	n/a	n/a	n/a	-999	9	[0, 0, 0]	n/a	catFR1	1	R1264P
1034.895	0.145	1040044	WORD_OFF	n/a	n/a	BROWNIES	n/a	12	9	[0, 0, 0]	n/a	catFR1	1	R1264P
1035.04	0.0	1040189	DISTRACT_START	n/a	n/a	n/a	n/a	-999	9	[0, 0, 0]	n/a	catFR1	1	R1264P
1035.04	0.022	1040189	START	n/a	n/a	n/a	n/a	-999	9	[-999, -999, -999]	n/a	catFR1	1	R1264P
1035.062	3.484	1040211	PROB	3.453	n/a	n/a	n/a	-999	9	[3, 7, 8]	18.0	catFR1	1	R1264P
1038.546	2.217	1043695	PROB	2.193	n/a	n/a	n/a	-999	9	[7, 3, 2]	12.0	catFR1	1	R1264P
1040.763	2.834	1045912	PROB	2.801	n/a	n/a	n/a	-999	9	[8, 8, 2]	18.0	catFR1	1	R1264P
1043.597	3.667	1048746	PROB	3.63	n/a	n/a	n/a	-999	9	[9, 2, 6]	17.0	catFR1	1	R1264P
1047.264	3.317	1052412	PROB	3.291	n/a	n/a	n/a	-999	9	[9, 3, 6]	18.0	catFR1	1	R1264P
1050.581	4.201	1055729	PROB	4.174	n/a	n/a	n/a	-999	9	[8, 7, 8]	13.0	catFR1	1	R1264P
1054.782	4.677	1059930	PROB	4.677	n/a	n/a	n/a	-999	9	[4, 6, 6]	16.0	catFR1	1	R1264P
1059.459	0.008	1064607	STOP	n/a	n/a	n/a	n/a	-999	9	[-999, -999, -999]	n/a	catFR1	1	R1264P
1059.467	0.533	1064615	DISTRACT_END	n/a	n/a	n/a	n/a	-999	9	[0, 0, 0]	n/a	catFR1	1	R1264P
1060.0	0.517	1065148	RETRIEVAL_ORIENT	n/a	n/a	n/a	n/a	-999	9	[0, 0, 0]	n/a	catFR1	1	R1264P
1060.517	2.247	1065665	REC_START	n/a	n/a	n/a	n/a	-999	9	[0, 0, 0]	n/a	catFR1	1	R1264P
1062.764	1.855	1067912	REC_WORD	2.247	n/a	SHRIMP	OceanAnimals	1	9	[0, 0, 0]	n/a	catFR1	1	R1264P
1064.619	5.337	1069766	REC_WORD	4.102	n/a	LOBSTER	OceanAnimals	10	9	[0, 0, 0]	n/a	catFR1	1	R1264P
1069.956	1.168	1075103	REC_WORD	9.439	n/a	DRESS	Clothing	4	9	[0, 0, 0]	n/a	catFR1	1	R1264P
1071.124	1.016	1076271	REC_WORD	10.607	n/a	PANTS	n/a	-999	9	[0, 0, 0]	n/a	catFR1	1	R1264P
1072.14	0.44	1077287	REC_WORD	11.623	n/a	COAT	Clothing	3	9	[0, 0, 0]	n/a	catFR1	1	R1264P
1072.58	0.264	1077727	REC_WORD_VV	12.063	n/a	<>	n/a	-999	9	[0, 0, 0]	n/a	catFR1	1	R1264P
1072.844	1.08	1077991	REC_WORD	12.327	n/a	SHIRT	n/a	-999	9	[0, 0, 0]	n/a	catFR1	1	R1264P
1073.924	16.603	1079071	REC_WORD	13.407	n/a	SKIRT	Clothing	7	9	[0, 0, 0]	n/a	catFR1	1	R1264P
1090.527	13.965	1095673	REC_END	n/a	n/a	n/a	n/a	-999	9	[0, 0, 0]	n/a	catFR1	1	R1264P
1104.492	0.5	1109637	TRIAL	n/a	n/a	n/a	n/a	-999	10	[0, 0, 0]	n/a	catFR1	1	R1264P
1104.992	10.0	1110137	COUNTDOWN_START	n/a	n/a	n/a	n/a	-999	10	[0, 0, 0]	n/a	catFR1	1	R1264P
1115.42	0.007	1120565	COUNTDOWN_END	n/a	n/a	n/a	n/a	-999	10	[0, 0, 0]	n/a	catFR1	1	R1264P
1115.427	1.6	1120572	ORIENT	n/a	n/a	n/a	n/a	-999	10	[0, 0, 0]	n/a	catFR1	1	R1264P
1117.044	2.234	1122189	ORIENT_OFF	n/a	n/a	n/a	n/a	-999	10	[0, 0, 0]	n/a	catFR1	1	R1264P
1119.278	1.6	1124423	WORD	n/a	wordpools/wordpool_categorized_EN.txt	MARIGOLD	Flowers	1	10	[0, 0, 0]	n/a	catFR1	1	R1264P
1120.895	0.917	1126040	WORD_OFF	n/a	n/a	MARIGOLD	n/a	1	10	[0, 0, 0]	n/a	catFR1	1	R1264P
1121.812	1.6	1126956	WORD	n/a	wordpools/wordpool_categorized_EN.txt	CARNATION	Flowers	2	10	[0, 0, 0]	n/a	catFR1	1	R1264P
1123.429	0.849	1128573	WORD_OFF	n/a	n/a	CARNATION	n/a	2	10	[0, 0, 0]	n/a	catFR1	1	R1264P
1124.278	1.6	1129422	WORD	n/a	wordpools/wordpool_categorized_EN.txt	SOCKS	Clothing	3	10	[0, 0, 0]	n/a	catFR1	1	R1264P
1125.896	0.95	1131040	WORD_OFF	n/a	n/a	SOCKS	n/a	3	10	[0, 0, 0]	n/a	catFR1	1	R1264P
1126.846	1.6	1131990	WORD	n/a	wordpools/wordpool_categorized_EN.txt	SHIRT	Clothing	4	10	[0, 0, 0]	n/a	catFR1	1	R1264P
1128.463	1.017	1133607	WORD_OFF	n/a	n/a	SHIRT	n/a	4	10	[0, 0, 0]	n/a	catFR1	1	R1264P
1129.48	1.6	1134624	WORD	n/a	wordpools/wordpool_categorized_EN.txt	COMPUTER	Electronics	5	10	[0, 0, 0]	n/a	catFR1	1	R1264P
1131.097	0.933	1136241	WORD_OFF	n/a	n/a	COMPUTER	n/a	5	10	[0, 0, 0]	n/a	catFR1	1	R1264P
1132.03	1.6	1137174	WORD	n/a	wordpools/wordpool_categorized_EN.txt	MICROWAVE	Electronics	6	10	[0, 0, 0]	n/a	catFR1	1	R1264P
1133.647	0.817	1138791	WORD_OFF	n/a	n/a	MICROWAVE	n/a	6	10	[0, 0, 0]	n/a	catFR1	1	R1264P
1134.464	1.6	1139608	WORD	n/a	wordpools/wordpool_categorized_EN.txt	PETUNIA	Flowers	7	10	[0, 0, 0]	n/a	catFR1	1	R1264P
1136.081	0.917	1141225	WORD_OFF	n/a	n/a	PETUNIA	n/a	7	10	[0, 0, 0]	n/a	catFR1	1	R1264P
1136.998	1.6	1142142	WORD	n/a	wordpools/wordpool_categorized_EN.txt	ROSE	Flowers	8	10	[0, 0, 0]	n/a	catFR1	1	R1264P
1138.615	0.967	1143759	WORD_OFF	n/a	n/a	ROSE	n/a	8	10	[0, 0, 0]	n/a	catFR1	1	R1264P
1139.582	1.6	1144726	WORD	n/a	wordpools/wordpool_categorized_EN.txt	UNDERWEAR	Clothing	9	10	[0, 0, 0]	n/a	catFR1	1	R1264P
1141.199	0.95	1146342	WORD_OFF	n/a	n/a	UNDERWEAR	n/a	9	10	[0, 0, 0]	n/a	catFR1	1	R1264P
1142.149	1.6	1147292	WORD	n/a	wordpools/wordpool_categorized_EN.txt	SHORTS	Clothing	10	10	[0, 0, 0]	n/a	catFR1	1	R1264P
1143.766	1.0	1148909	WORD_OFF	n/a	n/a	SHORTS	n/a	10	10	[0, 0, 0]	n/a	catFR1	1	R1264P
1144.766	1.6	1149909	WORD	n/a	wordpools/wordpool_categorized_EN.txt	TABLET	Electronics	11	10	[0, 0, 0]	n/a	catFR1	1	R1264P
1146.383	0.817	1151526	WORD_OFF	n/a	n/a	TABLET	n/a	11	10	[0, 0, 0]	n/a	catFR1	1	R1264P
1147.2	1.6	1152343	WORD	n/a	wordpools/wordpool_categorized_EN.txt	SCANNER	Electronics	12	10	[0, 0, 0]	n/a	catFR1	1	R1264P
1148.817	0.0	1153960	ENCODING_END	n/a	n/a	n/a	n/a	-999	10	[0, 0, 0]	n/a	catFR1	1	R1264P
1148.817	0.102	1153960	WORD_OFF	n/a	n/a	SCANNER	n/a	12	10	[0, 0, 0]	n/a	catFR1	1	R1264P
1148.919	0.0	1154062	DISTRACT_START	n/a	n/a	n/a	n/a	-999	10	[0, 0, 0]	n/a	catFR1	1	R1264P
1148.919	0.014	1154062	START	n/a	n/a	n/a	n/a	-999	10	[-999, -999, -999]	n/a	catFR1	1	R1264P
1148.933	3.518	1154076	PROB	3.487	n/a	n/a	n/a	-999	10	[5, 4, 6]	15.0	catFR1	1	R1264P
1152.451	2.367	1157594	PROB	2.337	n/a	n/a	n/a	-999	10	[1, 5, 6]	12.0	catFR1	1	R1264P
1154.818	6.601	1159961	PROB	6.57	n/a	n/a	n/a	-999	10	[6, 8, 7]	21.0	catFR1	1	R1264P
1161.419	2.784	1166561	PROB	2.751	n/a	n/a	n/a	-999	10	[7, 3, 8]	18.0	catFR1	1	R1264P
1164.203	2.7	1169345	PROB	2.673	n/a	n/a	n/a	-999	10	[7, 3, 8]	18.0	catFR1	1	R1264P
1166.903	2.837	1172045	PROB	2.837	n/a	n/a	n/a	-999	10	[9, 1, 8]	18.0	catFR1	1	R1264P
1169.74	0.014	1174882	STOP	n/a	n/a	n/a	n/a	-999	10	[-999, -999, -999]	n/a	catFR1	1	R1264P
1169.754	0.617	1174896	DISTRACT_END	n/a	n/a	n/a	n/a	-999	10	[0, 0, 0]	n/a	catFR1	1	R1264P
1170.371	0.517	1175513	RETRIEVAL_ORIENT	n/a	n/a	n/a	n/a	-999	10	[0, 0, 0]	n/a	catFR1	1	R1264P
1170.888	2.093	1176030	REC_START	n/a	n/a	n/a	n/a	-999	10	[0, 0, 0]	n/a	catFR1	1	R1264P
1172.981	1.263	1178123	REC_WORD	2.093	n/a	SHIRT	Clothing	4	10	[0, 0, 0]	n/a	catFR1	1	R1264P
1174.244	2.279	1179386	REC_WORD	3.356	n/a	DRESS	n/a	-999	10	[0, 0, 0]	n/a	catFR1	1	R1264P
1176.523	1.084	1181665	REC_WORD	5.635	n/a	PANTS	n/a	-999	10	[0, 0, 0]	n/a	catFR1	1	R1264P
1177.607	2.97	1182749	REC_WORD	6.719	n/a	SOCKS	Clothing	3	10	[0, 0, 0]	n/a	catFR1	1	R1264P
1180.577	1.694	1185718	REC_WORD	9.689	n/a	COMPUTER	Electronics	5	10	[0, 0, 0]	n/a	catFR1	1	R1264P
1182.271	3.118	1187412	REC_WORD	11.383	n/a	TABLET	Electronics	11	10	[0, 0, 0]	n/a	catFR1	1	R1264P
1185.389	14.289	1190530	REC_WORD	14.501	n/a	FLOOR	n/a	-999	10	[0, 0, 0]	n/a	catFR1	1	R1264P
1199.678	1.025	1204818	REC_WORD	28.79	n/a	HAND	n/a	-999	10	[0, 0, 0]	n/a	catFR1	1	R1264P
1200.703	0.194	1205843	REC_WORD_VV	29.815	n/a	<>	n/a	-999	10	[0, 0, 0]	n/a	catFR1	1	R1264P
1200.897	6.281	1206037	REC_END	n/a	n/a	n/a	n/a	-999	10	[0, 0, 0]	n/a	catFR1	1	R1264P
1207.178	0.5	1212318	TRIAL	n/a	n/a	n/a	n/a	-999	11	[0, 0, 0]	n/a	catFR1	1	R1264P
1207.678	10.0	1212818	COUNTDOWN_START	n/a	n/a	n/a	n/a	-999	11	[0, 0, 0]	n/a	catFR1	1	R1264P
1218.106	0.007	1223245	COUNTDOWN_END	n/a	n/a	n/a	n/a	-999	11	[0, 0, 0]	n/a	catFR1	1	R1264P
1218.113	1.6	1223252	ORIENT	n/a	n/a	n/a	n/a	-999	11	[0, 0, 0]	n/a	catFR1	1	R1264P
1219.73	2.067	1224869	ORIENT_OFF	n/a	n/a	n/a	n/a	-999	11	[0, 0, 0]	n/a	catFR1	1	R1264P
1221.797	1.6	1226936	WORD	n/a	wordpools/wordpool_categorized_EN.txt	ZEBRA	Zoo	1	11	[0, 0, 0]	n/a	catFR1	1	R1264P
1223.414	1.0	1228553	WORD_OFF	n/a	n/a	ZEBRA	n/a	1	11	[0, 0, 0]	n/a	catFR1	1	R1264P
1224.414	1.6	1229553	WORD	n/a	wordpools/wordpool_categorized_EN.txt	GIRAFFE	Zoo	2	11	[0, 0, 0]	n/a	catFR1	1	R1264P
1226.031	0.884	1231170	WORD_OFF	n/a	n/a	GIRAFFE	n/a	2	11	[0, 0, 0]	n/a	catFR1	1	R1264P
1226.915	1.6	1232054	WORD	n/a	wordpools/wordpool_categorized_EN.txt	DRESSER	Furniture	3	11	[0, 0, 0]	n/a	catFR1	1	R1264P
1228.533	0.815	1233672	WORD_OFF	n/a	n/a	DRESSER	n/a	3	11	[0, 0, 0]	n/a	catFR1	1	R1264P
1229.348	1.6	1234487	WORD	n/a	wordpools/wordpool_categorized_EN.txt	SHELF	Furniture	4	11	[0, 0, 0]	n/a	catFR1	1	R1264P
1230.966	0.933	1236105	WORD_OFF	n/a	n/a	SHELF	n/a	4	11	[0, 0, 0]	n/a	catFR1	1	R1264P
1231.899	1.6	1237038	WORD	n/a	wordpools/wordpool_categorized_EN.txt	BINDER	OfficeSupplies	5	11	[0, 0, 0]	n/a	catFR1	1	R1264P
1233.516	0.95	1238655	WORD_OFF	n/a	n/a	BINDER	n/a	5	11	[0, 0, 0]	n/a	catFR1	1	R1264P
1234.466	1.6	1239605	WORD	n/a	wordpools/wordpool_categorized_EN.txt	STAPLER	OfficeSupplies	6	11	[0, 0, 0]	n/a	catFR1	1	R1264P
1236.083	0.967	1241222	WORD_OFF	n/a	n/a	STAPLER	n/a	6	11	[0, 0, 0]	n/a	catFR1	1	R1264P
1237.05	1.6	1242188	WORD	n/a	wordpools/wordpool_categorized_EN.txt	NIGHTSTAND	Furniture	7	11	[0, 0, 0]	n/a	catFR1	1	R1264P
1238.667	0.883	1243805	WORD_OFF	n/a	n/a	NIGHTSTAND	n/a	7	11	[0, 0, 0]	n/a	catFR1	1	R1264P
1239.55	1.6	1244688	WORD	n/a	wordpools/wordpool_categorized_EN.txt	COUCH	Furniture	8	11	[0, 0, 0]	n/a	catFR1	1	R1264P
1241.167	0.851	1246305	WORD_OFF	n/a	n/a	COUCH	n/a	8	11	[0, 0, 0]	n/a	catFR1	1	R1264P
1242.018	1.6	1247156	WORD	n/a	wordpools/wordpool_categorized_EN.txt	PANDA	Zoo	9	11	[0, 0, 0]	n/a	catFR1	1	R1264P
1243.635	0.8	1248773	WORD_OFF	n/a	n/a	PANDA	n/a	9	11	[0, 0, 0]	n/a	catFR1	1	R1264P
1244.435	1.6	1249573	WORD	n/a	wordpools/wordpool_categorized_EN.txt	LION	Zoo	10	11	[0, 0, 0]	n/a	catFR1	1	R1264P
1246.052	0.95	1251190	WORD_OFF	n/a	n/a	LION	n/a	10	11	[0, 0, 0]	n/a	catFR1	1	R1264P
1247.002	1.6	1252140	WORD	n/a	wordpools/wordpool_categorized_EN.txt	FOLDER	OfficeSupplies	11	11	[0, 0, 0]	n/a	catFR1	1	R1264P
1248.619	0.967	1253757	WORD_OFF	n/a	n/a	FOLDER	n/a	11	11	[0, 0, 0]	n/a	catFR1	1	R1264P
1249.586	1.6	1254724	WORD	n/a	wordpools/wordpool_categorized_EN.txt	NOTEBOOK	OfficeSupplies	12	11	[0, 0, 0]	n/a	catFR1	1	R1264P
1251.203	0.0	1256341	ENCODING_END	n/a	n/a	n/a	n/a	-999	11	[0, 0, 0]	n/a	catFR1	1	R1264P
1251.203	0.103	1256341	WORD_OFF	n/a	n/a	NOTEBOOK	n/a	12	11	[0, 0, 0]	n/a	catFR1	1	R1264P
1251.306	0.001	1256444	DISTRACT_START	n/a	n/a	n/a	n/a	-999	11	[0, 0, 0]	n/a	catFR1	1	R1264P
1251.307	0.012	1256445	START	n/a	n/a	n/a	n/a	-999	11	[-999, -999, -999]	n/a	catFR1	1	R1264P
1251.319	4.202	1256457	PROB	4.172	n/a	n/a	n/a	-999	11	[6, 5, 7]	18.0	catFR1	1	R1264P
1255.521	2.133	1260658	PROB	2.107	n/a	n/a	n/a	-999	11	[1, 9, 2]	12.0	catFR1	1	R1264P
1257.654	3.334	1262791	PROB	3.309	n/a	n/a	n/a	-999	11	[3, 2, 4]	9.0	catFR1	1	R1264P
1260.988	2.95	1266125	PROB	2.912	n/a	n/a	n/a	-999	11	[9, 6, 7]	22.0	catFR1	1	R1264P
1263.938	3.284	1269075	PROB	3.249	n/a	n/a	n/a	-999	11	[5, 8, 2]	15.0	catFR1	1	R1264P
1267.222	4.254	1272359	PROB	4.254	n/a	n/a	n/a	-999	11	[6, 6, 3]	15.0	catFR1	1	R1264P
1271.476	0.014	1276613	STOP	n/a	n/a	n/a	n/a	-999	11	[-999, -999, -999]	n/a	catFR1	1	R1264P
1271.49	0.65	1276627	DISTRACT_END	n/a	n/a	n/a	n/a	-999	11	[0, 0, 0]	n/a	catFR1	1	R1264P
1272.14	0.517	1277277	RETRIEVAL_ORIENT	n/a	n/a	n/a	n/a	-999	11	[0, 0, 0]	n/a	catFR1	1	R1264P
1272.657	1.074	1277794	REC_START	n/a	n/a	n/a	n/a	-999	11	[0, 0, 0]	n/a	catFR1	1	R1264P
1273.731	6.009	1278868	REC_WORD	1.074	n/a	ZEBRA	Zoo	1	11	[0, 0, 0]	n/a	catFR1	1	R1264P
1279.74	2.431	1284876	REC_WORD	7.083	n/a	PANDA	Zoo	9	11	[0, 0, 0]	n/a	catFR1	1	R1264P
1282.171	1.011	1287307	REC_WORD_VV	9.514	n/a	<>	n/a	-999	11	[0, 0, 0]	n/a	catFR1	1	R1264P
1283.182	2.271	1288318	REC_WORD	10.525	n/a	GIRAFFE	Zoo	2	11	[0, 0, 0]	n/a	catFR1	1	R1264P
1285.453	10.634	1290589	REC_WORD	12.796	n/a	ELEPHANT	n/a	-999	11	[0, 0, 0]	n/a	catFR1	1	R1264P
1296.087	6.58	1301222	REC_WORD	23.43	n/a	ROOM	n/a	-999	11	[0, 0, 0]	n/a	catFR1	1	R1264P
1302.667	6.447	1307802	REC_END	n/a	n/a	n/a	n/a	-999	11	[0, 0, 0]	n/a	catFR1	1	R1264P
1309.114	0.5	1314249	TRIAL	n/a	n/a	n/a	n/a	-999	12	[0, 0, 0]	n/a	catFR1	1	R1264P
1309.614	10.0	1314749	COUNTDOWN_START	n/a	n/a	n/a	n/a	-999	12	[0, 0, 0]	n/a	catFR1	1	R1264P
1320.042	0.007	1325176	COUNTDOWN_END	n/a	n/a	n/a	n/a	-999	12	[0, 0, 0]	n/a	catFR1	1	R1264P
1320.049	1.6	1325183	ORIENT	n/a	n/a	n/a	n/a	-999	12	[0, 0, 0]	n/a	catFR1	1	R1264P
1321.666	2.15	1326800	ORIENT_OFF	n/a	n/a	n/a	n/a	-999	12	[0, 0, 0]	n/a	catFR1	1	R1264P
1323.816	1.6	1328950	WORD	n/a	wordpools/wordpool_categorized_EN.txt	HICKORY	Trees	1	12	[0, 0, 0]	n/a	catFR1	1	R1264P
1325.433	0.867	1330567	WORD_OFF	n/a	n/a	HICKORY	n/a	1	12	[0, 0, 0]	n/a	catFR1	1	R1264P
1326.3	1.6	1331434	WORD	n/a	wordpools/wordpool_categorized_EN.txt	WILLOW	Trees	2	12	[0, 0, 0]	n/a	catFR1	1	R1264P
1327.917	0.933	1333051	WORD_OFF	n/a	n/a	WILLOW	n/a	2	12	[0, 0, 0]	n/a	catFR1	1	R1264P
1328.85	1.6	1333984	WORD	n/a	wordpools/wordpool_categorized_EN.txt	ISLAND	Landscapes	3	12	[0, 0, 0]	n/a	catFR1	1	R1264P
1330.468	0.866	1335602	WORD_OFF	n/a	n/a	ISLAND	n/a	3	12	[0, 0, 0]	n/a	catFR1	1	R1264P
1331.334	1.6	1336468	WORD	n/a	wordpools/wordpool_categorized_EN.txt	CREEK	Landscapes	4	12	[0, 0, 0]	n/a	catFR1	1	R1264P
1332.951	0.917	1338084	WORD_OFF	n/a	n/a	CREEK	n/a	4	12	[0, 0, 0]	n/a	catFR1	1	R1264P
1333.868	1.6	1339001	WORD	n/a	wordpools/wordpool_categorized_EN.txt	PUZZLE	Toys	5	12	[0, 0, 0]	n/a	catFR1	1	R1264P
1335.485	0.867	1340618	WORD_OFF	n/a	n/a	PUZZLE	n/a	5	12	[0, 0, 0]	n/a	catFR1	1	R1264P
1336.352	1.6	1341485	WORD	n/a	wordpools/wordpool_categorized_EN.txt	BLOCKS	Toys	6	12	[0, 0, 0]	n/a	catFR1	1	R1264P
1337.969	0.983	1343102	WORD_OFF	n/a	n/a	BLOCKS	n/a	6	12	[0, 0, 0]	n/a	catFR1	1	R1264P
1338.952	1.6	1344085	WORD	n/a	wordpools/wordpool_categorized_EN.txt	CEDAR	Trees	7	12	[0, 0, 0]	n/a	catFR1	1	R1264P
1340.569	0.851	1345702	WORD_OFF	n/a	n/a	CEDAR	n/a	7	12	[0, 0, 0]	n/a	catFR1	1	R1264P
1341.42	1.6	1346553	WORD	n/a	wordpools/wordpool_categorized_EN.txt	SPRUCE	Trees	8	12	[0, 0, 0]	n/a	catFR1	1	R1264P
1343.037	0.85	1348170	WORD_OFF	n/a	n/a	SPRUCE	n/a	8	12	[0, 0, 0]	n/a	catFR1	1	R1264P
1343.887	1.6	1349020	WORD	n/a	wordpools/wordpool_categorized_EN.txt	FOREST	Landscapes	9	12	[0, 0, 0]	n/a	catFR1	1	R1264P
1345.504	0.817	1350637	WORD_OFF	n/a	n/a	FOREST	n/a	9	12	[0, 0, 0]	n/a	catFR1	1	R1264P
1346.321	1.6	1351454	WORD	n/a	wordpools/wordpool_categorized_EN.txt	LAKE	Landscapes	10	12	[0, 0, 0]	n/a	catFR1	1	R1264P
1347.937	0.884	1353070	WORD_OFF	n/a	n/a	LAKE	n/a	10	12	[0, 0, 0]	n/a	catFR1	1	R1264P
1348.821	1.6	1353954	WORD	n/a	wordpools/wordpool_categorized_EN.txt	BALL	Toys	11	12	[0, 0, 0]	n/a	catFR1	1	R1264P
1350.438	0.767	1355571	WORD_OFF	n/a	n/a	BALL	n/a	11	12	[0, 0, 0]	n/a	catFR1	1	R1264P
1351.205	1.6	1356337	WORD	n/a	wordpools/wordpool_categorized_EN.txt	DOLL	Toys	12	12	[0, 0, 0]	n/a	catFR1	1	R1264P
1352.822	0.0	1357954	ENCODING_END	n/a	n/a	n/a	n/a	-999	12	[0, 0, 0]	n/a	catFR1	1	R1264P
1352.822	0.136	1357954	WORD_OFF	n/a	n/a	DOLL	n/a	12	12	[0, 0, 0]	n/a	catFR1	1	R1264P
1352.958	0.0	1358090	DISTRACT_START	n/a	n/a	n/a	n/a	-999	12	[0, 0, 0]	n/a	catFR1	1	R1264P
1352.958	0.014	1358090	START	n/a	n/a	n/a	n/a	-999	12	[-999, -999, -999]	n/a	catFR1	1	R1264P
1352.972	4.251	1358104	PROB	4.216	n/a	n/a	n/a	-999	12	[2, 9, 7]	18.0	catFR1	1	R1264P
1357.223	4.534	1362355	PROB	4.509	n/a	n/a	n/a	-999	12	[7, 1, 4]	12.0	catFR1	1	R1264P
1361.757	3.651	1366889	PROB	3.614	n/a	n/a	n/a	-999	12	[9, 6, 3]	18.0	catFR1	1	R1264P
1365.408	3.05	1370540	PROB	3.02	n/a	n/a	n/a	-999	12	[2, 8, 9]	19.0	catFR1	1	R1264P
1368.458	3.234	1373590	PROB	3.209	n/a	n/a	n/a	-999	12	[7, 1, 8]	16.0	catFR1	1	R1264P
1371.692	3.288	1376823	PROB	3.288	n/a	n/a	n/a	-999	12	[8, 6, 2]	16.0	catFR1	1	R1264P
1374.98	0.013	1380111	STOP	n/a	n/a	n/a	n/a	-999	12	[-999, -999, -999]	n/a	catFR1	1	R1264P
1374.993	0.516	1380124	DISTRACT_END	n/a	n/a	n/a	n/a	-999	12	[0, 0, 0]	n/a	catFR1	1	R1264P
1375.509	0.518	1380640	RETRIEVAL_ORIENT	n/a	n/a	n/a	n/a	-999	12	[0, 0, 0]	n/a	catFR1	1	R1264P
1376.027	1.649	1381158	REC_START	n/a	n/a	n/a	n/a	-999	12	[0, 0, 0]	n/a	catFR1	1	R1264P
1377.676	1.654	1382807	REC_WORD	1.649	n/a	DOLL	Toys	12	12	[0, 0, 0]	n/a	catFR1	1	R1264P
1379.33	26.607	1384461	REC_WORD	3.303	n/a	MAPLE	n/a	-999	12	[0, 0, 0]	n/a	catFR1	1	R1264P
1405.937	0.101	1411067	REC_WORD_VV	29.91	n/a	<>	n/a	-999	12	[0, 0, 0]	n/a	catFR1	1	R1264P
1406.038	11.329	1411168	REC_END	n/a	n/a	n/a	n/a	-999	12	[0, 0, 0]	n/a	catFR1	1	R1264P
1417.367	0.5	1422496	TRIAL	n/a	n/a	n/a	n/a	-999	13	[0, 0, 0]	n/a	catFR1	1	R1264P
1417.867	10.0	1422996	COUNTDOWN_START	n/a	n/a	n/a	n/a	-999	13	[0, 0, 0]	n/a	catFR1	1	R1264P
1428.295	0.008	1433423	COUNTDOWN_END	n/a	n/a	n/a	n/a	-999	13	[0, 0, 0]	n/a	catFR1	1	R1264P
1428.303	1.6	1433431	ORIENT	n/a	n/a	n/a	n/a	-999	13	[0, 0, 0]	n/a	catFR1	1	R1264P
1429.92	2.183	1435048	ORIENT_OFF	n/a	n/a	n/a	n/a	-999	13	[0, 0, 0]	n/a	catFR1	1	R1264P
1432.103	1.6	1437231	WORD	n/a	wordpools/wordpool_categorized_EN.txt	PEACH	Fruit	1	13	[0, 0, 0]	n/a	catFR1	1	R1264P
1433.72	0.834	1438848	WORD_OFF	n/a	n/a	PEACH	n/a	1	13	[0, 0, 0]	n/a	catFR1	1	R1264P
1434.554	1.6	1439682	WORD	n/a	wordpools/wordpool_categorized_EN.txt	BANANA	Fruit	2	13	[0, 0, 0]	n/a	catFR1	1	R1264P
1436.171	0.783	1441299	WORD_OFF	n/a	n/a	BANANA	n/a	2	13	[0, 0, 0]	n/a	catFR1	1	R1264P
1436.954	1.6	1442082	WORD	n/a	wordpools/wordpool_categorized_EN.txt	SPIDER	Insects	3	13	[0, 0, 0]	n/a	catFR1	1	R1264P
1438.571	0.9	1443699	WORD_OFF	n/a	n/a	SPIDER	n/a	3	13	[0, 0, 0]	n/a	catFR1	1	R1264P
1439.471	1.6	1444599	WORD	n/a	wordpools/wordpool_categorized_EN.txt	BUTTERFLY	Insects	4	13	[0, 0, 0]	n/a	catFR1	1	R1264P
1441.088	0.884	1446216	WORD_OFF	n/a	n/a	BUTTERFLY	n/a	4	13	[0, 0, 0]	n/a	catFR1	1	R1264P
1441.972	1.6	1447100	WORD	n/a	wordpools/wordpool_categorized_EN.txt	CLOUD	Weather	5	13	[0, 0, 0]	n/a	catFR1	1	R1264P
1443.589	0.967	1448717	WORD_OFF	n/a	n/a	CLOUD	n/a	5	13	[0, 0, 0]	n/a	catFR1	1	R1264P
1444.556	1.6	1449684	WORD	n/a	wordpools/wordpool_categorized_EN.txt	RAIN	Weather	6	13	[0, 0, 0]	n/a	catFR1	1	R1264P
1446.173	0.95	1451301	WORD_OFF	n/a	n/a	RAIN	n/a	6	13	[0, 0, 0]	n/a	catFR1	1	R1264P
1447.123	1.6	1452250	WORD	n/a	wordpools/wordpool_categorized_EN.txt	ORANGE	Fruit	7	13	[0, 0, 0]	n/a	catFR1	1	R1264P
1448.74	0.833	1453867	WORD_OFF	n/a	n/a	ORANGE	n/a	7	13	[0, 0, 0]	n/a	catFR1	1	R1264P
1449.573	1.6	1454700	WORD	n/a	wordpools/wordpool_categorized_EN.txt	PEAR	Fruit	8	13	[0, 0, 0]	n/a	catFR1	1	R1264P
1451.174	0.783	1456301	WORD_OFF	n/a	n/a	PEAR	n/a	8	13	[0, 0, 0]	n/a	catFR1	1	R1264P
1451.957	1.6	1457084	WORD	n/a	wordpools/wordpool_categorized_EN.txt	FLY	Insects	9	13	[0, 0, 0]	n/a	catFR1	1	R1264P
1453.574	0.767	1458701	WORD_OFF	n/a	n/a	FLY	n/a	9	13	[0, 0, 0]	n/a	catFR1	1	R1264P
1454.341	1.6	1459468	WORD	n/a	wordpools/wordpool_categorized_EN.txt	BEETLE	Insects	10	13	[0, 0, 0]	n/a	catFR1	1	R1264P
1455.958	0.8	1461085	WORD_OFF	n/a	n/a	BEETLE	n/a	10	13	[0, 0, 0]	n/a	catFR1	1	R1264P
1456.758	1.6	1461885	WORD	n/a	wordpools/wordpool_categorized_EN.txt	WIND	Weather	11	13	[0, 0, 0]	n/a	catFR1	1	R1264P
1458.375	0.8	1463502	WORD_OFF	n/a	n/a	WIND	n/a	11	13	[0, 0, 0]	n/a	catFR1	1	R1264P
1459.175	1.6	1464302	WORD	n/a	wordpools/wordpool_categorized_EN.txt	HUMIDITY	Weather	12	13	[0, 0, 0]	n/a	catFR1	1	R1264P
1460.792	0.001	1465919	WORD_OFF	n/a	n/a	HUMIDITY	n/a	12	13	[0, 0, 0]	n/a	catFR1	1	R1264P
1460.793	0.103	1465920	ENCODING_END	n/a	n/a	n/a	n/a	-999	13	[0, 0, 0]	n/a	catFR1	1	R1264P
1460.896	0.0	1466023	DISTRACT_START	n/a	n/a	n/a	n/a	-999	13	[0, 0, 0]	n/a	catFR1	1	R1264P
1460.896	0.013	1466023	START	n/a	n/a	n/a	n/a	-999	13	[-999, -999, -999]	n/a	catFR1	1	R1264P
1460.909	3.967	1466036	PROB	3.935	n/a	n/a	n/a	-999	13	[6, 5, 3]	14.0	catFR1	1	R1264P
1464.876	3.784	1470003	PROB	3.759	n/a	n/a	n/a	-999	13	[6, 4, 7]	17.0	catFR1	1	R1264P
1468.66	3.184	1473786	PROB	3.159	n/a	n/a	n/a	-999	13	[5, 4, 3]	12.0	catFR1	1	R1264P
1471.844	4.068	1476970	PROB	4.031	n/a	n/a	n/a	-999	13	[9, 7, 5]	21.0	catFR1	1	R1264P
1475.912	3.584	1481038	PROB	3.556	n/a	n/a	n/a	-999	13	[5, 4, 7]	16.0	catFR1	1	R1264P
1479.496	7.563	1484622	PROB	7.563	n/a	n/a	n/a	-999	13	[9, 6, 5]	20.0	catFR1	1	R1264P
1487.059	0.022	1492184	STOP	n/a	n/a	n/a	n/a	-999	13	[-999, -999, -999]	n/a	catFR1	1	R1264P
1487.081	0.599	1492206	DISTRACT_END	n/a	n/a	n/a	n/a	-999	13	[0, 0, 0]	n/a	catFR1	1	R1264P
1487.68	0.518	1492805	RETRIEVAL_ORIENT	n/a	n/a	n/a	n/a	-999	13	[0, 0, 0]	n/a	catFR1	1	R1264P
1488.198	2.282	1493323	REC_START	n/a	n/a	n/a	n/a	-999	13	[0, 0, 0]	n/a	catFR1	1	R1264P
1490.48	0.854	1495605	REC_WORD	2.282	n/a	PEAR	Fruit	8	13	[0, 0, 0]	n/a	catFR1	1	R1264P
1491.334	6.389	1496459	REC_WORD	3.136	n/a	BANANA	Fruit	2	13	[0, 0, 0]	n/a	catFR1	1	R1264P
1497.723	0.85	1502848	REC_WORD	9.525	n/a	THUNDER	n/a	-999	13	[0, 0, 0]	n/a	catFR1	1	R1264P
1498.573	0.469	1503698	REC_WORD_VV	10.375	n/a	<>	n/a	-999	13	[0, 0, 0]	n/a	catFR1	1	R1264P
1499.042	1.972	1504167	REC_WORD	10.844	n/a	RAIN	Weather	6	13	[0, 0, 0]	n/a	catFR1	1	R1264P
1501.014	4.204	1506139	REC_WORD	12.816	n/a	CLOUD	Weather	5	13	[0, 0, 0]	n/a	catFR1	1	R1264P
1505.218	1.0	1510342	REC_WORD	17.02	n/a	HUMIDITY	Weather	12	13	[0, 0, 0]	n/a	catFR1	1	R1264P
1506.218	11.989	1511342	REC_WORD_VV	18.02	n/a	<>	n/a	-999	13	[0, 0, 0]	n/a	catFR1	1	R1264P
1518.207	5.714	1523331	REC_END	n/a	n/a	n/a	n/a	-999	13	[0, 0, 0]	n/a	catFR1	1	R1264P
1523.921	0.5	1529044	TRIAL	n/a	n/a	n/a	n/a	-999	14	[0, 0, 0]	n/a	catFR1	1	R1264P
1524.421	10.0	1529544	COUNTDOWN_START	n/a	n/a	n/a	n/a	-999	14	[0, 0, 0]	n/a	catFR1	1	R1264P
1534.849	0.007	1539972	COUNTDOWN_END	n/a	n/a	n/a	n/a	-999	14	[0, 0, 0]	n/a	catFR1	1	R1264P
1534.856	1.6	1539979	ORIENT	n/a	n/a	n/a	n/a	-999	14	[0, 0, 0]	n/a	catFR1	1	R1264P
1536.473	2.017	1541596	ORIENT_OFF	n/a	n/a	n/a	n/a	-999	14	[0, 0, 0]	n/a	catFR1	1	R1264P
1538.49	1.6	1543613	WORD	n/a	wordpools/wordpool_categorized_EN.txt	COW	FarmAnimals	1	14	[0, 0, 0]	n/a	catFR1	1	R1264P
1540.107	0.834	1545230	WORD_OFF	n/a	n/a	COW	n/a	1	14	[0, 0, 0]	n/a	catFR1	1	R1264P
1540.941	1.6	1546064	WORD	n/a	wordpools/wordpool_categorized_EN.txt	SHEEP	FarmAnimals	2	14	[0, 0, 0]	n/a	catFR1	1	R1264P
1542.557	0.917	1547679	WORD_OFF	n/a	n/a	SHEEP	n/a	2	14	[0, 0, 0]	n/a	catFR1	1	R1264P
1543.474	1.6	1548596	WORD	n/a	wordpools/wordpool_categorized_EN.txt	PIGEON	Birds	3	14	[0, 0, 0]	n/a	catFR1	1	R1264P
1545.091	0.817	1550213	WORD_OFF	n/a	n/a	PIGEON	n/a	3	14	[0, 0, 0]	n/a	catFR1	1	R1264P
1545.908	1.6	1551030	WORD	n/a	wordpools/wordpool_categorized_EN.txt	FINCH	Birds	4	14	[0, 0, 0]	n/a	catFR1	1	R1264P
1547.526	0.783	1552648	WORD_OFF	n/a	n/a	FINCH	n/a	4	14	[0, 0, 0]	n/a	catFR1	1	R1264P
1548.309	1.6	1553431	WORD	n/a	wordpools/wordpool_categorized_EN.txt	TONGS	KitchenTools	5	14	[0, 0, 0]	n/a	catFR1	1	R1264P
1549.926	0.9	1555048	WORD_OFF	n/a	n/a	TONGS	n/a	5	14	[0, 0, 0]	n/a	catFR1	1	R1264P
1550.826	1.6	1555948	WORD	n/a	wordpools/wordpool_categorized_EN.txt	PEELER	KitchenTools	6	14	[0, 0, 0]	n/a	catFR1	1	R1264P
1552.443	0.9	1557565	WORD_OFF	n/a	n/a	PEELER	n/a	6	14	[0, 0, 0]	n/a	catFR1	1	R1264P
1553.343	1.6	1558465	WORD	n/a	wordpools/wordpool_categorized_EN.txt	LAMB	FarmAnimals	7	14	[0, 0, 0]	n/a	catFR1	1	R1264P
1554.96	0.833	1560082	WORD_OFF	n/a	n/a	LAMB	n/a	7	14	[0, 0, 0]	n/a	catFR1	1	R1264P
1555.793	1.6	1560915	WORD	n/a	wordpools/wordpool_categorized_EN.txt	TURKEY	FarmAnimals	8	14	[0, 0, 0]	n/a	catFR1	1	R1264P
1557.41	0.817	1562532	WORD_OFF	n/a	n/a	TURKEY	n/a	8	14	[0, 0, 0]	n/a	catFR1	1	R1264P
1558.227	1.6	1563349	WORD	n/a	wordpools/wordpool_categorized_EN.txt	HAWK	Birds	9	14	[0, 0, 0]	n/a	catFR1	1	R1264P
1559.844	0.817	1564966	WORD_OFF	n/a	n/a	HAWK	n/a	9	14	[0, 0, 0]	n/a	catFR1	1	R1264P
1560.661	1.6	1565783	WORD	n/a	wordpools/wordpool_categorized_EN.txt	ROBIN	Birds	10	14	[0, 0, 0]	n/a	catFR1	1	R1264P
1562.278	0.783	1567399	WORD_OFF	n/a	n/a	ROBIN	n/a	10	14	[0, 0, 0]	n/a	catFR1	1	R1264P
1563.061	1.6	1568182	WORD	n/a	wordpools/wordpool_categorized_EN.txt	WHISK	KitchenTools	11	14	[0, 0, 0]	n/a	catFR1	1	R1264P
1564.678	0.834	1569799	WORD_OFF	n/a	n/a	WHISK	n/a	11	14	[0, 0, 0]	n/a	catFR1	1	R1264P
1565.512	1.6	1570633	WORD	n/a	wordpools/wordpool_categorized_EN.txt	GRATER	KitchenTools	12	14	[0, 0, 0]	n/a	catFR1	1	R1264P
1567.129	0.0	1572250	ENCODING_END	n/a	n/a	n/a	n/a	-999	14	[0, 0, 0]	n/a	catFR1	1	R1264P
1567.129	0.104	1572250	WORD_OFF	n/a	n/a	GRATER	n/a	12	14	[0, 0, 0]	n/a	catFR1	1	R1264P
1567.233	0.0	1572354	DISTRACT_START	n/a	n/a	n/a	n/a	-999	14	[0, 0, 0]	n/a	catFR1	1	R1264P
1567.233	0.013	1572354	START	n/a	n/a	n/a	n/a	-999	14	[-999, -999, -999]	n/a	catFR1	1	R1264P
1567.246	4.2	1572367	PROB	4.166	n/a	n/a	n/a	-999	14	[9, 8, 1]	18.0	catFR1	1	R1264P
1571.446	4.201	1576567	PROB	4.165	n/a	n/a	n/a	-999	14	[7, 7, 9]	23.0	catFR1	1	R1264P
1575.647	2.801	1580768	PROB	2.772	n/a	n/a	n/a	-999	14	[3, 2, 7]	12.0	catFR1	1	R1264P
1578.448	4.134	1583569	PROB	4.108	n/a	n/a	n/a	-999	14	[3, 5, 2]	10.0	catFR1	1	R1264P
1582.582	5.542	1587702	PROB	5.542	n/a	n/a	n/a	-999	14	[7, 5, 9]	21.0	catFR1	1	R1264P
1588.124	0.009	1593244	STOP	n/a	n/a	n/a	n/a	-999	14	[-999, -999, -999]	n/a	catFR1	1	R1264P
1588.133	0.683	1593253	DISTRACT_END	n/a	n/a	n/a	n/a	-999	14	[0, 0, 0]	n/a	catFR1	1	R1264P
1588.816	0.517	1593936	RETRIEVAL_ORIENT	n/a	n/a	n/a	n/a	-999	14	[0, 0, 0]	n/a	catFR1	1	R1264P
1589.333	18.367	1594453	REC_START	n/a	n/a	n/a	n/a	-999	14	[0, 0, 0]	n/a	catFR1	1	R1264P
1607.7	0.745	1612819	REC_WORD	18.367	n/a	MONKEY	n/a	-999	14	[0, 0, 0]	n/a	catFR1	1	R1264P
1608.445	4.537	1613564	REC_WORD	19.112	n/a	GIRAFFE	n/a	-999	14	[0, 0, 0]	n/a	catFR1	1	R1264P
1612.982	6.361	1618101	REC_WORD	23.649	n/a	PIGEON	Birds	3	14	[0, 0, 0]	n/a	catFR1	1	R1264P
1619.343	6.063	1624461	REC_END	n/a	n/a	n/a	n/a	-999	14	[0, 0, 0]	n/a	catFR1	1	R1264P
1625.406	0.5	1630524	TRIAL	n/a	n/a	n/a	n/a	-999	15	[0, 0, 0]	n/a	catFR1	1	R1264P
1625.906	10.0	1631024	COUNTDOWN_START	n/a	n/a	n/a	n/a	-999	15	[0, 0, 0]	n/a	catFR1	1	R1264P
1636.334	0.008	1641452	COUNTDOWN_END	n/a	n/a	n/a	n/a	-999	15	[0, 0, 0]	n/a	catFR1	1	R1264P
1636.342	1.6	1641460	ORIENT	n/a	n/a	n/a	n/a	-999	15	[0, 0, 0]	n/a	catFR1	1	R1264P
1637.959	2.15	1643076	ORIENT_OFF	n/a	n/a	n/a	n/a	-999	15	[0, 0, 0]	n/a	catFR1	1	R1264P
1640.109	1.6	1645226	WORD	n/a	wordpools/wordpool_categorized_EN.txt	STREAM	Landscapes	1	15	[0, 0, 0]	n/a	catFR1	1	R1264P
1641.726	1.0	1646843	WORD_OFF	n/a	n/a	STREAM	n/a	1	15	[0, 0, 0]	n/a	catFR1	1	R1264P
1642.726	1.6	1647843	WORD	n/a	wordpools/wordpool_categorized_EN.txt	HILLS	Landscapes	2	15	[0, 0, 0]	n/a	catFR1	1	R1264P
1644.343	1.001	1649460	WORD_OFF	n/a	n/a	HILLS	n/a	2	15	[0, 0, 0]	n/a	catFR1	1	R1264P
1645.344	1.6	1650461	WORD	n/a	wordpools/wordpool_categorized_EN.txt	OYSTER	OceanAnimals	3	15	[0, 0, 0]	n/a	catFR1	1	R1264P
1646.96	0.967	1652077	WORD_OFF	n/a	n/a	OYSTER	n/a	3	15	[0, 0, 0]	n/a	catFR1	1	R1264P
1647.927	1.6	1653044	WORD	n/a	wordpools/wordpool_categorized_EN.txt	TURTLE	OceanAnimals	4	15	[0, 0, 0]	n/a	catFR1	1	R1264P
1649.529	0.865	1654646	WORD_OFF	n/a	n/a	TURTLE	n/a	4	15	[0, 0, 0]	n/a	catFR1	1	R1264P
1650.394	1.6	1655511	WORD	n/a	wordpools/wordpool_categorized_EN.txt	TRAIN	Vehicles	5	15	[0, 0, 0]	n/a	catFR1	1	R1264P
1652.011	0.817	1657128	WORD_OFF	n/a	n/a	TRAIN	n/a	5	15	[0, 0, 0]	n/a	catFR1	1	R1264P
1652.828	1.6	1657945	WORD	n/a	wordpools/wordpool_categorized_EN.txt	BOAT	Vehicles	6	15	[0, 0, 0]	n/a	catFR1	1	R1264P
1654.445	0.967	1659562	WORD_OFF	n/a	n/a	BOAT	n/a	6	15	[0, 0, 0]	n/a	catFR1	1	R1264P
1655.412	1.6	1660529	WORD	n/a	wordpools/wordpool_categorized_EN.txt	WHALE	OceanAnimals	7	15	[0, 0, 0]	n/a	catFR1	1	R1264P
1657.029	1.0	1662145	WORD_OFF	n/a	n/a	WHALE	n/a	7	15	[0, 0, 0]	n/a	catFR1	1	R1264P
1658.029	1.6	1663145	WORD	n/a	wordpools/wordpool_categorized_EN.txt	JELLYFISH	OceanAnimals	8	15	[0, 0, 0]	n/a	catFR1	1	R1264P
1659.646	0.917	1664762	WORD_OFF	n/a	n/a	JELLYFISH	n/a	8	15	[0, 0, 0]	n/a	catFR1	1	R1264P
1660.563	1.6	1665679	WORD	n/a	wordpools/wordpool_categorized_EN.txt	MOUNTAIN	Landscapes	9	15	[0, 0, 0]	n/a	catFR1	1	R1264P
1662.18	0.834	1667296	WORD_OFF	n/a	n/a	MOUNTAIN	n/a	9	15	[0, 0, 0]	n/a	catFR1	1	R1264P
1663.014	1.6	1668130	WORD	n/a	wordpools/wordpool_categorized_EN.txt	WOODS	Landscapes	10	15	[0, 0, 0]	n/a	catFR1	1	R1264P
1664.631	0.983	1669747	WORD_OFF	n/a	n/a	WOODS	n/a	10	15	[0, 0, 0]	n/a	catFR1	1	R1264P
1665.614	1.6	1670730	WORD	n/a	wordpools/wordpool_categorized_EN.txt	PLANE	Vehicles	11	15	[0, 0, 0]	n/a	catFR1	1	R1264P
1667.231	0.817	1672347	WORD_OFF	n/a	n/a	PLANE	n/a	11	15	[0, 0, 0]	n/a	catFR1	1	R1264P
1668.048	1.6	1673164	WORD	n/a	wordpools/wordpool_categorized_EN.txt	BIKE	Vehicles	12	15	[0, 0, 0]	n/a	catFR1	1	R1264P
1669.665	0.0	1674781	ENCODING_END	n/a	n/a	n/a	n/a	-999	15	[0, 0, 0]	n/a	catFR1	1	R1264P
1669.665	0.134	1674781	WORD_OFF	n/a	n/a	BIKE	n/a	12	15	[0, 0, 0]	n/a	catFR1	1	R1264P
1669.799	0.0	1674915	DISTRACT_START	n/a	n/a	n/a	n/a	-999	15	[0, 0, 0]	n/a	catFR1	1	R1264P
1669.799	0.016	1674915	START	n/a	n/a	n/a	n/a	-999	15	[-999, -999, -999]	n/a	catFR1	1	R1264P
1669.815	3.667	1674931	PROB	3.636	n/a	n/a	n/a	-999	15	[7, 9, 4]	20.0	catFR1	1	R1264P
1673.482	7.001	1678598	PROB	6.977	n/a	n/a	n/a	-999	15	[6, 7, 8]	21.0	catFR1	1	R1264P
1680.483	3.635	1685598	PROB	3.601	n/a	n/a	n/a	-999	15	[7, 9, 2]	18.0	catFR1	1	R1264P
1684.118	3.167	1689233	PROB	3.134	n/a	n/a	n/a	-999	15	[4, 1, 5]	10.0	catFR1	1	R1264P
1687.285	2.606	1692400	PROB	2.606	n/a	n/a	n/a	-999	15	[8, 2, 9]	19.0	catFR1	1	R1264P
1689.891	0.011	1695006	STOP	n/a	n/a	n/a	n/a	-999	15	[-999, -999, -999]	n/a	catFR1	1	R1264P
1689.902	0.65	1695017	DISTRACT_END	n/a	n/a	n/a	n/a	-999	15	[0, 0, 0]	n/a	catFR1	1	R1264P
1690.552	0.517	1695667	RETRIEVAL_ORIENT	n/a	n/a	n/a	n/a	-999	15	[0, 0, 0]	n/a	catFR1	1	R1264P
1691.069	0.81	1696184	REC_START	n/a	n/a	n/a	n/a	-999	15	[0, 0, 0]	n/a	catFR1	1	R1264P
1691.879	3.187	1696994	REC_WORD	0.81	n/a	BIKE	Vehicles	12	15	[0, 0, 0]	n/a	catFR1	1	R1264P
1695.066	12.549	1700181	REC_WORD	3.997	n/a	STREAM	Landscapes	1	15	[0, 0, 0]	n/a	catFR1	1	R1264P
1707.615	2.606	1712729	REC_WORD	16.546	n/a	MOTORCYCLE	n/a	-999	15	[0, 0, 0]	n/a	catFR1	1	R1264P
1710.221	4.458	1715335	REC_WORD	19.152	n/a	VALLEY	n/a	-999	15	[0, 0, 0]	n/a	catFR1	1	R1264P
1714.679	6.401	1719792	REC_WORD	23.61	n/a	LAKE	n/a	-999	15	[0, 0, 0]	n/a	catFR1	1	R1264P
1721.08	9.046	1726193	REC_END	n/a	n/a	n/a	n/a	-999	15	[0, 0, 0]	n/a	catFR1	1	R1264P
1730.126	0.5	1735239	TRIAL	n/a	n/a	n/a	n/a	-999	16	[0, 0, 0]	n/a	catFR1	1	R1264P
1730.626	10.0	1735739	COUNTDOWN_START	n/a	n/a	n/a	n/a	-999	16	[0, 0, 0]	n/a	catFR1	1	R1264P
1741.054	0.008	1746166	COUNTDOWN_END	n/a	n/a	n/a	n/a	-999	16	[0, 0, 0]	n/a	catFR1	1	R1264P
1741.062	1.6	1746174	ORIENT	n/a	n/a	n/a	n/a	-999	16	[0, 0, 0]	n/a	catFR1	1	R1264P
1742.679	2.033	1747791	ORIENT_OFF	n/a	n/a	n/a	n/a	-999	16	[0, 0, 0]	n/a	catFR1	1	R1264P
1744.712	1.6	1749824	WORD	n/a	wordpools/wordpool_categorized_EN.txt	GLUE	OfficeSupplies	1	16	[0, 0, 0]	n/a	catFR1	1	R1264P
1746.329	0.817	1751441	WORD_OFF	n/a	n/a	GLUE	n/a	1	16	[0, 0, 0]	n/a	catFR1	1	R1264P
1747.146	1.6	1752258	WORD	n/a	wordpools/wordpool_categorized_EN.txt	TAPE	OfficeSupplies	2	16	[0, 0, 0]	n/a	catFR1	1	R1264P
1748.763	0.984	1753875	WORD_OFF	n/a	n/a	TAPE	n/a	2	16	[0, 0, 0]	n/a	catFR1	1	R1264P
1749.747	1.6	1754859	WORD	n/a	wordpools/wordpool_categorized_EN.txt	LIME	Fruit	3	16	[0, 0, 0]	n/a	catFR1	1	R1264P
1751.364	0.866	1756476	WORD_OFF	n/a	n/a	LIME	n/a	3	16	[0, 0, 0]	n/a	catFR1	1	R1264P
1752.23	1.6	1757342	WORD	n/a	wordpools/wordpool_categorized_EN.txt	BLUEBERRY	Fruit	4	16	[0, 0, 0]	n/a	catFR1	1	R1264P
1753.847	0.967	1758958	WORD_OFF	n/a	n/a	BLUEBERRY	n/a	4	16	[0, 0, 0]	n/a	catFR1	1	R1264P
1754.814	1.6	1759925	WORD	n/a	wordpools/wordpool_categorized_EN.txt	LILY	Flowers	5	16	[0, 0, 0]	n/a	catFR1	1	R1264P
1756.431	0.784	1761542	WORD_OFF	n/a	n/a	LILY	n/a	5	16	[0, 0, 0]	n/a	catFR1	1	R1264P
1757.215	1.6	1762326	WORD	n/a	wordpools/wordpool_categorized_EN.txt	DAISY	Flowers	6	16	[0, 0, 0]	n/a	catFR1	1	R1264P
1758.832	0.85	1763943	WORD_OFF	n/a	n/a	DAISY	n/a	6	16	[0, 0, 0]	n/a	catFR1	1	R1264P
1759.682	1.6	1764793	WORD	n/a	wordpools/wordpool_categorized_EN.txt	LEMON	Fruit	7	16	[0, 0, 0]	n/a	catFR1	1	R1264P
1761.299	0.933	1766410	WORD_OFF	n/a	n/a	LEMON	n/a	7	16	[0, 0, 0]	n/a	catFR1	1	R1264P
1762.232	1.6	1767343	WORD	n/a	wordpools/wordpool_categorized_EN.txt	CHERRY	Fruit	8	16	[0, 0, 0]	n/a	catFR1	1	R1264P
1763.849	1.0	1768960	WORD_OFF	n/a	n/a	CHERRY	n/a	8	16	[0, 0, 0]	n/a	catFR1	1	R1264P
1764.849	1.6	1769960	WORD	n/a	wordpools/wordpool_categorized_EN.txt	ERASER	OfficeSupplies	9	16	[0, 0, 0]	n/a	catFR1	1	R1264P
1766.466	0.867	1771577	WORD_OFF	n/a	n/a	ERASER	n/a	9	16	[0, 0, 0]	n/a	catFR1	1	R1264P
1767.333	1.6	1772444	WORD	n/a	wordpools/wordpool_categorized_EN.txt	PENCIL	OfficeSupplies	10	16	[0, 0, 0]	n/a	catFR1	1	R1264P
1768.95	0.9	1774061	WORD_OFF	n/a	n/a	PENCIL	n/a	10	16	[0, 0, 0]	n/a	catFR1	1	R1264P
1769.85	1.6	1774961	WORD	n/a	wordpools/wordpool_categorized_EN.txt	LILAC	Flowers	11	16	[0, 0, 0]	n/a	catFR1	1	R1264P
1771.467	0.917	1776578	WORD_OFF	n/a	n/a	LILAC	n/a	11	16	[0, 0, 0]	n/a	catFR1	1	R1264P
1772.384	1.6	1777494	WORD	n/a	wordpools/wordpool_categorized_EN.txt	TULIP	Flowers	12	16	[0, 0, 0]	n/a	catFR1	1	R1264P
1774.001	0.0	1779111	ENCODING_END	n/a	n/a	n/a	n/a	-999	16	[0, 0, 0]	n/a	catFR1	1	R1264P
1774.001	0.102	1779111	WORD_OFF	n/a	n/a	TULIP	n/a	12	16	[0, 0, 0]	n/a	catFR1	1	R1264P
1774.103	0.001	1779213	DISTRACT_START	n/a	n/a	n/a	n/a	-999	16	[0, 0, 0]	n/a	catFR1	1	R1264P
1774.104	0.014	1779214	START	n/a	n/a	n/a	n/a	-999	16	[-999, -999, -999]	n/a	catFR1	1	R1264P
1774.118	3.851	1779228	PROB	3.821	n/a	n/a	n/a	-999	16	[5, 8, 5]	18.0	catFR1	1	R1264P
1777.969	3.067	1783079	PROB	3.034	n/a	n/a	n/a	-999	16	[1, 3, 6]	10.0	catFR1	1	R1264P
1781.036	2.834	1786146	PROB	2.8	n/a	n/a	n/a	-999	16	[9, 9, 1]	19.0	catFR1	1	R1264P
1783.87	2.267	1788980	PROB	2.238	n/a	n/a	n/a	-999	16	[3, 1, 9]	13.0	catFR1	1	R1264P
1786.137	3.2	1791247	PROB	3.162	n/a	n/a	n/a	-999	16	[7, 2, 4]	13.0	catFR1	1	R1264P
1789.337	3.318	1794447	PROB	3.29	n/a	n/a	n/a	-999	16	[4, 3, 3]	10.0	catFR1	1	R1264P
1792.655	4.213	1797764	PROB	4.213	n/a	n/a	n/a	-999	16	[5, 6, 9]	20.0	catFR1	1	R1264P
1796.868	0.021	1801977	STOP	n/a	n/a	n/a	n/a	-999	16	[-999, -999, -999]	n/a	catFR1	1	R1264P
1796.889	0.7	1801998	DISTRACT_END	n/a	n/a	n/a	n/a	-999	16	[0, 0, 0]	n/a	catFR1	1	R1264P
1797.589	0.518	1802698	RETRIEVAL_ORIENT	n/a	n/a	n/a	n/a	-999	16	[0, 0, 0]	n/a	catFR1	1	R1264P
1798.107	5.061	1803216	REC_START	n/a	n/a	n/a	n/a	-999	16	[0, 0, 0]	n/a	catFR1	1	R1264P
1803.168	6.794	1808277	REC_WORD	5.061	n/a	BLUEBERRY	Fruit	4	16	[0, 0, 0]	n/a	catFR1	1	R1264P
1809.962	1.428	1815071	REC_WORD	11.855	n/a	STRING	n/a	-999	16	[0, 0, 0]	n/a	catFR1	1	R1264P
1811.39	1.218	1816498	REC_WORD	13.283	n/a	LILAC	Flowers	11	16	[0, 0, 0]	n/a	catFR1	1	R1264P
1812.608	3.392	1817716	REC_WORD	14.501	n/a	LIME	Fruit	3	16	[0, 0, 0]	n/a	catFR1	1	R1264P
1816.0	12.119	1821108	REC_WORD	17.893	n/a	LEMON	Fruit	7	16	[0, 0, 0]	n/a	catFR1	1	R1264P
1828.119	6.61	1833227	REC_END	n/a	n/a	n/a	n/a	-999	16	[0, 0, 0]	n/a	catFR1	1	R1264P
1834.729	0.5	1839836	TRIAL	n/a	n/a	n/a	n/a	-999	17	[0, 0, 0]	n/a	catFR1	1	R1264P
1835.229	10.0	1840336	COUNTDOWN_START	n/a	n/a	n/a	n/a	-999	17	[0, 0, 0]	n/a	catFR1	1	R1264P
1845.657	0.008	1850764	COUNTDOWN_END	n/a	n/a	n/a	n/a	-999	17	[0, 0, 0]	n/a	catFR1	1	R1264P
1845.665	1.6	1850772	ORIENT	n/a	n/a	n/a	n/a	-999	17	[0, 0, 0]	n/a	catFR1	1	R1264P
1847.282	2.2	1852389	ORIENT_OFF	n/a	n/a	n/a	n/a	-999	17	[0, 0, 0]	n/a	catFR1	1	R1264P
1849.482	1.6	1854588	WORD	n/a	wordpools/wordpool_categorized_EN.txt	STOVE	Appliances	1	17	[0, 0, 0]	n/a	catFR1	1	R1264P
1851.099	0.817	1856205	WORD_OFF	n/a	n/a	STOVE	n/a	1	17	[0, 0, 0]	n/a	catFR1	1	R1264P
1851.916	1.6	1857022	WORD	n/a	wordpools/wordpool_categorized_EN.txt	IRON	Appliances	2	17	[0, 0, 0]	n/a	catFR1	1	R1264P
1853.534	0.799	1858640	WORD_OFF	n/a	n/a	IRON	n/a	2	17	[0, 0, 0]	n/a	catFR1	1	R1264P
1854.333	1.6	1859439	WORD	n/a	wordpools/wordpool_categorized_EN.txt	TRUMPET	Instruments	3	17	[0, 0, 0]	n/a	catFR1	1	R1264P
1855.95	0.817	1861056	WORD_OFF	n/a	n/a	TRUMPET	n/a	3	17	[0, 0, 0]	n/a	catFR1	1	R1264P
1856.767	1.6	1861873	WORD	n/a	wordpools/wordpool_categorized_EN.txt	ORGAN	Instruments	4	17	[0, 0, 0]	n/a	catFR1	1	R1264P
1858.384	0.9	1863490	WORD_OFF	n/a	n/a	ORGAN	n/a	4	17	[0, 0, 0]	n/a	catFR1	1	R1264P
1859.284	1.6	1864390	WORD	n/a	wordpools/wordpool_categorized_EN.txt	FOOT	BodyParts	5	17	[0, 0, 0]	n/a	catFR1	1	R1264P
1860.901	0.85	1866007	WORD_OFF	n/a	n/a	FOOT	n/a	5	17	[0, 0, 0]	n/a	catFR1	1	R1264P
1861.751	1.6	1866857	WORD	n/a	wordpools/wordpool_categorized_EN.txt	LEG	BodyParts	6	17	[0, 0, 0]	n/a	catFR1	1	R1264P
1863.368	0.933	1868474	WORD_OFF	n/a	n/a	LEG	n/a	6	17	[0, 0, 0]	n/a	catFR1	1	R1264P
1864.301	1.6	1869407	WORD	n/a	wordpools/wordpool_categorized_EN.txt	REFRIGERATOR	Appliances	7	17	[0, 0, 0]	n/a	catFR1	1	R1264P
1865.918	0.917	1871024	WORD_OFF	n/a	n/a	REFRIGERATOR	n/a	7	17	[0, 0, 0]	n/a	catFR1	1	R1264P
1866.835	1.6	1871941	WORD	n/a	wordpools/wordpool_categorized_EN.txt	BLENDER	Appliances	8	17	[0, 0, 0]	n/a	catFR1	1	R1264P
1868.452	0.767	1873557	WORD_OFF	n/a	n/a	BLENDER	n/a	8	17	[0, 0, 0]	n/a	catFR1	1	R1264P
1869.219	1.6	1874324	WORD	n/a	wordpools/wordpool_categorized_EN.txt	PIANO	Instruments	9	17	[0, 0, 0]	n/a	catFR1	1	R1264P
1870.836	0.767	1875941	WORD_OFF	n/a	n/a	PIANO	n/a	9	17	[0, 0, 0]	n/a	catFR1	1	R1264P
1871.603	1.6	1876708	WORD	n/a	wordpools/wordpool_categorized_EN.txt	CELLO	Instruments	10	17	[0, 0, 0]	n/a	catFR1	1	R1264P
1873.22	0.833	1878325	WORD_OFF	n/a	n/a	CELLO	n/a	10	17	[0, 0, 0]	n/a	catFR1	1	R1264P
1874.053	1.6	1879158	WORD	n/a	wordpools/wordpool_categorized_EN.txt	EYE	BodyParts	11	17	[0, 0, 0]	n/a	catFR1	1	R1264P
1875.67	0.884	1880775	WORD_OFF	n/a	n/a	EYE	n/a	11	17	[0, 0, 0]	n/a	catFR1	1	R1264P
1876.554	1.6	1881659	WORD	n/a	wordpools/wordpool_categorized_EN.txt	ELBOW	BodyParts	12	17	[0, 0, 0]	n/a	catFR1	1	R1264P
1878.171	0.0	1883276	WORD_OFF	n/a	n/a	ELBOW	n/a	12	17	[0, 0, 0]	n/a	catFR1	1	R1264P
1878.171	0.104	1883276	ENCODING_END	n/a	n/a	n/a	n/a	-999	17	[0, 0, 0]	n/a	catFR1	1	R1264P
1878.275	0.0	1883380	DISTRACT_START	n/a	n/a	n/a	n/a	-999	17	[0, 0, 0]	n/a	catFR1	1	R1264P
1878.275	0.012	1883380	START	n/a	n/a	n/a	n/a	-999	17	[-999, -999, -999]	n/a	catFR1	1	R1264P
1878.287	4.068	1883392	PROB	4.045	n/a	n/a	n/a	-999	17	[2, 4, 2]	8.0	catFR1	1	R1264P
1882.355	2.534	1887460	PROB	2.496	n/a	n/a	n/a	-999	17	[2, 4, 6]	12.0	catFR1	1	R1264P
1884.889	4.584	1889994	PROB	4.546	n/a	n/a	n/a	-999	17	[9, 2, 4]	15.0	catFR1	1	R1264P
1889.473	2.584	1894577	PROB	2.555	n/a	n/a	n/a	-999	17	[7, 3, 4]	14.0	catFR1	1	R1264P
1892.057	3.284	1897161	PROB	3.25	n/a	n/a	n/a	-999	17	[5, 3, 3]	11.0	catFR1	1	R1264P
1895.341	2.617	1900445	PROB	2.582	n/a	n/a	n/a	-999	17	[9, 2, 2]	13.0	catFR1	1	R1264P
1897.958	5.166	1903062	PROB	5.166	n/a	n/a	n/a	-999	17	[3, 3, 8]	14.0	catFR1	1	R1264P
1903.124	0.018	1908228	STOP	n/a	n/a	n/a	n/a	-999	17	[-999, -999, -999]	n/a	catFR1	1	R1264P
1903.142	0.55	1908246	DISTRACT_END	n/a	n/a	n/a	n/a	-999	17	[0, 0, 0]	n/a	catFR1	1	R1264P
1903.692	0.518	1908796	RETRIEVAL_ORIENT	n/a	n/a	n/a	n/a	-999	17	[0, 0, 0]	n/a	catFR1	1	R1264P
1904.21	1.995	1909314	REC_START	n/a	n/a	n/a	n/a	-999	17	[0, 0, 0]	n/a	catFR1	1	R1264P
1906.205	1.483	1911308	REC_WORD	1.995	n/a	STRING	n/a	-999	17	[0, 0, 0]	n/a	catFR1	1	R1264P
1907.688	0.988	1912791	REC_WORD	3.478	n/a	LIME	n/a	-999	17	[0, 0, 0]	n/a	catFR1	1	R1264P
1908.676	1.011	1913779	REC_WORD	4.466	n/a	LILY	n/a	-999	17	[0, 0, 0]	n/a	catFR1	1	R1264P
1909.687	3.333	1914790	REC_WORD	5.477	n/a	LILAC	n/a	-999	17	[0, 0, 0]	n/a	catFR1	1	R1264P
1913.02	16.745	1918123	REC_WORD	8.81	n/a	TAPE	n/a	-999	17	[0, 0, 0]	n/a	catFR1	1	R1264P
1929.765	4.454	1934867	REC_WORD	25.555	n/a	ARM	n/a	-999	17	[0, 0, 0]	n/a	catFR1	1	R1264P
1934.219	6.23	1939321	REC_END	n/a	n/a	n/a	n/a	-999	17	[0, 0, 0]	n/a	catFR1	1	R1264P
1940.449	0.5	1945551	TRIAL	n/a	n/a	n/a	n/a	-999	18	[0, 0, 0]	n/a	catFR1	1	R1264P
1940.949	10.0	1946051	COUNTDOWN_START	n/a	n/a	n/a	n/a	-999	18	[0, 0, 0]	n/a	catFR1	1	R1264P
1951.377	0.008	1956478	COUNTDOWN_END	n/a	n/a	n/a	n/a	-999	18	[0, 0, 0]	n/a	catFR1	1	R1264P
1951.385	1.6	1956486	ORIENT	n/a	n/a	n/a	n/a	-999	18	[0, 0, 0]	n/a	catFR1	1	R1264P
1953.001	2.034	1958102	ORIENT_OFF	n/a	n/a	n/a	n/a	-999	18	[0, 0, 0]	n/a	catFR1	1	R1264P
1955.035	1.6	1960136	WORD	n/a	wordpools/wordpool_categorized_EN.txt	CHIMPANZEE	Zoo	1	18	[0, 0, 0]	n/a	catFR1	1	R1264P
1956.652	0.885	1961753	WORD_OFF	n/a	n/a	CHIMPANZEE	n/a	1	18	[0, 0, 0]	n/a	catFR1	1	R1264P
1957.537	1.6	1962638	WORD	n/a	wordpools/wordpool_categorized_EN.txt	ELEPHANT	Zoo	2	18	[0, 0, 0]	n/a	catFR1	1	R1264P
1959.153	1.0	1964254	WORD_OFF	n/a	n/a	ELEPHANT	n/a	2	18	[0, 0, 0]	n/a	catFR1	1	R1264P
1960.153	1.6	1965254	WORD	n/a	wordpools/wordpool_categorized_EN.txt	WASHER	Appliances	3	18	[0, 0, 0]	n/a	catFR1	1	R1264P
1961.77	0.983	1966871	WORD_OFF	n/a	n/a	WASHER	n/a	3	18	[0, 0, 0]	n/a	catFR1	1	R1264P
1962.753	1.6	1967854	WORD	n/a	wordpools/wordpool_categorized_EN.txt	TOASTER	Appliances	4	18	[0, 0, 0]	n/a	catFR1	1	R1264P
1964.37	0.8	1969470	WORD_OFF	n/a	n/a	TOASTER	n/a	4	18	[0, 0, 0]	n/a	catFR1	1	R1264P
1965.17	1.6	1970270	WORD	n/a	wordpools/wordpool_categorized_EN.txt	WINDOW	Building	5	18	[0, 0, 0]	n/a	catFR1	1	R1264P
1966.787	0.951	1971887	WORD_OFF	n/a	n/a	WINDOW	n/a	5	18	[0, 0, 0]	n/a	catFR1	1	R1264P
1967.738	1.6	1972838	WORD	n/a	wordpools/wordpool_categorized_EN.txt	HALLWAY	Building	6	18	[0, 0, 0]	n/a	catFR1	1	R1264P
1969.355	0.966	1974455	WORD_OFF	n/a	n/a	HALLWAY	n/a	6	18	[0, 0, 0]	n/a	catFR1	1	R1264P
1970.321	1.6	1975421	WORD	n/a	wordpools/wordpool_categorized_EN.txt	GORILLA	Zoo	7	18	[0, 0, 0]	n/a	catFR1	1	R1264P
1971.938	0.901	1977038	WORD_OFF	n/a	n/a	GORILLA	n/a	7	18	[0, 0, 0]	n/a	catFR1	1	R1264P
1972.839	1.6	1977939	WORD	n/a	wordpools/wordpool_categorized_EN.txt	BEAR	Zoo	8	18	[0, 0, 0]	n/a	catFR1	1	R1264P
1974.456	0.933	1979556	WORD_OFF	n/a	n/a	BEAR	n/a	8	18	[0, 0, 0]	n/a	catFR1	1	R1264P
1975.389	1.6	1980489	WORD	n/a	wordpools/wordpool_categorized_EN.txt	DISHWASHER	Appliances	9	18	[0, 0, 0]	n/a	catFR1	1	R1264P
1977.006	0.784	1982106	WORD_OFF	n/a	n/a	DISHWASHER	n/a	9	18	[0, 0, 0]	n/a	catFR1	1	R1264P
1977.79	1.6	1982890	WORD	n/a	wordpools/wordpool_categorized_EN.txt	DRYER	Appliances	10	18	[0, 0, 0]	n/a	catFR1	1	R1264P
1979.406	0.934	1984506	WORD_OFF	n/a	n/a	DRYER	n/a	10	18	[0, 0, 0]	n/a	catFR1	1	R1264P
1980.34	1.6	1985440	WORD	n/a	wordpools/wordpool_categorized_EN.txt	ATTIC	Building	11	18	[0, 0, 0]	n/a	catFR1	1	R1264P
1981.957	0.9	1987057	WORD_OFF	n/a	n/a	ATTIC	n/a	11	18	[0, 0, 0]	n/a	catFR1	1	R1264P
1982.857	1.6	1987956	WORD	n/a	wordpools/wordpool_categorized_EN.txt	BATHROOM	Building	12	18	[0, 0, 0]	n/a	catFR1	1	R1264P
1984.474	0.0	1989573	ENCODING_END	n/a	n/a	n/a	n/a	-999	18	[0, 0, 0]	n/a	catFR1	1	R1264P
1984.474	0.139	1989573	WORD_OFF	n/a	n/a	BATHROOM	n/a	12	18	[0, 0, 0]	n/a	catFR1	1	R1264P
1984.613	0.0	1989712	DISTRACT_START	n/a	n/a	n/a	n/a	-999	18	[0, 0, 0]	n/a	catFR1	1	R1264P
1984.613	0.011	1989712	START	n/a	n/a	n/a	n/a	-999	18	[-999, -999, -999]	n/a	catFR1	1	R1264P
1984.624	3.567	1989723	PROB	3.531	n/a	n/a	n/a	-999	18	[9, 5, 5]	19.0	catFR1	1	R1264P
1988.191	5.635	1993290	PROB	5.604	n/a	n/a	n/a	-999	18	[6, 8, 5]	19.0	catFR1	1	R1264P
1993.826	3.517	1998925	PROB	3.49	n/a	n/a	n/a	-999	18	[2, 2, 5]	9.0	catFR1	1	R1264P
1997.343	2.167	2002442	PROB	2.132	n/a	n/a	n/a	-999	18	[1, 8, 2]	11.0	catFR1	1	R1264P
1999.51	3.018	2004609	PROB	2.981	n/a	n/a	n/a	-999	18	[2, 4, 5]	11.0	catFR1	1	R1264P
2002.528	3.539	2007626	PROB	3.539	n/a	n/a	n/a	-999	18	[7, 6, 6]	19.0	catFR1	1	R1264P
2006.067	0.011	2011165	STOP	n/a	n/a	n/a	n/a	-999	18	[-999, -999, -999]	n/a	catFR1	1	R1264P
2006.078	0.617	2011176	DISTRACT_END	n/a	n/a	n/a	n/a	-999	18	[0, 0, 0]	n/a	catFR1	1	R1264P
2006.695	0.517	2011793	RETRIEVAL_ORIENT	n/a	n/a	n/a	n/a	-999	18	[0, 0, 0]	n/a	catFR1	1	R1264P
2007.212	1.544	2012310	REC_START	n/a	n/a	n/a	n/a	-999	18	[0, 0, 0]	n/a	catFR1	1	R1264P
2008.756	1.822	2013854	REC_WORD	1.544	n/a	CHIMPANZEE	Zoo	1	18	[0, 0, 0]	n/a	catFR1	1	R1264P
2010.578	1.166	2015676	REC_WORD	3.366	n/a	GORILLA	Zoo	7	18	[0, 0, 0]	n/a	catFR1	1	R1264P
2011.744	1.109	2016842	REC_WORD	4.532	n/a	LION	n/a	-999	18	[0, 0, 0]	n/a	catFR1	1	R1264P
2012.853	24.369	2017951	REC_WORD	5.641	n/a	BEAR	Zoo	8	18	[0, 0, 0]	n/a	catFR1	1	R1264P
2037.222	6.463	2042319	REC_END	n/a	n/a	n/a	n/a	-999	18	[0, 0, 0]	n/a	catFR1	1	R1264P
2043.685	0.5	2048781	TRIAL	n/a	n/a	n/a	n/a	-999	19	[0, 0, 0]	n/a	catFR1	1	R1264P
2044.185	10.0	2049281	COUNTDOWN_START	n/a	n/a	n/a	n/a	-999	19	[0, 0, 0]	n/a	catFR1	1	R1264P
2054.613	0.008	2059709	COUNTDOWN_END	n/a	n/a	n/a	n/a	-999	19	[0, 0, 0]	n/a	catFR1	1	R1264P
2054.621	1.6	2059717	ORIENT	n/a	n/a	n/a	n/a	-999	19	[0, 0, 0]	n/a	catFR1	1	R1264P
2056.238	2.1	2061334	ORIENT_OFF	n/a	n/a	n/a	n/a	-999	19	[0, 0, 0]	n/a	catFR1	1	R1264P
2058.338	1.6	2063434	WORD	n/a	wordpools/wordpool_categorized_EN.txt	GOOSE	Birds	1	19	[0, 0, 0]	n/a	catFR1	1	R1264P
2059.955	0.8	2065050	WORD_OFF	n/a	n/a	GOOSE	n/a	1	19	[0, 0, 0]	n/a	catFR1	1	R1264P
2060.755	1.6	2065850	WORD	n/a	wordpools/wordpool_categorized_EN.txt	DOVE	Birds	2	19	[0, 0, 0]	n/a	catFR1	1	R1264P
2062.372	0.834	2067467	WORD_OFF	n/a	n/a	DOVE	n/a	2	19	[0, 0, 0]	n/a	catFR1	1	R1264P
2063.206	1.6	2068301	WORD	n/a	wordpools/wordpool_categorized_EN.txt	GUITAR	Instruments	3	19	[0, 0, 0]	n/a	catFR1	1	R1264P
2064.823	0.833	2069918	WORD_OFF	n/a	n/a	GUITAR	n/a	3	19	[0, 0, 0]	n/a	catFR1	1	R1264P
2065.656	1.6	2070751	WORD	n/a	wordpools/wordpool_categorized_EN.txt	FLUTE	Instruments	4	19	[0, 0, 0]	n/a	catFR1	1	R1264P
2067.273	0.817	2072368	WORD_OFF	n/a	n/a	FLUTE	n/a	4	19	[0, 0, 0]	n/a	catFR1	1	R1264P
2068.09	1.6	2073185	WORD	n/a	wordpools/wordpool_categorized_EN.txt	PRINTER	Electronics	5	19	[0, 0, 0]	n/a	catFR1	1	R1264P
2069.707	0.95	2074802	WORD_OFF	n/a	n/a	PRINTER	n/a	5	19	[0, 0, 0]	n/a	catFR1	1	R1264P
2070.657	1.6	2075752	WORD	n/a	wordpools/wordpool_categorized_EN.txt	STEREO	Electronics	6	19	[0, 0, 0]	n/a	catFR1	1	R1264P
2072.274	0.967	2077369	WORD_OFF	n/a	n/a	STEREO	n/a	6	19	[0, 0, 0]	n/a	catFR1	1	R1264P
2073.241	1.6	2078336	WORD	n/a	wordpools/wordpool_categorized_EN.txt	BLUEBIRD	Birds	7	19	[0, 0, 0]	n/a	catFR1	1	R1264P
2074.858	0.933	2079953	WORD_OFF	n/a	n/a	BLUEBIRD	n/a	7	19	[0, 0, 0]	n/a	catFR1	1	R1264P
2075.791	1.6	2080886	WORD	n/a	wordpools/wordpool_categorized_EN.txt	DUCK	Birds	8	19	[0, 0, 0]	n/a	catFR1	1	R1264P
2077.408	0.984	2082503	WORD_OFF	n/a	n/a	DUCK	n/a	8	19	[0, 0, 0]	n/a	catFR1	1	R1264P
2078.392	1.6	2083486	WORD	n/a	wordpools/wordpool_categorized_EN.txt	BANJO	Instruments	9	19	[0, 0, 0]	n/a	catFR1	1	R1264P
2080.009	0.983	2085103	WORD_OFF	n/a	n/a	BANJO	n/a	9	19	[0, 0, 0]	n/a	catFR1	1	R1264P
2080.992	1.6	2086086	WORD	n/a	wordpools/wordpool_categorized_EN.txt	TROMBONE	Instruments	10	19	[0, 0, 0]	n/a	catFR1	1	R1264P
2082.609	0.884	2087703	WORD_OFF	n/a	n/a	TROMBONE	n/a	10	19	[0, 0, 0]	n/a	catFR1	1	R1264P
2083.493	1.6	2088587	WORD	n/a	wordpools/wordpool_categorized_EN.txt	PHONE	Electronics	11	19	[0, 0, 0]	n/a	catFR1	1	R1264P
2085.109	0.818	2090203	WORD_OFF	n/a	n/a	PHONE	n/a	11	19	[0, 0, 0]	n/a	catFR1	1	R1264P
2085.927	1.6	2091021	WORD	n/a	wordpools/wordpool_categorized_EN.txt	TELEVISION	Electronics	12	19	[0, 0, 0]	n/a	catFR1	1	R1264P
2087.543	0.001	2092637	WORD_OFF	n/a	n/a	TELEVISION	n/a	12	19	[0, 0, 0]	n/a	catFR1	1	R1264P
2087.544	0.103	2092638	ENCODING_END	n/a	n/a	n/a	n/a	-999	19	[0, 0, 0]	n/a	catFR1	1	R1264P
2087.647	0.0	2092741	DISTRACT_START	n/a	n/a	n/a	n/a	-999	19	[0, 0, 0]	n/a	catFR1	1	R1264P
2087.647	0.013	2092741	START	n/a	n/a	n/a	n/a	-999	19	[-999, -999, -999]	n/a	catFR1	1	R1264P
2087.66	4.084	2092754	PROB	4.047	n/a	n/a	n/a	-999	19	[7, 6, 4]	17.0	catFR1	1	R1264P
2091.744	2.785	2096838	PROB	2.755	n/a	n/a	n/a	-999	19	[2, 2, 1]	5.0	catFR1	1	R1264P
2094.529	2.9	2099623	PROB	2.874	n/a	n/a	n/a	-999	19	[1, 9, 3]	13.0	catFR1	1	R1264P
2097.429	2.45	2102522	PROB	2.414	n/a	n/a	n/a	-999	19	[1, 4, 4]	9.0	catFR1	1	R1264P
2099.879	2.734	2104972	PROB	2.709	n/a	n/a	n/a	-999	19	[2, 8, 9]	19.0	catFR1	1	R1264P
2102.613	2.451	2107706	PROB	2.423	n/a	n/a	n/a	-999	19	[1, 4, 2]	7.0	catFR1	1	R1264P
2105.064	3.324	2110157	PROB	3.324	n/a	n/a	n/a	-999	19	[6, 2, 7]	15.0	catFR1	1	R1264P
2108.388	0.01	2113481	STOP	n/a	n/a	n/a	n/a	-999	19	[-999, -999, -999]	n/a	catFR1	1	R1264P
2108.398	0.6	2113491	DISTRACT_END	n/a	n/a	n/a	n/a	-999	19	[0, 0, 0]	n/a	catFR1	1	R1264P
2108.998	0.517	2114091	RETRIEVAL_ORIENT	n/a	n/a	n/a	n/a	-999	19	[0, 0, 0]	n/a	catFR1	1	R1264P
2109.515	1.437	2114608	REC_START	n/a	n/a	n/a	n/a	-999	19	[0, 0, 0]	n/a	catFR1	1	R1264P
2110.952	1.211	2116045	REC_WORD	1.437	n/a	CHIMPANZEE	n/a	-999	19	[0, 0, 0]	n/a	catFR1	1	R1264P
2112.163	0.685	2117256	REC_WORD	2.648	n/a	LION	n/a	-999	19	[0, 0, 0]	n/a	catFR1	1	R1264P
2112.848	0.954	2117941	REC_WORD	3.333	n/a	GORILLA	n/a	-999	19	[0, 0, 0]	n/a	catFR1	1	R1264P
2113.802	20.443	2118895	REC_WORD	4.287	n/a	BEAR	n/a	-999	19	[0, 0, 0]	n/a	catFR1	1	R1264P
2134.245	5.28	2139337	REC_WORD	24.73	n/a	ORANGUTAN	n/a	-999	19	[0, 0, 0]	n/a	catFR1	1	R1264P
2139.525	9.014	2144616	REC_END	n/a	n/a	n/a	n/a	-999	19	[0, 0, 0]	n/a	catFR1	1	R1264P
2148.539	0.5	2153630	TRIAL	n/a	n/a	n/a	n/a	-999	20	[0, 0, 0]	n/a	catFR1	1	R1264P
2149.039	10.0	2154130	COUNTDOWN_START	n/a	n/a	n/a	n/a	-999	20	[0, 0, 0]	n/a	catFR1	1	R1264P
2159.467	0.007	2164557	COUNTDOWN_END	n/a	n/a	n/a	n/a	-999	20	[0, 0, 0]	n/a	catFR1	1	R1264P
2159.474	1.6	2164564	ORIENT	n/a	n/a	n/a	n/a	-999	20	[0, 0, 0]	n/a	catFR1	1	R1264P
2161.091	2.117	2166181	ORIENT_OFF	n/a	n/a	n/a	n/a	-999	20	[0, 0, 0]	n/a	catFR1	1	R1264P
2163.208	1.6	2168298	WORD	n/a	wordpools/wordpool_categorized_EN.txt	FOOTBALL	Toys	1	20	[0, 0, 0]	n/a	catFR1	1	R1264P
2164.825	0.883	2169915	WORD_OFF	n/a	n/a	FOOTBALL	n/a	1	20	[0, 0, 0]	n/a	catFR1	1	R1264P
2165.708	1.6	2170798	WORD	n/a	wordpools/wordpool_categorized_EN.txt	BASEBALL	Toys	2	20	[0, 0, 0]	n/a	catFR1	1	R1264P
2167.325	0.817	2172415	WORD_OFF	n/a	n/a	BASEBALL	n/a	2	20	[0, 0, 0]	n/a	catFR1	1	R1264P
2168.142	1.6	2173232	WORD	n/a	wordpools/wordpool_categorized_EN.txt	CELERY	Vegetables	3	20	[0, 0, 0]	n/a	catFR1	1	R1264P
2169.759	0.967	2174849	WORD_OFF	n/a	n/a	CELERY	n/a	3	20	[0, 0, 0]	n/a	catFR1	1	R1264P
2170.726	1.6	2175816	WORD	n/a	wordpools/wordpool_categorized_EN.txt	ONION	Vegetables	4	20	[0, 0, 0]	n/a	catFR1	1	R1264P
2172.343	0.983	2177433	WORD_OFF	n/a	n/a	ONION	n/a	4	20	[0, 0, 0]	n/a	catFR1	1	R1264P
2173.326	1.6	2178416	WORD	n/a	wordpools/wordpool_categorized_EN.txt	WALL	Building	5	20	[0, 0, 0]	n/a	catFR1	1	R1264P
2174.943	0.934	2180032	WORD_OFF	n/a	n/a	WALL	n/a	5	20	[0, 0, 0]	n/a	catFR1	1	R1264P
2175.877	1.6	2180966	WORD	n/a	wordpools/wordpool_categorized_EN.txt	ROOF	Building	6	20	[0, 0, 0]	n/a	catFR1	1	R1264P
2177.494	1.0	2182583	WORD_OFF	n/a	n/a	ROOF	n/a	6	20	[0, 0, 0]	n/a	catFR1	1	R1264P
2178.494	1.6	2183583	WORD	n/a	wordpools/wordpool_categorized_EN.txt	SPINACH	Vegetables	7	20	[0, 0, 0]	n/a	catFR1	1	R1264P
2180.111	0.95	2185200	WORD_OFF	n/a	n/a	SPINACH	n/a	7	20	[0, 0, 0]	n/a	catFR1	1	R1264P
2181.061	1.6	2186150	WORD	n/a	wordpools/wordpool_categorized_EN.txt	POTATO	Vegetables	8	20	[0, 0, 0]	n/a	catFR1	1	R1264P
2182.678	0.984	2187767	WORD_OFF	n/a	n/a	POTATO	n/a	8	20	[0, 0, 0]	n/a	catFR1	1	R1264P
2183.662	1.6	2188751	WORD	n/a	wordpools/wordpool_categorized_EN.txt	MARBLES	Toys	9	20	[0, 0, 0]	n/a	catFR1	1	R1264P
2185.279	0.766	2190368	WORD_OFF	n/a	n/a	MARBLES	n/a	9	20	[0, 0, 0]	n/a	catFR1	1	R1264P
2186.045	1.6	2191134	WORD	n/a	wordpools/wordpool_categorized_EN.txt	DOLLHOUSE	Toys	10	20	[0, 0, 0]	n/a	catFR1	1	R1264P
2187.662	0.884	2192751	WORD_OFF	n/a	n/a	DOLLHOUSE	n/a	10	20	[0, 0, 0]	n/a	catFR1	1	R1264P
2188.546	1.6	2193635	WORD	n/a	wordpools/wordpool_categorized_EN.txt	STAIRS	Building	11	20	[0, 0, 0]	n/a	catFR1	1	R1264P
2190.163	1.0	2195252	WORD_OFF	n/a	n/a	STAIRS	n/a	11	20	[0, 0, 0]	n/a	catFR1	1	R1264P
2191.163	1.6	2196252	WORD	n/a	wordpools/wordpool_categorized_EN.txt	FOUNDATION	Building	12	20	[0, 0, 0]	n/a	catFR1	1	R1264P
2192.78	0.0	2197868	ENCODING_END	n/a	n/a	n/a	n/a	-999	20	[0, 0, 0]	n/a	catFR1	1	R1264P
2192.78	0.136	2197868	WORD_OFF	n/a	n/a	FOUNDATION	n/a	12	20	[0, 0, 0]	n/a	catFR1	1	R1264P
2192.916	0.0	2198004	DISTRACT_START	n/a	n/a	n/a	n/a	-999	20	[0, 0, 0]	n/a	catFR1	1	R1264P
2192.916	0.014	2198004	START	n/a	n/a	n/a	n/a	-999	20	[-999, -999, -999]	n/a	catFR1	1	R1264P
2192.93	3.884	2198018	PROB	3.85	n/a	n/a	n/a	-999	20	[8, 1, 6]	15.0	catFR1	1	R1264P
2196.814	4.601	2201902	PROB	4.573	n/a	n/a	n/a	-999	20	[9, 3, 9]	31.0	catFR1	1	R1264P
2201.415	3.317	2206503	PROB	3.285	n/a	n/a	n/a	-999	20	[5, 8, 1]	14.0	catFR1	1	R1264P
2204.732	3.134	2209820	PROB	3.111	n/a	n/a	n/a	-999	20	[6, 4, 6]	16.0	catFR1	1	R1264P
2207.866	2.001	2212954	PROB	1.968	n/a	n/a	n/a	-999	20	[5, 5, 1]	11.0	catFR1	1	R1264P
2209.867	3.327	2214955	PROB	3.327	n/a	n/a	n/a	-999	20	[5, 3, 2]	10.0	catFR1	1	R1264P
2213.194	0.007	2218281	STOP	n/a	n/a	n/a	n/a	-999	20	[-999, -999, -999]	n/a	catFR1	1	R1264P
2213.201	0.533	2218288	DISTRACT_END	n/a	n/a	n/a	n/a	-999	20	[0, 0, 0]	n/a	catFR1	1	R1264P
2213.734	0.517	2218821	RETRIEVAL_ORIENT	n/a	n/a	n/a	n/a	-999	20	[0, 0, 0]	n/a	catFR1	1	R1264P
2214.251	1.203	2219338	REC_START	n/a	n/a	n/a	n/a	-999	20	[0, 0, 0]	n/a	catFR1	1	R1264P
2215.454	1.179	2220541	REC_WORD	1.203	n/a	FOOTBALL	Toys	1	20	[0, 0, 0]	n/a	catFR1	1	R1264P
2216.633	5.878	2221720	REC_WORD	2.382	n/a	BASEBALL	Toys	2	20	[0, 0, 0]	n/a	catFR1	1	R1264P
2222.511	1.0	2227598	REC_WORD_VV	8.26	n/a	<>	n/a	-999	20	[0, 0, 0]	n/a	catFR1	1	R1264P
2223.511	4.021	2228598	REC_WORD_VV	9.26	n/a	<>	n/a	-999	20	[0, 0, 0]	n/a	catFR1	1	R1264P
2227.532	1.0	2232619	REC_WORD_VV	13.281	n/a	<>	n/a	-999	20	[0, 0, 0]	n/a	catFR1	1	R1264P
2228.532	6.429	2233619	REC_WORD_VV	14.281	n/a	<>	n/a	-999	20	[0, 0, 0]	n/a	catFR1	1	R1264P
2234.961	9.302	2240047	REC_WORD	20.71	n/a	LION	n/a	-999	20	[0, 0, 0]	n/a	catFR1	1	R1264P
2244.263	6.661	2249349	REC_END	n/a	n/a	n/a	n/a	-999	20	[0, 0, 0]	n/a	catFR1	1	R1264P
2250.924	0.5	2256009	TRIAL	n/a	n/a	n/a	n/a	-999	21	[0, 0, 0]	n/a	catFR1	1	R1264P
2251.424	10.0	2256509	COUNTDOWN_START	n/a	n/a	n/a	n/a	-999	21	[0, 0, 0]	n/a	catFR1	1	R1264P
2261.852	0.008	2266937	COUNTDOWN_END	n/a	n/a	n/a	n/a	-999	21	[0, 0, 0]	n/a	catFR1	1	R1264P
2261.86	1.6	2266945	ORIENT	n/a	n/a	n/a	n/a	-999	21	[0, 0, 0]	n/a	catFR1	1	R1264P
2263.477	2.117	2268562	ORIENT_OFF	n/a	n/a	n/a	n/a	-999	21	[0, 0, 0]	n/a	catFR1	1	R1264P
2265.594	1.6	2270679	WORD	n/a	wordpools/wordpool_categorized_EN.txt	ROOSTER	FarmAnimals	1	21	[0, 0, 0]	n/a	catFR1	1	R1264P
2267.211	0.916	2272296	WORD_OFF	n/a	n/a	ROOSTER	n/a	1	21	[0, 0, 0]	n/a	catFR1	1	R1264P
2268.127	1.6	2273212	WORD	n/a	wordpools/wordpool_categorized_EN.txt	BULL	FarmAnimals	2	21	[0, 0, 0]	n/a	catFR1	1	R1264P
2269.728	0.983	2274812	WORD_OFF	n/a	n/a	BULL	n/a	2	21	[0, 0, 0]	n/a	catFR1	1	R1264P
2270.711	1.6	2275795	WORD	n/a	wordpools/wordpool_categorized_EN.txt	VALLEY	Landscapes	3	21	[0, 0, 0]	n/a	catFR1	1	R1264P
2272.328	0.817	2277412	WORD_OFF	n/a	n/a	VALLEY	n/a	3	21	[0, 0, 0]	n/a	catFR1	1	R1264P
2273.145	1.6	2278229	WORD	n/a	wordpools/wordpool_categorized_EN.txt	BEACH	Landscapes	4	21	[0, 0, 0]	n/a	catFR1	1	R1264P
2274.762	0.867	2279846	WORD_OFF	n/a	n/a	BEACH	n/a	4	21	[0, 0, 0]	n/a	catFR1	1	R1264P
2275.629	1.6	2280713	WORD	n/a	wordpools/wordpool_categorized_EN.txt	MARKER	OfficeSupplies	5	21	[0, 0, 0]	n/a	catFR1	1	R1264P
2277.246	0.883	2282330	WORD_OFF	n/a	n/a	MARKER	n/a	5	21	[0, 0, 0]	n/a	catFR1	1	R1264P
2278.129	1.6	2283213	WORD	n/a	wordpools/wordpool_categorized_EN.txt	PEN	OfficeSupplies	6	21	[0, 0, 0]	n/a	catFR1	1	R1264P
2279.746	0.834	2284830	WORD_OFF	n/a	n/a	PEN	n/a	6	21	[0, 0, 0]	n/a	catFR1	1	R1264P
2280.58	1.6	2285664	WORD	n/a	wordpools/wordpool_categorized_EN.txt	GOAT	FarmAnimals	7	21	[0, 0, 0]	n/a	catFR1	1	R1264P
