onset	duration	sample	trial_type	response_time	stim_file	item_name	category	serialpos	list	test	answer	experiment	session	subject
0.0	0.0	32567	INSTRUCT_START	n/a	n/a	n/a	n/a	-999	-999	[0, 0, 0]	n/a	catFR1	1	R1260D
0.0	10.862	32567	INSTRUCT_END	n/a	n/a	n/a	n/a	-999	-999	[0, 0, 0]	n/a	catFR1	1	R1260D
10.862	0.0	43428	SESS_START	n/a	n/a	n/a	n/a	-999	-999	[0, 0, 0]	n/a	catFR1	1	R1260D
10.862	74.809	43428	MIC_TEST	n/a	n/a	n/a	n/a	-999	-999	[0, 0, 0]	n/a	catFR1	1	R1260D
85.671	3.812	118233	PRACTICE_TRIAL	n/a	n/a	n/a	n/a	-999	-1	[0, 0, 0]	n/a	catFR1	1	R1260D
89.483	10.428	122045	COUNTDOWN_START	n/a	n/a	n/a	n/a	-999	-1	[0, 0, 0]	n/a	catFR1	1	R1260D
99.911	0.008	132472	COUNTDOWN_END	n/a	n/a	n/a	n/a	-999	-1	[0, 0, 0]	n/a	catFR1	1	R1260D
99.919	1.617	132480	PRACTICE_ORIENT	n/a	n/a	n/a	n/a	-999	-1	[0, 0, 0]	n/a	catFR1	1	R1260D
101.536	2.2	134097	PRACTICE_ORIENT_OFF	n/a	n/a	n/a	n/a	-999	-1	[0, 0, 0]	n/a	catFR1	1	R1260D
103.736	1.601	136297	PRACTICE_WORD	n/a	n/a	ATTIC	n/a	-1	-1	[0, 0, 0]	n/a	catFR1	1	R1260D
105.337	1.017	137898	PRACTICE_WORD_OFF	n/a	n/a	ATTIC	n/a	-999	-1	[0, 0, 0]	n/a	catFR1	1	R1260D
106.354	1.616	138915	PRACTICE_WORD	n/a	n/a	IRON	n/a	-1	-1	[0, 0, 0]	n/a	catFR1	1	R1260D
107.97	0.817	140531	PRACTICE_WORD_OFF	n/a	n/a	IRON	n/a	-999	-1	[0, 0, 0]	n/a	catFR1	1	R1260D
108.787	1.618	141348	PRACTICE_WORD	n/a	n/a	CHEST	n/a	-1	-1	[0, 0, 0]	n/a	catFR1	1	R1260D
110.405	1.0	142966	PRACTICE_WORD_OFF	n/a	n/a	CHEST	n/a	-999	-1	[0, 0, 0]	n/a	catFR1	1	R1260D
111.405	1.616	143966	PRACTICE_WORD	n/a	n/a	TONGUE	n/a	-1	-1	[0, 0, 0]	n/a	catFR1	1	R1260D
113.021	0.917	145582	PRACTICE_WORD_OFF	n/a	n/a	TONGUE	n/a	-999	-1	[0, 0, 0]	n/a	catFR1	1	R1260D
113.938	1.617	146499	PRACTICE_WORD	n/a	n/a	COTTON	n/a	-1	-1	[0, 0, 0]	n/a	catFR1	1	R1260D
115.555	0.851	148115	PRACTICE_WORD_OFF	n/a	n/a	COTTON	n/a	-999	-1	[0, 0, 0]	n/a	catFR1	1	R1260D
116.406	1.616	148966	PRACTICE_WORD	n/a	n/a	RING	n/a	-1	-1	[0, 0, 0]	n/a	catFR1	1	R1260D
118.022	0.883	150582	PRACTICE_WORD_OFF	n/a	n/a	RING	n/a	-999	-1	[0, 0, 0]	n/a	catFR1	1	R1260D
118.905	1.617	151465	PRACTICE_WORD	n/a	n/a	WAGON	n/a	-1	-1	[0, 0, 0]	n/a	catFR1	1	R1260D
120.522	0.785	153082	PRACTICE_WORD_OFF	n/a	n/a	WAGON	n/a	-999	-1	[0, 0, 0]	n/a	catFR1	1	R1260D
121.307	1.616	153867	PRACTICE_WORD	n/a	n/a	WATCH	n/a	-1	-1	[0, 0, 0]	n/a	catFR1	1	R1260D
122.923	0.817	155483	PRACTICE_WORD_OFF	n/a	n/a	WATCH	n/a	-999	-1	[0, 0, 0]	n/a	catFR1	1	R1260D
123.74	1.618	156300	PRACTICE_WORD	n/a	n/a	BEAM	n/a	-1	-1	[0, 0, 0]	n/a	catFR1	1	R1260D
125.358	0.916	157918	PRACTICE_WORD_OFF	n/a	n/a	BEAM	n/a	-999	-1	[0, 0, 0]	n/a	catFR1	1	R1260D
126.274	1.616	158834	PRACTICE_WORD	n/a	n/a	CAMEL	n/a	-1	-1	[0, 0, 0]	n/a	catFR1	1	R1260D
127.89	0.934	160450	PRACTICE_WORD_OFF	n/a	n/a	CAMEL	n/a	-999	-1	[0, 0, 0]	n/a	catFR1	1	R1260D
128.824	1.617	161384	PRACTICE_WORD	n/a	n/a	FLOOD	n/a	-1	-1	[0, 0, 0]	n/a	catFR1	1	R1260D
130.441	0.951	163001	PRACTICE_WORD_OFF	n/a	n/a	FLOOD	n/a	-999	-1	[0, 0, 0]	n/a	catFR1	1	R1260D
131.392	1.616	163952	PRACTICE_WORD	n/a	n/a	RHINO	n/a	-1	-1	[0, 0, 0]	n/a	catFR1	1	R1260D
133.008	0.0	165568	DISTRACT_START	n/a	n/a	n/a	n/a	-999	-1	[0, 0, 0]	n/a	catFR1	1	R1260D
133.008	0.0	165568	PRACTICE_WORD_OFF	n/a	n/a	RHINO	n/a	-999	-1	[0, 0, 0]	n/a	catFR1	1	R1260D
133.008	0.001	165568	ENCODING_END	n/a	n/a	n/a	n/a	-999	-1	[0, 0, 0]	n/a	catFR1	1	R1260D
133.009	0.016	165569	START	n/a	n/a	n/a	n/a	-999	-1	[-999, -999, -999]	n/a	catFR1	1	R1260D
133.025	5.701	165585	PROB	5.665	n/a	n/a	n/a	-999	-1	[6, 7, 6]	13.0	catFR1	1	R1260D
138.726	10.553	171285	PROB	10.516	n/a	n/a	n/a	-999	-1	[8, 5, 1]	14.0	catFR1	1	R1260D
149.279	10.77	181838	PROB	10.77	n/a	n/a	n/a	-999	-1	[6, 8, 6]	20.0	catFR1	1	R1260D
160.049	0.014	192607	STOP	n/a	n/a	n/a	n/a	-999	-1	[-999, -999, -999]	n/a	catFR1	1	R1260D
160.063	0.667	192621	DISTRACT_END	n/a	n/a	n/a	n/a	-999	-1	[0, 0, 0]	n/a	catFR1	1	R1260D
160.73	0.517	193288	RETRIEVAL_ORIENT	n/a	n/a	n/a	n/a	-999	-1	[0, 0, 0]	n/a	catFR1	1	R1260D
161.247	30.013	193805	PRACTICE_REC_START	n/a	n/a	n/a	n/a	-999	-1	[0, 0, 0]	n/a	catFR1	1	R1260D
191.26	22.213	223816	PRACTICE_REC_END	n/a	n/a	n/a	n/a	-999	-1	[0, 0, 0]	n/a	catFR1	1	R1260D
213.473	0.5	246028	TRIAL	n/a	n/a	n/a	n/a	-999	1	[0, 0, 0]	n/a	catFR1	1	R1260D
213.973	10.428	246528	COUNTDOWN_START	n/a	n/a	n/a	n/a	-999	1	[0, 0, 0]	n/a	catFR1	1	R1260D
224.401	0.008	256955	COUNTDOWN_END	n/a	n/a	n/a	n/a	-999	1	[0, 0, 0]	n/a	catFR1	1	R1260D
224.409	1.616	256963	ORIENT	n/a	n/a	n/a	n/a	-999	1	[0, 0, 0]	n/a	catFR1	1	R1260D
226.025	2.017	258579	ORIENT_OFF	n/a	n/a	n/a	n/a	-999	1	[0, 0, 0]	n/a	catFR1	1	R1260D
228.042	1.617	260596	WORD	n/a	wordpools/wordpool_categorized_EN.txt	MARIGOLD	Flowers	1	1	[0, 0, 0]	n/a	catFR1	1	R1260D
229.659	1.0	262213	WORD_OFF	n/a	n/a	MARIGOLD	n/a	1	1	[0, 0, 0]	n/a	catFR1	1	R1260D
230.659	1.618	263213	WORD	n/a	wordpools/wordpool_categorized_EN.txt	SUNFLOWER	Flowers	2	1	[0, 0, 0]	n/a	catFR1	1	R1260D
232.277	0.949	264831	WORD_OFF	n/a	n/a	SUNFLOWER	n/a	2	1	[0, 0, 0]	n/a	catFR1	1	R1260D
233.226	1.617	265780	WORD	n/a	wordpools/wordpool_categorized_EN.txt	COLANDER	KitchenTools	3	1	[0, 0, 0]	n/a	catFR1	1	R1260D
234.843	0.8	267397	WORD_OFF	n/a	n/a	COLANDER	n/a	3	1	[0, 0, 0]	n/a	catFR1	1	R1260D
235.643	1.618	268197	WORD	n/a	wordpools/wordpool_categorized_EN.txt	LADLE	KitchenTools	4	1	[0, 0, 0]	n/a	catFR1	1	R1260D
237.261	0.833	269815	WORD_OFF	n/a	n/a	LADLE	n/a	4	1	[0, 0, 0]	n/a	catFR1	1	R1260D
238.094	1.617	270648	WORD	n/a	wordpools/wordpool_categorized_EN.txt	HURRICANE	Weather	5	1	[0, 0, 0]	n/a	catFR1	1	R1260D
239.711	0.983	272264	WORD_OFF	n/a	n/a	HURRICANE	n/a	5	1	[0, 0, 0]	n/a	catFR1	1	R1260D
240.694	1.618	273247	WORD	n/a	wordpools/wordpool_categorized_EN.txt	HUMIDITY	Weather	6	1	[0, 0, 0]	n/a	catFR1	1	R1260D
242.312	0.933	274865	WORD_OFF	n/a	n/a	HUMIDITY	n/a	6	1	[0, 0, 0]	n/a	catFR1	1	R1260D
243.245	1.617	275798	WORD	n/a	wordpools/wordpool_categorized_EN.txt	DAISY	Flowers	7	1	[0, 0, 0]	n/a	catFR1	1	R1260D
244.862	0.85	277415	WORD_OFF	n/a	n/a	DAISY	n/a	7	1	[0, 0, 0]	n/a	catFR1	1	R1260D
245.712	1.618	278265	WORD	n/a	wordpools/wordpool_categorized_EN.txt	TULIP	Flowers	8	1	[0, 0, 0]	n/a	catFR1	1	R1260D
247.33	0.882	279883	WORD_OFF	n/a	n/a	TULIP	n/a	8	1	[0, 0, 0]	n/a	catFR1	1	R1260D
248.212	1.617	280765	WORD	n/a	wordpools/wordpool_categorized_EN.txt	FORK	KitchenTools	9	1	[0, 0, 0]	n/a	catFR1	1	R1260D
249.829	0.95	282382	WORD_OFF	n/a	n/a	FORK	n/a	9	1	[0, 0, 0]	n/a	catFR1	1	R1260D
250.779	1.601	283332	WORD	n/a	wordpools/wordpool_categorized_EN.txt	GRATER	KitchenTools	10	1	[0, 0, 0]	n/a	catFR1	1	R1260D
252.38	0.951	284933	WORD_OFF	n/a	n/a	GRATER	n/a	10	1	[0, 0, 0]	n/a	catFR1	1	R1260D
253.331	1.616	285884	WORD	n/a	wordpools/wordpool_categorized_EN.txt	TORNADO	Weather	11	1	[0, 0, 0]	n/a	catFR1	1	R1260D
254.947	0.783	287500	WORD_OFF	n/a	n/a	TORNADO	n/a	11	1	[0, 0, 0]	n/a	catFR1	1	R1260D
255.73	1.601	288283	WORD	n/a	wordpools/wordpool_categorized_EN.txt	LIGHTNING	Weather	12	1	[0, 0, 0]	n/a	catFR1	1	R1260D
257.331	0.001	289883	WORD_OFF	n/a	n/a	LIGHTNING	n/a	12	1	[0, 0, 0]	n/a	catFR1	1	R1260D
257.332	0.138	289884	ENCODING_END	n/a	n/a	n/a	n/a	-999	1	[0, 0, 0]	n/a	catFR1	1	R1260D
257.47	0.0	290022	DISTRACT_START	n/a	n/a	n/a	n/a	-999	1	[0, 0, 0]	n/a	catFR1	1	R1260D
257.47	0.011	290022	START	n/a	n/a	n/a	n/a	-999	1	[-999, -999, -999]	n/a	catFR1	1	R1260D
257.481	7.919	290033	PROB	7.889	n/a	n/a	n/a	-999	1	[6, 7, 2]	15.0	catFR1	1	R1260D
265.4	4.017	297952	PROB	3.986	n/a	n/a	n/a	-999	1	[1, 6, 9]	16.0	catFR1	1	R1260D
269.417	4.667	301969	PROB	4.632	n/a	n/a	n/a	-999	1	[9, 5, 2]	16.0	catFR1	1	R1260D
274.084	15.877	306636	PROB	15.877	n/a	n/a	n/a	-999	1	[7, 8, 7]	21.0	catFR1	1	R1260D
289.961	0.009	322512	STOP	n/a	n/a	n/a	n/a	-999	1	[-999, -999, -999]	n/a	catFR1	1	R1260D
289.97	0.533	322521	DISTRACT_END	n/a	n/a	n/a	n/a	-999	1	[0, 0, 0]	n/a	catFR1	1	R1260D
290.503	0.518	323054	RETRIEVAL_ORIENT	n/a	n/a	n/a	n/a	-999	1	[0, 0, 0]	n/a	catFR1	1	R1260D
291.021	2.171	323572	REC_START	n/a	n/a	n/a	n/a	-999	1	[0, 0, 0]	n/a	catFR1	1	R1260D
293.192	1.285	325742	REC_WORD	2.171	n/a	MARIGOLD	Flowers	1	1	[0, 0, 0]	n/a	catFR1	1	R1260D
294.477	1.479	327027	REC_WORD_VV	3.456	n/a	<>	n/a	-999	1	[0, 0, 0]	n/a	catFR1	1	R1260D
295.956	2.664	328506	REC_WORD	4.935	n/a	DAISY	Flowers	7	1	[0, 0, 0]	n/a	catFR1	1	R1260D
298.62	6.349	331170	REC_WORD_VV	7.599	n/a	<>	n/a	-999	1	[0, 0, 0]	n/a	catFR1	1	R1260D
304.969	0.637	337519	REC_WORD	13.948	n/a	MARIGOLD	Flowers	1	1	[0, 0, 0]	n/a	catFR1	1	R1260D
305.606	2.495	338156	REC_WORD	14.585	n/a	DAISY	Flowers	7	1	[0, 0, 0]	n/a	catFR1	1	R1260D
308.101	5.018	340651	REC_WORD_VV	17.08	n/a	<>	n/a	-999	1	[0, 0, 0]	n/a	catFR1	1	R1260D
313.119	7.911	345668	REC_WORD	22.098	n/a	TORNADO	Weather	11	1	[0, 0, 0]	n/a	catFR1	1	R1260D
321.03	7.43	353579	REC_END	n/a	n/a	n/a	n/a	-999	1	[0, 0, 0]	n/a	catFR1	1	R1260D
328.46	0.5	361008	TRIAL	n/a	n/a	n/a	n/a	-999	2	[0, 0, 0]	n/a	catFR1	1	R1260D
328.96	10.428	361508	COUNTDOWN_START	n/a	n/a	n/a	n/a	-999	2	[0, 0, 0]	n/a	catFR1	1	R1260D
339.388	0.009	371936	COUNTDOWN_END	n/a	n/a	n/a	n/a	-999	2	[0, 0, 0]	n/a	catFR1	1	R1260D
339.397	1.616	371945	ORIENT	n/a	n/a	n/a	n/a	-999	2	[0, 0, 0]	n/a	catFR1	1	R1260D
341.013	1.967	373561	ORIENT_OFF	n/a	n/a	n/a	n/a	-999	2	[0, 0, 0]	n/a	catFR1	1	R1260D
342.98	1.617	375528	WORD	n/a	wordpools/wordpool_categorized_EN.txt	DOOR	Building	1	2	[0, 0, 0]	n/a	catFR1	1	R1260D
344.597	0.784	377145	WORD_OFF	n/a	n/a	DOOR	n/a	1	2	[0, 0, 0]	n/a	catFR1	1	R1260D
345.381	1.616	377928	WORD	n/a	wordpools/wordpool_categorized_EN.txt	ATTIC	Building	2	2	[0, 0, 0]	n/a	catFR1	1	R1260D
346.997	0.8	379544	WORD_OFF	n/a	n/a	ATTIC	n/a	2	2	[0, 0, 0]	n/a	catFR1	1	R1260D
347.797	1.618	380344	WORD	n/a	wordpools/wordpool_categorized_EN.txt	DOLPHIN	OceanAnimals	3	2	[0, 0, 0]	n/a	catFR1	1	R1260D
349.415	0.95	381962	WORD_OFF	n/a	n/a	DOLPHIN	n/a	3	2	[0, 0, 0]	n/a	catFR1	1	R1260D
350.365	1.616	382912	WORD	n/a	wordpools/wordpool_categorized_EN.txt	WHALE	OceanAnimals	4	2	[0, 0, 0]	n/a	catFR1	1	R1260D
351.981	0.767	384528	WORD_OFF	n/a	n/a	WHALE	n/a	4	2	[0, 0, 0]	n/a	catFR1	1	R1260D
352.748	1.618	385295	WORD	n/a	wordpools/wordpool_categorized_EN.txt	NOSE	BodyParts	5	2	[0, 0, 0]	n/a	catFR1	1	R1260D
354.366	0.95	386913	WORD_OFF	n/a	n/a	NOSE	n/a	5	2	[0, 0, 0]	n/a	catFR1	1	R1260D
355.316	1.616	387863	WORD	n/a	wordpools/wordpool_categorized_EN.txt	HEAD	BodyParts	6	2	[0, 0, 0]	n/a	catFR1	1	R1260D
356.932	0.85	389479	WORD_OFF	n/a	n/a	HEAD	n/a	6	2	[0, 0, 0]	n/a	catFR1	1	R1260D
357.782	1.618	390329	WORD	n/a	wordpools/wordpool_categorized_EN.txt	WINDOW	Building	7	2	[0, 0, 0]	n/a	catFR1	1	R1260D
359.4	0.783	391947	WORD_OFF	n/a	n/a	WINDOW	n/a	7	2	[0, 0, 0]	n/a	catFR1	1	R1260D
360.183	1.617	392730	WORD	n/a	wordpools/wordpool_categorized_EN.txt	ROOM	Building	8	2	[0, 0, 0]	n/a	catFR1	1	R1260D
361.8	0.8	394347	WORD_OFF	n/a	n/a	ROOM	n/a	8	2	[0, 0, 0]	n/a	catFR1	1	R1260D
362.6	1.617	395146	WORD	n/a	wordpools/wordpool_categorized_EN.txt	LOBSTER	OceanAnimals	9	2	[0, 0, 0]	n/a	catFR1	1	R1260D
364.217	0.767	396763	WORD_OFF	n/a	n/a	LOBSTER	n/a	9	2	[0, 0, 0]	n/a	catFR1	1	R1260D
364.984	1.616	397530	WORD	n/a	wordpools/wordpool_categorized_EN.txt	TURTLE	OceanAnimals	10	2	[0, 0, 0]	n/a	catFR1	1	R1260D
366.6	0.967	399146	WORD_OFF	n/a	n/a	TURTLE	n/a	10	2	[0, 0, 0]	n/a	catFR1	1	R1260D
367.567	1.617	400113	WORD	n/a	wordpools/wordpool_categorized_EN.txt	EAR	BodyParts	11	2	[0, 0, 0]	n/a	catFR1	1	R1260D
369.184	0.9	401730	WORD_OFF	n/a	n/a	EAR	n/a	11	2	[0, 0, 0]	n/a	catFR1	1	R1260D
370.084	1.617	402630	WORD	n/a	wordpools/wordpool_categorized_EN.txt	ARM	BodyParts	12	2	[0, 0, 0]	n/a	catFR1	1	R1260D
371.701	0.001	404247	WORD_OFF	n/a	n/a	ARM	n/a	12	2	[0, 0, 0]	n/a	catFR1	1	R1260D
371.702	0.106	404248	ENCODING_END	n/a	n/a	n/a	n/a	-999	2	[0, 0, 0]	n/a	catFR1	1	R1260D
371.808	0.0	404354	DISTRACT_START	n/a	n/a	n/a	n/a	-999	2	[0, 0, 0]	n/a	catFR1	1	R1260D
371.808	0.01	404354	START	n/a	n/a	n/a	n/a	-999	2	[-999, -999, -999]	n/a	catFR1	1	R1260D
371.818	5.134	404364	PROB	5.104	n/a	n/a	n/a	-999	2	[7, 8, 2]	17.0	catFR1	1	R1260D
376.952	7.485	409498	PROB	7.459	n/a	n/a	n/a	-999	2	[5, 8, 8]	21.0	catFR1	1	R1260D
384.437	9.476	416982	PROB	9.476	n/a	n/a	n/a	-999	2	[3, 1, 7]	11.0	catFR1	1	R1260D
393.913	0.01	426458	STOP	n/a	n/a	n/a	n/a	-999	2	[-999, -999, -999]	n/a	catFR1	1	R1260D
393.923	0.566	426468	DISTRACT_END	n/a	n/a	n/a	n/a	-999	2	[0, 0, 0]	n/a	catFR1	1	R1260D
394.489	0.518	427034	RETRIEVAL_ORIENT	n/a	n/a	n/a	n/a	-999	2	[0, 0, 0]	n/a	catFR1	1	R1260D
395.007	1.481	427552	REC_START	n/a	n/a	n/a	n/a	-999	2	[0, 0, 0]	n/a	catFR1	1	R1260D
396.488	7.888	429033	REC_WORD_VV	1.481	n/a	<>	n/a	-999	2	[0, 0, 0]	n/a	catFR1	1	R1260D
404.376	0.511	436920	REC_WORD	9.369	n/a	DOOR	Building	1	2	[0, 0, 0]	n/a	catFR1	1	R1260D
404.887	4.579	437431	REC_WORD	9.88	n/a	ATTIC	Building	2	2	[0, 0, 0]	n/a	catFR1	1	R1260D
409.466	5.777	442010	REC_WORD_VV	14.459	n/a	<>	n/a	-999	2	[0, 0, 0]	n/a	catFR1	1	R1260D
415.243	4.767	447786	REC_WORD	20.236	n/a	OX	n/a	-999	2	[0, 0, 0]	n/a	catFR1	1	R1260D
420.01	1.308	452553	REC_WORD_VV	25.003	n/a	<>	n/a	-999	2	[0, 0, 0]	n/a	catFR1	1	R1260D
421.318	2.344	453861	REC_WORD_VV	26.311	n/a	<>	n/a	-999	2	[0, 0, 0]	n/a	catFR1	1	R1260D
423.662	1.355	456205	REC_WORD_VV	28.655	n/a	<>	n/a	-999	2	[0, 0, 0]	n/a	catFR1	1	R1260D
425.017	9.179	457560	REC_END	n/a	n/a	n/a	n/a	-999	2	[0, 0, 0]	n/a	catFR1	1	R1260D
434.196	0.5	466738	TRIAL	n/a	n/a	n/a	n/a	-999	3	[0, 0, 0]	n/a	catFR1	1	R1260D
434.696	10.428	467238	COUNTDOWN_START	n/a	n/a	n/a	n/a	-999	3	[0, 0, 0]	n/a	catFR1	1	R1260D
445.124	0.008	477666	COUNTDOWN_END	n/a	n/a	n/a	n/a	-999	3	[0, 0, 0]	n/a	catFR1	1	R1260D
445.132	1.617	477674	ORIENT	n/a	n/a	n/a	n/a	-999	3	[0, 0, 0]	n/a	catFR1	1	R1260D
446.749	2.05	479291	ORIENT_OFF	n/a	n/a	n/a	n/a	-999	3	[0, 0, 0]	n/a	catFR1	1	R1260D
448.799	1.618	481341	WORD	n/a	wordpools/wordpool_categorized_EN.txt	DRIZZLE	Weather	1	3	[0, 0, 0]	n/a	catFR1	1	R1260D
450.417	0.816	482958	WORD_OFF	n/a	n/a	DRIZZLE	n/a	1	3	[0, 0, 0]	n/a	catFR1	1	R1260D
451.233	1.617	483774	WORD	n/a	wordpools/wordpool_categorized_EN.txt	CLOUD	Weather	2	3	[0, 0, 0]	n/a	catFR1	1	R1260D
452.85	0.916	485391	WORD_OFF	n/a	n/a	CLOUD	n/a	2	3	[0, 0, 0]	n/a	catFR1	1	R1260D
453.766	1.618	486307	WORD	n/a	wordpools/wordpool_categorized_EN.txt	PEAR	Fruit	3	3	[0, 0, 0]	n/a	catFR1	1	R1260D
455.384	0.866	487925	WORD_OFF	n/a	n/a	PEAR	n/a	3	3	[0, 0, 0]	n/a	catFR1	1	R1260D
456.25	1.617	488791	WORD	n/a	wordpools/wordpool_categorized_EN.txt	APPLE	Fruit	4	3	[0, 0, 0]	n/a	catFR1	1	R1260D
457.867	0.9	490408	WORD_OFF	n/a	n/a	APPLE	n/a	4	3	[0, 0, 0]	n/a	catFR1	1	R1260D
458.767	1.618	491308	WORD	n/a	wordpools/wordpool_categorized_EN.txt	SANDER	Tools	5	3	[0, 0, 0]	n/a	catFR1	1	R1260D
460.385	0.783	492926	WORD_OFF	n/a	n/a	SANDER	n/a	5	3	[0, 0, 0]	n/a	catFR1	1	R1260D
461.168	1.617	493709	WORD	n/a	wordpools/wordpool_categorized_EN.txt	HAMMER	Tools	6	3	[0, 0, 0]	n/a	catFR1	1	R1260D
462.785	0.967	495326	WORD_OFF	n/a	n/a	HAMMER	n/a	6	3	[0, 0, 0]	n/a	catFR1	1	R1260D
463.752	1.618	496293	WORD	n/a	wordpools/wordpool_categorized_EN.txt	PLUM	Fruit	7	3	[0, 0, 0]	n/a	catFR1	1	R1260D
465.37	0.832	497911	WORD_OFF	n/a	n/a	PLUM	n/a	7	3	[0, 0, 0]	n/a	catFR1	1	R1260D
466.202	1.617	498743	WORD	n/a	wordpools/wordpool_categorized_EN.txt	LEMON	Fruit	8	3	[0, 0, 0]	n/a	catFR1	1	R1260D
467.819	0.917	500360	WORD_OFF	n/a	n/a	LEMON	n/a	8	3	[0, 0, 0]	n/a	catFR1	1	R1260D
468.736	1.618	501276	WORD	n/a	wordpools/wordpool_categorized_EN.txt	SNOW	Weather	9	3	[0, 0, 0]	n/a	catFR1	1	R1260D
470.354	0.782	502894	WORD_OFF	n/a	n/a	SNOW	n/a	9	3	[0, 0, 0]	n/a	catFR1	1	R1260D
471.136	1.617	503676	WORD	n/a	wordpools/wordpool_categorized_EN.txt	FOG	Weather	10	3	[0, 0, 0]	n/a	catFR1	1	R1260D
472.753	1.0	505293	WORD_OFF	n/a	n/a	FOG	n/a	10	3	[0, 0, 0]	n/a	catFR1	1	R1260D
473.753	1.618	506293	WORD	n/a	wordpools/wordpool_categorized_EN.txt	LEVEL	Tools	11	3	[0, 0, 0]	n/a	catFR1	1	R1260D
475.371	0.816	507911	WORD_OFF	n/a	n/a	LEVEL	n/a	11	3	[0, 0, 0]	n/a	catFR1	1	R1260D
476.187	1.617	508727	WORD	n/a	wordpools/wordpool_categorized_EN.txt	CROWBAR	Tools	12	3	[0, 0, 0]	n/a	catFR1	1	R1260D
477.804	0.0	510344	ENCODING_END	n/a	n/a	n/a	n/a	-999	3	[0, 0, 0]	n/a	catFR1	1	R1260D
477.804	0.106	510344	WORD_OFF	n/a	n/a	CROWBAR	n/a	12	3	[0, 0, 0]	n/a	catFR1	1	R1260D
477.91	0.0	510450	DISTRACT_START	n/a	n/a	n/a	n/a	-999	3	[0, 0, 0]	n/a	catFR1	1	R1260D
477.91	0.011	510450	START	n/a	n/a	n/a	n/a	-999	3	[-999, -999, -999]	n/a	catFR1	1	R1260D
477.921	6.801	510461	PROB	6.768	n/a	n/a	n/a	-999	3	[5, 2, 9]	16.0	catFR1	1	R1260D
484.722	3.767	517262	PROB	3.744	n/a	n/a	n/a	-999	3	[8, 6, 2]	16.0	catFR1	1	R1260D
488.489	8.035	521028	PROB	8.001	n/a	n/a	n/a	-999	3	[6, 5, 7]	18.0	catFR1	1	R1260D
496.524	2.438	529063	PROB	2.438	n/a	n/a	n/a	-999	3	[1, 1, 2]	4.0	catFR1	1	R1260D
498.962	0.013	531501	STOP	n/a	n/a	n/a	n/a	-999	3	[-999, -999, -999]	n/a	catFR1	1	R1260D
498.975	0.616	531514	DISTRACT_END	n/a	n/a	n/a	n/a	-999	3	[0, 0, 0]	n/a	catFR1	1	R1260D
499.591	0.518	532130	RETRIEVAL_ORIENT	n/a	n/a	n/a	n/a	-999	3	[0, 0, 0]	n/a	catFR1	1	R1260D
500.109	12.903	532648	REC_START	n/a	n/a	n/a	n/a	-999	3	[0, 0, 0]	n/a	catFR1	1	R1260D
513.012	2.899	545550	REC_WORD	12.903	n/a	MUGGY	n/a	-999	3	[0, 0, 0]	n/a	catFR1	1	R1260D
515.911	13.432	548449	REC_WORD_VV	15.802	n/a	<>	n/a	-999	3	[0, 0, 0]	n/a	catFR1	1	R1260D
529.343	0.778	561880	REC_WORD	29.234	n/a	APPLE	Fruit	4	3	[0, 0, 0]	n/a	catFR1	1	R1260D
530.121	27.631	562658	REC_END	n/a	n/a	n/a	n/a	-999	3	[0, 0, 0]	n/a	catFR1	1	R1260D
557.752	0.5	590287	TRIAL	n/a	n/a	n/a	n/a	-999	4	[0, 0, 0]	n/a	catFR1	1	R1260D
558.252	10.428	590787	COUNTDOWN_START	n/a	n/a	n/a	n/a	-999	4	[0, 0, 0]	n/a	catFR1	1	R1260D
568.68	0.008	601215	COUNTDOWN_END	n/a	n/a	n/a	n/a	-999	4	[0, 0, 0]	n/a	catFR1	1	R1260D
568.688	1.617	601223	ORIENT	n/a	n/a	n/a	n/a	-999	4	[0, 0, 0]	n/a	catFR1	1	R1260D
570.305	2.333	602840	ORIENT_OFF	n/a	n/a	n/a	n/a	-999	4	[0, 0, 0]	n/a	catFR1	1	R1260D
572.638	1.617	605173	WORD	n/a	wordpools/wordpool_categorized_EN.txt	CARDINAL	Birds	1	4	[0, 0, 0]	n/a	catFR1	1	R1260D
574.255	0.817	606789	WORD_OFF	n/a	n/a	CARDINAL	n/a	1	4	[0, 0, 0]	n/a	catFR1	1	R1260D
575.072	1.617	607606	WORD	n/a	wordpools/wordpool_categorized_EN.txt	HAWK	Birds	2	4	[0, 0, 0]	n/a	catFR1	1	R1260D
576.689	0.95	609223	WORD_OFF	n/a	n/a	HAWK	n/a	2	4	[0, 0, 0]	n/a	catFR1	1	R1260D
577.639	1.617	610173	WORD	n/a	wordpools/wordpool_categorized_EN.txt	LEMONADE	Beverages	3	4	[0, 0, 0]	n/a	catFR1	1	R1260D
579.256	0.967	611790	WORD_OFF	n/a	n/a	LEMONADE	n/a	3	4	[0, 0, 0]	n/a	catFR1	1	R1260D
580.223	1.617	612757	WORD	n/a	wordpools/wordpool_categorized_EN.txt	JUICE	Beverages	4	4	[0, 0, 0]	n/a	catFR1	1	R1260D
581.84	0.917	614374	WORD_OFF	n/a	n/a	JUICE	n/a	4	4	[0, 0, 0]	n/a	catFR1	1	R1260D
582.757	1.618	615291	WORD	n/a	wordpools/wordpool_categorized_EN.txt	BANANA	Fruit	5	4	[0, 0, 0]	n/a	catFR1	1	R1260D
584.375	0.816	616909	WORD_OFF	n/a	n/a	BANANA	n/a	5	4	[0, 0, 0]	n/a	catFR1	1	R1260D
585.191	1.616	617725	WORD	n/a	wordpools/wordpool_categorized_EN.txt	ORANGE	Fruit	6	4	[0, 0, 0]	n/a	catFR1	1	R1260D
586.807	1.0	619341	WORD_OFF	n/a	n/a	ORANGE	n/a	6	4	[0, 0, 0]	n/a	catFR1	1	R1260D
587.807	1.602	620341	WORD	n/a	wordpools/wordpool_categorized_EN.txt	ROBIN	Birds	7	4	[0, 0, 0]	n/a	catFR1	1	R1260D
589.409	0.917	621943	WORD_OFF	n/a	n/a	ROBIN	n/a	7	4	[0, 0, 0]	n/a	catFR1	1	R1260D
590.326	1.616	622860	WORD	n/a	wordpools/wordpool_categorized_EN.txt	SPARROW	Birds	8	4	[0, 0, 0]	n/a	catFR1	1	R1260D
591.942	0.95	624475	WORD_OFF	n/a	n/a	SPARROW	n/a	8	4	[0, 0, 0]	n/a	catFR1	1	R1260D
592.892	1.617	625425	WORD	n/a	wordpools/wordpool_categorized_EN.txt	WINE	Beverages	9	4	[0, 0, 0]	n/a	catFR1	1	R1260D
594.509	0.933	627042	WORD_OFF	n/a	n/a	WINE	n/a	9	4	[0, 0, 0]	n/a	catFR1	1	R1260D
595.442	1.617	627975	WORD	n/a	wordpools/wordpool_categorized_EN.txt	COFFEE	Beverages	10	4	[0, 0, 0]	n/a	catFR1	1	R1260D
597.059	0.917	629592	WORD_OFF	n/a	n/a	COFFEE	n/a	10	4	[0, 0, 0]	n/a	catFR1	1	R1260D
597.976	1.617	630509	WORD	n/a	wordpools/wordpool_categorized_EN.txt	STRAWBERRY	Fruit	11	4	[0, 0, 0]	n/a	catFR1	1	R1260D
599.593	0.835	632126	WORD_OFF	n/a	n/a	STRAWBERRY	n/a	11	4	[0, 0, 0]	n/a	catFR1	1	R1260D
600.428	1.616	632961	WORD	n/a	wordpools/wordpool_categorized_EN.txt	CHERRY	Fruit	12	4	[0, 0, 0]	n/a	catFR1	1	R1260D
602.044	0.0	634577	ENCODING_END	n/a	n/a	n/a	n/a	-999	4	[0, 0, 0]	n/a	catFR1	1	R1260D
602.044	0.14	634577	WORD_OFF	n/a	n/a	CHERRY	n/a	12	4	[0, 0, 0]	n/a	catFR1	1	R1260D
602.184	0.0	634717	DISTRACT_START	n/a	n/a	n/a	n/a	-999	4	[0, 0, 0]	n/a	catFR1	1	R1260D
602.184	0.01	634717	START	n/a	n/a	n/a	n/a	-999	4	[-999, -999, -999]	n/a	catFR1	1	R1260D
602.194	4.884	634727	PROB	4.855	n/a	n/a	n/a	-999	4	[2, 1, 5]	8.0	catFR1	1	R1260D
607.078	7.885	639611	PROB	7.86	n/a	n/a	n/a	-999	4	[3, 7, 8]	18.0	catFR1	1	R1260D
614.963	3.717	647495	PROB	3.687	n/a	n/a	n/a	-999	4	[1, 9, 8]	18.0	catFR1	1	R1260D
618.68	3.267	651212	PROB	3.233	n/a	n/a	n/a	-999	4	[3, 2, 6]	11.0	catFR1	1	R1260D
621.947	8.103	654479	PROB	8.103	n/a	n/a	n/a	-999	4	[6, 9, 3]	17.0	catFR1	1	R1260D
630.05	0.016	662581	STOP	n/a	n/a	n/a	n/a	-999	4	[-999, -999, -999]	n/a	catFR1	1	R1260D
630.066	0.599	662597	DISTRACT_END	n/a	n/a	n/a	n/a	-999	4	[0, 0, 0]	n/a	catFR1	1	R1260D
630.665	0.518	663196	RETRIEVAL_ORIENT	n/a	n/a	n/a	n/a	-999	4	[0, 0, 0]	n/a	catFR1	1	R1260D
631.183	2.982	663714	REC_START	n/a	n/a	n/a	n/a	-999	4	[0, 0, 0]	n/a	catFR1	1	R1260D
634.165	12.836	666696	REC_WORD_VV	2.982	n/a	<>	n/a	-999	4	[0, 0, 0]	n/a	catFR1	1	R1260D
647.001	4.803	679531	REC_WORD	15.818	n/a	APRICOT	n/a	-999	4	[0, 0, 0]	n/a	catFR1	1	R1260D
651.804	0.823	684334	REC_WORD_VV	20.621	n/a	<>	n/a	-999	4	[0, 0, 0]	n/a	catFR1	1	R1260D
652.627	4.167	685157	REC_WORD	21.444	n/a	CARDINAL	Birds	1	4	[0, 0, 0]	n/a	catFR1	1	R1260D
656.794	4.4	689324	REC_WORD	25.611	n/a	HAWK	Birds	2	4	[0, 0, 0]	n/a	catFR1	1	R1260D
661.194	18.514	693724	REC_END	n/a	n/a	n/a	n/a	-999	4	[0, 0, 0]	n/a	catFR1	1	R1260D
679.708	0.5	712236	TRIAL	n/a	n/a	n/a	n/a	-999	5	[0, 0, 0]	n/a	catFR1	1	R1260D
680.208	10.428	712736	COUNTDOWN_START	n/a	n/a	n/a	n/a	-999	5	[0, 0, 0]	n/a	catFR1	1	R1260D
690.636	0.007	723164	COUNTDOWN_END	n/a	n/a	n/a	n/a	-999	5	[0, 0, 0]	n/a	catFR1	1	R1260D
690.643	1.618	723171	ORIENT	n/a	n/a	n/a	n/a	-999	5	[0, 0, 0]	n/a	catFR1	1	R1260D
692.261	2.183	724789	ORIENT_OFF	n/a	n/a	n/a	n/a	-999	5	[0, 0, 0]	n/a	catFR1	1	R1260D
694.444	1.617	726972	WORD	n/a	wordpools/wordpool_categorized_EN.txt	SHOVEL	Tools	1	5	[0, 0, 0]	n/a	catFR1	1	R1260D
696.061	0.766	728589	WORD_OFF	n/a	n/a	SHOVEL	n/a	1	5	[0, 0, 0]	n/a	catFR1	1	R1260D
696.827	1.602	729355	WORD	n/a	wordpools/wordpool_categorized_EN.txt	SCREWDRIVER	Tools	2	5	[0, 0, 0]	n/a	catFR1	1	R1260D
698.429	0.799	730956	WORD_OFF	n/a	n/a	SCREWDRIVER	n/a	2	5	[0, 0, 0]	n/a	catFR1	1	R1260D
699.228	1.617	731755	WORD	n/a	wordpools/wordpool_categorized_EN.txt	FLUTE	Instruments	3	5	[0, 0, 0]	n/a	catFR1	1	R1260D
700.845	0.867	733372	WORD_OFF	n/a	n/a	FLUTE	n/a	3	5	[0, 0, 0]	n/a	catFR1	1	R1260D
701.712	1.601	734239	WORD	n/a	wordpools/wordpool_categorized_EN.txt	PIANO	Instruments	4	5	[0, 0, 0]	n/a	catFR1	1	R1260D
703.313	0.833	735840	WORD_OFF	n/a	n/a	PIANO	n/a	4	5	[0, 0, 0]	n/a	catFR1	1	R1260D
704.146	1.616	736673	WORD	n/a	wordpools/wordpool_categorized_EN.txt	CARNATION	Flowers	5	5	[0, 0, 0]	n/a	catFR1	1	R1260D
705.762	0.851	738289	WORD_OFF	n/a	n/a	CARNATION	n/a	5	5	[0, 0, 0]	n/a	catFR1	1	R1260D
706.613	1.617	739140	WORD	n/a	wordpools/wordpool_categorized_EN.txt	ORCHID	Flowers	6	5	[0, 0, 0]	n/a	catFR1	1	R1260D
708.23	0.933	740757	WORD_OFF	n/a	n/a	ORCHID	n/a	6	5	[0, 0, 0]	n/a	catFR1	1	R1260D
709.163	1.617	741690	WORD	n/a	wordpools/wordpool_categorized_EN.txt	DRUM	Instruments	7	5	[0, 0, 0]	n/a	catFR1	1	R1260D
710.78	0.917	743307	WORD_OFF	n/a	n/a	DRUM	n/a	7	5	[0, 0, 0]	n/a	catFR1	1	R1260D
711.697	1.618	744224	WORD	n/a	wordpools/wordpool_categorized_EN.txt	GUITAR	Instruments	8	5	[0, 0, 0]	n/a	catFR1	1	R1260D
713.315	1.0	745842	WORD_OFF	n/a	n/a	GUITAR	n/a	8	5	[0, 0, 0]	n/a	catFR1	1	R1260D
714.315	1.616	746842	WORD	n/a	wordpools/wordpool_categorized_EN.txt	AXE	Tools	9	5	[0, 0, 0]	n/a	catFR1	1	R1260D
715.931	0.817	748457	WORD_OFF	n/a	n/a	AXE	n/a	9	5	[0, 0, 0]	n/a	catFR1	1	R1260D
716.748	1.618	749274	WORD	n/a	wordpools/wordpool_categorized_EN.txt	WRENCH	Tools	10	5	[0, 0, 0]	n/a	catFR1	1	R1260D
718.366	0.933	750892	WORD_OFF	n/a	n/a	WRENCH	n/a	10	5	[0, 0, 0]	n/a	catFR1	1	R1260D
719.299	1.616	751825	WORD	n/a	wordpools/wordpool_categorized_EN.txt	DAFFODIL	Flowers	11	5	[0, 0, 0]	n/a	catFR1	1	R1260D
720.915	0.884	753441	WORD_OFF	n/a	n/a	DAFFODIL	n/a	11	5	[0, 0, 0]	n/a	catFR1	1	R1260D
721.799	1.601	754325	WORD	n/a	wordpools/wordpool_categorized_EN.txt	VIOLET	Flowers	12	5	[0, 0, 0]	n/a	catFR1	1	R1260D
723.4	0.0	755926	WORD_OFF	n/a	n/a	VIOLET	n/a	12	5	[0, 0, 0]	n/a	catFR1	1	R1260D
723.4	0.104	755926	ENCODING_END	n/a	n/a	n/a	n/a	-999	5	[0, 0, 0]	n/a	catFR1	1	R1260D
723.504	0.0	756030	DISTRACT_START	n/a	n/a	n/a	n/a	-999	5	[0, 0, 0]	n/a	catFR1	1	R1260D
723.504	0.012	756030	START	n/a	n/a	n/a	n/a	-999	5	[-999, -999, -999]	n/a	catFR1	1	R1260D
723.516	7.334	756042	PROB	7.31	n/a	n/a	n/a	-999	5	[4, 5, 7]	16.0	catFR1	1	R1260D
730.85	4.335	763376	PROB	4.303	n/a	n/a	n/a	-999	5	[3, 4, 8]	15.0	catFR1	1	R1260D
735.185	19.056	767710	PROB	19.056	n/a	n/a	n/a	-999	5	[8, 7, 6]	21.0	catFR1	1	R1260D
754.241	0.014	786765	STOP	n/a	n/a	n/a	n/a	-999	5	[-999, -999, -999]	n/a	catFR1	1	R1260D
754.255	0.516	786779	DISTRACT_END	n/a	n/a	n/a	n/a	-999	5	[0, 0, 0]	n/a	catFR1	1	R1260D
754.771	0.519	787295	RETRIEVAL_ORIENT	n/a	n/a	n/a	n/a	-999	5	[0, 0, 0]	n/a	catFR1	1	R1260D
755.29	3.004	787814	REC_START	n/a	n/a	n/a	n/a	-999	5	[0, 0, 0]	n/a	catFR1	1	R1260D
758.294	4.174	790818	REC_WORD	3.004	n/a	TRUMPET	n/a	-999	5	[0, 0, 0]	n/a	catFR1	1	R1260D
762.468	10.104	794992	REC_WORD	7.178	n/a	HAMMER	n/a	-999	5	[0, 0, 0]	n/a	catFR1	1	R1260D
772.572	7.797	805095	REC_WORD_VV	17.282	n/a	<>	n/a	-999	5	[0, 0, 0]	n/a	catFR1	1	R1260D
780.369	3.894	812892	REC_WORD_VV	25.079	n/a	<>	n/a	-999	5	[0, 0, 0]	n/a	catFR1	1	R1260D
784.263	1.038	816786	REC_WORD	28.973	n/a	SAW	n/a	-999	5	[0, 0, 0]	n/a	catFR1	1	R1260D
785.301	17.929	817823	REC_END	n/a	n/a	n/a	n/a	-999	5	[0, 0, 0]	n/a	catFR1	1	R1260D
803.23	0.5	835751	TRIAL	n/a	n/a	n/a	n/a	-999	6	[0, 0, 0]	n/a	catFR1	1	R1260D
803.73	10.428	836251	COUNTDOWN_START	n/a	n/a	n/a	n/a	-999	6	[0, 0, 0]	n/a	catFR1	1	R1260D
814.158	0.008	846679	COUNTDOWN_END	n/a	n/a	n/a	n/a	-999	6	[0, 0, 0]	n/a	catFR1	1	R1260D
814.166	1.617	846687	ORIENT	n/a	n/a	n/a	n/a	-999	6	[0, 0, 0]	n/a	catFR1	1	R1260D
815.783	1.967	848304	ORIENT_OFF	n/a	n/a	n/a	n/a	-999	6	[0, 0, 0]	n/a	catFR1	1	R1260D
817.75	1.618	850271	WORD	n/a	wordpools/wordpool_categorized_EN.txt	SOCKS	Clothing	1	6	[0, 0, 0]	n/a	catFR1	1	R1260D
819.368	0.966	851889	WORD_OFF	n/a	n/a	SOCKS	n/a	1	6	[0, 0, 0]	n/a	catFR1	1	R1260D
820.334	1.616	852855	WORD	n/a	wordpools/wordpool_categorized_EN.txt	PANTS	Clothing	2	6	[0, 0, 0]	n/a	catFR1	1	R1260D
821.95	0.917	854470	WORD_OFF	n/a	n/a	PANTS	n/a	2	6	[0, 0, 0]	n/a	catFR1	1	R1260D
822.867	1.617	855387	WORD	n/a	wordpools/wordpool_categorized_EN.txt	CROW	Birds	3	6	[0, 0, 0]	n/a	catFR1	1	R1260D
824.484	0.918	857004	WORD_OFF	n/a	n/a	CROW	n/a	3	6	[0, 0, 0]	n/a	catFR1	1	R1260D
825.402	1.616	857922	WORD	n/a	wordpools/wordpool_categorized_EN.txt	DUCK	Birds	4	6	[0, 0, 0]	n/a	catFR1	1	R1260D
827.018	0.816	859538	WORD_OFF	n/a	n/a	DUCK	n/a	4	6	[0, 0, 0]	n/a	catFR1	1	R1260D
827.834	1.618	860354	WORD	n/a	wordpools/wordpool_categorized_EN.txt	ROOSTER	FarmAnimals	5	6	[0, 0, 0]	n/a	catFR1	1	R1260D
829.452	0.983	861972	WORD_OFF	n/a	n/a	ROOSTER	n/a	5	6	[0, 0, 0]	n/a	catFR1	1	R1260D
830.435	1.617	862955	WORD	n/a	wordpools/wordpool_categorized_EN.txt	PIG	FarmAnimals	6	6	[0, 0, 0]	n/a	catFR1	1	R1260D
832.052	0.834	864572	WORD_OFF	n/a	n/a	PIG	n/a	6	6	[0, 0, 0]	n/a	catFR1	1	R1260D
832.886	1.617	865406	WORD	n/a	wordpools/wordpool_categorized_EN.txt	BLUEBIRD	Birds	7	6	[0, 0, 0]	n/a	catFR1	1	R1260D
834.503	0.884	867023	WORD_OFF	n/a	n/a	BLUEBIRD	n/a	7	6	[0, 0, 0]	n/a	catFR1	1	R1260D
835.387	1.616	867907	WORD	n/a	wordpools/wordpool_categorized_EN.txt	FINCH	Birds	8	6	[0, 0, 0]	n/a	catFR1	1	R1260D
837.003	0.85	869523	WORD_OFF	n/a	n/a	FINCH	n/a	8	6	[0, 0, 0]	n/a	catFR1	1	R1260D
837.853	1.617	870373	WORD	n/a	wordpools/wordpool_categorized_EN.txt	JEANS	Clothing	9	6	[0, 0, 0]	n/a	catFR1	1	R1260D
839.47	0.801	871989	WORD_OFF	n/a	n/a	JEANS	n/a	9	6	[0, 0, 0]	n/a	catFR1	1	R1260D
840.271	1.616	872790	WORD	n/a	wordpools/wordpool_categorized_EN.txt	JACKET	Clothing	10	6	[0, 0, 0]	n/a	catFR1	1	R1260D
841.887	0.9	874406	WORD_OFF	n/a	n/a	JACKET	n/a	10	6	[0, 0, 0]	n/a	catFR1	1	R1260D
842.787	1.618	875306	WORD	n/a	wordpools/wordpool_categorized_EN.txt	CHICKEN	FarmAnimals	11	6	[0, 0, 0]	n/a	catFR1	1	R1260D
844.405	1.001	876924	WORD_OFF	n/a	n/a	CHICKEN	n/a	11	6	[0, 0, 0]	n/a	catFR1	1	R1260D
845.406	1.616	877925	WORD	n/a	wordpools/wordpool_categorized_EN.txt	COW	FarmAnimals	12	6	[0, 0, 0]	n/a	catFR1	1	R1260D
847.022	0.0	879541	ENCODING_END	n/a	n/a	n/a	n/a	-999	6	[0, 0, 0]	n/a	catFR1	1	R1260D
847.022	0.139	879541	WORD_OFF	n/a	n/a	COW	n/a	12	6	[0, 0, 0]	n/a	catFR1	1	R1260D
847.161	0.0	879680	DISTRACT_START	n/a	n/a	n/a	n/a	-999	6	[0, 0, 0]	n/a	catFR1	1	R1260D
847.161	0.011	879680	START	n/a	n/a	n/a	n/a	-999	6	[-999, -999, -999]	n/a	catFR1	1	R1260D
847.172	5.351	879691	PROB	5.326	n/a	n/a	n/a	-999	6	[7, 4, 8]	19.0	catFR1	1	R1260D
852.523	11.836	885042	PROB	11.808	n/a	n/a	n/a	-999	6	[8, 5, 8]	21.0	catFR1	1	R1260D
864.359	3.131	896877	PROB	3.131	n/a	n/a	n/a	-999	6	[8, 2, 5]	15.0	catFR1	1	R1260D
867.49	0.019	900008	STOP	n/a	n/a	n/a	n/a	-999	6	[-999, -999, -999]	n/a	catFR1	1	R1260D
867.509	0.6	900027	DISTRACT_END	n/a	n/a	n/a	n/a	-999	6	[0, 0, 0]	n/a	catFR1	1	R1260D
868.109	0.517	900627	RETRIEVAL_ORIENT	n/a	n/a	n/a	n/a	-999	6	[0, 0, 0]	n/a	catFR1	1	R1260D
868.626	1.35	901144	REC_START	n/a	n/a	n/a	n/a	-999	6	[0, 0, 0]	n/a	catFR1	1	R1260D
869.976	6.548	902494	REC_WORD	1.35	n/a	FINCH	Birds	8	6	[0, 0, 0]	n/a	catFR1	1	R1260D
876.524	6.625	909041	REC_WORD_VV	7.898	n/a	<>	n/a	-999	6	[0, 0, 0]	n/a	catFR1	1	R1260D
883.149	0.694	915666	REC_WORD_VV	14.523	n/a	<>	n/a	-999	6	[0, 0, 0]	n/a	catFR1	1	R1260D
883.843	6.521	916360	REC_WORD	15.217	n/a	ORANGE	n/a	-999	6	[0, 0, 0]	n/a	catFR1	1	R1260D
890.364	2.3	922881	REC_WORD_VV	21.738	n/a	<>	n/a	-999	6	[0, 0, 0]	n/a	catFR1	1	R1260D
892.664	1.968	925180	REC_WORD_VV	24.038	n/a	<>	n/a	-999	6	[0, 0, 0]	n/a	catFR1	1	R1260D
894.632	2.544	927148	REC_WORD	26.006	n/a	HAMMER	n/a	-999	6	[0, 0, 0]	n/a	catFR1	1	R1260D
897.176	1.46	929692	REC_WORD_VV	28.55	n/a	<>	n/a	-999	6	[0, 0, 0]	n/a	catFR1	1	R1260D
898.636	11.897	931152	REC_END	n/a	n/a	n/a	n/a	-999	6	[0, 0, 0]	n/a	catFR1	1	R1260D
910.533	0.5	943048	TRIAL	n/a	n/a	n/a	n/a	-999	7	[0, 0, 0]	n/a	catFR1	1	R1260D
911.033	10.428	943548	COUNTDOWN_START	n/a	n/a	n/a	n/a	-999	7	[0, 0, 0]	n/a	catFR1	1	R1260D
921.461	0.008	953976	COUNTDOWN_END	n/a	n/a	n/a	n/a	-999	7	[0, 0, 0]	n/a	catFR1	1	R1260D
921.469	1.616	953984	ORIENT	n/a	n/a	n/a	n/a	-999	7	[0, 0, 0]	n/a	catFR1	1	R1260D
923.085	2.269	955600	ORIENT_OFF	n/a	n/a	n/a	n/a	-999	7	[0, 0, 0]	n/a	catFR1	1	R1260D
925.354	1.616	957869	WORD	n/a	wordpools/wordpool_categorized_EN.txt	CABBAGE	Vegetables	1	7	[0, 0, 0]	n/a	catFR1	1	R1260D
926.97	0.966	959484	WORD_OFF	n/a	n/a	CABBAGE	n/a	1	7	[0, 0, 0]	n/a	catFR1	1	R1260D
927.936	1.617	960450	WORD	n/a	wordpools/wordpool_categorized_EN.txt	CORN	Vegetables	2	7	[0, 0, 0]	n/a	catFR1	1	R1260D
929.553	0.802	962067	WORD_OFF	n/a	n/a	CORN	n/a	2	7	[0, 0, 0]	n/a	catFR1	1	R1260D
930.355	1.615	962869	WORD	n/a	wordpools/wordpool_categorized_EN.txt	COOKIE	Desserts	3	7	[0, 0, 0]	n/a	catFR1	1	R1260D
931.97	1.001	964484	WORD_OFF	n/a	n/a	COOKIE	n/a	3	7	[0, 0, 0]	n/a	catFR1	1	R1260D
932.971	1.617	965485	WORD	n/a	wordpools/wordpool_categorized_EN.txt	PUDDING	Desserts	4	7	[0, 0, 0]	n/a	catFR1	1	R1260D
934.588	0.834	967102	WORD_OFF	n/a	n/a	PUDDING	n/a	4	7	[0, 0, 0]	n/a	catFR1	1	R1260D
935.422	1.616	967936	WORD	n/a	wordpools/wordpool_categorized_EN.txt	HEN	FarmAnimals	5	7	[0, 0, 0]	n/a	catFR1	1	R1260D
937.038	0.784	969552	WORD_OFF	n/a	n/a	HEN	n/a	5	7	[0, 0, 0]	n/a	catFR1	1	R1260D
937.822	1.616	970336	WORD	n/a	wordpools/wordpool_categorized_EN.txt	GOAT	FarmAnimals	6	7	[0, 0, 0]	n/a	catFR1	1	R1260D
939.438	0.852	971952	WORD_OFF	n/a	n/a	GOAT	n/a	6	7	[0, 0, 0]	n/a	catFR1	1	R1260D
940.29	1.616	972804	WORD	n/a	wordpools/wordpool_categorized_EN.txt	FUDGE	Desserts	7	7	[0, 0, 0]	n/a	catFR1	1	R1260D
941.906	0.883	974420	WORD_OFF	n/a	n/a	FUDGE	n/a	7	7	[0, 0, 0]	n/a	catFR1	1	R1260D
942.789	1.618	975303	WORD	n/a	wordpools/wordpool_categorized_EN.txt	JELLO	Desserts	8	7	[0, 0, 0]	n/a	catFR1	1	R1260D
944.407	0.799	976920	WORD_OFF	n/a	n/a	JELLO	n/a	8	7	[0, 0, 0]	n/a	catFR1	1	R1260D
945.206	1.617	977719	WORD	n/a	wordpools/wordpool_categorized_EN.txt	CELERY	Vegetables	9	7	[0, 0, 0]	n/a	catFR1	1	R1260D
946.823	0.95	979336	WORD_OFF	n/a	n/a	CELERY	n/a	9	7	[0, 0, 0]	n/a	catFR1	1	R1260D
947.773	1.618	980286	WORD	n/a	wordpools/wordpool_categorized_EN.txt	CARROT	Vegetables	10	7	[0, 0, 0]	n/a	catFR1	1	R1260D
949.391	0.951	981904	WORD_OFF	n/a	n/a	CARROT	n/a	10	7	[0, 0, 0]	n/a	catFR1	1	R1260D
950.342	1.615	982855	WORD	n/a	wordpools/wordpool_categorized_EN.txt	LAMB	FarmAnimals	11	7	[0, 0, 0]	n/a	catFR1	1	R1260D
951.957	0.967	984470	WORD_OFF	n/a	n/a	LAMB	n/a	11	7	[0, 0, 0]	n/a	catFR1	1	R1260D
952.924	1.617	985437	WORD	n/a	wordpools/wordpool_categorized_EN.txt	BULL	FarmAnimals	12	7	[0, 0, 0]	n/a	catFR1	1	R1260D
954.541	0.0	987054	ENCODING_END	n/a	n/a	n/a	n/a	-999	7	[0, 0, 0]	n/a	catFR1	1	R1260D
954.541	0.128	987054	WORD_OFF	n/a	n/a	BULL	n/a	12	7	[0, 0, 0]	n/a	catFR1	1	R1260D
954.669	0.0	987182	DISTRACT_START	n/a	n/a	n/a	n/a	-999	7	[0, 0, 0]	n/a	catFR1	1	R1260D
954.669	0.022	987182	START	n/a	n/a	n/a	n/a	-999	7	[-999, -999, -999]	n/a	catFR1	1	R1260D
954.691	8.035	987204	PROB	7.999	n/a	n/a	n/a	-999	7	[8, 3, 9]	20.0	catFR1	1	R1260D
962.726	3.652	995238	PROB	3.613	n/a	n/a	n/a	-999	7	[9, 9, 1]	19.0	catFR1	1	R1260D
966.378	4.716	998890	PROB	4.688	n/a	n/a	n/a	-999	7	[8, 1, 3]	12.0	catFR1	1	R1260D
971.094	2.285	1003606	PROB	2.253	n/a	n/a	n/a	-999	7	[4, 4, 4]	12.0	catFR1	1	R1260D
973.379	20.662	1005891	PROB	20.662	n/a	n/a	n/a	-999	7	[7, 8, 7]	25.0	catFR1	1	R1260D
994.041	0.008	1026552	STOP	n/a	n/a	n/a	n/a	-999	7	[-999, -999, -999]	n/a	catFR1	1	R1260D
994.049	0.516	1026560	DISTRACT_END	n/a	n/a	n/a	n/a	-999	7	[0, 0, 0]	n/a	catFR1	1	R1260D
994.565	0.518	1027076	RETRIEVAL_ORIENT	n/a	n/a	n/a	n/a	-999	7	[0, 0, 0]	n/a	catFR1	1	R1260D
995.083	7.982	1027594	REC_START	n/a	n/a	n/a	n/a	-999	7	[0, 0, 0]	n/a	catFR1	1	R1260D
1003.065	2.157	1035575	REC_WORD	7.982	n/a	CABBAGE	Vegetables	1	7	[0, 0, 0]	n/a	catFR1	1	R1260D
1005.222	3.055	1037732	REC_WORD	10.139	n/a	CAR	n/a	-999	7	[0, 0, 0]	n/a	catFR1	1	R1260D
1008.277	13.234	1040787	REC_WORD	13.194	n/a	CARROT	Vegetables	10	7	[0, 0, 0]	n/a	catFR1	1	R1260D
1021.511	3.58	1054020	REC_WORD_VV	26.428	n/a	<>	n/a	-999	7	[0, 0, 0]	n/a	catFR1	1	R1260D
1025.091	29.419	1057600	REC_END	n/a	n/a	n/a	n/a	-999	7	[0, 0, 0]	n/a	catFR1	1	R1260D
1054.51	0.5	1087017	TRIAL	n/a	n/a	n/a	n/a	-999	8	[0, 0, 0]	n/a	catFR1	1	R1260D
1055.01	10.428	1087517	COUNTDOWN_START	n/a	n/a	n/a	n/a	-999	8	[0, 0, 0]	n/a	catFR1	1	R1260D
1065.438	0.007	1097945	COUNTDOWN_END	n/a	n/a	n/a	n/a	-999	8	[0, 0, 0]	n/a	catFR1	1	R1260D
1065.445	1.617	1097952	ORIENT	n/a	n/a	n/a	n/a	-999	8	[0, 0, 0]	n/a	catFR1	1	R1260D
1067.062	2.218	1099569	ORIENT_OFF	n/a	n/a	n/a	n/a	-999	8	[0, 0, 0]	n/a	catFR1	1	R1260D
1069.28	1.616	1101786	WORD	n/a	wordpools/wordpool_categorized_EN.txt	SEAGULL	Birds	1	8	[0, 0, 0]	n/a	catFR1	1	R1260D
1070.896	0.883	1103402	WORD_OFF	n/a	n/a	SEAGULL	n/a	1	8	[0, 0, 0]	n/a	catFR1	1	R1260D
1071.779	1.618	1104285	WORD	n/a	wordpools/wordpool_categorized_EN.txt	GOOSE	Birds	2	8	[0, 0, 0]	n/a	catFR1	1	R1260D
1073.397	0.8	1105903	WORD_OFF	n/a	n/a	GOOSE	n/a	2	8	[0, 0, 0]	n/a	catFR1	1	R1260D
1074.197	1.616	1106703	WORD	n/a	wordpools/wordpool_categorized_EN.txt	JEEP	Vehicles	3	8	[0, 0, 0]	n/a	catFR1	1	R1260D
1075.813	0.984	1108319	WORD_OFF	n/a	n/a	JEEP	n/a	3	8	[0, 0, 0]	n/a	catFR1	1	R1260D
1076.797	1.601	1109303	WORD	n/a	wordpools/wordpool_categorized_EN.txt	SCOOTER	Vehicles	4	8	[0, 0, 0]	n/a	catFR1	1	R1260D
1078.398	0.917	1110904	WORD_OFF	n/a	n/a	SCOOTER	n/a	4	8	[0, 0, 0]	n/a	catFR1	1	R1260D
1079.315	1.616	1111821	WORD	n/a	wordpools/wordpool_categorized_EN.txt	CEDAR	Trees	5	8	[0, 0, 0]	n/a	catFR1	1	R1260D
1080.931	0.867	1113437	WORD_OFF	n/a	n/a	CEDAR	n/a	5	8	[0, 0, 0]	n/a	catFR1	1	R1260D
1081.798	1.618	1114304	WORD	n/a	wordpools/wordpool_categorized_EN.txt	SPRUCE	Trees	6	8	[0, 0, 0]	n/a	catFR1	1	R1260D
1083.416	0.917	1115922	WORD_OFF	n/a	n/a	SPRUCE	n/a	6	8	[0, 0, 0]	n/a	catFR1	1	R1260D
1084.333	1.616	1116839	WORD	n/a	wordpools/wordpool_categorized_EN.txt	PIGEON	Birds	7	8	[0, 0, 0]	n/a	catFR1	1	R1260D
1085.949	0.833	1118454	WORD_OFF	n/a	n/a	PIGEON	n/a	7	8	[0, 0, 0]	n/a	catFR1	1	R1260D
1086.782	1.618	1119287	WORD	n/a	wordpools/wordpool_categorized_EN.txt	DOVE	Birds	8	8	[0, 0, 0]	n/a	catFR1	1	R1260D
1088.4	0.849	1120905	WORD_OFF	n/a	n/a	DOVE	n/a	8	8	[0, 0, 0]	n/a	catFR1	1	R1260D
1089.249	1.617	1121754	WORD	n/a	wordpools/wordpool_categorized_EN.txt	TRUCK	Vehicles	9	8	[0, 0, 0]	n/a	catFR1	1	R1260D
1090.866	1.017	1123371	WORD_OFF	n/a	n/a	TRUCK	n/a	9	8	[0, 0, 0]	n/a	catFR1	1	R1260D
1091.883	1.617	1124388	WORD	n/a	wordpools/wordpool_categorized_EN.txt	MOPED	Vehicles	10	8	[0, 0, 0]	n/a	catFR1	1	R1260D
1093.5	0.801	1126005	WORD_OFF	n/a	n/a	MOPED	n/a	10	8	[0, 0, 0]	n/a	catFR1	1	R1260D
1094.301	1.616	1126806	WORD	n/a	wordpools/wordpool_categorized_EN.txt	WILLOW	Trees	11	8	[0, 0, 0]	n/a	catFR1	1	R1260D
1095.917	0.984	1128422	WORD_OFF	n/a	n/a	WILLOW	n/a	11	8	[0, 0, 0]	n/a	catFR1	1	R1260D
1096.901	1.617	1129406	WORD	n/a	wordpools/wordpool_categorized_EN.txt	CYPRESS	Trees	12	8	[0, 0, 0]	n/a	catFR1	1	R1260D
1098.518	0.0	1131023	ENCODING_END	n/a	n/a	n/a	n/a	-999	8	[0, 0, 0]	n/a	catFR1	1	R1260D
1098.518	0.103	1131023	WORD_OFF	n/a	n/a	CYPRESS	n/a	12	8	[0, 0, 0]	n/a	catFR1	1	R1260D
1098.621	0.0	1131126	DISTRACT_START	n/a	n/a	n/a	n/a	-999	8	[0, 0, 0]	n/a	catFR1	1	R1260D
1098.621	0.013	1131126	START	n/a	n/a	n/a	n/a	-999	8	[-999, -999, -999]	n/a	catFR1	1	R1260D
1098.634	4.918	1131139	PROB	4.895	n/a	n/a	n/a	-999	8	[4, 8, 7]	19.0	catFR1	1	R1260D
1103.552	8.401	1136056	PROB	8.37	n/a	n/a	n/a	-999	8	[3, 7, 5]	15.0	catFR1	1	R1260D
1111.953	3.452	1144457	PROB	3.425	n/a	n/a	n/a	-999	8	[6, 2, 7]	15.0	catFR1	1	R1260D
1115.405	3.349	1147909	PROB	3.349	n/a	n/a	n/a	-999	8	[5, 9, 1]	15.0	catFR1	1	R1260D
1118.754	0.018	1151258	STOP	n/a	n/a	n/a	n/a	-999	8	[-999, -999, -999]	n/a	catFR1	1	R1260D
1118.772	0.683	1151276	DISTRACT_END	n/a	n/a	n/a	n/a	-999	8	[0, 0, 0]	n/a	catFR1	1	R1260D
1119.455	0.517	1151959	RETRIEVAL_ORIENT	n/a	n/a	n/a	n/a	-999	8	[0, 0, 0]	n/a	catFR1	1	R1260D
1119.972	2.168	1152476	REC_START	n/a	n/a	n/a	n/a	-999	8	[0, 0, 0]	n/a	catFR1	1	R1260D
1122.14	3.445	1154643	REC_WORD_VV	2.168	n/a	<>	n/a	-999	8	[0, 0, 0]	n/a	catFR1	1	R1260D
1125.585	1.794	1158088	REC_WORD	5.613	n/a	JEEP	Vehicles	3	8	[0, 0, 0]	n/a	catFR1	1	R1260D
1127.379	12.678	1159882	REC_WORD	7.407	n/a	SPRUCE	Trees	6	8	[0, 0, 0]	n/a	catFR1	1	R1260D
1140.057	9.923	1172559	REC_WORD	20.085	n/a	IRIS	n/a	-999	8	[0, 0, 0]	n/a	catFR1	1	R1260D
1149.98	22.734	1182482	REC_END	n/a	n/a	n/a	n/a	-999	8	[0, 0, 0]	n/a	catFR1	1	R1260D
1172.714	0.5	1205215	TRIAL	n/a	n/a	n/a	n/a	-999	9	[0, 0, 0]	n/a	catFR1	1	R1260D
1173.214	10.428	1205714	COUNTDOWN_START	n/a	n/a	n/a	n/a	-999	9	[0, 0, 0]	n/a	catFR1	1	R1260D
1183.642	0.008	1216142	COUNTDOWN_END	n/a	n/a	n/a	n/a	-999	9	[0, 0, 0]	n/a	catFR1	1	R1260D
1183.65	1.618	1216150	ORIENT	n/a	n/a	n/a	n/a	-999	9	[0, 0, 0]	n/a	catFR1	1	R1260D
1185.268	2.199	1217768	ORIENT_OFF	n/a	n/a	n/a	n/a	-999	9	[0, 0, 0]	n/a	catFR1	1	R1260D
1187.467	1.617	1219967	WORD	n/a	wordpools/wordpool_categorized_EN.txt	PEELER	KitchenTools	1	9	[0, 0, 0]	n/a	catFR1	1	R1260D
1189.084	0.95	1221584	WORD_OFF	n/a	n/a	PEELER	n/a	1	9	[0, 0, 0]	n/a	catFR1	1	R1260D
1190.034	1.617	1222534	WORD	n/a	wordpools/wordpool_categorized_EN.txt	KNIFE	KitchenTools	2	9	[0, 0, 0]	n/a	catFR1	1	R1260D
1191.651	0.917	1224150	WORD_OFF	n/a	n/a	KNIFE	n/a	2	9	[0, 0, 0]	n/a	catFR1	1	R1260D
1192.568	1.617	1225067	WORD	n/a	wordpools/wordpool_categorized_EN.txt	PLANE	Vehicles	3	9	[0, 0, 0]	n/a	catFR1	1	R1260D
1194.185	0.867	1226684	WORD_OFF	n/a	n/a	PLANE	n/a	3	9	[0, 0, 0]	n/a	catFR1	1	R1260D
1195.052	1.617	1227551	WORD	n/a	wordpools/wordpool_categorized_EN.txt	BOAT	Vehicles	4	9	[0, 0, 0]	n/a	catFR1	1	R1260D
1196.669	0.9	1229168	WORD_OFF	n/a	n/a	BOAT	n/a	4	9	[0, 0, 0]	n/a	catFR1	1	R1260D
1197.569	1.617	1230068	WORD	n/a	wordpools/wordpool_categorized_EN.txt	MONKEY	Zoo	5	9	[0, 0, 0]	n/a	catFR1	1	R1260D
1199.186	1.017	1231685	WORD_OFF	n/a	n/a	MONKEY	n/a	5	9	[0, 0, 0]	n/a	catFR1	1	R1260D
1200.203	1.617	1232702	WORD	n/a	wordpools/wordpool_categorized_EN.txt	TIGER	Zoo	6	9	[0, 0, 0]	n/a	catFR1	1	R1260D
1201.82	0.816	1234319	WORD_OFF	n/a	n/a	TIGER	n/a	6	9	[0, 0, 0]	n/a	catFR1	1	R1260D
1202.636	1.618	1235135	WORD	n/a	wordpools/wordpool_categorized_EN.txt	SPOON	KitchenTools	7	9	[0, 0, 0]	n/a	catFR1	1	R1260D
1204.254	0.833	1236753	WORD_OFF	n/a	n/a	SPOON	n/a	7	9	[0, 0, 0]	n/a	catFR1	1	R1260D
1205.087	1.617	1237586	WORD	n/a	wordpools/wordpool_categorized_EN.txt	TONGS	KitchenTools	8	9	[0, 0, 0]	n/a	catFR1	1	R1260D
1206.704	0.783	1239203	WORD_OFF	n/a	n/a	TONGS	n/a	8	9	[0, 0, 0]	n/a	catFR1	1	R1260D
1207.487	1.617	1239986	WORD	n/a	wordpools/wordpool_categorized_EN.txt	TRAIN	Vehicles	9	9	[0, 0, 0]	n/a	catFR1	1	R1260D
1209.104	0.901	1241602	WORD_OFF	n/a	n/a	TRAIN	n/a	9	9	[0, 0, 0]	n/a	catFR1	1	R1260D
1210.005	1.617	1242503	WORD	n/a	wordpools/wordpool_categorized_EN.txt	VAN	Vehicles	10	9	[0, 0, 0]	n/a	catFR1	1	R1260D
1211.622	0.767	1244120	WORD_OFF	n/a	n/a	VAN	n/a	10	9	[0, 0, 0]	n/a	catFR1	1	R1260D
1212.389	1.616	1244887	WORD	n/a	wordpools/wordpool_categorized_EN.txt	GORILLA	Zoo	11	9	[0, 0, 0]	n/a	catFR1	1	R1260D
1214.005	0.801	1246503	WORD_OFF	n/a	n/a	GORILLA	n/a	11	9	[0, 0, 0]	n/a	catFR1	1	R1260D
1214.806	1.617	1247304	WORD	n/a	wordpools/wordpool_categorized_EN.txt	LION	Zoo	12	9	[0, 0, 0]	n/a	catFR1	1	R1260D
1216.423	0.001	1248921	WORD_OFF	n/a	n/a	LION	n/a	12	9	[0, 0, 0]	n/a	catFR1	1	R1260D
1216.424	0.135	1248922	ENCODING_END	n/a	n/a	n/a	n/a	-999	9	[0, 0, 0]	n/a	catFR1	1	R1260D
1216.559	0.0	1249057	DISTRACT_START	n/a	n/a	n/a	n/a	-999	9	[0, 0, 0]	n/a	catFR1	1	R1260D
1216.559	0.014	1249057	START	n/a	n/a	n/a	n/a	-999	9	[-999, -999, -999]	n/a	catFR1	1	R1260D
1216.573	4.934	1249071	PROB	4.909	n/a	n/a	n/a	-999	9	[2, 7, 1]	10.0	catFR1	1	R1260D
1221.507	3.5	1254005	PROB	3.478	n/a	n/a	n/a	-999	9	[3, 1, 1]	5.0	catFR1	1	R1260D
1225.007	4.935	1257505	PROB	4.899	n/a	n/a	n/a	-999	9	[5, 7, 8]	20.0	catFR1	1	R1260D
1229.942	9.108	1262439	PROB	9.108	n/a	n/a	n/a	-999	9	[6, 9, 6]	21.0	catFR1	1	R1260D
1239.05	0.01	1271547	STOP	n/a	n/a	n/a	n/a	-999	9	[-999, -999, -999]	n/a	catFR1	1	R1260D
1239.06	0.7	1271557	DISTRACT_END	n/a	n/a	n/a	n/a	-999	9	[0, 0, 0]	n/a	catFR1	1	R1260D
1239.76	0.518	1272257	RETRIEVAL_ORIENT	n/a	n/a	n/a	n/a	-999	9	[0, 0, 0]	n/a	catFR1	1	R1260D
1240.278	6.895	1272775	REC_START	n/a	n/a	n/a	n/a	-999	9	[0, 0, 0]	n/a	catFR1	1	R1260D
1247.173	2.667	1279669	REC_WORD	6.895	n/a	PEELER	KitchenTools	1	9	[0, 0, 0]	n/a	catFR1	1	R1260D
1249.84	0.091	1282336	REC_WORD_VV	9.562	n/a	<>	n/a	-999	9	[0, 0, 0]	n/a	catFR1	1	R1260D
1249.931	2.552	1282427	REC_WORD	9.653	n/a	KNIFE	KitchenTools	2	9	[0, 0, 0]	n/a	catFR1	1	R1260D
1252.483	7.264	1284979	REC_WORD_VV	12.205	n/a	<>	n/a	-999	9	[0, 0, 0]	n/a	catFR1	1	R1260D
1259.747	3.844	1292243	REC_WORD_VV	19.469	n/a	<>	n/a	-999	9	[0, 0, 0]	n/a	catFR1	1	R1260D
1263.591	3.81	1296086	REC_WORD_VV	23.313	n/a	<>	n/a	-999	9	[0, 0, 0]	n/a	catFR1	1	R1260D
1267.401	0.454	1299896	REC_WORD_VV	27.123	n/a	<>	n/a	-999	9	[0, 0, 0]	n/a	catFR1	1	R1260D
1267.855	0.433	1300350	REC_WORD	27.577	n/a	JEEP	n/a	-999	9	[0, 0, 0]	n/a	catFR1	1	R1260D
1268.288	2.001	1300783	REC_WORD_VV	28.01	n/a	<>	n/a	-999	9	[0, 0, 0]	n/a	catFR1	1	R1260D
1270.289	12.446	1302784	REC_END	n/a	n/a	n/a	n/a	-999	9	[0, 0, 0]	n/a	catFR1	1	R1260D
1282.735	0.5	1315229	TRIAL	n/a	n/a	n/a	n/a	-999	10	[0, 0, 0]	n/a	catFR1	1	R1260D
1283.235	10.428	1315729	COUNTDOWN_START	n/a	n/a	n/a	n/a	-999	10	[0, 0, 0]	n/a	catFR1	1	R1260D
1293.663	0.007	1326157	COUNTDOWN_END	n/a	n/a	n/a	n/a	-999	10	[0, 0, 0]	n/a	catFR1	1	R1260D
1293.67	1.601	1326164	ORIENT	n/a	n/a	n/a	n/a	-999	10	[0, 0, 0]	n/a	catFR1	1	R1260D
1295.271	2.25	1327765	ORIENT_OFF	n/a	n/a	n/a	n/a	-999	10	[0, 0, 0]	n/a	catFR1	1	R1260D
1297.521	1.617	1330014	WORD	n/a	wordpools/wordpool_categorized_EN.txt	EYE	BodyParts	1	10	[0, 0, 0]	n/a	catFR1	1	R1260D
1299.138	0.817	1331631	WORD_OFF	n/a	n/a	EYE	n/a	1	10	[0, 0, 0]	n/a	catFR1	1	R1260D
1299.955	1.616	1332448	WORD	n/a	wordpools/wordpool_categorized_EN.txt	TOE	BodyParts	2	10	[0, 0, 0]	n/a	catFR1	1	R1260D
1301.571	0.768	1334064	WORD_OFF	n/a	n/a	TOE	n/a	2	10	[0, 0, 0]	n/a	catFR1	1	R1260D
1302.339	1.616	1334832	WORD	n/a	wordpools/wordpool_categorized_EN.txt	GLUE	OfficeSupplies	3	10	[0, 0, 0]	n/a	catFR1	1	R1260D
1303.955	0.884	1336448	WORD_OFF	n/a	n/a	GLUE	n/a	3	10	[0, 0, 0]	n/a	catFR1	1	R1260D
1304.839	1.617	1337332	WORD	n/a	wordpools/wordpool_categorized_EN.txt	BINDER	OfficeSupplies	4	10	[0, 0, 0]	n/a	catFR1	1	R1260D
1306.456	0.917	1338949	WORD_OFF	n/a	n/a	BINDER	n/a	4	10	[0, 0, 0]	n/a	catFR1	1	R1260D
1307.373	1.616	1339866	WORD	n/a	wordpools/wordpool_categorized_EN.txt	COLA	Beverages	5	10	[0, 0, 0]	n/a	catFR1	1	R1260D
1308.989	1.001	1341482	WORD_OFF	n/a	n/a	COLA	n/a	5	10	[0, 0, 0]	n/a	catFR1	1	R1260D
1309.99	1.617	1342483	WORD	n/a	wordpools/wordpool_categorized_EN.txt	RUM	Beverages	6	10	[0, 0, 0]	n/a	catFR1	1	R1260D
1311.607	0.784	1344100	WORD_OFF	n/a	n/a	RUM	n/a	6	10	[0, 0, 0]	n/a	catFR1	1	R1260D
1312.391	1.616	1344884	WORD	n/a	wordpools/wordpool_categorized_EN.txt	PAPER	OfficeSupplies	7	10	[0, 0, 0]	n/a	catFR1	1	R1260D
1314.007	1.0	1346499	WORD_OFF	n/a	n/a	PAPER	n/a	7	10	[0, 0, 0]	n/a	catFR1	1	R1260D
1315.007	1.617	1347499	WORD	n/a	wordpools/wordpool_categorized_EN.txt	MARKER	OfficeSupplies	8	10	[0, 0, 0]	n/a	catFR1	1	R1260D
1316.624	0.867	1349116	WORD_OFF	n/a	n/a	MARKER	n/a	8	10	[0, 0, 0]	n/a	catFR1	1	R1260D
1317.491	1.617	1349983	WORD	n/a	wordpools/wordpool_categorized_EN.txt	ELBOW	BodyParts	9	10	[0, 0, 0]	n/a	catFR1	1	R1260D
1319.108	0.85	1351600	WORD_OFF	n/a	n/a	ELBOW	n/a	9	10	[0, 0, 0]	n/a	catFR1	1	R1260D
1319.958	1.617	1352450	WORD	n/a	wordpools/wordpool_categorized_EN.txt	HAND	BodyParts	10	10	[0, 0, 0]	n/a	catFR1	1	R1260D
1321.575	0.917	1354067	WORD_OFF	n/a	n/a	HAND	n/a	10	10	[0, 0, 0]	n/a	catFR1	1	R1260D
1322.492	1.617	1354984	WORD	n/a	wordpools/wordpool_categorized_EN.txt	WATER	Beverages	11	10	[0, 0, 0]	n/a	catFR1	1	R1260D
1324.109	0.883	1356601	WORD_OFF	n/a	n/a	WATER	n/a	11	10	[0, 0, 0]	n/a	catFR1	1	R1260D
1324.992	1.617	1357484	WORD	n/a	wordpools/wordpool_categorized_EN.txt	TEA	Beverages	12	10	[0, 0, 0]	n/a	catFR1	1	R1260D
1326.609	0.001	1359101	WORD_OFF	n/a	n/a	TEA	n/a	12	10	[0, 0, 0]	n/a	catFR1	1	R1260D
1326.61	0.106	1359102	ENCODING_END	n/a	n/a	n/a	n/a	-999	10	[0, 0, 0]	n/a	catFR1	1	R1260D
1326.716	0.0	1359208	DISTRACT_START	n/a	n/a	n/a	n/a	-999	10	[0, 0, 0]	n/a	catFR1	1	R1260D
1326.716	0.01	1359208	START	n/a	n/a	n/a	n/a	-999	10	[-999, -999, -999]	n/a	catFR1	1	R1260D
1326.726	7.435	1359218	PROB	7.411	n/a	n/a	n/a	-999	10	[8, 7, 3]	18.0	catFR1	1	R1260D
1334.161	8.635	1366652	PROB	8.609	n/a	n/a	n/a	-999	10	[2, 8, 6]	16.0	catFR1	1	R1260D
1342.796	3.317	1375287	PROB	3.294	n/a	n/a	n/a	-999	10	[2, 2, 4]	6.0	catFR1	1	R1260D
1346.113	5.68	1378604	PROB	5.68	n/a	n/a	n/a	-999	10	[9, 1, 6]	16.0	catFR1	1	R1260D
1351.793	0.021	1384283	STOP	n/a	n/a	n/a	n/a	-999	10	[-999, -999, -999]	n/a	catFR1	1	R1260D
1351.814	0.551	1384304	DISTRACT_END	n/a	n/a	n/a	n/a	-999	10	[0, 0, 0]	n/a	catFR1	1	R1260D
1352.365	0.516	1384855	RETRIEVAL_ORIENT	n/a	n/a	n/a	n/a	-999	10	[0, 0, 0]	n/a	catFR1	1	R1260D
1352.881	3.5	1385371	REC_START	n/a	n/a	n/a	n/a	-999	10	[0, 0, 0]	n/a	catFR1	1	R1260D
1356.381	7.68	1388871	REC_WORD_VV	3.5	n/a	<>	n/a	-999	10	[0, 0, 0]	n/a	catFR1	1	R1260D
1364.061	2.989	1396551	REC_WORD	11.18	n/a	COLA	Beverages	5	10	[0, 0, 0]	n/a	catFR1	1	R1260D
1367.05	12.18	1399539	REC_WORD	14.169	n/a	RUM	Beverages	6	10	[0, 0, 0]	n/a	catFR1	1	R1260D
1379.23	1.6	1411719	REC_WORD_VV	26.349	n/a	<>	n/a	-999	10	[0, 0, 0]	n/a	catFR1	1	R1260D
1380.83	0.489	1413319	REC_WORD	27.949	n/a	FORK	n/a	-999	10	[0, 0, 0]	n/a	catFR1	1	R1260D
1381.319	0.228	1413808	REC_WORD_VV	28.438	n/a	<>	n/a	-999	10	[0, 0, 0]	n/a	catFR1	1	R1260D
1381.547	1.345	1414036	REC_WORD	28.666	n/a	KNIFE	n/a	-999	10	[0, 0, 0]	n/a	catFR1	1	R1260D
1382.892	14.18	1415381	REC_END	n/a	n/a	n/a	n/a	-999	10	[0, 0, 0]	n/a	catFR1	1	R1260D
1397.072	0.5	1429560	TRIAL	n/a	n/a	n/a	n/a	-999	11	[0, 0, 0]	n/a	catFR1	1	R1260D
1397.572	10.428	1430060	COUNTDOWN_START	n/a	n/a	n/a	n/a	-999	11	[0, 0, 0]	n/a	catFR1	1	R1260D
1408.0	0.008	1440487	COUNTDOWN_END	n/a	n/a	n/a	n/a	-999	11	[0, 0, 0]	n/a	catFR1	1	R1260D
1408.008	1.616	1440495	ORIENT	n/a	n/a	n/a	n/a	-999	11	[0, 0, 0]	n/a	catFR1	1	R1260D
1409.624	2.068	1442111	ORIENT_OFF	n/a	n/a	n/a	n/a	-999	11	[0, 0, 0]	n/a	catFR1	1	R1260D
1411.692	1.617	1444179	WORD	n/a	wordpools/wordpool_categorized_EN.txt	OCEAN	Landscapes	1	11	[0, 0, 0]	n/a	catFR1	1	R1260D
1413.309	0.816	1445796	WORD_OFF	n/a	n/a	OCEAN	n/a	1	11	[0, 0, 0]	n/a	catFR1	1	R1260D
1414.125	1.601	1446612	WORD	n/a	wordpools/wordpool_categorized_EN.txt	ISLAND	Landscapes	2	11	[0, 0, 0]	n/a	catFR1	1	R1260D
1415.726	0.883	1448213	WORD_OFF	n/a	n/a	ISLAND	n/a	2	11	[0, 0, 0]	n/a	catFR1	1	R1260D
1416.609	1.617	1449096	WORD	n/a	wordpools/wordpool_categorized_EN.txt	CABINET	Furniture	3	11	[0, 0, 0]	n/a	catFR1	1	R1260D
1418.226	0.984	1450713	WORD_OFF	n/a	n/a	CABINET	n/a	3	11	[0, 0, 0]	n/a	catFR1	1	R1260D
1419.21	1.617	1451697	WORD	n/a	wordpools/wordpool_categorized_EN.txt	NIGHTSTAND	Furniture	4	11	[0, 0, 0]	n/a	catFR1	1	R1260D
1420.827	0.816	1453313	WORD_OFF	n/a	n/a	NIGHTSTAND	n/a	4	11	[0, 0, 0]	n/a	catFR1	1	R1260D
1421.643	1.618	1454129	WORD	n/a	wordpools/wordpool_categorized_EN.txt	RAIN	Weather	5	11	[0, 0, 0]	n/a	catFR1	1	R1260D
1423.261	1.001	1455747	WORD_OFF	n/a	n/a	RAIN	n/a	5	11	[0, 0, 0]	n/a	catFR1	1	R1260D
1424.262	1.615	1456748	WORD	n/a	wordpools/wordpool_categorized_EN.txt	THUNDER	Weather	6	11	[0, 0, 0]	n/a	catFR1	1	R1260D
1425.877	0.767	1458363	WORD_OFF	n/a	n/a	THUNDER	n/a	6	11	[0, 0, 0]	n/a	catFR1	1	R1260D
1426.644	1.618	1459130	WORD	n/a	wordpools/wordpool_categorized_EN.txt	TABLE	Furniture	7	11	[0, 0, 0]	n/a	catFR1	1	R1260D
1428.262	0.933	1460748	WORD_OFF	n/a	n/a	TABLE	n/a	7	11	[0, 0, 0]	n/a	catFR1	1	R1260D
1429.195	1.616	1461681	WORD	n/a	wordpools/wordpool_categorized_EN.txt	BED	Furniture	8	11	[0, 0, 0]	n/a	catFR1	1	R1260D
1430.811	0.984	1463297	WORD_OFF	n/a	n/a	BED	n/a	8	11	[0, 0, 0]	n/a	catFR1	1	R1260D
1431.795	1.618	1464281	WORD	n/a	wordpools/wordpool_categorized_EN.txt	WOODS	Landscapes	9	11	[0, 0, 0]	n/a	catFR1	1	R1260D
1433.413	0.984	1465899	WORD_OFF	n/a	n/a	WOODS	n/a	9	11	[0, 0, 0]	n/a	catFR1	1	R1260D
1434.397	1.616	1466883	WORD	n/a	wordpools/wordpool_categorized_EN.txt	STREAM	Landscapes	10	11	[0, 0, 0]	n/a	catFR1	1	R1260D
1436.013	0.883	1468499	WORD_OFF	n/a	n/a	STREAM	n/a	10	11	[0, 0, 0]	n/a	catFR1	1	R1260D
1436.896	1.617	1469382	WORD	n/a	wordpools/wordpool_categorized_EN.txt	WIND	Weather	11	11	[0, 0, 0]	n/a	catFR1	1	R1260D
1438.513	0.801	1470998	WORD_OFF	n/a	n/a	WIND	n/a	11	11	[0, 0, 0]	n/a	catFR1	1	R1260D
1439.314	1.616	1471799	WORD	n/a	wordpools/wordpool_categorized_EN.txt	THUNDERSTORM	Weather	12	11	[0, 0, 0]	n/a	catFR1	1	R1260D
1440.93	0.0	1473415	ENCODING_END	n/a	n/a	n/a	n/a	-999	11	[0, 0, 0]	n/a	catFR1	1	R1260D
1440.93	0.104	1473415	WORD_OFF	n/a	n/a	THUNDERSTORM	n/a	12	11	[0, 0, 0]	n/a	catFR1	1	R1260D
1441.034	0.0	1473519	DISTRACT_START	n/a	n/a	n/a	n/a	-999	11	[0, 0, 0]	n/a	catFR1	1	R1260D
1441.034	0.013	1473519	START	n/a	n/a	n/a	n/a	-999	11	[-999, -999, -999]	n/a	catFR1	1	R1260D
1441.047	3.701	1473532	PROB	3.674	n/a	n/a	n/a	-999	11	[1, 7, 4]	12.0	catFR1	1	R1260D
1444.748	5.001	1477233	PROB	4.974	n/a	n/a	n/a	-999	11	[3, 8, 9]	20.0	catFR1	1	R1260D
1449.749	5.2	1482234	PROB	5.172	n/a	n/a	n/a	-999	11	[5, 7, 9]	19.0	catFR1	1	R1260D
1454.949	3.134	1487433	PROB	3.1	n/a	n/a	n/a	-999	11	[1, 2, 8]	11.0	catFR1	1	R1260D
1458.083	3.782	1490567	PROB	3.782	n/a	n/a	n/a	-999	11	[2, 8, 8]	18.0	catFR1	1	R1260D
1461.865	0.019	1494349	STOP	n/a	n/a	n/a	n/a	-999	11	[-999, -999, -999]	n/a	catFR1	1	R1260D
1461.884	0.55	1494368	DISTRACT_END	n/a	n/a	n/a	n/a	-999	11	[0, 0, 0]	n/a	catFR1	1	R1260D
1462.434	0.518	1494918	RETRIEVAL_ORIENT	n/a	n/a	n/a	n/a	-999	11	[0, 0, 0]	n/a	catFR1	1	R1260D
1462.952	7.18	1495436	REC_START	n/a	n/a	n/a	n/a	-999	11	[0, 0, 0]	n/a	catFR1	1	R1260D
1470.132	1.486	1502616	REC_WORD	7.18	n/a	THUNDER	Weather	6	11	[0, 0, 0]	n/a	catFR1	1	R1260D
1471.618	7.189	1504102	REC_WORD	8.666	n/a	THUNDERSTORM	Weather	12	11	[0, 0, 0]	n/a	catFR1	1	R1260D
1478.807	2.666	1511290	REC_WORD_VV	15.855	n/a	<>	n/a	-999	11	[0, 0, 0]	n/a	catFR1	1	R1260D
1481.473	3.725	1513956	REC_WORD	18.521	n/a	WATER	n/a	-999	11	[0, 0, 0]	n/a	catFR1	1	R1260D
1485.198	3.033	1517681	REC_WORD	22.246	n/a	OCEAN	Landscapes	1	11	[0, 0, 0]	n/a	catFR1	1	R1260D
1488.231	3.431	1520714	REC_WORD_VV	25.279	n/a	<>	n/a	-999	11	[0, 0, 0]	n/a	catFR1	1	R1260D
1491.662	1.301	1524144	REC_WORD	28.71	n/a	DOOR	n/a	-999	11	[0, 0, 0]	n/a	catFR1	1	R1260D
1492.963	16.314	1525445	REC_END	n/a	n/a	n/a	n/a	-999	11	[0, 0, 0]	n/a	catFR1	1	R1260D
1509.277	0.5	1541758	TRIAL	n/a	n/a	n/a	n/a	-999	12	[0, 0, 0]	n/a	catFR1	1	R1260D
1509.777	10.428	1542258	COUNTDOWN_START	n/a	n/a	n/a	n/a	-999	12	[0, 0, 0]	n/a	catFR1	1	R1260D
1520.205	0.006	1552686	COUNTDOWN_END	n/a	n/a	n/a	n/a	-999	12	[0, 0, 0]	n/a	catFR1	1	R1260D
1520.211	1.617	1552692	ORIENT	n/a	n/a	n/a	n/a	-999	12	[0, 0, 0]	n/a	catFR1	1	R1260D
1521.828	2.167	1554309	ORIENT_OFF	n/a	n/a	n/a	n/a	-999	12	[0, 0, 0]	n/a	catFR1	1	R1260D
1523.995	1.617	1556476	WORD	n/a	wordpools/wordpool_categorized_EN.txt	ONION	Vegetables	1	12	[0, 0, 0]	n/a	catFR1	1	R1260D
1525.612	1.001	1558092	WORD_OFF	n/a	n/a	ONION	n/a	1	12	[0, 0, 0]	n/a	catFR1	1	R1260D
1526.613	1.617	1559093	WORD	n/a	wordpools/wordpool_categorized_EN.txt	BROCCOLI	Vegetables	2	12	[0, 0, 0]	n/a	catFR1	1	R1260D
1528.23	0.95	1560710	WORD_OFF	n/a	n/a	BROCCOLI	n/a	2	12	[0, 0, 0]	n/a	catFR1	1	R1260D
1529.18	1.617	1561660	WORD	n/a	wordpools/wordpool_categorized_EN.txt	RECLINER	Furniture	3	12	[0, 0, 0]	n/a	catFR1	1	R1260D
1530.797	0.766	1563277	WORD_OFF	n/a	n/a	RECLINER	n/a	3	12	[0, 0, 0]	n/a	catFR1	1	R1260D
1531.563	1.617	1564043	WORD	n/a	wordpools/wordpool_categorized_EN.txt	COUCH	Furniture	4	12	[0, 0, 0]	n/a	catFR1	1	R1260D
1533.18	0.817	1565660	WORD_OFF	n/a	n/a	COUCH	n/a	4	12	[0, 0, 0]	n/a	catFR1	1	R1260D
1533.997	1.617	1566477	WORD	n/a	wordpools/wordpool_categorized_EN.txt	BANJO	Instruments	5	12	[0, 0, 0]	n/a	catFR1	1	R1260D
1535.614	0.884	1568094	WORD_OFF	n/a	n/a	BANJO	n/a	5	12	[0, 0, 0]	n/a	catFR1	1	R1260D
1536.498	1.617	1568978	WORD	n/a	wordpools/wordpool_categorized_EN.txt	CELLO	Instruments	6	12	[0, 0, 0]	n/a	catFR1	1	R1260D
1538.115	0.85	1570595	WORD_OFF	n/a	n/a	CELLO	n/a	6	12	[0, 0, 0]	n/a	catFR1	1	R1260D
1538.965	1.617	1571445	WORD	n/a	wordpools/wordpool_categorized_EN.txt	DESK	Furniture	7	12	[0, 0, 0]	n/a	catFR1	1	R1260D
1540.582	0.834	1573062	WORD_OFF	n/a	n/a	DESK	n/a	7	12	[0, 0, 0]	n/a	catFR1	1	R1260D
1541.416	1.616	1573896	WORD	n/a	wordpools/wordpool_categorized_EN.txt	BOOKCASE	Furniture	8	12	[0, 0, 0]	n/a	catFR1	1	R1260D
1543.032	0.85	1575511	WORD_OFF	n/a	n/a	BOOKCASE	n/a	8	12	[0, 0, 0]	n/a	catFR1	1	R1260D
1543.882	1.617	1576361	WORD	n/a	wordpools/wordpool_categorized_EN.txt	POTATO	Vegetables	9	12	[0, 0, 0]	n/a	catFR1	1	R1260D
1545.499	0.885	1577978	WORD_OFF	n/a	n/a	POTATO	n/a	9	12	[0, 0, 0]	n/a	catFR1	1	R1260D
1546.384	1.616	1578863	WORD	n/a	wordpools/wordpool_categorized_EN.txt	CAULIFLOWER	Vegetables	10	12	[0, 0, 0]	n/a	catFR1	1	R1260D
1548.0	0.85	1580479	WORD_OFF	n/a	n/a	CAULIFLOWER	n/a	10	12	[0, 0, 0]	n/a	catFR1	1	R1260D
1548.85	1.617	1581329	WORD	n/a	wordpools/wordpool_categorized_EN.txt	ORGAN	Instruments	11	12	[0, 0, 0]	n/a	catFR1	1	R1260D
1550.467	0.951	1582946	WORD_OFF	n/a	n/a	ORGAN	n/a	11	12	[0, 0, 0]	n/a	catFR1	1	R1260D
1551.418	1.616	1583897	WORD	n/a	wordpools/wordpool_categorized_EN.txt	TRUMPET	Instruments	12	12	[0, 0, 0]	n/a	catFR1	1	R1260D
1553.034	0.0	1585513	WORD_OFF	n/a	n/a	TRUMPET	n/a	12	12	[0, 0, 0]	n/a	catFR1	1	R1260D
1553.034	0.133	1585513	ENCODING_END	n/a	n/a	n/a	n/a	-999	12	[0, 0, 0]	n/a	catFR1	1	R1260D
1553.167	0.0	1585646	DISTRACT_START	n/a	n/a	n/a	n/a	-999	12	[0, 0, 0]	n/a	catFR1	1	R1260D
1553.167	0.017	1585646	START	n/a	n/a	n/a	n/a	-999	12	[-999, -999, -999]	n/a	catFR1	1	R1260D
1553.184	3.751	1585663	PROB	3.713	n/a	n/a	n/a	-999	12	[7, 9, 5]	21.0	catFR1	1	R1260D
1556.935	3.234	1589414	PROB	3.203	n/a	n/a	n/a	-999	12	[7, 1, 3]	11.0	catFR1	1	R1260D
1560.169	3.867	1592648	PROB	3.833	n/a	n/a	n/a	-999	12	[2, 9, 7]	18.0	catFR1	1	R1260D
1564.036	4.834	1596514	PROB	4.798	n/a	n/a	n/a	-999	12	[8, 3, 6]	17.0	catFR1	1	R1260D
1568.87	3.351	1601348	PROB	3.316	n/a	n/a	n/a	-999	12	[3, 4, 6]	13.0	catFR1	1	R1260D
1572.221	4.916	1604699	PROB	4.916	n/a	n/a	n/a	-999	12	[2, 4, 8]	14.0	catFR1	1	R1260D
1577.137	0.018	1609615	STOP	n/a	n/a	n/a	n/a	-999	12	[-999, -999, -999]	n/a	catFR1	1	R1260D
1577.155	0.617	1609633	DISTRACT_END	n/a	n/a	n/a	n/a	-999	12	[0, 0, 0]	n/a	catFR1	1	R1260D
1577.772	0.502	1610250	RETRIEVAL_ORIENT	n/a	n/a	n/a	n/a	-999	12	[0, 0, 0]	n/a	catFR1	1	R1260D
1578.274	3.448	1610751	REC_START	n/a	n/a	n/a	n/a	-999	12	[0, 0, 0]	n/a	catFR1	1	R1260D
1581.722	2.079	1614199	REC_WORD	3.448	n/a	CABBAGE	n/a	-999	12	[0, 0, 0]	n/a	catFR1	1	R1260D
1583.801	3.238	1616278	REC_WORD	5.527	n/a	CAULIFLOWER	Vegetables	10	12	[0, 0, 0]	n/a	catFR1	1	R1260D
1587.039	1.572	1619516	REC_WORD	8.765	n/a	LIVINGROOM	n/a	-999	12	[0, 0, 0]	n/a	catFR1	1	R1260D
1588.611	1.796	1621088	REC_WORD	10.337	n/a	COUCH	Furniture	4	12	[0, 0, 0]	n/a	catFR1	1	R1260D
1590.407	5.178	1622884	REC_WORD	12.133	n/a	DESK	Furniture	7	12	[0, 0, 0]	n/a	catFR1	1	R1260D
1595.585	1.4	1628062	REC_WORD_VV	17.311	n/a	<>	n/a	-999	12	[0, 0, 0]	n/a	catFR1	1	R1260D
1596.985	3.649	1629461	REC_WORD	18.711	n/a	TRUMPET	Instruments	12	12	[0, 0, 0]	n/a	catFR1	1	R1260D
1600.634	7.651	1633110	REC_WORD_VV	22.36	n/a	<>	n/a	-999	12	[0, 0, 0]	n/a	catFR1	1	R1260D
1608.285	10.294	1640761	REC_END	n/a	n/a	n/a	n/a	-999	12	[0, 0, 0]	n/a	catFR1	1	R1260D
1618.579	0.5	1651054	TRIAL	n/a	n/a	n/a	n/a	-999	13	[0, 0, 0]	n/a	catFR1	1	R1260D
1619.079	10.428	1651554	COUNTDOWN_START	n/a	n/a	n/a	n/a	-999	13	[0, 0, 0]	n/a	catFR1	1	R1260D
1629.507	0.008	1661982	COUNTDOWN_END	n/a	n/a	n/a	n/a	-999	13	[0, 0, 0]	n/a	catFR1	1	R1260D
1629.515	1.617	1661990	ORIENT	n/a	n/a	n/a	n/a	-999	13	[0, 0, 0]	n/a	catFR1	1	R1260D
1631.132	2.067	1663606	ORIENT_OFF	n/a	n/a	n/a	n/a	-999	13	[0, 0, 0]	n/a	catFR1	1	R1260D
1633.199	1.617	1665673	WORD	n/a	wordpools/wordpool_categorized_EN.txt	JELLYFISH	OceanAnimals	1	13	[0, 0, 0]	n/a	catFR1	1	R1260D
1634.816	0.983	1667290	WORD_OFF	n/a	n/a	JELLYFISH	n/a	1	13	[0, 0, 0]	n/a	catFR1	1	R1260D
1635.799	1.601	1668273	WORD	n/a	wordpools/wordpool_categorized_EN.txt	SQUID	OceanAnimals	2	13	[0, 0, 0]	n/a	catFR1	1	R1260D
1637.4	0.984	1669874	WORD_OFF	n/a	n/a	SQUID	n/a	2	13	[0, 0, 0]	n/a	catFR1	1	R1260D
1638.384	1.616	1670858	WORD	n/a	wordpools/wordpool_categorized_EN.txt	RATCHET	Tools	3	13	[0, 0, 0]	n/a	catFR1	1	R1260D
1640.0	0.933	1672474	WORD_OFF	n/a	n/a	RATCHET	n/a	3	13	[0, 0, 0]	n/a	catFR1	1	R1260D
1640.933	1.617	1673407	WORD	n/a	wordpools/wordpool_categorized_EN.txt	DRILL	Tools	4	13	[0, 0, 0]	n/a	catFR1	1	R1260D
1642.55	0.951	1675024	WORD_OFF	n/a	n/a	DRILL	n/a	4	13	[0, 0, 0]	n/a	catFR1	1	R1260D
1643.501	1.617	1675975	WORD	n/a	wordpools/wordpool_categorized_EN.txt	PINE	Trees	5	13	[0, 0, 0]	n/a	catFR1	1	R1260D
1645.118	0.966	1677592	WORD_OFF	n/a	n/a	PINE	n/a	5	13	[0, 0, 0]	n/a	catFR1	1	R1260D
1646.084	1.617	1678558	WORD	n/a	wordpools/wordpool_categorized_EN.txt	ELM	Trees	6	13	[0, 0, 0]	n/a	catFR1	1	R1260D
1647.701	0.9	1680175	WORD_OFF	n/a	n/a	ELM	n/a	6	13	[0, 0, 0]	n/a	catFR1	1	R1260D
1648.601	1.618	1681075	WORD	n/a	wordpools/wordpool_categorized_EN.txt	FISH	OceanAnimals	7	13	[0, 0, 0]	n/a	catFR1	1	R1260D
1650.219	0.816	1682692	WORD_OFF	n/a	n/a	FISH	n/a	7	13	[0, 0, 0]	n/a	catFR1	1	R1260D
1651.035	1.617	1683508	WORD	n/a	wordpools/wordpool_categorized_EN.txt	OCTOPUS	OceanAnimals	8	13	[0, 0, 0]	n/a	catFR1	1	R1260D
1652.652	0.817	1685125	WORD_OFF	n/a	n/a	OCTOPUS	n/a	8	13	[0, 0, 0]	n/a	catFR1	1	R1260D
1653.469	1.617	1685942	WORD	n/a	wordpools/wordpool_categorized_EN.txt	PLIERS	Tools	9	13	[0, 0, 0]	n/a	catFR1	1	R1260D
1655.086	0.767	1687559	WORD_OFF	n/a	n/a	PLIERS	n/a	9	13	[0, 0, 0]	n/a	catFR1	1	R1260D
1655.853	1.617	1688326	WORD	n/a	wordpools/wordpool_categorized_EN.txt	SAW	Tools	10	13	[0, 0, 0]	n/a	catFR1	1	R1260D
1657.47	0.934	1689943	WORD_OFF	n/a	n/a	SAW	n/a	10	13	[0, 0, 0]	n/a	catFR1	1	R1260D
1658.404	1.616	1690877	WORD	n/a	wordpools/wordpool_categorized_EN.txt	EVERGREEN	Trees	11	13	[0, 0, 0]	n/a	catFR1	1	R1260D
1660.02	1.001	1692493	WORD_OFF	n/a	n/a	EVERGREEN	n/a	11	13	[0, 0, 0]	n/a	catFR1	1	R1260D
1661.021	1.617	1693494	WORD	n/a	wordpools/wordpool_categorized_EN.txt	MAPLE	Trees	12	13	[0, 0, 0]	n/a	catFR1	1	R1260D
1662.638	0.0	1695111	ENCODING_END	n/a	n/a	n/a	n/a	-999	13	[0, 0, 0]	n/a	catFR1	1	R1260D
1662.638	0.106	1695111	WORD_OFF	n/a	n/a	MAPLE	n/a	12	13	[0, 0, 0]	n/a	catFR1	1	R1260D
1662.744	0.0	1695217	DISTRACT_START	n/a	n/a	n/a	n/a	-999	13	[0, 0, 0]	n/a	catFR1	1	R1260D
1662.744	0.01	1695217	START	n/a	n/a	n/a	n/a	-999	13	[-999, -999, -999]	n/a	catFR1	1	R1260D
1662.754	5.519	1695227	PROB	5.48	n/a	n/a	n/a	-999	13	[9, 4, 3]	16.0	catFR1	1	R1260D
1668.273	4.75	1700745	PROB	4.72	n/a	n/a	n/a	-999	13	[4, 9, 5]	18.0	catFR1	1	R1260D
1673.023	3.55	1705495	PROB	3.515	n/a	n/a	n/a	-999	13	[5, 5, 7]	17.0	catFR1	1	R1260D
1676.573	3.401	1709045	PROB	3.373	n/a	n/a	n/a	-999	13	[5, 5, 4]	14.0	catFR1	1	R1260D
1679.974	3.188	1712446	PROB	3.188	n/a	n/a	n/a	-999	13	[5, 9, 5]	19.0	catFR1	1	R1260D
1683.162	0.013	1715634	STOP	n/a	n/a	n/a	n/a	-999	13	[-999, -999, -999]	n/a	catFR1	1	R1260D
1683.175	0.566	1715647	DISTRACT_END	n/a	n/a	n/a	n/a	-999	13	[0, 0, 0]	n/a	catFR1	1	R1260D
1683.741	0.519	1716213	RETRIEVAL_ORIENT	n/a	n/a	n/a	n/a	-999	13	[0, 0, 0]	n/a	catFR1	1	R1260D
1684.26	2.207	1716731	REC_START	n/a	n/a	n/a	n/a	-999	13	[0, 0, 0]	n/a	catFR1	1	R1260D
1686.467	1.672	1718938	REC_WORD_VV	2.207	n/a	<>	n/a	-999	13	[0, 0, 0]	n/a	catFR1	1	R1260D
1688.139	0.954	1720610	REC_WORD_VV	3.879	n/a	<>	n/a	-999	13	[0, 0, 0]	n/a	catFR1	1	R1260D
1689.093	2.958	1721564	REC_WORD	4.833	n/a	JELLYFISH	OceanAnimals	1	13	[0, 0, 0]	n/a	catFR1	1	R1260D
1692.051	6.651	1724522	REC_WORD_VV	7.791	n/a	<>	n/a	-999	13	[0, 0, 0]	n/a	catFR1	1	R1260D
1698.702	7.185	1731173	REC_WORD_VV	14.442	n/a	<>	n/a	-999	13	[0, 0, 0]	n/a	catFR1	1	R1260D
1705.887	7.109	1738357	REC_WORD_VV	21.627	n/a	<>	n/a	-999	13	[0, 0, 0]	n/a	catFR1	1	R1260D
1712.996	1.276	1745466	REC_WORD	28.736	n/a	HOUSE	n/a	-999	13	[0, 0, 0]	n/a	catFR1	1	R1260D
1714.272	98.976	1746742	REC_END	n/a	n/a	n/a	n/a	-999	13	[0, 0, 0]	n/a	catFR1	1	R1260D
1813.248	0.5	1845712	TRIAL	n/a	n/a	n/a	n/a	-999	14	[0, 0, 0]	n/a	catFR1	1	R1260D
1813.748	10.428	1846212	COUNTDOWN_START	n/a	n/a	n/a	n/a	-999	14	[0, 0, 0]	n/a	catFR1	1	R1260D
1824.176	0.008	1856640	COUNTDOWN_END	n/a	n/a	n/a	n/a	-999	14	[0, 0, 0]	n/a	catFR1	1	R1260D
1824.184	1.617	1856648	ORIENT	n/a	n/a	n/a	n/a	-999	14	[0, 0, 0]	n/a	catFR1	1	R1260D
1825.801	2.117	1858264	ORIENT_OFF	n/a	n/a	n/a	n/a	-999	14	[0, 0, 0]	n/a	catFR1	1	R1260D
1827.918	1.617	1860381	WORD	n/a	wordpools/wordpool_categorized_EN.txt	GRAPE	Fruit	1	14	[0, 0, 0]	n/a	catFR1	1	R1260D
1829.535	0.8	1861998	WORD_OFF	n/a	n/a	GRAPE	n/a	1	14	[0, 0, 0]	n/a	catFR1	1	R1260D
1830.335	1.617	1862798	WORD	n/a	wordpools/wordpool_categorized_EN.txt	PEACH	Fruit	2	14	[0, 0, 0]	n/a	catFR1	1	R1260D
1831.952	0.967	1864415	WORD_OFF	n/a	n/a	PEACH	n/a	2	14	[0, 0, 0]	n/a	catFR1	1	R1260D
1832.919	1.617	1865382	WORD	n/a	wordpools/wordpool_categorized_EN.txt	OYSTER	OceanAnimals	3	14	[0, 0, 0]	n/a	catFR1	1	R1260D
1834.536	0.95	1866999	WORD_OFF	n/a	n/a	OYSTER	n/a	3	14	[0, 0, 0]	n/a	catFR1	1	R1260D
1835.486	1.617	1867949	WORD	n/a	wordpools/wordpool_categorized_EN.txt	SHRIMP	OceanAnimals	4	14	[0, 0, 0]	n/a	catFR1	1	R1260D
1837.103	0.783	1869566	WORD_OFF	n/a	n/a	SHRIMP	n/a	4	14	[0, 0, 0]	n/a	catFR1	1	R1260D
1837.886	1.617	1870349	WORD	n/a	wordpools/wordpool_categorized_EN.txt	MOTH	Insects	5	14	[0, 0, 0]	n/a	catFR1	1	R1260D
1839.503	0.934	1871966	WORD_OFF	n/a	n/a	MOTH	n/a	5	14	[0, 0, 0]	n/a	catFR1	1	R1260D
1840.437	1.617	1872900	WORD	n/a	wordpools/wordpool_categorized_EN.txt	GNAT	Insects	6	14	[0, 0, 0]	n/a	catFR1	1	R1260D
1842.054	0.85	1874517	WORD_OFF	n/a	n/a	GNAT	n/a	6	14	[0, 0, 0]	n/a	catFR1	1	R1260D
1842.904	1.617	1875366	WORD	n/a	wordpools/wordpool_categorized_EN.txt	CRAB	OceanAnimals	7	14	[0, 0, 0]	n/a	catFR1	1	R1260D
1844.521	0.784	1876983	WORD_OFF	n/a	n/a	CRAB	n/a	7	14	[0, 0, 0]	n/a	catFR1	1	R1260D
1845.305	1.616	1877767	WORD	n/a	wordpools/wordpool_categorized_EN.txt	PLANKTON	OceanAnimals	8	14	[0, 0, 0]	n/a	catFR1	1	R1260D
1846.921	0.767	1879383	WORD_OFF	n/a	n/a	PLANKTON	n/a	8	14	[0, 0, 0]	n/a	catFR1	1	R1260D
1847.688	1.618	1880150	WORD	n/a	wordpools/wordpool_categorized_EN.txt	BLUEBERRY	Fruit	9	14	[0, 0, 0]	n/a	catFR1	1	R1260D
1849.306	1.0	1881768	WORD_OFF	n/a	n/a	BLUEBERRY	n/a	9	14	[0, 0, 0]	n/a	catFR1	1	R1260D
1850.306	1.616	1882768	WORD	n/a	wordpools/wordpool_categorized_EN.txt	LIME	Fruit	10	14	[0, 0, 0]	n/a	catFR1	1	R1260D
1851.922	0.9	1884384	WORD_OFF	n/a	n/a	LIME	n/a	10	14	[0, 0, 0]	n/a	catFR1	1	R1260D
1852.822	1.617	1885284	WORD	n/a	wordpools/wordpool_categorized_EN.txt	SPIDER	Insects	11	14	[0, 0, 0]	n/a	catFR1	1	R1260D
1854.439	0.835	1886901	WORD_OFF	n/a	n/a	SPIDER	n/a	11	14	[0, 0, 0]	n/a	catFR1	1	R1260D
1855.274	1.616	1887736	WORD	n/a	wordpools/wordpool_categorized_EN.txt	CRICKET	Insects	12	14	[0, 0, 0]	n/a	catFR1	1	R1260D
1856.89	0.0	1889352	ENCODING_END	n/a	n/a	n/a	n/a	-999	14	[0, 0, 0]	n/a	catFR1	1	R1260D
1856.89	0.105	1889352	WORD_OFF	n/a	n/a	CRICKET	n/a	12	14	[0, 0, 0]	n/a	catFR1	1	R1260D
1856.995	0.0	1889457	DISTRACT_START	n/a	n/a	n/a	n/a	-999	14	[0, 0, 0]	n/a	catFR1	1	R1260D
1856.995	0.011	1889457	START	n/a	n/a	n/a	n/a	-999	14	[-999, -999, -999]	n/a	catFR1	1	R1260D
1857.006	5.568	1889468	PROB	5.539	n/a	n/a	n/a	-999	14	[6, 9, 4]	19.0	catFR1	1	R1260D
1862.574	3.251	1895035	PROB	3.212	n/a	n/a	n/a	-999	14	[7, 1, 7]	15.0	catFR1	1	R1260D
1865.825	6.502	1898286	PROB	6.466	n/a	n/a	n/a	-999	14	[2, 1, 4]	7.0	catFR1	1	R1260D
1872.327	3.067	1904788	PROB	3.029	n/a	n/a	n/a	-999	14	[9, 1, 4]	14.0	catFR1	1	R1260D
1875.394	6.407	1907855	PROB	6.407	n/a	n/a	n/a	-999	14	[3, 8, 4]	15.0	catFR1	1	R1260D
1881.801	0.01	1914261	STOP	n/a	n/a	n/a	n/a	-999	14	[-999, -999, -999]	n/a	catFR1	1	R1260D
1881.811	0.534	1914271	DISTRACT_END	n/a	n/a	n/a	n/a	-999	14	[0, 0, 0]	n/a	catFR1	1	R1260D
1882.345	0.517	1914805	RETRIEVAL_ORIENT	n/a	n/a	n/a	n/a	-999	14	[0, 0, 0]	n/a	catFR1	1	R1260D
1882.862	2.498	1915322	REC_START	n/a	n/a	n/a	n/a	-999	14	[0, 0, 0]	n/a	catFR1	1	R1260D
1885.36	2.929	1917820	REC_WORD_VV	2.498	n/a	<>	n/a	-999	14	[0, 0, 0]	n/a	catFR1	1	R1260D
1888.289	3.501	1920749	REC_WORD	5.427	n/a	JUNIPER	n/a	-999	14	[0, 0, 0]	n/a	catFR1	1	R1260D
1891.79	3.993	1924250	REC_WORD	8.928	n/a	SQUID	n/a	-999	14	[0, 0, 0]	n/a	catFR1	1	R1260D
1895.783	3.411	1928242	REC_WORD_VV	12.921	n/a	<>	n/a	-999	14	[0, 0, 0]	n/a	catFR1	1	R1260D
1899.194	8.688	1931653	REC_WORD_VV	16.332	n/a	<>	n/a	-999	14	[0, 0, 0]	n/a	catFR1	1	R1260D
1907.882	4.99	1940341	REC_WORD	25.02	n/a	SWAN	n/a	-999	14	[0, 0, 0]	n/a	catFR1	1	R1260D
1912.872	22.832	1945331	REC_END	n/a	n/a	n/a	n/a	-999	14	[0, 0, 0]	n/a	catFR1	1	R1260D
1935.704	0.5	1968161	TRIAL	n/a	n/a	n/a	n/a	-999	15	[0, 0, 0]	n/a	catFR1	1	R1260D
1936.204	10.428	1968661	COUNTDOWN_START	n/a	n/a	n/a	n/a	-999	15	[0, 0, 0]	n/a	catFR1	1	R1260D
1946.632	0.007	1979089	COUNTDOWN_END	n/a	n/a	n/a	n/a	-999	15	[0, 0, 0]	n/a	catFR1	1	R1260D
1946.639	1.618	1979096	ORIENT	n/a	n/a	n/a	n/a	-999	15	[0, 0, 0]	n/a	catFR1	1	R1260D
1948.257	2.118	1980714	ORIENT_OFF	n/a	n/a	n/a	n/a	-999	15	[0, 0, 0]	n/a	catFR1	1	R1260D
1950.375	1.615	1982831	WORD	n/a	wordpools/wordpool_categorized_EN.txt	MOTORCYCLE	Vehicles	1	15	[0, 0, 0]	n/a	catFR1	1	R1260D
1951.99	0.767	1984446	WORD_OFF	n/a	n/a	MOTORCYCLE	n/a	1	15	[0, 0, 0]	n/a	catFR1	1	R1260D
1952.757	1.601	1985213	WORD	n/a	wordpools/wordpool_categorized_EN.txt	CAR	Vehicles	2	15	[0, 0, 0]	n/a	catFR1	1	R1260D
1954.358	0.85	1986814	WORD_OFF	n/a	n/a	CAR	n/a	2	15	[0, 0, 0]	n/a	catFR1	1	R1260D
1955.208	1.617	1987664	WORD	n/a	wordpools/wordpool_categorized_EN.txt	MARBLES	Toys	3	15	[0, 0, 0]	n/a	catFR1	1	R1260D
1956.825	0.966	1989281	WORD_OFF	n/a	n/a	MARBLES	n/a	3	15	[0, 0, 0]	n/a	catFR1	1	R1260D
1957.791	1.602	1990247	WORD	n/a	wordpools/wordpool_categorized_EN.txt	FOOTBALL	Toys	4	15	[0, 0, 0]	n/a	catFR1	1	R1260D
1959.393	0.849	1991849	WORD_OFF	n/a	n/a	FOOTBALL	n/a	4	15	[0, 0, 0]	n/a	catFR1	1	R1260D
1960.242	1.617	1992698	WORD	n/a	wordpools/wordpool_categorized_EN.txt	ROSE	Flowers	5	15	[0, 0, 0]	n/a	catFR1	1	R1260D
1961.859	0.783	1994315	WORD_OFF	n/a	n/a	ROSE	n/a	5	15	[0, 0, 0]	n/a	catFR1	1	R1260D
1962.642	1.618	1995098	WORD	n/a	wordpools/wordpool_categorized_EN.txt	LILAC	Flowers	6	15	[0, 0, 0]	n/a	catFR1	1	R1260D
1964.26	0.966	1996716	WORD_OFF	n/a	n/a	LILAC	n/a	6	15	[0, 0, 0]	n/a	catFR1	1	R1260D
1965.226	1.617	1997682	WORD	n/a	wordpools/wordpool_categorized_EN.txt	BASEBALL	Toys	7	15	[0, 0, 0]	n/a	catFR1	1	R1260D
1966.843	0.884	1999298	WORD_OFF	n/a	n/a	BASEBALL	n/a	7	15	[0, 0, 0]	n/a	catFR1	1	R1260D
1967.727	1.618	2000182	WORD	n/a	wordpools/wordpool_categorized_EN.txt	SLINKY	Toys	8	15	[0, 0, 0]	n/a	catFR1	1	R1260D
1969.345	1.0	2001800	WORD_OFF	n/a	n/a	SLINKY	n/a	8	15	[0, 0, 0]	n/a	catFR1	1	R1260D
1970.345	1.616	2002800	WORD	n/a	wordpools/wordpool_categorized_EN.txt	BIKE	Vehicles	9	15	[0, 0, 0]	n/a	catFR1	1	R1260D
1971.961	0.967	2004416	WORD_OFF	n/a	n/a	BIKE	n/a	9	15	[0, 0, 0]	n/a	catFR1	1	R1260D
1972.928	1.617	2005383	WORD	n/a	wordpools/wordpool_categorized_EN.txt	BUS	Vehicles	10	15	[0, 0, 0]	n/a	catFR1	1	R1260D
1974.545	0.916	2007000	WORD_OFF	n/a	n/a	BUS	n/a	10	15	[0, 0, 0]	n/a	catFR1	1	R1260D
1975.461	1.617	2007916	WORD	n/a	wordpools/wordpool_categorized_EN.txt	LILY	Flowers	11	15	[0, 0, 0]	n/a	catFR1	1	R1260D
1977.078	0.951	2009533	WORD_OFF	n/a	n/a	LILY	n/a	11	15	[0, 0, 0]	n/a	catFR1	1	R1260D
1978.029	1.617	2010484	WORD	n/a	wordpools/wordpool_categorized_EN.txt	PETUNIA	Flowers	12	15	[0, 0, 0]	n/a	catFR1	1	R1260D
1979.646	0.0	2012101	ENCODING_END	n/a	n/a	n/a	n/a	-999	15	[0, 0, 0]	n/a	catFR1	1	R1260D
1979.646	0.141	2012101	WORD_OFF	n/a	n/a	PETUNIA	n/a	12	15	[0, 0, 0]	n/a	catFR1	1	R1260D
1979.787	0.0	2012242	DISTRACT_START	n/a	n/a	n/a	n/a	-999	15	[0, 0, 0]	n/a	catFR1	1	R1260D
1979.787	0.008	2012242	START	n/a	n/a	n/a	n/a	-999	15	[-999, -999, -999]	n/a	catFR1	1	R1260D
1979.795	10.669	2012250	PROB	10.639	n/a	n/a	n/a	-999	15	[4, 3, 5]	12.0	catFR1	1	R1260D
1990.464	3.902	2022918	PROB	3.867	n/a	n/a	n/a	-999	15	[4, 2, 2]	8.0	catFR1	1	R1260D
1994.366	4.934	2026820	PROB	4.908	n/a	n/a	n/a	-999	15	[6, 8, 1]	15.0	catFR1	1	R1260D
1999.3	4.438	2031754	PROB	4.438	n/a	n/a	n/a	-999	15	[8, 4, 9]	21.0	catFR1	1	R1260D
2003.738	0.012	2036191	STOP	n/a	n/a	n/a	n/a	-999	15	[-999, -999, -999]	n/a	catFR1	1	R1260D
2003.75	0.634	2036203	DISTRACT_END	n/a	n/a	n/a	n/a	-999	15	[0, 0, 0]	n/a	catFR1	1	R1260D
2004.384	0.517	2036837	RETRIEVAL_ORIENT	n/a	n/a	n/a	n/a	-999	15	[0, 0, 0]	n/a	catFR1	1	R1260D
2004.901	3.367	2037354	REC_START	n/a	n/a	n/a	n/a	-999	15	[0, 0, 0]	n/a	catFR1	1	R1260D
2008.268	1.557	2040721	REC_WORD	3.367	n/a	BIKE	Vehicles	9	15	[0, 0, 0]	n/a	catFR1	1	R1260D
2009.825	2.633	2042278	REC_WORD	4.924	n/a	BOAT	n/a	-999	15	[0, 0, 0]	n/a	catFR1	1	R1260D
2012.458	14.166	2044911	REC_WORD_VV	7.557	n/a	<>	n/a	-999	15	[0, 0, 0]	n/a	catFR1	1	R1260D
2026.624	1.281	2059076	REC_WORD	21.723	n/a	MARIGOLD	n/a	-999	15	[0, 0, 0]	n/a	catFR1	1	R1260D
2027.905	3.886	2060357	REC_WORD_VV	23.004	n/a	<>	n/a	-999	15	[0, 0, 0]	n/a	catFR1	1	R1260D
2031.791	3.12	2064243	REC_WORD	26.89	n/a	BIRD	n/a	-999	15	[0, 0, 0]	n/a	catFR1	1	R1260D
2034.911	16.948	2067363	REC_END	n/a	n/a	n/a	n/a	-999	15	[0, 0, 0]	n/a	catFR1	1	R1260D
2051.859	0.5	2084310	TRIAL	n/a	n/a	n/a	n/a	-999	16	[0, 0, 0]	n/a	catFR1	1	R1260D
2052.359	10.428	2084810	COUNTDOWN_START	n/a	n/a	n/a	n/a	-999	16	[0, 0, 0]	n/a	catFR1	1	R1260D
2062.787	0.007	2095237	COUNTDOWN_END	n/a	n/a	n/a	n/a	-999	16	[0, 0, 0]	n/a	catFR1	1	R1260D
2062.794	1.618	2095244	ORIENT	n/a	n/a	n/a	n/a	-999	16	[0, 0, 0]	n/a	catFR1	1	R1260D
2064.412	2.199	2096862	ORIENT_OFF	n/a	n/a	n/a	n/a	-999	16	[0, 0, 0]	n/a	catFR1	1	R1260D
2066.611	1.617	2099061	WORD	n/a	wordpools/wordpool_categorized_EN.txt	PEAS	Vegetables	1	16	[0, 0, 0]	n/a	catFR1	1	R1260D
2068.228	0.784	2100678	WORD_OFF	n/a	n/a	PEAS	n/a	1	16	[0, 0, 0]	n/a	catFR1	1	R1260D
2069.012	1.617	2101462	WORD	n/a	wordpools/wordpool_categorized_EN.txt	CUCUMBER	Vegetables	2	16	[0, 0, 0]	n/a	catFR1	1	R1260D
2070.629	1.0	2103079	WORD_OFF	n/a	n/a	CUCUMBER	n/a	2	16	[0, 0, 0]	n/a	catFR1	1	R1260D
2071.629	1.617	2104079	WORD	n/a	wordpools/wordpool_categorized_EN.txt	ROACH	Insects	3	16	[0, 0, 0]	n/a	catFR1	1	R1260D
2073.246	0.917	2105695	WORD_OFF	n/a	n/a	ROACH	n/a	3	16	[0, 0, 0]	n/a	catFR1	1	R1260D
2074.163	1.617	2106612	WORD	n/a	wordpools/wordpool_categorized_EN.txt	BUTTERFLY	Insects	4	16	[0, 0, 0]	n/a	catFR1	1	R1260D
2075.78	0.95	2108229	WORD_OFF	n/a	n/a	BUTTERFLY	n/a	4	16	[0, 0, 0]	n/a	catFR1	1	R1260D
2076.73	1.618	2109179	WORD	n/a	wordpools/wordpool_categorized_EN.txt	TABLET	Electronics	5	16	[0, 0, 0]	n/a	catFR1	1	R1260D
2078.348	0.882	2110797	WORD_OFF	n/a	n/a	TABLET	n/a	5	16	[0, 0, 0]	n/a	catFR1	1	R1260D
2079.23	1.617	2111679	WORD	n/a	wordpools/wordpool_categorized_EN.txt	TELEVISION	Electronics	6	16	[0, 0, 0]	n/a	catFR1	1	R1260D
2080.847	0.917	2113296	WORD_OFF	n/a	n/a	TELEVISION	n/a	6	16	[0, 0, 0]	n/a	catFR1	1	R1260D
2081.764	1.618	2114213	WORD	n/a	wordpools/wordpool_categorized_EN.txt	SPINACH	Vegetables	7	16	[0, 0, 0]	n/a	catFR1	1	R1260D
2083.382	0.917	2115831	WORD_OFF	n/a	n/a	SPINACH	n/a	7	16	[0, 0, 0]	n/a	catFR1	1	R1260D
2084.299	1.616	2116748	WORD	n/a	wordpools/wordpool_categorized_EN.txt	LETTUCE	Vegetables	8	16	[0, 0, 0]	n/a	catFR1	1	R1260D
2085.915	0.867	2118364	WORD_OFF	n/a	n/a	LETTUCE	n/a	8	16	[0, 0, 0]	n/a	catFR1	1	R1260D
2086.782	1.618	2119231	WORD	n/a	wordpools/wordpool_categorized_EN.txt	ANT	Insects	9	16	[0, 0, 0]	n/a	catFR1	1	R1260D
2088.4	0.9	2120849	WORD_OFF	n/a	n/a	ANT	n/a	9	16	[0, 0, 0]	n/a	catFR1	1	R1260D
2089.3	1.616	2121749	WORD	n/a	wordpools/wordpool_categorized_EN.txt	BEETLE	Insects	10	16	[0, 0, 0]	n/a	catFR1	1	R1260D
2090.916	0.967	2123364	WORD_OFF	n/a	n/a	BEETLE	n/a	10	16	[0, 0, 0]	n/a	catFR1	1	R1260D
2091.883	1.617	2124331	WORD	n/a	wordpools/wordpool_categorized_EN.txt	RADIO	Electronics	11	16	[0, 0, 0]	n/a	catFR1	1	R1260D
2093.5	0.818	2125948	WORD_OFF	n/a	n/a	RADIO	n/a	11	16	[0, 0, 0]	n/a	catFR1	1	R1260D
2094.318	1.615	2126766	WORD	n/a	wordpools/wordpool_categorized_EN.txt	PHONE	Electronics	12	16	[0, 0, 0]	n/a	catFR1	1	R1260D
2095.933	0.001	2128381	WORD_OFF	n/a	n/a	PHONE	n/a	12	16	[0, 0, 0]	n/a	catFR1	1	R1260D
2095.934	0.105	2128382	ENCODING_END	n/a	n/a	n/a	n/a	-999	16	[0, 0, 0]	n/a	catFR1	1	R1260D
2096.039	0.0	2128487	DISTRACT_START	n/a	n/a	n/a	n/a	-999	16	[0, 0, 0]	n/a	catFR1	1	R1260D
2096.039	0.011	2128487	START	n/a	n/a	n/a	n/a	-999	16	[-999, -999, -999]	n/a	catFR1	1	R1260D
2096.05	4.401	2128498	PROB	4.376	n/a	n/a	n/a	-999	16	[9, 3, 3]	15.0	catFR1	1	R1260D
2100.451	4.819	2132899	PROB	4.79	n/a	n/a	n/a	-999	16	[6, 3, 6]	15.0	catFR1	1	R1260D
2105.27	3.849	2137718	PROB	3.819	n/a	n/a	n/a	-999	16	[9, 3, 3]	15.0	catFR1	1	R1260D
2109.119	2.517	2141566	PROB	2.49	n/a	n/a	n/a	-999	16	[1, 9, 9]	19.0	catFR1	1	R1260D
2111.636	4.405	2144083	PROB	4.405	n/a	n/a	n/a	-999	16	[8, 9, 1]	19.0	catFR1	1	R1260D
2116.041	0.013	2148488	STOP	n/a	n/a	n/a	n/a	-999	16	[-999, -999, -999]	n/a	catFR1	1	R1260D
2116.054	0.65	2148501	DISTRACT_END	n/a	n/a	n/a	n/a	-999	16	[0, 0, 0]	n/a	catFR1	1	R1260D
2116.704	0.517	2149151	RETRIEVAL_ORIENT	n/a	n/a	n/a	n/a	-999	16	[0, 0, 0]	n/a	catFR1	1	R1260D
2117.221	4.958	2149668	REC_START	n/a	n/a	n/a	n/a	-999	16	[0, 0, 0]	n/a	catFR1	1	R1260D
2122.179	11.08	2154626	REC_WORD_VV	4.958	n/a	<>	n/a	-999	16	[0, 0, 0]	n/a	catFR1	1	R1260D
2133.259	0.784	2165705	REC_WORD	16.038	n/a	BUS	n/a	-999	16	[0, 0, 0]	n/a	catFR1	1	R1260D
2134.043	6.202	2166489	REC_WORD	16.822	n/a	BOAT	n/a	-999	16	[0, 0, 0]	n/a	catFR1	1	R1260D
2140.245	2.802	2172691	REC_WORD_VV	23.024	n/a	<>	n/a	-999	16	[0, 0, 0]	n/a	catFR1	1	R1260D
2143.047	1.788	2175492	REC_WORD	25.826	n/a	CAULIFLOWER	n/a	-999	16	[0, 0, 0]	n/a	catFR1	1	R1260D
2144.835	2.398	2177280	REC_WORD	27.614	n/a	CUCUMBER	Vegetables	2	16	[0, 0, 0]	n/a	catFR1	1	R1260D
2147.233	8.011	2179678	REC_END	n/a	n/a	n/a	n/a	-999	16	[0, 0, 0]	n/a	catFR1	1	R1260D
2155.244	0.5	2187689	TRIAL	n/a	n/a	n/a	n/a	-999	17	[0, 0, 0]	n/a	catFR1	1	R1260D
2155.744	10.428	2188189	COUNTDOWN_START	n/a	n/a	n/a	n/a	-999	17	[0, 0, 0]	n/a	catFR1	1	R1260D
2166.172	0.008	2198616	COUNTDOWN_END	n/a	n/a	n/a	n/a	-999	17	[0, 0, 0]	n/a	catFR1	1	R1260D
2166.18	1.617	2198624	ORIENT	n/a	n/a	n/a	n/a	-999	17	[0, 0, 0]	n/a	catFR1	1	R1260D
2167.797	2.167	2200241	ORIENT_OFF	n/a	n/a	n/a	n/a	-999	17	[0, 0, 0]	n/a	catFR1	1	R1260D
2169.964	1.617	2202408	WORD	n/a	wordpools/wordpool_categorized_EN.txt	BEE	Insects	1	17	[0, 0, 0]	n/a	catFR1	1	R1260D
2171.581	0.818	2204025	WORD_OFF	n/a	n/a	BEE	n/a	1	17	[0, 0, 0]	n/a	catFR1	1	R1260D
2172.399	1.615	2204843	WORD	n/a	wordpools/wordpool_categorized_EN.txt	MOSQUITO	Insects	2	17	[0, 0, 0]	n/a	catFR1	1	R1260D
2174.014	0.917	2206458	WORD_OFF	n/a	n/a	MOSQUITO	n/a	2	17	[0, 0, 0]	n/a	catFR1	1	R1260D
2174.931	1.617	2207375	WORD	n/a	wordpools/wordpool_categorized_EN.txt	CAKE	Desserts	3	17	[0, 0, 0]	n/a	catFR1	1	R1260D
2176.548	0.768	2208992	WORD_OFF	n/a	n/a	CAKE	n/a	3	17	[0, 0, 0]	n/a	catFR1	1	R1260D
2177.316	1.616	2209760	WORD	n/a	wordpools/wordpool_categorized_EN.txt	PIE	Desserts	4	17	[0, 0, 0]	n/a	catFR1	1	R1260D
2178.932	0.9	2211375	WORD_OFF	n/a	n/a	PIE	n/a	4	17	[0, 0, 0]	n/a	catFR1	1	R1260D
2179.832	1.617	2212275	WORD	n/a	wordpools/wordpool_categorized_EN.txt	DRYER	Appliances	5	17	[0, 0, 0]	n/a	catFR1	1	R1260D
2181.449	0.868	2213892	WORD_OFF	n/a	n/a	DRYER	n/a	5	17	[0, 0, 0]	n/a	catFR1	1	R1260D
2182.317	1.616	2214760	WORD	n/a	wordpools/wordpool_categorized_EN.txt	WASHER	Appliances	6	17	[0, 0, 0]	n/a	catFR1	1	R1260D
2183.933	0.9	2216376	WORD_OFF	n/a	n/a	WASHER	n/a	6	17	[0, 0, 0]	n/a	catFR1	1	R1260D
2184.833	1.617	2217276	WORD	n/a	wordpools/wordpool_categorized_EN.txt	FLY	Insects	7	17	[0, 0, 0]	n/a	catFR1	1	R1260D
2186.45	0.8	2218893	WORD_OFF	n/a	n/a	FLY	n/a	7	17	[0, 0, 0]	n/a	catFR1	1	R1260D
2187.25	1.617	2219693	WORD	n/a	wordpools/wordpool_categorized_EN.txt	LADYBUG	Insects	8	17	[0, 0, 0]	n/a	catFR1	1	R1260D
2188.867	0.817	2221310	WORD_OFF	n/a	n/a	LADYBUG	n/a	8	17	[0, 0, 0]	n/a	catFR1	1	R1260D
2189.684	1.618	2222127	WORD	n/a	wordpools/wordpool_categorized_EN.txt	BROWNIES	Desserts	9	17	[0, 0, 0]	n/a	catFR1	1	R1260D
2191.302	0.799	2223745	WORD_OFF	n/a	n/a	BROWNIES	n/a	9	17	[0, 0, 0]	n/a	catFR1	1	R1260D
2192.101	1.617	2224544	WORD	n/a	wordpools/wordpool_categorized_EN.txt	CUPCAKE	Desserts	10	17	[0, 0, 0]	n/a	catFR1	1	R1260D
2193.718	0.817	2226161	WORD_OFF	n/a	n/a	CUPCAKE	n/a	10	17	[0, 0, 0]	n/a	catFR1	1	R1260D
2194.535	1.617	2226978	WORD	n/a	wordpools/wordpool_categorized_EN.txt	MIXER	Appliances	11	17	[0, 0, 0]	n/a	catFR1	1	R1260D
2196.152	0.883	2228594	WORD_OFF	n/a	n/a	MIXER	n/a	11	17	[0, 0, 0]	n/a	catFR1	1	R1260D
2197.035	1.617	2229477	WORD	n/a	wordpools/wordpool_categorized_EN.txt	IRON	Appliances	12	17	[0, 0, 0]	n/a	catFR1	1	R1260D
2198.652	0.0	2231094	ENCODING_END	n/a	n/a	n/a	n/a	-999	17	[0, 0, 0]	n/a	catFR1	1	R1260D
2198.652	0.104	2231094	WORD_OFF	n/a	n/a	IRON	n/a	12	17	[0, 0, 0]	n/a	catFR1	1	R1260D
2198.756	0.0	2231198	DISTRACT_START	n/a	n/a	n/a	n/a	-999	17	[0, 0, 0]	n/a	catFR1	1	R1260D
2198.756	0.013	2231198	START	n/a	n/a	n/a	n/a	-999	17	[-999, -999, -999]	n/a	catFR1	1	R1260D
2198.769	3.951	2231211	PROB	3.92	n/a	n/a	n/a	-999	17	[8, 2, 7]	17.0	catFR1	1	R1260D
2202.72	4.434	2235162	PROB	4.401	n/a	n/a	n/a	-999	17	[3, 7, 8]	18.0	catFR1	1	R1260D
2207.154	3.967	2239596	PROB	3.943	n/a	n/a	n/a	-999	17	[2, 5, 8]	15.0	catFR1	1	R1260D
2211.121	4.484	2243563	PROB	4.449	n/a	n/a	n/a	-999	17	[7, 8, 3]	18.0	catFR1	1	R1260D
2215.605	5.22	2248046	PROB	5.22	n/a	n/a	n/a	-999	17	[8, 7, 3]	18.0	catFR1	1	R1260D
2220.825	0.015	2253266	STOP	n/a	n/a	n/a	n/a	-999	17	[-999, -999, -999]	n/a	catFR1	1	R1260D
2220.84	0.534	2253281	DISTRACT_END	n/a	n/a	n/a	n/a	-999	17	[0, 0, 0]	n/a	catFR1	1	R1260D
2221.374	0.516	2253815	RETRIEVAL_ORIENT	n/a	n/a	n/a	n/a	-999	17	[0, 0, 0]	n/a	catFR1	1	R1260D
2221.89	3.597	2254331	REC_START	n/a	n/a	n/a	n/a	-999	17	[0, 0, 0]	n/a	catFR1	1	R1260D
2225.487	4.566	2257928	REC_WORD_VV	3.597	n/a	<>	n/a	-999	17	[0, 0, 0]	n/a	catFR1	1	R1260D
2230.053	0.378	2262494	REC_WORD	8.163	n/a	BEE	Insects	1	17	[0, 0, 0]	n/a	catFR1	1	R1260D
2230.431	6.058	2262871	REC_WORD_VV	8.541	n/a	<>	n/a	-999	17	[0, 0, 0]	n/a	catFR1	1	R1260D
2236.489	2.113	2268929	REC_WORD	14.599	n/a	BEE	Insects	1	17	[0, 0, 0]	n/a	catFR1	1	R1260D
2238.602	4.916	2271042	REC_WORD_VV	16.712	n/a	<>	n/a	-999	17	[0, 0, 0]	n/a	catFR1	1	R1260D
2243.518	4.357	2275958	REC_WORD	21.628	n/a	BUG	n/a	-999	17	[0, 0, 0]	n/a	catFR1	1	R1260D
2247.875	4.027	2280315	REC_WORD_VV	25.985	n/a	<>	n/a	-999	17	[0, 0, 0]	n/a	catFR1	1	R1260D
2251.902	0.0	2284341	REC_END	n/a	n/a	n/a	n/a	-999	17	[0, 0, 0]	n/a	catFR1	1	R1260D
