onset	duration	sample	trial_type	response_time	stim_file	item_name	category	serialpos	list	test	answer	experiment	session	subject
0.0	9.529	1440	INSTRUCT_START	n/a	n/a	n/a	n/a	-999	-999	[0, 0, 0]	n/a	catFR1	1	R1361C
9.529	3.202	10969	INSTRUCT_END	n/a	n/a	n/a	n/a	-999	-999	[0, 0, 0]	n/a	catFR1	1	R1361C
12.731	11.972	14171	MIC TEST_START	n/a	n/a	n/a	n/a	-999	-999	[0, 0, 0]	n/a	catFR1	1	R1361C
24.703	0.015	26142	MIC TEST_END	n/a	n/a	n/a	n/a	-999	-999	[0, 0, 0]	n/a	catFR1	1	R1361C
24.718	0.001	26157	TRIAL_START	n/a	n/a	n/a	n/a	-999	-1	[0, 0, 0]	n/a	catFR1	1	R1361C
24.719	0.0	26158	TRIAL	n/a	n/a	n/a	n/a	-999	-1	[0, 0, 0]	n/a	catFR1	1	R1361C
24.719	9.683	26158	WAITING_START	n/a	n/a	n/a	n/a	-999	-1	[0, 0, 0]	n/a	catFR1	1	R1361C
34.402	10.0	35840	COUNTDOWN_START	n/a	n/a	n/a	n/a	-999	-1	[0, 0, 0]	n/a	catFR1	1	R1361C
34.402	10.43	35840	WAITING_END	n/a	n/a	n/a	n/a	-999	-1	[0, 0, 0]	n/a	catFR1	1	R1361C
44.832	0.0	46270	COUNTDOWN_END	n/a	n/a	n/a	n/a	-999	-1	[0, 0, 0]	n/a	catFR1	1	R1361C
44.832	1.172	46270	ORIENT_START	n/a	n/a	n/a	n/a	-999	-1	[0, 0, 0]	n/a	catFR1	1	R1361C
46.004	0.0	47442	ORIENT_END	n/a	n/a	n/a	n/a	-999	-1	[0, 0, 0]	n/a	catFR1	1	R1361C
46.004	0.923	47442	ENCODING_START	n/a	n/a	n/a	n/a	-999	-1	[0, 0, 0]	n/a	catFR1	1	R1361C
46.927	1.6	48365	WORD	n/a	n/a	TEACHER	n/a	1	-1	[0, 0, 0]	n/a	catFR1	1	R1361C
48.553	0.946	49991	WORD_OFF	n/a	n/a	TEACHER	n/a	1	-1	[0, 0, 0]	n/a	catFR1	1	R1361C
49.499	1.6	50937	WORD	n/a	n/a	SILK	n/a	2	-1	[0, 0, 0]	n/a	catFR1	1	R1361C
51.138	0.892	52576	WORD_OFF	n/a	n/a	SILK	n/a	2	-1	[0, 0, 0]	n/a	catFR1	1	R1361C
52.03	1.6	53468	WORD	n/a	n/a	HOUR	n/a	3	-1	[0, 0, 0]	n/a	catFR1	1	R1361C
53.655	0.851	55093	WORD_OFF	n/a	n/a	HOUR	n/a	3	-1	[0, 0, 0]	n/a	catFR1	1	R1361C
54.506	1.6	55943	WORD	n/a	n/a	PLUMBER	n/a	4	-1	[0, 0, 0]	n/a	catFR1	1	R1361C
56.139	1.072	57576	WORD_OFF	n/a	n/a	PLUMBER	n/a	4	-1	[0, 0, 0]	n/a	catFR1	1	R1361C
57.211	1.6	58648	WORD	n/a	n/a	LEATHER	n/a	5	-1	[0, 0, 0]	n/a	catFR1	1	R1361C
58.839	1.086	60276	WORD_OFF	n/a	n/a	LEATHER	n/a	5	-1	[0, 0, 0]	n/a	catFR1	1	R1361C
59.925	1.6	61362	WORD	n/a	n/a	SECOND	n/a	6	-1	[0, 0, 0]	n/a	catFR1	1	R1361C
61.556	0.759	62993	WORD_OFF	n/a	n/a	SECOND	n/a	6	-1	[0, 0, 0]	n/a	catFR1	1	R1361C
62.315	1.6	63752	WORD	n/a	n/a	DAY	n/a	7	-1	[0, 0, 0]	n/a	catFR1	1	R1361C
63.94	0.968	65377	WORD_OFF	n/a	n/a	DAY	n/a	7	-1	[0, 0, 0]	n/a	catFR1	1	R1361C
64.908	1.6	66345	WORD	n/a	n/a	FARMER	n/a	8	-1	[0, 0, 0]	n/a	catFR1	1	R1361C
66.54	0.947	67977	WORD_OFF	n/a	n/a	FARMER	n/a	8	-1	[0, 0, 0]	n/a	catFR1	1	R1361C
67.487	1.6	68924	WORD	n/a	n/a	WOOL	n/a	9	-1	[0, 0, 0]	n/a	catFR1	1	R1361C
69.125	0.946	70562	WORD_OFF	n/a	n/a	WOOL	n/a	9	-1	[0, 0, 0]	n/a	catFR1	1	R1361C
70.071	1.6	71508	WORD	n/a	n/a	FIREMAN	n/a	10	-1	[0, 0, 0]	n/a	catFR1	1	R1361C
71.708	1.022	73145	WORD_OFF	n/a	n/a	FIREMAN	n/a	10	-1	[0, 0, 0]	n/a	catFR1	1	R1361C
72.73	1.6	74167	WORD	n/a	n/a	DENIM	n/a	11	-1	[0, 0, 0]	n/a	catFR1	1	R1361C
74.359	0.803	75796	WORD_OFF	n/a	n/a	DENIM	n/a	11	-1	[0, 0, 0]	n/a	catFR1	1	R1361C
75.162	1.6	76598	WORD	n/a	n/a	MINUTE	n/a	12	-1	[0, 0, 0]	n/a	catFR1	1	R1361C
76.793	0.0	78229	WORD_OFF	n/a	n/a	MINUTE	n/a	12	-1	[0, 0, 0]	n/a	catFR1	1	R1361C
76.793	0.001	78229	ENCODING_END	n/a	n/a	n/a	n/a	-999	-1	[0, 0, 0]	n/a	catFR1	1	R1361C
76.794	0.0	78230	DISTRACT_START	n/a	n/a	n/a	n/a	-999	-1	[0, 0, 0]	n/a	catFR1	1	R1361C
76.794	0.032	78230	START	n/a	n/a	n/a	n/a	-999	-1	[-999, -999, -999]	n/a	catFR1	1	R1361C
76.826	6.534	78262	PROB	6.5	n/a	n/a	n/a	-999	-1	[5, 3, 6]	14.0	catFR1	1	R1361C
83.36	7.468	84796	PROB	7.431	n/a	n/a	n/a	-999	-1	[8, 7, 4]	20.0	catFR1	1	R1361C
90.828	3.034	92264	PROB	2.995	n/a	n/a	n/a	-999	-1	[9, 1, 1]	11.0	catFR1	1	R1361C
93.862	7.581	95298	PROB	7.581	n/a	n/a	n/a	-999	-1	[9, 7, 5]	21.0	catFR1	1	R1361C
101.443	0.021	102878	STOP	n/a	n/a	n/a	n/a	-999	-1	[-999, -999, -999]	n/a	catFR1	1	R1361C
101.464	0.6	102899	DISTRACT_END	n/a	n/a	n/a	n/a	-999	-1	[0, 0, 0]	n/a	catFR1	1	R1361C
102.064	1.6	103499	RETRIEVAL_ORIENT_START	n/a	n/a	n/a	n/a	-999	-1	[0, 0, 0]	n/a	catFR1	1	R1361C
103.631	0.001	105066	RETRIEVAL_ORIENT_END	n/a	n/a	n/a	n/a	-999	-1	[0, 0, 0]	n/a	catFR1	1	R1361C
103.632	1.59	105067	REC_START	n/a	n/a	n/a	n/a	-999	-1	[0, 0, 0]	n/a	catFR1	1	R1361C
105.222	1.19	106657	REC_WORD	1.59	n/a	TEACHER	n/a	1	-1	[0, 0, 0]	n/a	catFR1	1	R1361C
106.412	1.167	107847	REC_WORD	2.78	n/a	SILK	n/a	2	-1	[0, 0, 0]	n/a	catFR1	1	R1361C
107.579	1.017	109014	REC_WORD	3.947	n/a	PLUMBER	n/a	4	-1	[0, 0, 0]	n/a	catFR1	1	R1361C
108.596	1.124	110031	REC_WORD	4.964	n/a	FIREMAN	n/a	10	-1	[0, 0, 0]	n/a	catFR1	1	R1361C
109.72	5.264	111155	REC_WORD	6.088	n/a	SECOND	n/a	6	-1	[0, 0, 0]	n/a	catFR1	1	R1361C
114.984	18.659	116419	REC_WORD_VV	11.352	n/a	<>	n/a	-999	-1	[0, 0, 0]	n/a	catFR1	1	R1361C
133.643	0.0	135077	REC_END	n/a	n/a	n/a	n/a	-999	-1	[0, 0, 0]	n/a	catFR1	1	R1361C
133.643	11.113	135077	PRACTICE_POST_INSTRUCT_START	n/a	n/a	n/a	n/a	-999	-1	[0, 0, 0]	n/a	catFR1	1	R1361C
144.756	0.001	146189	PRACTICE_POST_INSTRUCT_END	n/a	n/a	n/a	n/a	-999	-1	[0, 0, 0]	n/a	catFR1	1	R1361C
144.757	0.03	146190	TRIAL_END	n/a	n/a	n/a	n/a	-999	-1	[0, 0, 0]	n/a	catFR1	1	R1361C
144.787	0.0	146220	WAITING_START	n/a	n/a	n/a	n/a	-999	1	[0, 0, 0]	n/a	catFR1	1	R1361C
144.787	0.0	146220	TRIAL_START	n/a	n/a	n/a	n/a	-999	1	[0, 0, 0]	n/a	catFR1	1	R1361C
144.787	3.186	146220	TRIAL	n/a	n/a	n/a	n/a	-999	1	[0, 0, 0]	n/a	catFR1	1	R1361C
147.973	0.0	149406	WAITING_END	n/a	n/a	n/a	n/a	-999	1	[0, 0, 0]	n/a	catFR1	1	R1361C
147.973	10.0	149406	COUNTDOWN_START	n/a	n/a	n/a	n/a	-999	1	[0, 0, 0]	n/a	catFR1	1	R1361C
158.404	0.0	159836	COUNTDOWN_END	n/a	n/a	n/a	n/a	-999	1	[0, 0, 0]	n/a	catFR1	1	R1361C
158.404	1.221	159836	ORIENT_START	n/a	n/a	n/a	n/a	-999	1	[0, 0, 0]	n/a	catFR1	1	R1361C
159.625	0.0	161057	ORIENT_END	n/a	n/a	n/a	n/a	-999	1	[0, 0, 0]	n/a	catFR1	1	R1361C
159.625	1.026	161057	ENCODING_START	n/a	n/a	n/a	n/a	-999	1	[0, 0, 0]	n/a	catFR1	1	R1361C
160.651	1.6	162083	WORD	n/a	wordpools/wordpool_categorized_EN.txt	TABLET	Electronics	1	1	[0, 0, 0]	n/a	catFR1	1	R1361C
162.275	0.867	163707	WORD_OFF	n/a	n/a	TABLET	Electronics	1	1	[0, 0, 0]	n/a	catFR1	1	R1361C
163.142	1.6	164574	WORD	n/a	wordpools/wordpool_categorized_EN.txt	SCANNER	Electronics	2	1	[0, 0, 0]	n/a	catFR1	1	R1361C
164.776	0.771	166208	WORD_OFF	n/a	n/a	SCANNER	Electronics	2	1	[0, 0, 0]	n/a	catFR1	1	R1361C
165.547	1.6	166979	WORD	n/a	wordpools/wordpool_categorized_EN.txt	RIVER	Landscapes	3	1	[0, 0, 0]	n/a	catFR1	1	R1361C
167.178	0.952	168610	WORD_OFF	n/a	n/a	RIVER	Landscapes	3	1	[0, 0, 0]	n/a	catFR1	1	R1361C
168.13	1.6	169562	WORD	n/a	wordpools/wordpool_categorized_EN.txt	HILLS	Landscapes	4	1	[0, 0, 0]	n/a	catFR1	1	R1361C
169.76	0.856	171192	WORD_OFF	n/a	n/a	HILLS	Landscapes	4	1	[0, 0, 0]	n/a	catFR1	1	R1361C
170.616	1.6	172048	WORD	n/a	wordpools/wordpool_categorized_EN.txt	WIND	Weather	5	1	[0, 0, 0]	n/a	catFR1	1	R1361C
172.244	0.877	173676	WORD_OFF	n/a	n/a	WIND	Weather	5	1	[0, 0, 0]	n/a	catFR1	1	R1361C
173.121	1.6	174553	WORD	n/a	wordpools/wordpool_categorized_EN.txt	THUNDERSTORM	Weather	6	1	[0, 0, 0]	n/a	catFR1	1	R1361C
174.761	1.031	176193	WORD_OFF	n/a	n/a	THUNDERSTORM	Weather	6	1	[0, 0, 0]	n/a	catFR1	1	R1361C
175.792	1.6	177224	WORD	n/a	wordpools/wordpool_categorized_EN.txt	PHONE	Electronics	7	1	[0, 0, 0]	n/a	catFR1	1	R1361C
177.428	1.033	178859	WORD_OFF	n/a	n/a	PHONE	Electronics	7	1	[0, 0, 0]	n/a	catFR1	1	R1361C
178.461	1.6	179892	WORD	n/a	wordpools/wordpool_categorized_EN.txt	TELEVISION	Electronics	8	1	[0, 0, 0]	n/a	catFR1	1	R1361C
180.095	1.144	181526	WORD_OFF	n/a	n/a	TELEVISION	Electronics	8	1	[0, 0, 0]	n/a	catFR1	1	R1361C
181.239	1.6	182670	WORD	n/a	wordpools/wordpool_categorized_EN.txt	CLOUD	Weather	9	1	[0, 0, 0]	n/a	catFR1	1	R1361C
182.863	0.932	184294	WORD_OFF	n/a	n/a	CLOUD	Weather	9	1	[0, 0, 0]	n/a	catFR1	1	R1361C
183.795	1.6	185226	WORD	n/a	wordpools/wordpool_categorized_EN.txt	LIGHTNING	Weather	10	1	[0, 0, 0]	n/a	catFR1	1	R1361C
185.43	0.754	186861	WORD_OFF	n/a	n/a	LIGHTNING	Weather	10	1	[0, 0, 0]	n/a	catFR1	1	R1361C
186.184	1.6	187615	WORD	n/a	wordpools/wordpool_categorized_EN.txt	LAKE	Landscapes	11	1	[0, 0, 0]	n/a	catFR1	1	R1361C
187.813	0.928	189244	WORD_OFF	n/a	n/a	LAKE	Landscapes	11	1	[0, 0, 0]	n/a	catFR1	1	R1361C
188.741	1.6	190172	WORD	n/a	wordpools/wordpool_categorized_EN.txt	WOODS	Landscapes	12	1	[0, 0, 0]	n/a	catFR1	1	R1361C
190.364	0.0	191795	WORD_OFF	n/a	n/a	WOODS	Landscapes	12	1	[0, 0, 0]	n/a	catFR1	1	R1361C
190.364	0.001	191795	ENCODING_END	n/a	n/a	n/a	n/a	-999	1	[0, 0, 0]	n/a	catFR1	1	R1361C
190.365	0.0	191796	DISTRACT_START	n/a	n/a	n/a	n/a	-999	1	[0, 0, 0]	n/a	catFR1	1	R1361C
190.365	0.015	191796	START	n/a	n/a	n/a	n/a	-999	1	[-999, -999, -999]	n/a	catFR1	1	R1361C
190.38	6.868	191811	PROB	6.839	n/a	n/a	n/a	-999	1	[2, 6, 9]	17.0	catFR1	1	R1361C
197.248	3.618	198678	PROB	3.587	n/a	n/a	n/a	-999	1	[2, 6, 6]	14.0	catFR1	1	R1361C
200.866	3.584	202296	PROB	3.552	n/a	n/a	n/a	-999	1	[1, 5, 4]	10.0	catFR1	1	R1361C
204.45	3.25	205880	PROB	3.225	n/a	n/a	n/a	-999	1	[2, 4, 4]	10.0	catFR1	1	R1361C
207.7	3.454	209130	PROB	3.454	n/a	n/a	n/a	-999	1	[5, 9, 5]	19.0	catFR1	1	R1361C
211.154	0.014	212584	STOP	n/a	n/a	n/a	n/a	-999	1	[-999, -999, -999]	n/a	catFR1	1	R1361C
211.168	0.657	212598	DISTRACT_END	n/a	n/a	n/a	n/a	-999	1	[0, 0, 0]	n/a	catFR1	1	R1361C
211.825	1.6	213255	RETRIEVAL_ORIENT_START	n/a	n/a	n/a	n/a	-999	1	[0, 0, 0]	n/a	catFR1	1	R1361C
213.435	0.0	214865	REC_START	n/a	n/a	n/a	n/a	-999	1	[0, 0, 0]	n/a	catFR1	1	R1361C
213.435	0.84	214865	RETRIEVAL_ORIENT_END	n/a	n/a	n/a	n/a	-999	1	[0, 0, 0]	n/a	catFR1	1	R1361C
214.275	0.618	215705	REC_WORD	0.84	n/a	TABLET	Electronics	1	1	[0, 0, 0]	n/a	catFR1	1	R1361C
214.893	1.202	216323	REC_WORD	1.458	n/a	SCANNER	Electronics	2	1	[0, 0, 0]	n/a	catFR1	1	R1361C
216.095	2.394	217525	REC_WORD	2.66	n/a	THUNDERSTORM	Weather	6	1	[0, 0, 0]	n/a	catFR1	1	R1361C
218.489	5.691	219918	REC_WORD	5.054	n/a	PHONE	Electronics	7	1	[0, 0, 0]	n/a	catFR1	1	R1361C
224.18	6.581	225609	REC_WORD_VV	10.745	n/a	<>	n/a	-999	1	[0, 0, 0]	n/a	catFR1	1	R1361C
230.761	8.968	232190	REC_WORD	17.326	n/a	WOODS	Landscapes	12	1	[0, 0, 0]	n/a	catFR1	1	R1361C
239.729	3.717	241157	REC_WORD_VV	26.294	n/a	<>	n/a	-999	1	[0, 0, 0]	n/a	catFR1	1	R1361C
243.446	0.0	244874	TRIAL_END	n/a	n/a	n/a	n/a	-999	1	[0, 0, 0]	n/a	catFR1	1	R1361C
243.446	0.025	244874	REC_END	n/a	n/a	n/a	n/a	-999	1	[0, 0, 0]	n/a	catFR1	1	R1361C
243.471	0.001	244899	TRIAL_START	n/a	n/a	n/a	n/a	-999	2	[0, 0, 0]	n/a	catFR1	1	R1361C
243.472	0.0	244900	TRIAL	n/a	n/a	n/a	n/a	-999	2	[0, 0, 0]	n/a	catFR1	1	R1361C
243.472	2.803	244900	WAITING_START	n/a	n/a	n/a	n/a	-999	2	[0, 0, 0]	n/a	catFR1	1	R1361C
246.275	0.0	247703	WAITING_END	n/a	n/a	n/a	n/a	-999	2	[0, 0, 0]	n/a	catFR1	1	R1361C
246.275	10.0	247703	COUNTDOWN_START	n/a	n/a	n/a	n/a	-999	2	[0, 0, 0]	n/a	catFR1	1	R1361C
256.704	0.0	258132	ORIENT_START	n/a	n/a	n/a	n/a	-999	2	[0, 0, 0]	n/a	catFR1	1	R1361C
256.704	1.156	258132	COUNTDOWN_END	n/a	n/a	n/a	n/a	-999	2	[0, 0, 0]	n/a	catFR1	1	R1361C
257.86	0.001	259288	ORIENT_END	n/a	n/a	n/a	n/a	-999	2	[0, 0, 0]	n/a	catFR1	1	R1361C
257.861	0.989	259289	ENCODING_START	n/a	n/a	n/a	n/a	-999	2	[0, 0, 0]	n/a	catFR1	1	R1361C
258.85	1.6	260277	WORD	n/a	wordpools/wordpool_categorized_EN.txt	FOOT	BodyParts	1	2	[0, 0, 0]	n/a	catFR1	1	R1361C
260.477	0.938	261904	WORD_OFF	n/a	n/a	FOOT	BodyParts	1	2	[0, 0, 0]	n/a	catFR1	1	R1361C
261.415	1.6	262842	WORD	n/a	wordpools/wordpool_categorized_EN.txt	TOE	BodyParts	2	2	[0, 0, 0]	n/a	catFR1	1	R1361C
263.044	1.053	264471	WORD_OFF	n/a	n/a	TOE	BodyParts	2	2	[0, 0, 0]	n/a	catFR1	1	R1361C
264.097	1.6	265524	WORD	n/a	wordpools/wordpool_categorized_EN.txt	PUDDING	Desserts	3	2	[0, 0, 0]	n/a	catFR1	1	R1361C
265.728	1.086	267155	WORD_OFF	n/a	n/a	PUDDING	Desserts	3	2	[0, 0, 0]	n/a	catFR1	1	R1361C
266.814	1.6	268241	WORD	n/a	wordpools/wordpool_categorized_EN.txt	CAKE	Desserts	4	2	[0, 0, 0]	n/a	catFR1	1	R1361C
268.445	0.802	269872	WORD_OFF	n/a	n/a	CAKE	Desserts	4	2	[0, 0, 0]	n/a	catFR1	1	R1361C
269.247	1.6	270674	WORD	n/a	wordpools/wordpool_categorized_EN.txt	MOUNTAIN	Landscapes	5	2	[0, 0, 0]	n/a	catFR1	1	R1361C
270.879	0.773	272306	WORD_OFF	n/a	n/a	MOUNTAIN	Landscapes	5	2	[0, 0, 0]	n/a	catFR1	1	R1361C
271.652	1.6	273079	WORD	n/a	wordpools/wordpool_categorized_EN.txt	CREEK	Landscapes	6	2	[0, 0, 0]	n/a	catFR1	1	R1361C
273.279	1.035	274706	WORD_OFF	n/a	n/a	CREEK	Landscapes	6	2	[0, 0, 0]	n/a	catFR1	1	R1361C
274.314	1.6	275741	WORD	n/a	wordpools/wordpool_categorized_EN.txt	JELLO	Desserts	7	2	[0, 0, 0]	n/a	catFR1	1	R1361C
275.947	1.133	277374	WORD_OFF	n/a	n/a	JELLO	Desserts	7	2	[0, 0, 0]	n/a	catFR1	1	R1361C
277.08	1.6	278507	WORD	n/a	wordpools/wordpool_categorized_EN.txt	CHEESECAKE	Desserts	8	2	[0, 0, 0]	n/a	catFR1	1	R1361C
278.714	0.758	280140	WORD_OFF	n/a	n/a	CHEESECAKE	Desserts	8	2	[0, 0, 0]	n/a	catFR1	1	R1361C
279.472	1.6	280898	WORD	n/a	wordpools/wordpool_categorized_EN.txt	ELBOW	BodyParts	9	2	[0, 0, 0]	n/a	catFR1	1	R1361C
281.098	1.093	282524	WORD_OFF	n/a	n/a	ELBOW	BodyParts	9	2	[0, 0, 0]	n/a	catFR1	1	R1361C
282.191	1.6	283617	WORD	n/a	wordpools/wordpool_categorized_EN.txt	NOSE	BodyParts	10	2	[0, 0, 0]	n/a	catFR1	1	R1361C
283.815	1.124	285241	WORD_OFF	n/a	n/a	NOSE	BodyParts	10	2	[0, 0, 0]	n/a	catFR1	1	R1361C
284.939	1.6	286365	WORD	n/a	wordpools/wordpool_categorized_EN.txt	FOREST	Landscapes	11	2	[0, 0, 0]	n/a	catFR1	1	R1361C
286.565	0.851	287991	WORD_OFF	n/a	n/a	FOREST	Landscapes	11	2	[0, 0, 0]	n/a	catFR1	1	R1361C
287.416	1.6	288842	WORD	n/a	wordpools/wordpool_categorized_EN.txt	BEACH	Landscapes	12	2	[0, 0, 0]	n/a	catFR1	1	R1361C
289.049	0.001	290475	WORD_OFF	n/a	n/a	BEACH	Landscapes	12	2	[0, 0, 0]	n/a	catFR1	1	R1361C
289.05	0.0	290476	ENCODING_END	n/a	n/a	n/a	n/a	-999	2	[0, 0, 0]	n/a	catFR1	1	R1361C
289.05	0.0	290476	DISTRACT_START	n/a	n/a	n/a	n/a	-999	2	[0, 0, 0]	n/a	catFR1	1	R1361C
289.05	0.015	290476	START	n/a	n/a	n/a	n/a	-999	2	[-999, -999, -999]	n/a	catFR1	1	R1361C
289.065	8.002	290491	PROB	7.976	n/a	n/a	n/a	-999	2	[8, 5, 1]	14.0	catFR1	1	R1361C
297.067	3.734	298493	PROB	3.71	n/a	n/a	n/a	-999	2	[2, 3, 1]	6.0	catFR1	1	R1361C
300.801	6.784	302226	PROB	6.75	n/a	n/a	n/a	-999	2	[8, 1, 7]	16.0	catFR1	1	R1361C
307.585	4.534	309010	PROB	4.534	n/a	n/a	n/a	-999	2	[6, 5, 3]	14.0	catFR1	1	R1361C
312.119	0.018	313544	STOP	n/a	n/a	n/a	n/a	-999	2	[-999, -999, -999]	n/a	catFR1	1	R1361C
312.137	0.644	313562	DISTRACT_END	n/a	n/a	n/a	n/a	-999	2	[0, 0, 0]	n/a	catFR1	1	R1361C
312.781	1.6	314206	RETRIEVAL_ORIENT_START	n/a	n/a	n/a	n/a	-999	2	[0, 0, 0]	n/a	catFR1	1	R1361C
314.437	0.001	315862	RETRIEVAL_ORIENT_END	n/a	n/a	n/a	n/a	-999	2	[0, 0, 0]	n/a	catFR1	1	R1361C
314.438	0.653	315863	REC_START	n/a	n/a	n/a	n/a	-999	2	[0, 0, 0]	n/a	catFR1	1	R1361C
315.091	0.82	316516	REC_WORD	0.653	n/a	FOOT	BodyParts	1	2	[0, 0, 0]	n/a	catFR1	1	R1361C
315.911	0.685	317336	REC_WORD	1.473	n/a	TOE	BodyParts	2	2	[0, 0, 0]	n/a	catFR1	1	R1361C
316.596	0.861	318021	REC_WORD	2.158	n/a	ELBOW	BodyParts	9	2	[0, 0, 0]	n/a	catFR1	1	R1361C
317.457	0.851	318882	REC_WORD	3.019	n/a	MOUNTAIN	Landscapes	5	2	[0, 0, 0]	n/a	catFR1	1	R1361C
318.308	0.709	319733	REC_WORD	3.87	n/a	CAKE	Desserts	4	2	[0, 0, 0]	n/a	catFR1	1	R1361C
319.017	4.519	320442	REC_WORD	4.579	n/a	FOREST	Landscapes	11	2	[0, 0, 0]	n/a	catFR1	1	R1361C
323.536	6.092	324960	REC_WORD_VV	9.098	n/a	<>	n/a	-999	2	[0, 0, 0]	n/a	catFR1	1	R1361C
329.628	6.592	331052	REC_WORD	15.19	n/a	THUNDERSTORM	Weather	-999	2	[0, 0, 0]	n/a	catFR1	1	R1361C
336.22	8.229	337644	REC_WORD_VV	21.782	n/a	<>	n/a	-999	2	[0, 0, 0]	n/a	catFR1	1	R1361C
344.449	0.001	345872	REC_END	n/a	n/a	n/a	n/a	-999	2	[0, 0, 0]	n/a	catFR1	1	R1361C
344.45	0.023	345873	TRIAL_END	n/a	n/a	n/a	n/a	-999	2	[0, 0, 0]	n/a	catFR1	1	R1361C
344.473	0.001	345896	TRIAL_START	n/a	n/a	n/a	n/a	-999	3	[0, 0, 0]	n/a	catFR1	1	R1361C
344.474	0.0	345897	TRIAL	n/a	n/a	n/a	n/a	-999	3	[0, 0, 0]	n/a	catFR1	1	R1361C
344.474	2.586	345897	WAITING_START	n/a	n/a	n/a	n/a	-999	3	[0, 0, 0]	n/a	catFR1	1	R1361C
347.06	0.001	348483	WAITING_END	n/a	n/a	n/a	n/a	-999	3	[0, 0, 0]	n/a	catFR1	1	R1361C
347.061	10.0	348484	COUNTDOWN_START	n/a	n/a	n/a	n/a	-999	3	[0, 0, 0]	n/a	catFR1	1	R1361C
357.489	0.0	358912	COUNTDOWN_END	n/a	n/a	n/a	n/a	-999	3	[0, 0, 0]	n/a	catFR1	1	R1361C
357.489	1.14	358912	ORIENT_START	n/a	n/a	n/a	n/a	-999	3	[0, 0, 0]	n/a	catFR1	1	R1361C
358.629	0.0	360052	ORIENT_END	n/a	n/a	n/a	n/a	-999	3	[0, 0, 0]	n/a	catFR1	1	R1361C
358.629	1.116	360052	ENCODING_START	n/a	n/a	n/a	n/a	-999	3	[0, 0, 0]	n/a	catFR1	1	R1361C
359.745	1.6	361168	WORD	n/a	wordpools/wordpool_categorized_EN.txt	BLENDER	Appliances	1	3	[0, 0, 0]	n/a	catFR1	1	R1361C
361.379	0.859	362801	WORD_OFF	n/a	n/a	BLENDER	Appliances	1	3	[0, 0, 0]	n/a	catFR1	1	R1361C
362.238	1.6	363660	WORD	n/a	wordpools/wordpool_categorized_EN.txt	STOVE	Appliances	2	3	[0, 0, 0]	n/a	catFR1	1	R1361C
363.863	0.905	365285	WORD_OFF	n/a	n/a	STOVE	Appliances	2	3	[0, 0, 0]	n/a	catFR1	1	R1361C
364.768	1.6	366190	WORD	n/a	wordpools/wordpool_categorized_EN.txt	SODA	Beverages	3	3	[0, 0, 0]	n/a	catFR1	1	R1361C
366.397	1.117	367819	WORD_OFF	n/a	n/a	SODA	Beverages	3	3	[0, 0, 0]	n/a	catFR1	1	R1361C
367.514	1.6	368936	WORD	n/a	wordpools/wordpool_categorized_EN.txt	CIDER	Beverages	4	3	[0, 0, 0]	n/a	catFR1	1	R1361C
369.147	1.115	370569	WORD_OFF	n/a	n/a	CIDER	Beverages	4	3	[0, 0, 0]	n/a	catFR1	1	R1361C
370.262	1.6	371684	WORD	n/a	wordpools/wordpool_categorized_EN.txt	WHISK	KitchenTools	5	3	[0, 0, 0]	n/a	catFR1	1	R1361C
371.898	0.931	373320	WORD_OFF	n/a	n/a	WHISK	KitchenTools	5	3	[0, 0, 0]	n/a	catFR1	1	R1361C
372.829	1.6	374251	WORD	n/a	wordpools/wordpool_categorized_EN.txt	FORK	KitchenTools	6	3	[0, 0, 0]	n/a	catFR1	1	R1361C
374.465	1.093	375887	WORD_OFF	n/a	n/a	FORK	KitchenTools	6	3	[0, 0, 0]	n/a	catFR1	1	R1361C
375.558	1.6	376980	WORD	n/a	wordpools/wordpool_categorized_EN.txt	REFRIGERATOR	Appliances	7	3	[0, 0, 0]	n/a	catFR1	1	R1361C
377.2	0.89	378622	WORD_OFF	n/a	n/a	REFRIGERATOR	Appliances	7	3	[0, 0, 0]	n/a	catFR1	1	R1361C
378.09	1.6	379512	WORD	n/a	wordpools/wordpool_categorized_EN.txt	IRON	Appliances	8	3	[0, 0, 0]	n/a	catFR1	1	R1361C
379.716	0.956	381138	WORD_OFF	n/a	n/a	IRON	Appliances	8	3	[0, 0, 0]	n/a	catFR1	1	R1361C
380.672	1.6	382093	WORD	n/a	wordpools/wordpool_categorized_EN.txt	WINE	Beverages	9	3	[0, 0, 0]	n/a	catFR1	1	R1361C
382.3	0.85	383721	WORD_OFF	n/a	n/a	WINE	Beverages	9	3	[0, 0, 0]	n/a	catFR1	1	R1361C
383.15	1.6	384571	WORD	n/a	wordpools/wordpool_categorized_EN.txt	WATER	Beverages	10	3	[0, 0, 0]	n/a	catFR1	1	R1361C
384.784	0.767	386205	WORD_OFF	n/a	n/a	WATER	Beverages	10	3	[0, 0, 0]	n/a	catFR1	1	R1361C
385.551	1.6	386972	WORD	n/a	wordpools/wordpool_categorized_EN.txt	GRATER	KitchenTools	11	3	[0, 0, 0]	n/a	catFR1	1	R1361C
387.184	1.061	388605	WORD_OFF	n/a	n/a	GRATER	KitchenTools	11	3	[0, 0, 0]	n/a	catFR1	1	R1361C
388.245	1.6	389666	WORD	n/a	wordpools/wordpool_categorized_EN.txt	KNIFE	KitchenTools	12	3	[0, 0, 0]	n/a	catFR1	1	R1361C
389.868	0.001	391289	WORD_OFF	n/a	n/a	KNIFE	KitchenTools	12	3	[0, 0, 0]	n/a	catFR1	1	R1361C
389.869	0.0	391290	ENCODING_END	n/a	n/a	n/a	n/a	-999	3	[0, 0, 0]	n/a	catFR1	1	R1361C
389.869	0.0	391290	DISTRACT_START	n/a	n/a	n/a	n/a	-999	3	[0, 0, 0]	n/a	catFR1	1	R1361C
389.869	0.015	391290	START	n/a	n/a	n/a	n/a	-999	3	[-999, -999, -999]	n/a	catFR1	1	R1361C
389.884	4.001	391305	PROB	3.969	n/a	n/a	n/a	-999	3	[5, 2, 4]	11.0	catFR1	1	R1361C
393.885	4.617	395306	PROB	4.583	n/a	n/a	n/a	-999	3	[8, 4, 8]	20.0	catFR1	1	R1361C
398.502	5.235	399923	PROB	5.196	n/a	n/a	n/a	-999	3	[5, 2, 6]	13.0	catFR1	1	R1361C
403.737	6.101	405157	PROB	6.063	n/a	n/a	n/a	-999	3	[7, 6, 2]	15.0	catFR1	1	R1361C
409.838	6.696	411258	PROB	6.696	n/a	n/a	n/a	-999	3	[9, 6, 2]	17.0	catFR1	1	R1361C
416.534	0.021	417954	STOP	n/a	n/a	n/a	n/a	-999	3	[-999, -999, -999]	n/a	catFR1	1	R1361C
416.555	0.634	417975	DISTRACT_END	n/a	n/a	n/a	n/a	-999	3	[0, 0, 0]	n/a	catFR1	1	R1361C
417.189	1.6	418609	RETRIEVAL_ORIENT_START	n/a	n/a	n/a	n/a	-999	3	[0, 0, 0]	n/a	catFR1	1	R1361C
418.74	0.0	420160	RETRIEVAL_ORIENT_END	n/a	n/a	n/a	n/a	-999	3	[0, 0, 0]	n/a	catFR1	1	R1361C
418.74	0.895	420160	REC_START	n/a	n/a	n/a	n/a	-999	3	[0, 0, 0]	n/a	catFR1	1	R1361C
419.635	0.8	421055	REC_WORD	0.895	n/a	BLENDER	Appliances	1	3	[0, 0, 0]	n/a	catFR1	1	R1361C
420.435	0.491	421855	REC_WORD	1.695	n/a	STOVE	Appliances	2	3	[0, 0, 0]	n/a	catFR1	1	R1361C
420.926	0.816	422346	REC_WORD	2.186	n/a	SODA	Beverages	3	3	[0, 0, 0]	n/a	catFR1	1	R1361C
421.742	4.669	423161	REC_WORD	3.002	n/a	CIDER	Beverages	4	3	[0, 0, 0]	n/a	catFR1	1	R1361C
426.411	8.665	427830	REC_WORD_VV	7.671	n/a	<>	n/a	-999	3	[0, 0, 0]	n/a	catFR1	1	R1361C
435.076	4.53	436495	REC_WORD_VV	16.336	n/a	<>	n/a	-999	3	[0, 0, 0]	n/a	catFR1	1	R1361C
439.606	9.147	441025	REC_WORD_VV	20.866	n/a	<>	n/a	-999	3	[0, 0, 0]	n/a	catFR1	1	R1361C
448.753	0.0	450171	REC_END	n/a	n/a	n/a	n/a	-999	3	[0, 0, 0]	n/a	catFR1	1	R1361C
448.753	0.022	450171	TRIAL_END	n/a	n/a	n/a	n/a	-999	3	[0, 0, 0]	n/a	catFR1	1	R1361C
448.775	0.001	450193	TRIAL_START	n/a	n/a	n/a	n/a	-999	4	[0, 0, 0]	n/a	catFR1	1	R1361C
448.776	0.0	450194	WAITING_START	n/a	n/a	n/a	n/a	-999	4	[0, 0, 0]	n/a	catFR1	1	R1361C
448.776	2.904	450194	TRIAL	n/a	n/a	n/a	n/a	-999	4	[0, 0, 0]	n/a	catFR1	1	R1361C
451.68	0.0	453098	WAITING_END	n/a	n/a	n/a	n/a	-999	4	[0, 0, 0]	n/a	catFR1	1	R1361C
451.68	10.0	453098	COUNTDOWN_START	n/a	n/a	n/a	n/a	-999	4	[0, 0, 0]	n/a	catFR1	1	R1361C
462.109	0.001	463526	COUNTDOWN_END	n/a	n/a	n/a	n/a	-999	4	[0, 0, 0]	n/a	catFR1	1	R1361C
462.11	1.238	463527	ORIENT_START	n/a	n/a	n/a	n/a	-999	4	[0, 0, 0]	n/a	catFR1	1	R1361C
463.348	0.001	464765	ORIENT_END	n/a	n/a	n/a	n/a	-999	4	[0, 0, 0]	n/a	catFR1	1	R1361C
463.349	1.098	464766	ENCODING_START	n/a	n/a	n/a	n/a	-999	4	[0, 0, 0]	n/a	catFR1	1	R1361C
464.447	1.6	465864	WORD	n/a	wordpools/wordpool_categorized_EN.txt	STRAINER	KitchenTools	1	4	[0, 0, 0]	n/a	catFR1	1	R1361C
466.082	0.929	467499	WORD_OFF	n/a	n/a	STRAINER	KitchenTools	1	4	[0, 0, 0]	n/a	catFR1	1	R1361C
467.011	1.6	468428	WORD	n/a	wordpools/wordpool_categorized_EN.txt	PEELER	KitchenTools	2	4	[0, 0, 0]	n/a	catFR1	1	R1361C
468.649	0.915	470066	WORD_OFF	n/a	n/a	PEELER	KitchenTools	2	4	[0, 0, 0]	n/a	catFR1	1	R1361C
469.564	1.6	470981	WORD	n/a	wordpools/wordpool_categorized_EN.txt	SCREWDRIVER	Tools	3	4	[0, 0, 0]	n/a	catFR1	1	R1361C
471.2	0.924	472617	WORD_OFF	n/a	n/a	SCREWDRIVER	Tools	3	4	[0, 0, 0]	n/a	catFR1	1	R1361C
472.124	1.6	473541	WORD	n/a	wordpools/wordpool_categorized_EN.txt	PLIERS	Tools	4	4	[0, 0, 0]	n/a	catFR1	1	R1361C
473.75	0.837	475167	WORD_OFF	n/a	n/a	PLIERS	Tools	4	4	[0, 0, 0]	n/a	catFR1	1	R1361C
474.587	1.6	476004	WORD	n/a	wordpools/wordpool_categorized_EN.txt	MARBLES	Toys	5	4	[0, 0, 0]	n/a	catFR1	1	R1361C
476.218	0.969	477635	WORD_OFF	n/a	n/a	MARBLES	Toys	5	4	[0, 0, 0]	n/a	catFR1	1	R1361C
477.187	1.6	478604	WORD	n/a	wordpools/wordpool_categorized_EN.txt	DOLLHOUSE	Toys	6	4	[0, 0, 0]	n/a	catFR1	1	R1361C
478.818	0.753	480235	WORD_OFF	n/a	n/a	DOLLHOUSE	Toys	6	4	[0, 0, 0]	n/a	catFR1	1	R1361C
479.571	1.6	480988	WORD	n/a	wordpools/wordpool_categorized_EN.txt	LADLE	KitchenTools	7	4	[0, 0, 0]	n/a	catFR1	1	R1361C
481.202	1.069	482619	WORD_OFF	n/a	n/a	LADLE	KitchenTools	7	4	[0, 0, 0]	n/a	catFR1	1	R1361C
482.271	1.6	483687	WORD	n/a	wordpools/wordpool_categorized_EN.txt	COLANDER	KitchenTools	8	4	[0, 0, 0]	n/a	catFR1	1	R1361C
483.902	1.041	485318	WORD_OFF	n/a	n/a	COLANDER	KitchenTools	8	4	[0, 0, 0]	n/a	catFR1	1	R1361C
484.943	1.6	486359	WORD	n/a	wordpools/wordpool_categorized_EN.txt	CROWBAR	Tools	9	4	[0, 0, 0]	n/a	catFR1	1	R1361C
486.569	1.088	487985	WORD_OFF	n/a	n/a	CROWBAR	Tools	9	4	[0, 0, 0]	n/a	catFR1	1	R1361C
487.657	1.6	489073	WORD	n/a	wordpools/wordpool_categorized_EN.txt	DRILL	Tools	10	4	[0, 0, 0]	n/a	catFR1	1	R1361C
489.287	0.994	490703	WORD_OFF	n/a	n/a	DRILL	Tools	10	4	[0, 0, 0]	n/a	catFR1	1	R1361C
490.281	1.6	491697	WORD	n/a	wordpools/wordpool_categorized_EN.txt	SLINKY	Toys	11	4	[0, 0, 0]	n/a	catFR1	1	R1361C
491.904	0.984	493320	WORD_OFF	n/a	n/a	SLINKY	Toys	11	4	[0, 0, 0]	n/a	catFR1	1	R1361C
492.888	1.6	494304	WORD	n/a	wordpools/wordpool_categorized_EN.txt	BASKETBALL	Toys	12	4	[0, 0, 0]	n/a	catFR1	1	R1361C
494.52	0.001	495936	WORD_OFF	n/a	n/a	BASKETBALL	Toys	12	4	[0, 0, 0]	n/a	catFR1	1	R1361C
494.521	0.0	495937	ENCODING_END	n/a	n/a	n/a	n/a	-999	4	[0, 0, 0]	n/a	catFR1	1	R1361C
494.521	0.0	495937	DISTRACT_START	n/a	n/a	n/a	n/a	-999	4	[0, 0, 0]	n/a	catFR1	1	R1361C
494.521	0.015	495937	START	n/a	n/a	n/a	n/a	-999	4	[-999, -999, -999]	n/a	catFR1	1	R1361C
494.536	6.302	495952	PROB	6.268	n/a	n/a	n/a	-999	4	[8, 5, 1]	14.0	catFR1	1	R1361C
500.838	3.667	502254	PROB	3.63	n/a	n/a	n/a	-999	4	[5, 6, 2]	13.0	catFR1	1	R1361C
504.505	4.201	505920	PROB	4.171	n/a	n/a	n/a	-999	4	[8, 4, 3]	15.0	catFR1	1	R1361C
508.706	4.918	510121	PROB	4.889	n/a	n/a	n/a	-999	4	[7, 4, 2]	13.0	catFR1	1	R1361C
513.624	5.246	515039	PROB	5.246	n/a	n/a	n/a	-999	4	[7, 9, 8]	24.0	catFR1	1	R1361C
518.87	0.022	520285	STOP	n/a	n/a	n/a	n/a	-999	4	[-999, -999, -999]	n/a	catFR1	1	R1361C
518.892	0.543	520307	DISTRACT_END	n/a	n/a	n/a	n/a	-999	4	[0, 0, 0]	n/a	catFR1	1	R1361C
519.435	1.6	520850	RETRIEVAL_ORIENT_START	n/a	n/a	n/a	n/a	-999	4	[0, 0, 0]	n/a	catFR1	1	R1361C
521.143	0.0	522558	REC_START	n/a	n/a	n/a	n/a	-999	4	[0, 0, 0]	n/a	catFR1	1	R1361C
521.143	0.97	522558	RETRIEVAL_ORIENT_END	n/a	n/a	n/a	n/a	-999	4	[0, 0, 0]	n/a	catFR1	1	R1361C
522.113	0.717	523528	REC_WORD	0.97	n/a	LADLE	KitchenTools	7	4	[0, 0, 0]	n/a	catFR1	1	R1361C
522.83	1.443	524245	REC_WORD	1.687	n/a	CROWBAR	Tools	9	4	[0, 0, 0]	n/a	catFR1	1	R1361C
524.273	1.712	525687	REC_WORD	3.13	n/a	STRAINER	KitchenTools	1	4	[0, 0, 0]	n/a	catFR1	1	R1361C
525.985	4.427	527399	REC_WORD	4.842	n/a	PLIERS	Tools	4	4	[0, 0, 0]	n/a	catFR1	1	R1361C
530.412	20.742	531826	REC_WORD_VV	9.269	n/a	<>	n/a	-999	4	[0, 0, 0]	n/a	catFR1	1	R1361C
551.154	0.001	552567	REC_END	n/a	n/a	n/a	n/a	-999	4	[0, 0, 0]	n/a	catFR1	1	R1361C
551.155	0.022	552568	TRIAL_END	n/a	n/a	n/a	n/a	-999	4	[0, 0, 0]	n/a	catFR1	1	R1361C
551.177	0.0	552590	TRIAL	n/a	n/a	n/a	n/a	-999	5	[0, 0, 0]	n/a	catFR1	1	R1361C
551.177	0.0	552590	WAITING_START	n/a	n/a	n/a	n/a	-999	5	[0, 0, 0]	n/a	catFR1	1	R1361C
551.177	3.105	552590	TRIAL_START	n/a	n/a	n/a	n/a	-999	5	[0, 0, 0]	n/a	catFR1	1	R1361C
554.282	0.001	555695	WAITING_END	n/a	n/a	n/a	n/a	-999	5	[0, 0, 0]	n/a	catFR1	1	R1361C
554.283	10.0	555696	COUNTDOWN_START	n/a	n/a	n/a	n/a	-999	5	[0, 0, 0]	n/a	catFR1	1	R1361C
564.712	0.001	566124	COUNTDOWN_END	n/a	n/a	n/a	n/a	-999	5	[0, 0, 0]	n/a	catFR1	1	R1361C
564.713	1.171	566125	ORIENT_START	n/a	n/a	n/a	n/a	-999	5	[0, 0, 0]	n/a	catFR1	1	R1361C
565.884	0.001	567296	ORIENT_END	n/a	n/a	n/a	n/a	-999	5	[0, 0, 0]	n/a	catFR1	1	R1361C
565.885	1.146	567297	ENCODING_START	n/a	n/a	n/a	n/a	-999	5	[0, 0, 0]	n/a	catFR1	1	R1361C
567.031	1.6	568443	WORD	n/a	wordpools/wordpool_categorized_EN.txt	ANT	Insects	1	5	[0, 0, 0]	n/a	catFR1	1	R1361C
568.668	0.764	570080	WORD_OFF	n/a	n/a	ANT	Insects	1	5	[0, 0, 0]	n/a	catFR1	1	R1361C
569.432	1.6	570844	WORD	n/a	wordpools/wordpool_categorized_EN.txt	MOSQUITO	Insects	2	5	[0, 0, 0]	n/a	catFR1	1	R1361C
571.069	0.905	572481	WORD_OFF	n/a	n/a	MOSQUITO	Insects	2	5	[0, 0, 0]	n/a	catFR1	1	R1361C
571.974	1.6	573386	WORD	n/a	wordpools/wordpool_categorized_EN.txt	BALL	Toys	3	5	[0, 0, 0]	n/a	catFR1	1	R1361C
573.602	0.961	575014	WORD_OFF	n/a	n/a	BALL	Toys	3	5	[0, 0, 0]	n/a	catFR1	1	R1361C
574.563	1.6	575975	WORD	n/a	wordpools/wordpool_categorized_EN.txt	BLOCKS	Toys	4	5	[0, 0, 0]	n/a	catFR1	1	R1361C
576.186	0.788	577598	WORD_OFF	n/a	n/a	BLOCKS	Toys	4	5	[0, 0, 0]	n/a	catFR1	1	R1361C
576.974	1.6	578386	WORD	n/a	wordpools/wordpool_categorized_EN.txt	CAULIFLOWER	Vegetables	5	5	[0, 0, 0]	n/a	catFR1	1	R1361C
578.603	0.786	580015	WORD_OFF	n/a	n/a	CAULIFLOWER	Vegetables	5	5	[0, 0, 0]	n/a	catFR1	1	R1361C
579.389	1.6	580801	WORD	n/a	wordpools/wordpool_categorized_EN.txt	POTATO	Vegetables	6	5	[0, 0, 0]	n/a	catFR1	1	R1361C
581.021	1.097	582433	WORD_OFF	n/a	n/a	POTATO	Vegetables	6	5	[0, 0, 0]	n/a	catFR1	1	R1361C
582.118	1.6	583530	WORD	n/a	wordpools/wordpool_categorized_EN.txt	DOLL	Toys	7	5	[0, 0, 0]	n/a	catFR1	1	R1361C
583.754	0.951	585166	WORD_OFF	n/a	n/a	DOLL	Toys	7	5	[0, 0, 0]	n/a	catFR1	1	R1361C
584.705	1.6	586116	WORD	n/a	wordpools/wordpool_categorized_EN.txt	BARBIE	Toys	8	5	[0, 0, 0]	n/a	catFR1	1	R1361C
586.338	0.817	587749	WORD_OFF	n/a	n/a	BARBIE	Toys	8	5	[0, 0, 0]	n/a	catFR1	1	R1361C
587.155	1.6	588566	WORD	n/a	wordpools/wordpool_categorized_EN.txt	BUTTERFLY	Insects	9	5	[0, 0, 0]	n/a	catFR1	1	R1361C
588.789	0.948	590200	WORD_OFF	n/a	n/a	BUTTERFLY	Insects	9	5	[0, 0, 0]	n/a	catFR1	1	R1361C
589.737	1.6	591148	WORD	n/a	wordpools/wordpool_categorized_EN.txt	CRICKET	Insects	10	5	[0, 0, 0]	n/a	catFR1	1	R1361C
591.372	1.109	592783	WORD_OFF	n/a	n/a	CRICKET	Insects	10	5	[0, 0, 0]	n/a	catFR1	1	R1361C
592.481	1.6	593892	WORD	n/a	wordpools/wordpool_categorized_EN.txt	SPINACH	Vegetables	11	5	[0, 0, 0]	n/a	catFR1	1	R1361C
594.106	0.765	595517	WORD_OFF	n/a	n/a	SPINACH	Vegetables	11	5	[0, 0, 0]	n/a	catFR1	1	R1361C
594.871	1.6	596282	WORD	n/a	wordpools/wordpool_categorized_EN.txt	CARROT	Vegetables	12	5	[0, 0, 0]	n/a	catFR1	1	R1361C
596.506	0.0	597917	WORD_OFF	n/a	n/a	CARROT	Vegetables	12	5	[0, 0, 0]	n/a	catFR1	1	R1361C
596.506	0.001	597917	ENCODING_END	n/a	n/a	n/a	n/a	-999	5	[0, 0, 0]	n/a	catFR1	1	R1361C
596.507	0.0	597918	DISTRACT_START	n/a	n/a	n/a	n/a	-999	5	[0, 0, 0]	n/a	catFR1	1	R1361C
596.507	0.015	597918	START	n/a	n/a	n/a	n/a	-999	5	[-999, -999, -999]	n/a	catFR1	1	R1361C
596.522	6.819	597933	PROB	6.787	n/a	n/a	n/a	-999	5	[3, 2, 9]	14.0	catFR1	1	R1361C
603.341	4.251	604752	PROB	4.215	n/a	n/a	n/a	-999	5	[5, 3, 4]	12.0	catFR1	1	R1361C
607.592	6.668	609002	PROB	6.644	n/a	n/a	n/a	-999	5	[2, 7, 6]	15.0	catFR1	1	R1361C
614.26	4.97	615670	PROB	4.97	n/a	n/a	n/a	-999	5	[6, 6, 2]	14.0	catFR1	1	R1361C
619.23	0.014	620640	STOP	n/a	n/a	n/a	n/a	-999	5	[-999, -999, -999]	n/a	catFR1	1	R1361C
619.244	0.571	620654	DISTRACT_END	n/a	n/a	n/a	n/a	-999	5	[0, 0, 0]	n/a	catFR1	1	R1361C
619.815	1.6	621225	RETRIEVAL_ORIENT_START	n/a	n/a	n/a	n/a	-999	5	[0, 0, 0]	n/a	catFR1	1	R1361C
621.411	0.001	622821	RETRIEVAL_ORIENT_END	n/a	n/a	n/a	n/a	-999	5	[0, 0, 0]	n/a	catFR1	1	R1361C
621.412	0.858	622822	REC_START	n/a	n/a	n/a	n/a	-999	5	[0, 0, 0]	n/a	catFR1	1	R1361C
622.27	0.595	623680	REC_WORD	0.858	n/a	ANT	Insects	1	5	[0, 0, 0]	n/a	catFR1	1	R1361C
622.865	1.169	624275	REC_WORD	1.453	n/a	MOSQUITO	Insects	2	5	[0, 0, 0]	n/a	catFR1	1	R1361C
624.034	0.734	625444	REC_WORD	2.622	n/a	BALL	Toys	3	5	[0, 0, 0]	n/a	catFR1	1	R1361C
624.768	4.751	626178	REC_WORD	3.356	n/a	CAULIFLOWER	Vegetables	5	5	[0, 0, 0]	n/a	catFR1	1	R1361C
629.519	17.615	630928	REC_WORD_VV	8.107	n/a	<>	n/a	-999	5	[0, 0, 0]	n/a	catFR1	1	R1361C
647.134	4.288	648542	REC_WORD	25.722	n/a	COLANDER	KitchenTools	-999	5	[0, 0, 0]	n/a	catFR1	1	R1361C
651.422	0.001	652830	REC_END	n/a	n/a	n/a	n/a	-999	5	[0, 0, 0]	n/a	catFR1	1	R1361C
651.423	0.026	652831	TRIAL_END	n/a	n/a	n/a	n/a	-999	5	[0, 0, 0]	n/a	catFR1	1	R1361C
651.449	0.0	652857	WAITING_START	n/a	n/a	n/a	n/a	-999	6	[0, 0, 0]	n/a	catFR1	1	R1361C
651.449	0.0	652857	TRIAL_START	n/a	n/a	n/a	n/a	-999	6	[0, 0, 0]	n/a	catFR1	1	R1361C
651.449	5.752	652857	TRIAL	n/a	n/a	n/a	n/a	-999	6	[0, 0, 0]	n/a	catFR1	1	R1361C
657.201	0.001	658609	WAITING_END	n/a	n/a	n/a	n/a	-999	6	[0, 0, 0]	n/a	catFR1	1	R1361C
657.202	10.0	658610	COUNTDOWN_START	n/a	n/a	n/a	n/a	-999	6	[0, 0, 0]	n/a	catFR1	1	R1361C
667.63	0.001	669037	COUNTDOWN_END	n/a	n/a	n/a	n/a	-999	6	[0, 0, 0]	n/a	catFR1	1	R1361C
667.631	1.223	669038	ORIENT_START	n/a	n/a	n/a	n/a	-999	6	[0, 0, 0]	n/a	catFR1	1	R1361C
668.854	0.0	670261	ORIENT_END	n/a	n/a	n/a	n/a	-999	6	[0, 0, 0]	n/a	catFR1	1	R1361C
668.854	0.963	670261	ENCODING_START	n/a	n/a	n/a	n/a	-999	6	[0, 0, 0]	n/a	catFR1	1	R1361C
669.817	1.6	671224	WORD	n/a	wordpools/wordpool_categorized_EN.txt	LILY	Flowers	1	6	[0, 0, 0]	n/a	catFR1	1	R1361C
671.454	0.964	672861	WORD_OFF	n/a	n/a	LILY	Flowers	1	6	[0, 0, 0]	n/a	catFR1	1	R1361C
672.418	1.6	673825	WORD	n/a	wordpools/wordpool_categorized_EN.txt	CARNATION	Flowers	2	6	[0, 0, 0]	n/a	catFR1	1	R1361C
674.055	1.141	675462	WORD_OFF	n/a	n/a	CARNATION	Flowers	2	6	[0, 0, 0]	n/a	catFR1	1	R1361C
675.196	1.6	676603	WORD	n/a	wordpools/wordpool_categorized_EN.txt	CHAIR	Furniture	3	6	[0, 0, 0]	n/a	catFR1	1	R1361C
676.823	0.785	678230	WORD_OFF	n/a	n/a	CHAIR	Furniture	3	6	[0, 0, 0]	n/a	catFR1	1	R1361C
677.608	1.6	679015	WORD	n/a	wordpools/wordpool_categorized_EN.txt	SOFA	Furniture	4	6	[0, 0, 0]	n/a	catFR1	1	R1361C
679.239	0.798	680646	WORD_OFF	n/a	n/a	SOFA	Furniture	4	6	[0, 0, 0]	n/a	catFR1	1	R1361C
680.037	1.6	681444	WORD	n/a	wordpools/wordpool_categorized_EN.txt	SAW	Tools	5	6	[0, 0, 0]	n/a	catFR1	1	R1361C
681.673	0.895	683080	WORD_OFF	n/a	n/a	SAW	Tools	5	6	[0, 0, 0]	n/a	catFR1	1	R1361C
682.568	1.6	683975	WORD	n/a	wordpools/wordpool_categorized_EN.txt	WRENCH	Tools	6	6	[0, 0, 0]	n/a	catFR1	1	R1361C
684.206	1.013	685613	WORD_OFF	n/a	n/a	WRENCH	Tools	6	6	[0, 0, 0]	n/a	catFR1	1	R1361C
685.219	1.6	686626	WORD	n/a	wordpools/wordpool_categorized_EN.txt	DESK	Furniture	7	6	[0, 0, 0]	n/a	catFR1	1	R1361C
686.857	0.791	688263	WORD_OFF	n/a	n/a	DESK	Furniture	7	6	[0, 0, 0]	n/a	catFR1	1	R1361C
687.648	1.6	689054	WORD	n/a	wordpools/wordpool_categorized_EN.txt	DRESSER	Furniture	8	6	[0, 0, 0]	n/a	catFR1	1	R1361C
689.274	0.782	690680	WORD_OFF	n/a	n/a	DRESSER	Furniture	8	6	[0, 0, 0]	n/a	catFR1	1	R1361C
690.056	1.6	691462	WORD	n/a	wordpools/wordpool_categorized_EN.txt	LILAC	Flowers	9	6	[0, 0, 0]	n/a	catFR1	1	R1361C
691.691	0.97	693097	WORD_OFF	n/a	n/a	LILAC	Flowers	9	6	[0, 0, 0]	n/a	catFR1	1	R1361C
692.661	1.6	694067	WORD	n/a	wordpools/wordpool_categorized_EN.txt	TULIP	Flowers	10	6	[0, 0, 0]	n/a	catFR1	1	R1361C
694.292	0.95	695698	WORD_OFF	n/a	n/a	TULIP	Flowers	10	6	[0, 0, 0]	n/a	catFR1	1	R1361C
695.242	1.6	696648	WORD	n/a	wordpools/wordpool_categorized_EN.txt	LEVEL	Tools	11	6	[0, 0, 0]	n/a	catFR1	1	R1361C
696.876	0.833	698282	WORD_OFF	n/a	n/a	LEVEL	Tools	11	6	[0, 0, 0]	n/a	catFR1	1	R1361C
697.709	1.6	699115	WORD	n/a	wordpools/wordpool_categorized_EN.txt	AXE	Tools	12	6	[0, 0, 0]	n/a	catFR1	1	R1361C
699.343	0.0	700749	WORD_OFF	n/a	n/a	AXE	Tools	12	6	[0, 0, 0]	n/a	catFR1	1	R1361C
699.343	0.001	700749	ENCODING_END	n/a	n/a	n/a	n/a	-999	6	[0, 0, 0]	n/a	catFR1	1	R1361C
699.344	0.0	700750	DISTRACT_START	n/a	n/a	n/a	n/a	-999	6	[0, 0, 0]	n/a	catFR1	1	R1361C
699.344	0.015	700750	START	n/a	n/a	n/a	n/a	-999	6	[-999, -999, -999]	n/a	catFR1	1	R1361C
699.359	5.668	700765	PROB	5.632	n/a	n/a	n/a	-999	6	[4, 6, 2]	12.0	catFR1	1	R1361C
705.027	8.585	706433	PROB	8.56	n/a	n/a	n/a	-999	6	[6, 2, 8]	16.0	catFR1	1	R1361C
713.612	3.5	715017	PROB	3.463	n/a	n/a	n/a	-999	6	[7, 1, 9]	17.0	catFR1	1	R1361C
717.112	6.159	718517	PROB	6.159	n/a	n/a	n/a	-999	6	[3, 4, 2]	9.0	catFR1	1	R1361C
723.271	0.01	724676	STOP	n/a	n/a	n/a	n/a	-999	6	[-999, -999, -999]	n/a	catFR1	1	R1361C
723.281	0.644	724686	DISTRACT_END	n/a	n/a	n/a	n/a	-999	6	[0, 0, 0]	n/a	catFR1	1	R1361C
723.925	1.6	725330	RETRIEVAL_ORIENT_START	n/a	n/a	n/a	n/a	-999	6	[0, 0, 0]	n/a	catFR1	1	R1361C
725.581	0.0	726986	REC_START	n/a	n/a	n/a	n/a	-999	6	[0, 0, 0]	n/a	catFR1	1	R1361C
725.581	1.042	726986	RETRIEVAL_ORIENT_END	n/a	n/a	n/a	n/a	-999	6	[0, 0, 0]	n/a	catFR1	1	R1361C
726.623	0.63	728028	REC_WORD	1.042	n/a	LILY	Flowers	1	6	[0, 0, 0]	n/a	catFR1	1	R1361C
727.253	0.838	728657	REC_WORD	1.672	n/a	CARNATION	Flowers	2	6	[0, 0, 0]	n/a	catFR1	1	R1361C
728.091	0.789	729495	REC_WORD	2.51	n/a	SOFA	Furniture	4	6	[0, 0, 0]	n/a	catFR1	1	R1361C
728.88	1.459	730284	REC_WORD	3.299	n/a	SAW	Tools	5	6	[0, 0, 0]	n/a	catFR1	1	R1361C
730.339	4.805	731743	REC_WORD	4.758	n/a	CHAIR	Furniture	3	6	[0, 0, 0]	n/a	catFR1	1	R1361C
735.144	5.824	736548	REC_WORD	9.563	n/a	DESK	Furniture	7	6	[0, 0, 0]	n/a	catFR1	1	R1361C
740.968	14.624	742372	REC_WORD	15.387	n/a	I CAN'T REMMEBER THESE STUPID WORDS	n/a	-999	6	[0, 0, 0]	n/a	catFR1	1	R1361C
755.592	0.0	756995	REC_END	n/a	n/a	n/a	n/a	-999	6	[0, 0, 0]	n/a	catFR1	1	R1361C
755.592	0.022	756995	TRIAL_END	n/a	n/a	n/a	n/a	-999	6	[0, 0, 0]	n/a	catFR1	1	R1361C
755.614	0.0	757017	TRIAL_START	n/a	n/a	n/a	n/a	-999	7	[0, 0, 0]	n/a	catFR1	1	R1361C
755.614	0.0	757017	TRIAL	n/a	n/a	n/a	n/a	-999	7	[0, 0, 0]	n/a	catFR1	1	R1361C
755.614	4.59	757017	WAITING_START	n/a	n/a	n/a	n/a	-999	7	[0, 0, 0]	n/a	catFR1	1	R1361C
760.204	0.001	761607	WAITING_END	n/a	n/a	n/a	n/a	-999	7	[0, 0, 0]	n/a	catFR1	1	R1361C
760.205	10.0	761608	COUNTDOWN_START	n/a	n/a	n/a	n/a	-999	7	[0, 0, 0]	n/a	catFR1	1	R1361C
770.634	0.0	772036	COUNTDOWN_END	n/a	n/a	n/a	n/a	-999	7	[0, 0, 0]	n/a	catFR1	1	R1361C
770.634	1.156	772036	ORIENT_START	n/a	n/a	n/a	n/a	-999	7	[0, 0, 0]	n/a	catFR1	1	R1361C
771.79	0.0	773192	ENCODING_START	n/a	n/a	n/a	n/a	-999	7	[0, 0, 0]	n/a	catFR1	1	R1361C
771.79	0.831	773192	ORIENT_END	n/a	n/a	n/a	n/a	-999	7	[0, 0, 0]	n/a	catFR1	1	R1361C
772.621	1.6	774023	WORD	n/a	wordpools/wordpool_categorized_EN.txt	SHIRT	Clothing	1	7	[0, 0, 0]	n/a	catFR1	1	R1361C
774.257	0.995	775659	WORD_OFF	n/a	n/a	SHIRT	Clothing	1	7	[0, 0, 0]	n/a	catFR1	1	R1361C
775.252	1.6	776654	WORD	n/a	wordpools/wordpool_categorized_EN.txt	COAT	Clothing	2	7	[0, 0, 0]	n/a	catFR1	1	R1361C
776.891	1.141	778293	WORD_OFF	n/a	n/a	COAT	Clothing	2	7	[0, 0, 0]	n/a	catFR1	1	R1361C
778.032	1.6	779434	WORD	n/a	wordpools/wordpool_categorized_EN.txt	FOOTBALL	Toys	3	7	[0, 0, 0]	n/a	catFR1	1	R1361C
779.658	0.815	781060	WORD_OFF	n/a	n/a	FOOTBALL	Toys	3	7	[0, 0, 0]	n/a	catFR1	1	R1361C
780.473	1.6	781875	WORD	n/a	wordpools/wordpool_categorized_EN.txt	PUZZLE	Toys	4	7	[0, 0, 0]	n/a	catFR1	1	R1361C
782.108	0.933	783510	WORD_OFF	n/a	n/a	PUZZLE	Toys	4	7	[0, 0, 0]	n/a	catFR1	1	R1361C
783.041	1.6	784443	WORD	n/a	wordpools/wordpool_categorized_EN.txt	BEAR	Zoo	5	7	[0, 0, 0]	n/a	catFR1	1	R1361C
784.675	0.868	786077	WORD_OFF	n/a	n/a	BEAR	Zoo	5	7	[0, 0, 0]	n/a	catFR1	1	R1361C
785.543	1.6	786945	WORD	n/a	wordpools/wordpool_categorized_EN.txt	ELEPHANT	Zoo	6	7	[0, 0, 0]	n/a	catFR1	1	R1361C
787.176	1.13	788578	WORD_OFF	n/a	n/a	ELEPHANT	Zoo	6	7	[0, 0, 0]	n/a	catFR1	1	R1361C
788.306	1.6	789707	WORD	n/a	wordpools/wordpool_categorized_EN.txt	BASEBALL	Toys	7	7	[0, 0, 0]	n/a	catFR1	1	R1361C
789.943	1.02	791344	WORD_OFF	n/a	n/a	BASEBALL	Toys	7	7	[0, 0, 0]	n/a	catFR1	1	R1361C
790.963	1.6	792364	WORD	n/a	wordpools/wordpool_categorized_EN.txt	FRISBEE	Toys	8	7	[0, 0, 0]	n/a	catFR1	1	R1361C
792.593	1.105	793994	WORD_OFF	n/a	n/a	FRISBEE	Toys	8	7	[0, 0, 0]	n/a	catFR1	1	R1361C
793.698	1.6	795099	WORD	n/a	wordpools/wordpool_categorized_EN.txt	PANDA	Zoo	9	7	[0, 0, 0]	n/a	catFR1	1	R1361C
795.327	1.049	796728	WORD_OFF	n/a	n/a	PANDA	Zoo	9	7	[0, 0, 0]	n/a	catFR1	1	R1361C
796.376	1.6	797777	WORD	n/a	wordpools/wordpool_categorized_EN.txt	GORILLA	Zoo	10	7	[0, 0, 0]	n/a	catFR1	1	R1361C
798.011	0.911	799412	WORD_OFF	n/a	n/a	GORILLA	Zoo	10	7	[0, 0, 0]	n/a	catFR1	1	R1361C
798.922	1.6	800323	WORD	n/a	wordpools/wordpool_categorized_EN.txt	PANTS	Clothing	11	7	[0, 0, 0]	n/a	catFR1	1	R1361C
800.544	0.768	801945	WORD_OFF	n/a	n/a	PANTS	Clothing	11	7	[0, 0, 0]	n/a	catFR1	1	R1361C
801.312	1.6	802713	WORD	n/a	wordpools/wordpool_categorized_EN.txt	SHOES	Clothing	12	7	[0, 0, 0]	n/a	catFR1	1	R1361C
802.945	0.001	804346	WORD_OFF	n/a	n/a	SHOES	Clothing	12	7	[0, 0, 0]	n/a	catFR1	1	R1361C
802.946	0.0	804347	ENCODING_END	n/a	n/a	n/a	n/a	-999	7	[0, 0, 0]	n/a	catFR1	1	R1361C
802.946	0.001	804347	DISTRACT_START	n/a	n/a	n/a	n/a	-999	7	[0, 0, 0]	n/a	catFR1	1	R1361C
802.947	0.015	804348	START	n/a	n/a	n/a	n/a	-999	7	[-999, -999, -999]	n/a	catFR1	1	R1361C
802.962	7.218	804363	PROB	7.191	n/a	n/a	n/a	-999	7	[7, 8, 4]	19.0	catFR1	1	R1361C
810.18	3.884	811580	PROB	3.861	n/a	n/a	n/a	-999	7	[7, 7, 7]	21.0	catFR1	1	R1361C
814.064	4.284	815464	PROB	4.249	n/a	n/a	n/a	-999	7	[9, 8, 2]	19.0	catFR1	1	R1361C
818.348	4.868	819748	PROB	4.868	n/a	n/a	n/a	-999	7	[6, 1, 6]	13.0	catFR1	1	R1361C
823.216	0.017	824616	STOP	n/a	n/a	n/a	n/a	-999	7	[-999, -999, -999]	n/a	catFR1	1	R1361C
823.233	0.533	824633	DISTRACT_END	n/a	n/a	n/a	n/a	-999	7	[0, 0, 0]	n/a	catFR1	1	R1361C
823.766	1.6	825166	RETRIEVAL_ORIENT_START	n/a	n/a	n/a	n/a	-999	7	[0, 0, 0]	n/a	catFR1	1	R1361C
825.416	0.001	826816	RETRIEVAL_ORIENT_END	n/a	n/a	n/a	n/a	-999	7	[0, 0, 0]	n/a	catFR1	1	R1361C
825.417	1.077	826817	REC_START	n/a	n/a	n/a	n/a	-999	7	[0, 0, 0]	n/a	catFR1	1	R1361C
826.494	1.043	827894	REC_WORD	1.077	n/a	SHIRT	Clothing	1	7	[0, 0, 0]	n/a	catFR1	1	R1361C
827.537	0.913	828937	REC_WORD	2.12	n/a	COAT	Clothing	2	7	[0, 0, 0]	n/a	catFR1	1	R1361C
828.45	2.212	829850	REC_WORD	3.033	n/a	FOOTBALL	Toys	3	7	[0, 0, 0]	n/a	catFR1	1	R1361C
830.662	0.742	832061	REC_WORD	5.245	n/a	BEAR	Zoo	5	7	[0, 0, 0]	n/a	catFR1	1	R1361C
831.404	5.634	832803	REC_WORD	5.987	n/a	PANDA	Zoo	9	7	[0, 0, 0]	n/a	catFR1	1	R1361C
837.038	18.389	838437	REC_WORD_VV	11.621	n/a	<>	n/a	-999	7	[0, 0, 0]	n/a	catFR1	1	R1361C
855.427	0.001	856825	REC_END	n/a	n/a	n/a	n/a	-999	7	[0, 0, 0]	n/a	catFR1	1	R1361C
855.428	0.025	856826	TRIAL_END	n/a	n/a	n/a	n/a	-999	7	[0, 0, 0]	n/a	catFR1	1	R1361C
855.453	0.0	856851	TRIAL_START	n/a	n/a	n/a	n/a	-999	8	[0, 0, 0]	n/a	catFR1	1	R1361C
855.453	0.0	856851	TRIAL	n/a	n/a	n/a	n/a	-999	8	[0, 0, 0]	n/a	catFR1	1	R1361C
855.453	3.786	856851	WAITING_START	n/a	n/a	n/a	n/a	-999	8	[0, 0, 0]	n/a	catFR1	1	R1361C
859.239	0.001	860637	WAITING_END	n/a	n/a	n/a	n/a	-999	8	[0, 0, 0]	n/a	catFR1	1	R1361C
859.24	10.0	860638	COUNTDOWN_START	n/a	n/a	n/a	n/a	-999	8	[0, 0, 0]	n/a	catFR1	1	R1361C
869.669	0.001	871067	COUNTDOWN_END	n/a	n/a	n/a	n/a	-999	8	[0, 0, 0]	n/a	catFR1	1	R1361C
869.67	1.205	871068	ORIENT_START	n/a	n/a	n/a	n/a	-999	8	[0, 0, 0]	n/a	catFR1	1	R1361C
870.875	0.0	872272	ORIENT_END	n/a	n/a	n/a	n/a	-999	8	[0, 0, 0]	n/a	catFR1	1	R1361C
870.875	1.03	872272	ENCODING_START	n/a	n/a	n/a	n/a	-999	8	[0, 0, 0]	n/a	catFR1	1	R1361C
871.905	1.6	873302	WORD	n/a	wordpools/wordpool_categorized_EN.txt	HALLWAY	Building	1	8	[0, 0, 0]	n/a	catFR1	1	R1361C
873.541	0.949	874938	WORD_OFF	n/a	n/a	HALLWAY	Building	1	8	[0, 0, 0]	n/a	catFR1	1	R1361C
874.49	1.6	875887	WORD	n/a	wordpools/wordpool_categorized_EN.txt	CEILING	Building	2	8	[0, 0, 0]	n/a	catFR1	1	R1361C
876.126	1.139	877523	WORD_OFF	n/a	n/a	CEILING	Building	2	8	[0, 0, 0]	n/a	catFR1	1	R1361C
877.265	1.6	878662	WORD	n/a	wordpools/wordpool_categorized_EN.txt	CHICKEN	FarmAnimals	3	8	[0, 0, 0]	n/a	catFR1	1	R1361C
878.893	0.939	880290	WORD_OFF	n/a	n/a	CHICKEN	FarmAnimals	3	8	[0, 0, 0]	n/a	catFR1	1	R1361C
879.832	1.6	881229	WORD	n/a	wordpools/wordpool_categorized_EN.txt	HORSE	FarmAnimals	4	8	[0, 0, 0]	n/a	catFR1	1	R1361C
881.46	1.09	882857	WORD_OFF	n/a	n/a	HORSE	FarmAnimals	4	8	[0, 0, 0]	n/a	catFR1	1	R1361C
882.55	1.6	883947	WORD	n/a	wordpools/wordpool_categorized_EN.txt	ELM	Trees	5	8	[0, 0, 0]	n/a	catFR1	1	R1361C
884.177	1.113	885574	WORD_OFF	n/a	n/a	ELM	Trees	5	8	[0, 0, 0]	n/a	catFR1	1	R1361C
885.29	1.6	886687	WORD	n/a	wordpools/wordpool_categorized_EN.txt	MAPLE	Trees	6	8	[0, 0, 0]	n/a	catFR1	1	R1361C
886.928	0.897	888325	WORD_OFF	n/a	n/a	MAPLE	Trees	6	8	[0, 0, 0]	n/a	catFR1	1	R1361C
887.825	1.6	889222	WORD	n/a	wordpools/wordpool_categorized_EN.txt	COW	FarmAnimals	7	8	[0, 0, 0]	n/a	catFR1	1	R1361C
889.462	1.105	890859	WORD_OFF	n/a	n/a	COW	FarmAnimals	7	8	[0, 0, 0]	n/a	catFR1	1	R1361C
890.567	1.6	891963	WORD	n/a	wordpools/wordpool_categorized_EN.txt	SHEEP	FarmAnimals	8	8	[0, 0, 0]	n/a	catFR1	1	R1361C
892.196	1.109	893592	WORD_OFF	n/a	n/a	SHEEP	FarmAnimals	8	8	[0, 0, 0]	n/a	catFR1	1	R1361C
893.305	1.6	894701	WORD	n/a	wordpools/wordpool_categorized_EN.txt	WALNUT	Trees	9	8	[0, 0, 0]	n/a	catFR1	1	R1361C
894.929	0.893	896325	WORD_OFF	n/a	n/a	WALNUT	Trees	9	8	[0, 0, 0]	n/a	catFR1	1	R1361C
895.822	1.6	897218	WORD	n/a	wordpools/wordpool_categorized_EN.txt	HICKORY	Trees	10	8	[0, 0, 0]	n/a	catFR1	1	R1361C
897.447	0.77	898843	WORD_OFF	n/a	n/a	HICKORY	Trees	10	8	[0, 0, 0]	n/a	catFR1	1	R1361C
898.217	1.6	899613	WORD	n/a	wordpools/wordpool_categorized_EN.txt	FOUNDATION	Building	11	8	[0, 0, 0]	n/a	catFR1	1	R1361C
899.847	0.845	901243	WORD_OFF	n/a	n/a	FOUNDATION	Building	11	8	[0, 0, 0]	n/a	catFR1	1	R1361C
900.692	1.6	902088	WORD	n/a	wordpools/wordpool_categorized_EN.txt	STAIRS	Building	12	8	[0, 0, 0]	n/a	catFR1	1	R1361C
902.314	0.001	903710	WORD_OFF	n/a	n/a	STAIRS	Building	12	8	[0, 0, 0]	n/a	catFR1	1	R1361C
902.315	0.0	903711	DISTRACT_START	n/a	n/a	n/a	n/a	-999	8	[0, 0, 0]	n/a	catFR1	1	R1361C
902.315	0.0	903711	ENCODING_END	n/a	n/a	n/a	n/a	-999	8	[0, 0, 0]	n/a	catFR1	1	R1361C
902.315	0.015	903711	START	n/a	n/a	n/a	n/a	-999	8	[-999, -999, -999]	n/a	catFR1	1	R1361C
902.33	8.619	903726	PROB	8.587	n/a	n/a	n/a	-999	8	[2, 7, 9]	17.0	catFR1	1	R1361C
910.949	7.151	912344	PROB	7.112	n/a	n/a	n/a	-999	8	[6, 9, 3]	18.0	catFR1	1	R1361C
918.1	5.024	919495	PROB	5.024	n/a	n/a	n/a	-999	8	[8, 7, 1]	16.0	catFR1	1	R1361C
923.124	0.011	924519	STOP	n/a	n/a	n/a	n/a	-999	8	[-999, -999, -999]	n/a	catFR1	1	R1361C
923.135	0.601	924530	DISTRACT_END	n/a	n/a	n/a	n/a	-999	8	[0, 0, 0]	n/a	catFR1	1	R1361C
923.736	1.6	925131	RETRIEVAL_ORIENT_START	n/a	n/a	n/a	n/a	-999	8	[0, 0, 0]	n/a	catFR1	1	R1361C
925.352	0.0	926747	RETRIEVAL_ORIENT_END	n/a	n/a	n/a	n/a	-999	8	[0, 0, 0]	n/a	catFR1	1	R1361C
925.352	0.768	926747	REC_START	n/a	n/a	n/a	n/a	-999	8	[0, 0, 0]	n/a	catFR1	1	R1361C
926.12	0.767	927515	REC_WORD	0.768	n/a	HALLWAY	Building	1	8	[0, 0, 0]	n/a	catFR1	1	R1361C
926.887	0.903	928282	REC_WORD	1.535	n/a	CEILING	Building	2	8	[0, 0, 0]	n/a	catFR1	1	R1361C
927.79	0.902	929185	REC_WORD	2.438	n/a	CHICKEN	FarmAnimals	3	8	[0, 0, 0]	n/a	catFR1	1	R1361C
928.692	0.877	930087	REC_WORD	3.34	n/a	HORSE	FarmAnimals	4	8	[0, 0, 0]	n/a	catFR1	1	R1361C
929.569	0.743	930964	REC_WORD	4.217	n/a	COW	FarmAnimals	7	8	[0, 0, 0]	n/a	catFR1	1	R1361C
930.312	3.845	931707	REC_WORD	4.96	n/a	SHEEP	FarmAnimals	8	8	[0, 0, 0]	n/a	catFR1	1	R1361C
934.157	2.295	935551	REC_WORD_VV	8.805	n/a	<>	n/a	-999	8	[0, 0, 0]	n/a	catFR1	1	R1361C
936.452	1.556	937846	REC_WORD	11.1	n/a	I CAN'T GET THIS	n/a	-999	8	[0, 0, 0]	n/a	catFR1	1	R1361C
938.008	17.355	939402	REC_WORD_VV	12.656	n/a	<>	n/a	-999	8	[0, 0, 0]	n/a	catFR1	1	R1361C
955.363	0.001	956756	REC_END	n/a	n/a	n/a	n/a	-999	8	[0, 0, 0]	n/a	catFR1	1	R1361C
955.364	0.022	956757	TRIAL_END	n/a	n/a	n/a	n/a	-999	8	[0, 0, 0]	n/a	catFR1	1	R1361C
955.386	0.0	956779	TRIAL_START	n/a	n/a	n/a	n/a	-999	9	[0, 0, 0]	n/a	catFR1	1	R1361C
955.386	0.001	956779	TRIAL	n/a	n/a	n/a	n/a	-999	9	[0, 0, 0]	n/a	catFR1	1	R1361C
955.387	5.088	956780	WAITING_START	n/a	n/a	n/a	n/a	-999	9	[0, 0, 0]	n/a	catFR1	1	R1361C
960.475	0.0	961868	WAITING_END	n/a	n/a	n/a	n/a	-999	9	[0, 0, 0]	n/a	catFR1	1	R1361C
960.475	10.0	961868	COUNTDOWN_START	n/a	n/a	n/a	n/a	-999	9	[0, 0, 0]	n/a	catFR1	1	R1361C
970.905	0.001	972298	COUNTDOWN_END	n/a	n/a	n/a	n/a	-999	9	[0, 0, 0]	n/a	catFR1	1	R1361C
970.906	1.205	972299	ORIENT_START	n/a	n/a	n/a	n/a	-999	9	[0, 0, 0]	n/a	catFR1	1	R1361C
972.111	0.0	973503	ORIENT_END	n/a	n/a	n/a	n/a	-999	9	[0, 0, 0]	n/a	catFR1	1	R1361C
972.111	0.947	973503	ENCODING_START	n/a	n/a	n/a	n/a	-999	9	[0, 0, 0]	n/a	catFR1	1	R1361C
973.058	1.6	974450	WORD	n/a	wordpools/wordpool_categorized_EN.txt	MOUSSE	Desserts	1	9	[0, 0, 0]	n/a	catFR1	1	R1361C
974.694	0.875	976086	WORD_OFF	n/a	n/a	MOUSSE	Desserts	1	9	[0, 0, 0]	n/a	catFR1	1	R1361C
975.569	1.6	976961	WORD	n/a	wordpools/wordpool_categorized_EN.txt	BROWNIES	Desserts	2	9	[0, 0, 0]	n/a	catFR1	1	R1361C
977.196	0.963	978588	WORD_OFF	n/a	n/a	BROWNIES	Desserts	2	9	[0, 0, 0]	n/a	catFR1	1	R1361C
978.159	1.6	979551	WORD	n/a	wordpools/wordpool_categorized_EN.txt	ISLAND	Landscapes	3	9	[0, 0, 0]	n/a	catFR1	1	R1361C
979.795	0.751	981187	WORD_OFF	n/a	n/a	ISLAND	Landscapes	3	9	[0, 0, 0]	n/a	catFR1	1	R1361C
980.546	1.6	981938	WORD	n/a	wordpools/wordpool_categorized_EN.txt	STREAM	Landscapes	4	9	[0, 0, 0]	n/a	catFR1	1	R1361C
982.179	0.978	983571	WORD_OFF	n/a	n/a	STREAM	Landscapes	4	9	[0, 0, 0]	n/a	catFR1	1	R1361C
983.157	1.6	984549	WORD	n/a	wordpools/wordpool_categorized_EN.txt	SHOVEL	Tools	5	9	[0, 0, 0]	n/a	catFR1	1	R1361C
984.78	0.906	986172	WORD_OFF	n/a	n/a	SHOVEL	Tools	5	9	[0, 0, 0]	n/a	catFR1	1	R1361C
985.686	1.6	987078	WORD	n/a	wordpools/wordpool_categorized_EN.txt	HAMMER	Tools	6	9	[0, 0, 0]	n/a	catFR1	1	R1361C
987.313	0.932	988705	WORD_OFF	n/a	n/a	HAMMER	Tools	6	9	[0, 0, 0]	n/a	catFR1	1	R1361C
988.245	1.6	989637	WORD	n/a	wordpools/wordpool_categorized_EN.txt	OCEAN	Landscapes	7	9	[0, 0, 0]	n/a	catFR1	1	R1361C
989.88	0.944	991272	WORD_OFF	n/a	n/a	OCEAN	Landscapes	7	9	[0, 0, 0]	n/a	catFR1	1	R1361C
990.824	1.6	992216	WORD	n/a	wordpools/wordpool_categorized_EN.txt	VALLEY	Landscapes	8	9	[0, 0, 0]	n/a	catFR1	1	R1361C
992.448	1.013	993839	WORD_OFF	n/a	n/a	VALLEY	Landscapes	8	9	[0, 0, 0]	n/a	catFR1	1	R1361C
993.461	1.6	994852	WORD	n/a	wordpools/wordpool_categorized_EN.txt	COBBLER	Desserts	9	9	[0, 0, 0]	n/a	catFR1	1	R1361C
995.098	0.951	996489	WORD_OFF	n/a	n/a	COBBLER	Desserts	9	9	[0, 0, 0]	n/a	catFR1	1	R1361C
996.049	1.6	997440	WORD	n/a	wordpools/wordpool_categorized_EN.txt	COOKIE	Desserts	10	9	[0, 0, 0]	n/a	catFR1	1	R1361C
997.682	1.093	999073	WORD_OFF	n/a	n/a	COOKIE	Desserts	10	9	[0, 0, 0]	n/a	catFR1	1	R1361C
998.775	1.6	1000166	WORD	n/a	wordpools/wordpool_categorized_EN.txt	SANDER	Tools	11	9	[0, 0, 0]	n/a	catFR1	1	R1361C
1000.399	0.845	1001790	WORD_OFF	n/a	n/a	SANDER	Tools	11	9	[0, 0, 0]	n/a	catFR1	1	R1361C
1001.244	1.6	1002635	WORD	n/a	wordpools/wordpool_categorized_EN.txt	RATCHET	Tools	12	9	[0, 0, 0]	n/a	catFR1	1	R1361C
1002.883	0.0	1004274	WORD_OFF	n/a	n/a	RATCHET	Tools	12	9	[0, 0, 0]	n/a	catFR1	1	R1361C
1002.883	0.001	1004274	ENCODING_END	n/a	n/a	n/a	n/a	-999	9	[0, 0, 0]	n/a	catFR1	1	R1361C
1002.884	0.0	1004275	DISTRACT_START	n/a	n/a	n/a	n/a	-999	9	[0, 0, 0]	n/a	catFR1	1	R1361C
1002.884	0.015	1004275	START	n/a	n/a	n/a	n/a	-999	9	[-999, -999, -999]	n/a	catFR1	1	R1361C
1002.899	9.618	1004290	PROB	9.591	n/a	n/a	n/a	-999	9	[7, 9, 3]	19.0	catFR1	1	R1361C
1012.517	9.035	1013907	PROB	9.0	n/a	n/a	n/a	-999	9	[5, 9, 2]	16.0	catFR1	1	R1361C
1021.552	3.942	1022942	PROB	3.942	n/a	n/a	n/a	-999	9	[1, 7, 4]	12.0	catFR1	1	R1361C
1025.494	0.009	1026884	STOP	n/a	n/a	n/a	n/a	-999	9	[-999, -999, -999]	n/a	catFR1	1	R1361C
1025.503	0.519	1026893	DISTRACT_END	n/a	n/a	n/a	n/a	-999	9	[0, 0, 0]	n/a	catFR1	1	R1361C
1026.022	1.6	1027412	RETRIEVAL_ORIENT_START	n/a	n/a	n/a	n/a	-999	9	[0, 0, 0]	n/a	catFR1	1	R1361C
1027.704	0.001	1029094	RETRIEVAL_ORIENT_END	n/a	n/a	n/a	n/a	-999	9	[0, 0, 0]	n/a	catFR1	1	R1361C
1027.705	1.412	1029095	REC_START	n/a	n/a	n/a	n/a	-999	9	[0, 0, 0]	n/a	catFR1	1	R1361C
1029.117	0.851	1030507	REC_WORD	1.412	n/a	MOUSSE	Desserts	1	9	[0, 0, 0]	n/a	catFR1	1	R1361C
1029.968	0.836	1031358	REC_WORD	2.263	n/a	BROWNIES	Desserts	2	9	[0, 0, 0]	n/a	catFR1	1	R1361C
1030.804	0.608	1032194	REC_WORD	3.099	n/a	ISLAND	Landscapes	3	9	[0, 0, 0]	n/a	catFR1	1	R1361C
1031.412	4.148	1032802	REC_WORD	3.707	n/a	STREAM	Landscapes	4	9	[0, 0, 0]	n/a	catFR1	1	R1361C
1035.56	22.155	1036949	REC_WORD_VV	7.855	n/a	<>	n/a	-999	9	[0, 0, 0]	n/a	catFR1	1	R1361C
1057.715	0.0	1059103	REC_END	n/a	n/a	n/a	n/a	-999	9	[0, 0, 0]	n/a	catFR1	1	R1361C
1057.715	0.022	1059103	TRIAL_END	n/a	n/a	n/a	n/a	-999	9	[0, 0, 0]	n/a	catFR1	1	R1361C
1057.737	0.0	1059125	WAITING_START	n/a	n/a	n/a	n/a	-999	10	[0, 0, 0]	n/a	catFR1	1	R1361C
1057.737	0.0	1059125	TRIAL	n/a	n/a	n/a	n/a	-999	10	[0, 0, 0]	n/a	catFR1	1	R1361C
1057.737	3.457	1059125	TRIAL_START	n/a	n/a	n/a	n/a	-999	10	[0, 0, 0]	n/a	catFR1	1	R1361C
1061.194	0.0	1062582	WAITING_END	n/a	n/a	n/a	n/a	-999	10	[0, 0, 0]	n/a	catFR1	1	R1361C
1061.194	10.0	1062582	COUNTDOWN_START	n/a	n/a	n/a	n/a	-999	10	[0, 0, 0]	n/a	catFR1	1	R1361C
1071.624	0.0	1073012	COUNTDOWN_END	n/a	n/a	n/a	n/a	-999	10	[0, 0, 0]	n/a	catFR1	1	R1361C
1071.624	1.189	1073012	ORIENT_START	n/a	n/a	n/a	n/a	-999	10	[0, 0, 0]	n/a	catFR1	1	R1361C
1072.813	0.0	1074201	ORIENT_END	n/a	n/a	n/a	n/a	-999	10	[0, 0, 0]	n/a	catFR1	1	R1361C
1072.813	0.997	1074201	ENCODING_START	n/a	n/a	n/a	n/a	-999	10	[0, 0, 0]	n/a	catFR1	1	R1361C
1073.81	1.6	1075197	WORD	n/a	wordpools/wordpool_categorized_EN.txt	MIXER	Appliances	1	10	[0, 0, 0]	n/a	catFR1	1	R1361C
1075.447	0.793	1076834	WORD_OFF	n/a	n/a	MIXER	Appliances	1	10	[0, 0, 0]	n/a	catFR1	1	R1361C
1076.24	1.6	1077627	WORD	n/a	wordpools/wordpool_categorized_EN.txt	OVEN	Appliances	2	10	[0, 0, 0]	n/a	catFR1	1	R1361C
1077.864	1.03	1079251	WORD_OFF	n/a	n/a	OVEN	Appliances	2	10	[0, 0, 0]	n/a	catFR1	1	R1361C
1078.894	1.6	1080281	WORD	n/a	wordpools/wordpool_categorized_EN.txt	ROBIN	Birds	3	10	[0, 0, 0]	n/a	catFR1	1	R1361C
1080.53	0.916	1081917	WORD_OFF	n/a	n/a	ROBIN	Birds	3	10	[0, 0, 0]	n/a	catFR1	1	R1361C
1081.446	1.6	1082833	WORD	n/a	wordpools/wordpool_categorized_EN.txt	FINCH	Birds	4	10	[0, 0, 0]	n/a	catFR1	1	R1361C
1083.081	1.055	1084468	WORD_OFF	n/a	n/a	FINCH	Birds	4	10	[0, 0, 0]	n/a	catFR1	1	R1361C
1084.136	1.6	1085523	WORD	n/a	wordpools/wordpool_categorized_EN.txt	FOG	Weather	5	10	[0, 0, 0]	n/a	catFR1	1	R1361C
1085.765	1.109	1087152	WORD_OFF	n/a	n/a	FOG	Weather	5	10	[0, 0, 0]	n/a	catFR1	1	R1361C
1086.874	1.6	1088261	WORD	n/a	wordpools/wordpool_categorized_EN.txt	THUNDER	Weather	6	10	[0, 0, 0]	n/a	catFR1	1	R1361C
1088.498	1.021	1089885	WORD_OFF	n/a	n/a	THUNDER	Weather	6	10	[0, 0, 0]	n/a	catFR1	1	R1361C
1089.519	1.6	1090906	WORD	n/a	wordpools/wordpool_categorized_EN.txt	DOVE	Birds	7	10	[0, 0, 0]	n/a	catFR1	1	R1361C
1091.15	0.991	1092537	WORD_OFF	n/a	n/a	DOVE	Birds	7	10	[0, 0, 0]	n/a	catFR1	1	R1361C
1092.141	1.6	1093528	WORD	n/a	wordpools/wordpool_categorized_EN.txt	GOOSE	Birds	8	10	[0, 0, 0]	n/a	catFR1	1	R1361C
1093.767	0.865	1095154	WORD_OFF	n/a	n/a	GOOSE	Birds	8	10	[0, 0, 0]	n/a	catFR1	1	R1361C
1094.632	1.6	1096018	WORD	n/a	wordpools/wordpool_categorized_EN.txt	DRYER	Appliances	9	10	[0, 0, 0]	n/a	catFR1	1	R1361C
1096.267	0.754	1097653	WORD_OFF	n/a	n/a	DRYER	Appliances	9	10	[0, 0, 0]	n/a	catFR1	1	R1361C
1097.021	1.6	1098407	WORD	n/a	wordpools/wordpool_categorized_EN.txt	FREEZER	Appliances	10	10	[0, 0, 0]	n/a	catFR1	1	R1361C
1098.651	0.961	1100037	WORD_OFF	n/a	n/a	FREEZER	Appliances	10	10	[0, 0, 0]	n/a	catFR1	1	R1361C
1099.612	1.6	1100998	WORD	n/a	wordpools/wordpool_categorized_EN.txt	HUMIDITY	Weather	11	10	[0, 0, 0]	n/a	catFR1	1	R1361C
1101.235	0.904	1102621	WORD_OFF	n/a	n/a	HUMIDITY	Weather	11	10	[0, 0, 0]	n/a	catFR1	1	R1361C
1102.139	1.6	1103525	WORD	n/a	wordpools/wordpool_categorized_EN.txt	DRIZZLE	Weather	12	10	[0, 0, 0]	n/a	catFR1	1	R1361C
1103.769	0.0	1105155	WORD_OFF	n/a	n/a	DRIZZLE	Weather	12	10	[0, 0, 0]	n/a	catFR1	1	R1361C
1103.769	0.001	1105155	ENCODING_END	n/a	n/a	n/a	n/a	-999	10	[0, 0, 0]	n/a	catFR1	1	R1361C
1103.77	0.0	1105156	DISTRACT_START	n/a	n/a	n/a	n/a	-999	10	[0, 0, 0]	n/a	catFR1	1	R1361C
1103.77	0.015	1105156	START	n/a	n/a	n/a	n/a	-999	10	[-999, -999, -999]	n/a	catFR1	1	R1361C
1103.785	9.852	1105171	PROB	9.826	n/a	n/a	n/a	-999	10	[5, 7, 2]	14.0	catFR1	1	R1361C
1113.637	4.984	1115023	PROB	4.956	n/a	n/a	n/a	-999	10	[3, 2, 6]	11.0	catFR1	1	R1361C
1118.621	7.844	1120006	PROB	7.844	n/a	n/a	n/a	-999	10	[3, 3, 4]	11.0	catFR1	1	R1361C
1126.465	0.008	1127850	STOP	n/a	n/a	n/a	n/a	-999	10	[-999, -999, -999]	n/a	catFR1	1	R1361C
1126.473	0.525	1127858	DISTRACT_END	n/a	n/a	n/a	n/a	-999	10	[0, 0, 0]	n/a	catFR1	1	R1361C
1126.998	1.6	1128383	RETRIEVAL_ORIENT_START	n/a	n/a	n/a	n/a	-999	10	[0, 0, 0]	n/a	catFR1	1	R1361C
1128.539	0.0	1129924	REC_START	n/a	n/a	n/a	n/a	-999	10	[0, 0, 0]	n/a	catFR1	1	R1361C
1128.539	1.651	1129924	RETRIEVAL_ORIENT_END	n/a	n/a	n/a	n/a	-999	10	[0, 0, 0]	n/a	catFR1	1	R1361C
1130.19	1.053	1131575	REC_WORD	1.651	n/a	MIXER	Appliances	1	10	[0, 0, 0]	n/a	catFR1	1	R1361C
1131.243	0.946	1132628	REC_WORD	2.704	n/a	OVEN	Appliances	2	10	[0, 0, 0]	n/a	catFR1	1	R1361C
1132.189	1.605	1133574	REC_WORD	3.65	n/a	THUNDER	Weather	6	10	[0, 0, 0]	n/a	catFR1	1	R1361C
1133.794	1.174	1135179	REC_WORD	5.255	n/a	FOG	Weather	5	10	[0, 0, 0]	n/a	catFR1	1	R1361C
1134.968	1.036	1136352	REC_WORD	6.429	n/a	DOVE	Birds	7	10	[0, 0, 0]	n/a	catFR1	1	R1361C
1136.004	3.824	1137388	REC_WORD	7.465	n/a	GOOSE	Birds	8	10	[0, 0, 0]	n/a	catFR1	1	R1361C
1139.828	7.956	1141212	REC_WORD_VV	11.289	n/a	<>	n/a	-999	10	[0, 0, 0]	n/a	catFR1	1	R1361C
1147.784	3.066	1149168	REC_WORD	19.245	n/a	THIS SUCKS	n/a	-999	10	[0, 0, 0]	n/a	catFR1	1	R1361C
1150.85	5.072	1152234	REC_WORD	22.311	n/a	THIS SUCKS	n/a	-999	10	[0, 0, 0]	n/a	catFR1	1	R1361C
1155.922	2.63	1157305	REC_WORD	27.383	n/a	ONE MORE AND I'M FINISHED THIS SUCKS	n/a	-999	10	[0, 0, 0]	n/a	catFR1	1	R1361C
1158.552	0.0	1159935	REC_END	n/a	n/a	n/a	n/a	-999	10	[0, 0, 0]	n/a	catFR1	1	R1361C
1158.552	0.023	1159935	TRIAL_END	n/a	n/a	n/a	n/a	-999	10	[0, 0, 0]	n/a	catFR1	1	R1361C
1158.575	0.0	1159958	TRIAL_START	n/a	n/a	n/a	n/a	-999	11	[0, 0, 0]	n/a	catFR1	1	R1361C
1158.575	0.001	1159958	TRIAL	n/a	n/a	n/a	n/a	-999	11	[0, 0, 0]	n/a	catFR1	1	R1361C
1158.576	2.72	1159959	WAITING_START	n/a	n/a	n/a	n/a	-999	11	[0, 0, 0]	n/a	catFR1	1	R1361C
1161.296	0.001	1162679	WAITING_END	n/a	n/a	n/a	n/a	-999	11	[0, 0, 0]	n/a	catFR1	1	R1361C
1161.297	10.0	1162680	COUNTDOWN_START	n/a	n/a	n/a	n/a	-999	11	[0, 0, 0]	n/a	catFR1	1	R1361C
1171.726	0.001	1173109	COUNTDOWN_END	n/a	n/a	n/a	n/a	-999	11	[0, 0, 0]	n/a	catFR1	1	R1361C
1171.727	1.138	1173110	ORIENT_START	n/a	n/a	n/a	n/a	-999	11	[0, 0, 0]	n/a	catFR1	1	R1361C
1172.865	0.0	1174248	ORIENT_END	n/a	n/a	n/a	n/a	-999	11	[0, 0, 0]	n/a	catFR1	1	R1361C
1172.865	0.814	1174248	ENCODING_START	n/a	n/a	n/a	n/a	-999	11	[0, 0, 0]	n/a	catFR1	1	R1361C
1173.679	1.6	1175062	WORD	n/a	wordpools/wordpool_categorized_EN.txt	CABINET	Furniture	1	11	[0, 0, 0]	n/a	catFR1	1	R1361C
1175.315	1.124	1176698	WORD_OFF	n/a	n/a	CABINET	Furniture	1	11	[0, 0, 0]	n/a	catFR1	1	R1361C
1176.439	1.6	1177821	WORD	n/a	wordpools/wordpool_categorized_EN.txt	BED	Furniture	2	11	[0, 0, 0]	n/a	catFR1	1	R1361C
1178.066	0.904	1179448	WORD_OFF	n/a	n/a	BED	Furniture	2	11	[0, 0, 0]	n/a	catFR1	1	R1361C
1178.97	1.6	1180352	WORD	n/a	wordpools/wordpool_categorized_EN.txt	GNAT	Insects	3	11	[0, 0, 0]	n/a	catFR1	1	R1361C
1180.6	0.862	1181982	WORD_OFF	n/a	n/a	GNAT	Insects	3	11	[0, 0, 0]	n/a	catFR1	1	R1361C
1181.462	1.6	1182844	WORD	n/a	wordpools/wordpool_categorized_EN.txt	BEE	Insects	4	11	[0, 0, 0]	n/a	catFR1	1	R1361C
1183.1	0.955	1184482	WORD_OFF	n/a	n/a	BEE	Insects	4	11	[0, 0, 0]	n/a	catFR1	1	R1361C
1184.055	1.6	1185437	WORD	n/a	wordpools/wordpool_categorized_EN.txt	CABBAGE	Vegetables	5	11	[0, 0, 0]	n/a	catFR1	1	R1361C
1185.684	0.806	1187066	WORD_OFF	n/a	n/a	CABBAGE	Vegetables	5	11	[0, 0, 0]	n/a	catFR1	1	R1361C
1186.49	1.6	1187872	WORD	n/a	wordpools/wordpool_categorized_EN.txt	CORN	Vegetables	6	11	[0, 0, 0]	n/a	catFR1	1	R1361C
1188.118	1.014	1189500	WORD_OFF	n/a	n/a	CORN	Vegetables	6	11	[0, 0, 0]	n/a	catFR1	1	R1361C
1189.132	1.6	1190514	WORD	n/a	wordpools/wordpool_categorized_EN.txt	LADYBUG	Insects	7	11	[0, 0, 0]	n/a	catFR1	1	R1361C
1190.768	0.99	1192150	WORD_OFF	n/a	n/a	LADYBUG	Insects	7	11	[0, 0, 0]	n/a	catFR1	1	R1361C
1191.758	1.6	1193140	WORD	n/a	wordpools/wordpool_categorized_EN.txt	ROACH	Insects	8	11	[0, 0, 0]	n/a	catFR1	1	R1361C
1193.385	0.836	1194767	WORD_OFF	n/a	n/a	ROACH	Insects	8	11	[0, 0, 0]	n/a	catFR1	1	R1361C
1194.221	1.6	1195603	WORD	n/a	wordpools/wordpool_categorized_EN.txt	RECLINER	Furniture	9	11	[0, 0, 0]	n/a	catFR1	1	R1361C
1195.853	1.048	1197235	WORD_OFF	n/a	n/a	RECLINER	Furniture	9	11	[0, 0, 0]	n/a	catFR1	1	R1361C
1196.901	1.6	1198282	WORD	n/a	wordpools/wordpool_categorized_EN.txt	COUCH	Furniture	10	11	[0, 0, 0]	n/a	catFR1	1	R1361C
1198.535	0.926	1199916	WORD_OFF	n/a	n/a	COUCH	Furniture	10	11	[0, 0, 0]	n/a	catFR1	1	R1361C
1199.461	1.6	1200842	WORD	n/a	wordpools/wordpool_categorized_EN.txt	CUCUMBER	Vegetables	11	11	[0, 0, 0]	n/a	catFR1	1	R1361C
1201.087	1.037	1202468	WORD_OFF	n/a	n/a	CUCUMBER	Vegetables	11	11	[0, 0, 0]	n/a	catFR1	1	R1361C
1202.124	1.6	1203505	WORD	n/a	wordpools/wordpool_categorized_EN.txt	ONION	Vegetables	12	11	[0, 0, 0]	n/a	catFR1	1	R1361C
1203.754	0.001	1205135	WORD_OFF	n/a	n/a	ONION	Vegetables	12	11	[0, 0, 0]	n/a	catFR1	1	R1361C
1203.755	0.0	1205136	ENCODING_END	n/a	n/a	n/a	n/a	-999	11	[0, 0, 0]	n/a	catFR1	1	R1361C
1203.755	0.0	1205136	DISTRACT_START	n/a	n/a	n/a	n/a	-999	11	[0, 0, 0]	n/a	catFR1	1	R1361C
1203.755	0.015	1205136	START	n/a	n/a	n/a	n/a	-999	11	[-999, -999, -999]	n/a	catFR1	1	R1361C
1203.77	4.001	1205151	PROB	3.965	n/a	n/a	n/a	-999	11	[2, 1, 9]	12.0	catFR1	1	R1361C
1207.771	7.018	1209152	PROB	6.989	n/a	n/a	n/a	-999	11	[6, 6, 3]	15.0	catFR1	1	R1361C
1214.789	7.618	1216170	PROB	7.582	n/a	n/a	n/a	-999	11	[3, 6, 8]	17.0	catFR1	1	R1361C
1222.407	5.741	1223787	PROB	5.741	n/a	n/a	n/a	-999	11	[4, 8, 5]	17.0	catFR1	1	R1361C
1228.148	0.011	1229528	STOP	n/a	n/a	n/a	n/a	-999	11	[-999, -999, -999]	n/a	catFR1	1	R1361C
1228.159	0.627	1229539	DISTRACT_END	n/a	n/a	n/a	n/a	-999	11	[0, 0, 0]	n/a	catFR1	1	R1361C
1228.786	1.6	1230166	RETRIEVAL_ORIENT_START	n/a	n/a	n/a	n/a	-999	11	[0, 0, 0]	n/a	catFR1	1	R1361C
1230.326	0.0	1231706	RETRIEVAL_ORIENT_END	n/a	n/a	n/a	n/a	-999	11	[0, 0, 0]	n/a	catFR1	1	R1361C
1230.326	0.823	1231706	REC_START	n/a	n/a	n/a	n/a	-999	11	[0, 0, 0]	n/a	catFR1	1	R1361C
1231.149	0.79	1232529	REC_WORD	0.823	n/a	CABINET	Furniture	1	11	[0, 0, 0]	n/a	catFR1	1	R1361C
1231.939	0.552	1233319	REC_WORD	1.613	n/a	BED	Furniture	2	11	[0, 0, 0]	n/a	catFR1	1	R1361C
1232.491	0.875	1233871	REC_WORD	2.165	n/a	RECLINER	Furniture	9	11	[0, 0, 0]	n/a	catFR1	1	R1361C
1233.366	4.215	1234746	REC_WORD	3.04	n/a	BED	Furniture	2	11	[0, 0, 0]	n/a	catFR1	1	R1361C
1237.581	3.098	1238960	REC_WORD	7.255	n/a	MOSQUITO	Insects	-999	11	[0, 0, 0]	n/a	catFR1	1	R1361C
1240.679	0.814	1242058	REC_WORD_VV	10.353	n/a	<>	n/a	-999	11	[0, 0, 0]	n/a	catFR1	1	R1361C
1241.493	9.165	1242872	REC_WORD	11.167	n/a	REFRIGERATOR	Appliances	-999	11	[0, 0, 0]	n/a	catFR1	1	R1361C
1250.658	9.679	1252037	REC_WORD_VV	20.332	n/a	<>	n/a	-999	11	[0, 0, 0]	n/a	catFR1	1	R1361C
1260.337	0.001	1261715	REC_END	n/a	n/a	n/a	n/a	-999	11	[0, 0, 0]	n/a	catFR1	1	R1361C
1260.338	0.024	1261716	TRIAL_END	n/a	n/a	n/a	n/a	-999	11	[0, 0, 0]	n/a	catFR1	1	R1361C
1260.362	0.0	1261740	TRIAL	n/a	n/a	n/a	n/a	-999	12	[0, 0, 0]	n/a	catFR1	1	R1361C
1260.362	0.0	1261740	TRIAL_START	n/a	n/a	n/a	n/a	-999	12	[0, 0, 0]	n/a	catFR1	1	R1361C
1260.362	0.0	1261740	WAITING_START	n/a	n/a	n/a	n/a	-999	12	[0, 0, 0]	n/a	catFR1	1	R1361C
