onset	duration	sample	trial_type	response_time	stim_file	item_name	category	serialpos	list	test	answer	experiment	session	subject
0.0	5.016	287167	INSTRUCT_START	n/a	n/a	n/a	n/a	-999	-999	[0, 0, 0]	n/a	catFR1	1	R1456D
5.016	48.716	292185	INSTRUCT_END	n/a	n/a	n/a	n/a	-999	-999	[0, 0, 0]	n/a	catFR1	1	R1456D
53.732	10.35	340894	COUNTDOWN_START	n/a	n/a	n/a	n/a	-999	-999	[0, 0, 0]	n/a	catFR1	1	R1456D
64.082	0.0	351243	COUNTDOWN_END	n/a	n/a	n/a	n/a	-999	-999	[0, 0, 0]	n/a	catFR1	1	R1456D
64.082	2.167	351243	ENCODING_START	n/a	n/a	n/a	n/a	-999	-1	[0, 0, 0]	n/a	catFR1	1	R1456D
66.249	1.617	353412	WORD	n/a	n/a	FORK	KitchenTools	1	-1	[0, 0, 0]	n/a	catFR1	1	R1456D
67.866	1.0	355026	WORD_OFF	n/a	n/a	FORK	KitchenTools	1	-1	[0, 0, 0]	n/a	catFR1	1	R1456D
68.866	1.6	356026	WORD	n/a	n/a	TONGS	KitchenTools	2	-1	[0, 0, 0]	n/a	catFR1	1	R1456D
70.466	1.0	357632	WORD_OFF	n/a	n/a	TONGS	KitchenTools	2	-1	[0, 0, 0]	n/a	catFR1	1	R1456D
71.466	1.6	358624	WORD	n/a	n/a	APPLE	Fruit	3	-1	[0, 0, 0]	n/a	catFR1	1	R1456D
73.066	0.85	360230	WORD_OFF	n/a	n/a	APPLE	Fruit	3	-1	[0, 0, 0]	n/a	catFR1	1	R1456D
73.916	1.6	361079	WORD	n/a	n/a	STRAWBERRY	Fruit	4	-1	[0, 0, 0]	n/a	catFR1	1	R1456D
75.516	0.933	362676	WORD_OFF	n/a	n/a	STRAWBERRY	Fruit	4	-1	[0, 0, 0]	n/a	catFR1	1	R1456D
76.449	1.616	363609	WORD	n/a	n/a	WOODS	Landscapes	5	-1	[0, 0, 0]	n/a	catFR1	1	R1456D
78.065	0.967	365223	WORD_OFF	n/a	n/a	WOODS	Landscapes	5	-1	[0, 0, 0]	n/a	catFR1	1	R1456D
79.032	1.6	366190	WORD	n/a	n/a	STREAM	Landscapes	6	-1	[0, 0, 0]	n/a	catFR1	1	R1456D
80.632	0.783	367796	WORD_OFF	n/a	n/a	STREAM	Landscapes	6	-1	[0, 0, 0]	n/a	catFR1	1	R1456D
81.415	1.601	368578	WORD	n/a	n/a	COLANDER	KitchenTools	7	-1	[0, 0, 0]	n/a	catFR1	1	R1456D
83.016	0.866	370175	WORD_OFF	n/a	n/a	COLANDER	KitchenTools	7	-1	[0, 0, 0]	n/a	catFR1	1	R1456D
83.882	1.617	371041	WORD	n/a	n/a	SPOON	KitchenTools	8	-1	[0, 0, 0]	n/a	catFR1	1	R1456D
85.499	0.816	372663	WORD_OFF	n/a	n/a	SPOON	KitchenTools	8	-1	[0, 0, 0]	n/a	catFR1	1	R1456D
86.315	1.617	373479	WORD	n/a	n/a	PEACH	Fruit	9	-1	[0, 0, 0]	n/a	catFR1	1	R1456D
87.932	0.767	375093	WORD_OFF	n/a	n/a	PEACH	Fruit	9	-1	[0, 0, 0]	n/a	catFR1	1	R1456D
88.699	1.616	375858	WORD	n/a	n/a	LIME	Fruit	10	-1	[0, 0, 0]	n/a	catFR1	1	R1456D
90.315	0.984	377472	WORD_OFF	n/a	n/a	LIME	Fruit	10	-1	[0, 0, 0]	n/a	catFR1	1	R1456D
91.299	1.6	378464	WORD	n/a	n/a	MOUNTAIN	Landscapes	11	-1	[0, 0, 0]	n/a	catFR1	1	R1456D
92.899	0.899	380061	WORD_OFF	n/a	n/a	MOUNTAIN	Landscapes	11	-1	[0, 0, 0]	n/a	catFR1	1	R1456D
93.798	1.601	380961	WORD	n/a	n/a	OCEAN	Landscapes	12	-1	[0, 0, 0]	n/a	catFR1	1	R1456D
95.399	0.002	382558	WORD_OFF	n/a	n/a	OCEAN	Landscapes	12	-1	[0, 0, 0]	n/a	catFR1	1	R1456D
95.401	0.0	382558	ENCODING_END	n/a	n/a	n/a	n/a	-999	-1	[0, 0, 0]	n/a	catFR1	1	R1456D
95.401	0.0	382563	START	n/a	n/a	n/a	n/a	-999	-1	[-999, -999, -999]	n/a	catFR1	1	R1456D
95.401	0.0	382563	PROB	7.066	n/a	n/a	n/a	-999	-1	[7, 5, 7]	19.0	catFR1	1	R1456D
95.401	7.082	382567	DISTRACT_START	n/a	n/a	n/a	n/a	-999	-1	[0, 0, 0]	n/a	catFR1	1	R1456D
102.483	9.7	389645	PROB	9.682	n/a	n/a	n/a	-999	-1	[6, 7, 5]	19.0	catFR1	1	R1456D
112.183	7.616	399344	PROB	7.599	n/a	n/a	n/a	-999	-1	[3, 7, 5]	15.0	catFR1	1	R1456D
119.799	0.0	406955	DISTRACT_END	n/a	n/a	n/a	n/a	-999	-1	[0, 0, 0]	n/a	catFR1	1	R1456D
119.799	2.05	406960	STOP	n/a	n/a	n/a	n/a	-999	-1	[-999, -999, -999]	n/a	catFR1	1	R1456D
121.849	0.0	409006	REC_START	n/a	n/a	n/a	n/a	-999	-1	[0, 0, 0]	n/a	catFR1	1	R1456D
121.849	1.0	409010	REC_WORD_VV	0.0	n/a	<>	n/a	-999	-1	[0, 0, 0]	n/a	catFR1	1	R1456D
122.849	1.0	410010	REC_WORD_VV	1.0	n/a	<>	n/a	-999	-1	[0, 0, 0]	n/a	catFR1	1	R1456D
123.849	1.0	411010	REC_WORD_VV	2.0	n/a	<>	n/a	-999	-1	[0, 0, 0]	n/a	catFR1	1	R1456D
124.849	1.0	412010	REC_WORD_VV	3.0	n/a	<>	n/a	-999	-1	[0, 0, 0]	n/a	catFR1	1	R1456D
125.849	1.0	413010	REC_WORD_VV	4.0	n/a	<>	n/a	-999	-1	[0, 0, 0]	n/a	catFR1	1	R1456D
126.849	1.0	414010	REC_WORD_VV	5.0	n/a	<>	n/a	-999	-1	[0, 0, 0]	n/a	catFR1	1	R1456D
127.849	1.0	415010	REC_WORD_VV	6.0	n/a	<>	n/a	-999	-1	[0, 0, 0]	n/a	catFR1	1	R1456D
128.849	2.329	416010	REC_WORD_VV	7.0	n/a	<>	n/a	-999	-1	[0, 0, 0]	n/a	catFR1	1	R1456D
131.178	1.0	418338	REC_WORD_VV	9.329	n/a	<>	n/a	-999	-1	[0, 0, 0]	n/a	catFR1	1	R1456D
132.178	1.0	419338	REC_WORD_VV	10.329	n/a	<>	n/a	-999	-1	[0, 0, 0]	n/a	catFR1	1	R1456D
133.178	1.0	420338	REC_WORD_VV	11.329	n/a	<>	n/a	-999	-1	[0, 0, 0]	n/a	catFR1	1	R1456D
134.178	1.452	421338	REC_WORD_VV	12.329	n/a	<>	n/a	-999	-1	[0, 0, 0]	n/a	catFR1	1	R1456D
135.63	1.644	422790	REC_WORD	13.781	n/a	WOODS	Landscapes	5	-1	[0, 0, 0]	n/a	catFR1	1	R1456D
137.274	2.345	424434	REC_WORD_VV	15.425	n/a	<>	n/a	-999	-1	[0, 0, 0]	n/a	catFR1	1	R1456D
139.619	4.036	426779	REC_WORD_VV	17.77	n/a	<>	n/a	-999	-1	[0, 0, 0]	n/a	catFR1	1	R1456D
143.655	5.719	430815	REC_WORD_VV	21.806	n/a	<>	n/a	-999	-1	[0, 0, 0]	n/a	catFR1	1	R1456D
149.374	2.698	436533	REC_WORD_VV	27.525	n/a	<>	n/a	-999	-1	[0, 0, 0]	n/a	catFR1	1	R1456D
152.072	29.027	439228	REC_END	n/a	n/a	n/a	n/a	-999	-1	[0, 0, 0]	n/a	catFR1	1	R1456D
181.099	10.349	468257	COUNTDOWN_START	n/a	n/a	n/a	n/a	-999	1	[0, 0, 0]	n/a	catFR1	1	R1456D
191.448	0.0	478606	COUNTDOWN_END	n/a	n/a	n/a	n/a	-999	1	[0, 0, 0]	n/a	catFR1	1	R1456D
191.448	2.367	478606	ENCODING_START	n/a	n/a	n/a	n/a	-999	1	[0, 0, 0]	n/a	catFR1	1	R1456D
193.815	1.617	480968	WORD	n/a	wordpools/wordpool_categorized_EN.txt	CELERY	Vegetables	1	1	[0, 0, 0]	n/a	catFR1	1	R1456D
195.432	0.833	482590	WORD_OFF	n/a	n/a	CELERY	Vegetables	1	1	[0, 0, 0]	n/a	catFR1	1	R1456D
196.265	1.601	483423	WORD	n/a	wordpools/wordpool_categorized_EN.txt	PEAS	Vegetables	2	1	[0, 0, 0]	n/a	catFR1	1	R1456D
197.866	0.882	485020	WORD_OFF	n/a	n/a	PEAS	Vegetables	2	1	[0, 0, 0]	n/a	catFR1	1	R1456D
198.748	1.6	485903	WORD	n/a	wordpools/wordpool_categorized_EN.txt	GNAT	Insects	3	1	[0, 0, 0]	n/a	catFR1	1	R1456D
200.348	0.767	487500	WORD_OFF	n/a	n/a	GNAT	Insects	3	1	[0, 0, 0]	n/a	catFR1	1	R1456D
201.115	1.6	488273	WORD	n/a	wordpools/wordpool_categorized_EN.txt	LADYBUG	Insects	4	1	[0, 0, 0]	n/a	catFR1	1	R1456D
202.715	0.834	489871	WORD_OFF	n/a	n/a	LADYBUG	Insects	4	1	[0, 0, 0]	n/a	catFR1	1	R1456D
203.549	1.6	490703	WORD	n/a	wordpools/wordpool_categorized_EN.txt	MOUSSE	Desserts	5	1	[0, 0, 0]	n/a	catFR1	1	R1456D
205.149	0.867	492300	WORD_OFF	n/a	n/a	MOUSSE	Desserts	5	1	[0, 0, 0]	n/a	catFR1	1	R1456D
206.016	1.617	493166	WORD	n/a	wordpools/wordpool_categorized_EN.txt	COOKIE	Desserts	6	1	[0, 0, 0]	n/a	catFR1	1	R1456D
207.633	0.883	494789	WORD_OFF	n/a	n/a	COOKIE	Desserts	6	1	[0, 0, 0]	n/a	catFR1	1	R1456D
208.516	1.616	495671	WORD	n/a	wordpools/wordpool_categorized_EN.txt	POTATO	Vegetables	7	1	[0, 0, 0]	n/a	catFR1	1	R1456D
210.132	0.9	497285	WORD_OFF	n/a	n/a	POTATO	Vegetables	7	1	[0, 0, 0]	n/a	catFR1	1	R1456D
211.032	1.6	498185	WORD	n/a	wordpools/wordpool_categorized_EN.txt	CUCUMBER	Vegetables	8	1	[0, 0, 0]	n/a	catFR1	1	R1456D
212.632	0.917	499791	WORD_OFF	n/a	n/a	CUCUMBER	Vegetables	8	1	[0, 0, 0]	n/a	catFR1	1	R1456D
213.549	1.6	500707	WORD	n/a	wordpools/wordpool_categorized_EN.txt	CUPCAKE	Desserts	9	1	[0, 0, 0]	n/a	catFR1	1	R1456D
215.149	0.982	502304	WORD_OFF	n/a	n/a	CUPCAKE	Desserts	9	1	[0, 0, 0]	n/a	catFR1	1	R1456D
216.131	1.601	503288	WORD	n/a	wordpools/wordpool_categorized_EN.txt	JELLO	Desserts	10	1	[0, 0, 0]	n/a	catFR1	1	R1456D
217.732	0.85	504885	WORD_OFF	n/a	n/a	JELLO	Desserts	10	1	[0, 0, 0]	n/a	catFR1	1	R1456D
218.582	1.616	505734	WORD	n/a	wordpools/wordpool_categorized_EN.txt	MOSQUITO	Insects	11	1	[0, 0, 0]	n/a	catFR1	1	R1456D
220.198	0.917	507348	WORD_OFF	n/a	n/a	MOSQUITO	Insects	11	1	[0, 0, 0]	n/a	catFR1	1	R1456D
221.115	1.6	508268	WORD	n/a	wordpools/wordpool_categorized_EN.txt	ROACH	Insects	12	1	[0, 0, 0]	n/a	catFR1	1	R1456D
222.715	0.002	509870	WORD_OFF	n/a	n/a	ROACH	Insects	12	1	[0, 0, 0]	n/a	catFR1	1	R1456D
222.717	0.0	509870	ENCODING_END	n/a	n/a	n/a	n/a	-999	1	[0, 0, 0]	n/a	catFR1	1	R1456D
222.717	0.0	509870	DISTRACT_START	n/a	n/a	n/a	n/a	-999	1	[0, 0, 0]	n/a	catFR1	1	R1456D
222.716	0.001	509871	PROB	8.516	n/a	n/a	n/a	-999	1	[6, 8, 8]	22.0	catFR1	1	R1456D
222.717	8.532	509872	START	n/a	n/a	n/a	n/a	-999	1	[-999, -999, -999]	n/a	catFR1	1	R1456D
231.249	11.767	518404	PROB	11.75	n/a	n/a	n/a	-999	1	[8, 4, 5]	17.0	catFR1	1	R1456D
243.016	0.0	530164	DISTRACT_END	n/a	n/a	n/a	n/a	-999	1	[0, 0, 0]	n/a	catFR1	1	R1456D
243.016	2.083	530170	STOP	n/a	n/a	n/a	n/a	-999	1	[-999, -999, -999]	n/a	catFR1	1	R1456D
245.099	5.201	532249	REC_START	n/a	n/a	n/a	n/a	-999	1	[0, 0, 0]	n/a	catFR1	1	R1456D
250.3	1.0	537454	REC_WORD_VV	5.201	n/a	<>	n/a	-999	1	[0, 0, 0]	n/a	catFR1	1	R1456D
251.3	1.0	538454	REC_WORD_VV	6.201	n/a	<>	n/a	-999	1	[0, 0, 0]	n/a	catFR1	1	R1456D
252.3	22.981	539454	REC_WORD_VV	7.201	n/a	<>	n/a	-999	1	[0, 0, 0]	n/a	catFR1	1	R1456D
275.281	28.001	562430	REC_END	n/a	n/a	n/a	n/a	-999	1	[0, 0, 0]	n/a	catFR1	1	R1456D
303.282	10.348	590433	COUNTDOWN_START	n/a	n/a	n/a	n/a	-999	2	[0, 0, 0]	n/a	catFR1	1	R1456D
313.63	0.0	600781	COUNTDOWN_END	n/a	n/a	n/a	n/a	-999	2	[0, 0, 0]	n/a	catFR1	1	R1456D
313.63	2.136	600781	ENCODING_START	n/a	n/a	n/a	n/a	-999	2	[0, 0, 0]	n/a	catFR1	1	R1456D
315.766	1.616	602917	WORD	n/a	wordpools/wordpool_categorized_EN.txt	PIE	Desserts	1	2	[0, 0, 0]	n/a	catFR1	1	R1456D
317.382	0.95	604531	WORD_OFF	n/a	n/a	PIE	Desserts	1	2	[0, 0, 0]	n/a	catFR1	1	R1456D
318.332	1.6	605481	WORD	n/a	wordpools/wordpool_categorized_EN.txt	FUDGE	Desserts	2	2	[0, 0, 0]	n/a	catFR1	1	R1456D
319.932	0.967	607078	WORD_OFF	n/a	n/a	FUDGE	Desserts	2	2	[0, 0, 0]	n/a	catFR1	1	R1456D
320.899	1.616	608045	WORD	n/a	wordpools/wordpool_categorized_EN.txt	FLY	Insects	3	2	[0, 0, 0]	n/a	catFR1	1	R1456D
322.515	0.916	609667	WORD_OFF	n/a	n/a	FLY	Insects	3	2	[0, 0, 0]	n/a	catFR1	1	R1456D
323.431	1.601	610578	WORD	n/a	wordpools/wordpool_categorized_EN.txt	MOTH	Insects	4	2	[0, 0, 0]	n/a	catFR1	1	R1456D
325.032	0.866	612181	WORD_OFF	n/a	n/a	MOTH	Insects	4	2	[0, 0, 0]	n/a	catFR1	1	R1456D
325.898	1.6	613047	WORD	n/a	wordpools/wordpool_categorized_EN.txt	LEMONADE	Beverages	5	2	[0, 0, 0]	n/a	catFR1	1	R1456D
327.498	0.868	614644	WORD_OFF	n/a	n/a	LEMONADE	Beverages	5	2	[0, 0, 0]	n/a	catFR1	1	R1456D
328.366	1.616	615511	WORD	n/a	wordpools/wordpool_categorized_EN.txt	WATER	Beverages	6	2	[0, 0, 0]	n/a	catFR1	1	R1456D
329.982	0.767	617132	WORD_OFF	n/a	n/a	WATER	Beverages	6	2	[0, 0, 0]	n/a	catFR1	1	R1456D
330.749	1.6	617897	WORD	n/a	wordpools/wordpool_categorized_EN.txt	BROWNIES	Desserts	7	2	[0, 0, 0]	n/a	catFR1	1	R1456D
332.349	0.767	619495	WORD_OFF	n/a	n/a	BROWNIES	Desserts	7	2	[0, 0, 0]	n/a	catFR1	1	R1456D
333.116	1.614	620268	WORD	n/a	wordpools/wordpool_categorized_EN.txt	CHEESECAKE	Desserts	8	2	[0, 0, 0]	n/a	catFR1	1	R1456D
334.73	0.869	621874	WORD_OFF	n/a	n/a	CHEESECAKE	Desserts	8	2	[0, 0, 0]	n/a	catFR1	1	R1456D
335.599	1.6	622748	WORD	n/a	wordpools/wordpool_categorized_EN.txt	COLA	Beverages	9	2	[0, 0, 0]	n/a	catFR1	1	R1456D
337.199	0.966	624345	WORD_OFF	n/a	n/a	COLA	Beverages	9	2	[0, 0, 0]	n/a	catFR1	1	R1456D
338.165	1.601	625312	WORD	n/a	wordpools/wordpool_categorized_EN.txt	WINE	Beverages	10	2	[0, 0, 0]	n/a	catFR1	1	R1456D
339.766	0.883	626910	WORD_OFF	n/a	n/a	WINE	Beverages	10	2	[0, 0, 0]	n/a	catFR1	1	R1456D
340.649	1.6	627792	WORD	n/a	wordpools/wordpool_categorized_EN.txt	BEE	Insects	11	2	[0, 0, 0]	n/a	catFR1	1	R1456D
342.249	0.967	629398	WORD_OFF	n/a	n/a	BEE	Insects	11	2	[0, 0, 0]	n/a	catFR1	1	R1456D
343.216	1.616	630365	WORD	n/a	wordpools/wordpool_categorized_EN.txt	ANT	Insects	12	2	[0, 0, 0]	n/a	catFR1	1	R1456D
344.832	0.002	631979	WORD_OFF	n/a	n/a	ANT	Insects	12	2	[0, 0, 0]	n/a	catFR1	1	R1456D
344.834	0.0	631979	ENCODING_END	n/a	n/a	n/a	n/a	-999	2	[0, 0, 0]	n/a	catFR1	1	R1456D
344.833	0.001	631982	PROB	6.316	n/a	n/a	n/a	-999	2	[6, 2, 3]	11.0	catFR1	1	R1456D
344.834	0.0	631983	START	n/a	n/a	n/a	n/a	-999	2	[-999, -999, -999]	n/a	catFR1	1	R1456D
344.834	6.332	631987	DISTRACT_START	n/a	n/a	n/a	n/a	-999	2	[0, 0, 0]	n/a	catFR1	1	R1456D
351.166	4.017	638315	PROB	3.999	n/a	n/a	n/a	-999	2	[3, 3, 3]	9.0	catFR1	1	R1456D
355.183	7.2	642331	PROB	7.183	n/a	n/a	n/a	-999	2	[5, 8, 2]	14.0	catFR1	1	R1456D
362.383	6.116	649531	PROB	6.099	n/a	n/a	n/a	-999	2	[3, 5, 2]	10.0	catFR1	1	R1456D
368.499	0.0	655644	DISTRACT_END	n/a	n/a	n/a	n/a	-999	2	[0, 0, 0]	n/a	catFR1	1	R1456D
368.499	2.347	655647	STOP	n/a	n/a	n/a	n/a	-999	2	[-999, -999, -999]	n/a	catFR1	1	R1456D
370.846	1.625	657989	REC_START	n/a	n/a	n/a	n/a	-999	2	[0, 0, 0]	n/a	catFR1	1	R1456D
372.471	1.0	659619	REC_WORD_VV	1.625	n/a	<>	n/a	-999	2	[0, 0, 0]	n/a	catFR1	1	R1456D
373.471	0.277	660618	REC_WORD_VV	2.625	n/a	<>	n/a	-999	2	[0, 0, 0]	n/a	catFR1	1	R1456D
373.748	2.269	660895	REC_WORD	2.902	n/a	MOTH	Insects	4	2	[0, 0, 0]	n/a	catFR1	1	R1456D
376.017	1.0	663164	REC_WORD_VV	5.171	n/a	<>	n/a	-999	2	[0, 0, 0]	n/a	catFR1	1	R1456D
377.017	2.908	664164	REC_WORD_VV	6.171	n/a	<>	n/a	-999	2	[0, 0, 0]	n/a	catFR1	1	R1456D
379.925	0.69	667072	REC_WORD_VV	9.079	n/a	<>	n/a	-999	2	[0, 0, 0]	n/a	catFR1	1	R1456D
380.615	3.146	667762	REC_WORD	9.769	n/a	PIE	Desserts	1	2	[0, 0, 0]	n/a	catFR1	1	R1456D
383.761	0.766	670908	REC_WORD_VV	12.915	n/a	<>	n/a	-999	2	[0, 0, 0]	n/a	catFR1	1	R1456D
384.527	8.581	671674	REC_WORD	13.681	n/a	STRAWBERRY	Fruit	-999	2	[0, 0, 0]	n/a	catFR1	1	R1456D
393.108	2.314	680254	REC_WORD_VV	22.262	n/a	<>	n/a	-999	2	[0, 0, 0]	n/a	catFR1	1	R1456D
395.422	0.774	682568	REC_WORD	24.576	n/a	MOTH	Insects	4	2	[0, 0, 0]	n/a	catFR1	1	R1456D
396.196	4.215	683342	REC_WORD_VV	25.35	n/a	<>	n/a	-999	2	[0, 0, 0]	n/a	catFR1	1	R1456D
400.411	0.634	687557	REC_WORD_VV	29.565	n/a	<>	n/a	-999	2	[0, 0, 0]	n/a	catFR1	1	R1456D
401.045	9.636	688187	REC_END	n/a	n/a	n/a	n/a	-999	2	[0, 0, 0]	n/a	catFR1	1	R1456D
410.681	10.351	697829	COUNTDOWN_START	n/a	n/a	n/a	n/a	-999	3	[0, 0, 0]	n/a	catFR1	1	R1456D
421.032	0.0	708178	COUNTDOWN_END	n/a	n/a	n/a	n/a	-999	3	[0, 0, 0]	n/a	catFR1	1	R1456D
421.032	1.917	708178	ENCODING_START	n/a	n/a	n/a	n/a	-999	3	[0, 0, 0]	n/a	catFR1	1	R1456D
422.949	1.6	710095	WORD	n/a	wordpools/wordpool_categorized_EN.txt	JEANS	Clothing	1	3	[0, 0, 0]	n/a	catFR1	1	R1456D
424.549	1.0	711692	WORD_OFF	n/a	n/a	JEANS	Clothing	1	3	[0, 0, 0]	n/a	catFR1	1	R1456D
425.549	1.6	712692	WORD	n/a	wordpools/wordpool_categorized_EN.txt	SHORTS	Clothing	2	3	[0, 0, 0]	n/a	catFR1	1	R1456D
427.149	0.783	714290	WORD_OFF	n/a	n/a	SHORTS	Clothing	2	3	[0, 0, 0]	n/a	catFR1	1	R1456D
427.932	1.601	715071	WORD	n/a	wordpools/wordpool_categorized_EN.txt	BASEBALL	Toys	3	3	[0, 0, 0]	n/a	catFR1	1	R1456D
429.533	0.916	716677	WORD_OFF	n/a	n/a	BASEBALL	Toys	3	3	[0, 0, 0]	n/a	catFR1	1	R1456D
430.449	1.6	717593	WORD	n/a	wordpools/wordpool_categorized_EN.txt	FOOTBALL	Toys	4	3	[0, 0, 0]	n/a	catFR1	1	R1456D
432.049	0.967	719191	WORD_OFF	n/a	n/a	FOOTBALL	Toys	4	3	[0, 0, 0]	n/a	catFR1	1	R1456D
433.016	1.617	720158	WORD	n/a	wordpools/wordpool_categorized_EN.txt	CELLO	Instruments	5	3	[0, 0, 0]	n/a	catFR1	1	R1456D
434.633	0.932	721772	WORD_OFF	n/a	n/a	CELLO	Instruments	5	3	[0, 0, 0]	n/a	catFR1	1	R1456D
435.565	1.616	722705	WORD	n/a	wordpools/wordpool_categorized_EN.txt	DRUM	Instruments	6	3	[0, 0, 0]	n/a	catFR1	1	R1456D
437.181	0.835	724327	WORD_OFF	n/a	n/a	DRUM	Instruments	6	3	[0, 0, 0]	n/a	catFR1	1	R1456D
438.016	1.616	725160	WORD	n/a	wordpools/wordpool_categorized_EN.txt	SLINKY	Toys	7	3	[0, 0, 0]	n/a	catFR1	1	R1456D
439.632	0.883	726774	WORD_OFF	n/a	n/a	SLINKY	Toys	7	3	[0, 0, 0]	n/a	catFR1	1	R1456D
440.515	1.617	727656	WORD	n/a	wordpools/wordpool_categorized_EN.txt	PUZZLE	Toys	8	3	[0, 0, 0]	n/a	catFR1	1	R1456D
442.132	0.9	729279	WORD_OFF	n/a	n/a	PUZZLE	Toys	8	3	[0, 0, 0]	n/a	catFR1	1	R1456D
443.032	1.617	730178	WORD	n/a	wordpools/wordpool_categorized_EN.txt	PIANO	Instruments	9	3	[0, 0, 0]	n/a	catFR1	1	R1456D
444.649	1.0	731792	WORD_OFF	n/a	n/a	PIANO	Instruments	9	3	[0, 0, 0]	n/a	catFR1	1	R1456D
445.649	1.616	732793	WORD	n/a	wordpools/wordpool_categorized_EN.txt	TUBA	Instruments	10	3	[0, 0, 0]	n/a	catFR1	1	R1456D
447.265	0.8	734407	WORD_OFF	n/a	n/a	TUBA	Instruments	10	3	[0, 0, 0]	n/a	catFR1	1	R1456D
448.065	1.601	735206	WORD	n/a	wordpools/wordpool_categorized_EN.txt	DRESS	Clothing	11	3	[0, 0, 0]	n/a	catFR1	1	R1456D
449.666	0.966	736803	WORD_OFF	n/a	n/a	DRESS	Clothing	11	3	[0, 0, 0]	n/a	catFR1	1	R1456D
450.632	1.617	737778	WORD	n/a	wordpools/wordpool_categorized_EN.txt	PANTS	Clothing	12	3	[0, 0, 0]	n/a	catFR1	1	R1456D
452.249	0.001	739392	WORD_OFF	n/a	n/a	PANTS	Clothing	12	3	[0, 0, 0]	n/a	catFR1	1	R1456D
452.25	0.0	739392	ENCODING_END	n/a	n/a	n/a	n/a	-999	3	[0, 0, 0]	n/a	catFR1	1	R1456D
452.25	0.0	739392	DISTRACT_START	n/a	n/a	n/a	n/a	-999	3	[0, 0, 0]	n/a	catFR1	1	R1456D
452.249	0.001	739392	PROB	7.75	n/a	n/a	n/a	-999	3	[5, 3, 8]	18.0	catFR1	1	R1456D
452.25	7.765	739393	START	n/a	n/a	n/a	n/a	-999	3	[-999, -999, -999]	n/a	catFR1	1	R1456D
460.015	11.551	747158	PROB	11.534	n/a	n/a	n/a	-999	3	[7, 6, 6]	18.0	catFR1	1	R1456D
471.566	17.384	758708	PROB	17.366	n/a	n/a	n/a	-999	3	[3, 4, 1]	8.0	catFR1	1	R1456D
488.95	0.0	776088	DISTRACT_END	n/a	n/a	n/a	n/a	-999	3	[0, 0, 0]	n/a	catFR1	1	R1456D
488.95	2.081	776091	STOP	n/a	n/a	n/a	n/a	-999	3	[-999, -999, -999]	n/a	catFR1	1	R1456D
491.031	0.983	778172	REC_START	n/a	n/a	n/a	n/a	-999	3	[0, 0, 0]	n/a	catFR1	1	R1456D
492.014	3.879	779155	REC_WORD_VV	0.983	n/a	<>	n/a	-999	3	[0, 0, 0]	n/a	catFR1	1	R1456D
495.893	1.0	783034	REC_WORD_VV	4.862	n/a	<>	n/a	-999	3	[0, 0, 0]	n/a	catFR1	1	R1456D
496.893	6.789	784034	REC_WORD_VV	5.862	n/a	<>	n/a	-999	3	[0, 0, 0]	n/a	catFR1	1	R1456D
503.682	10.735	790822	REC_WORD_VV	12.651	n/a	<>	n/a	-999	3	[0, 0, 0]	n/a	catFR1	1	R1456D
514.417	6.816	801557	REC_WORD_VV	23.386	n/a	<>	n/a	-999	3	[0, 0, 0]	n/a	catFR1	1	R1456D
521.233	46.916	808370	REC_END	n/a	n/a	n/a	n/a	-999	3	[0, 0, 0]	n/a	catFR1	1	R1456D
568.149	10.349	855288	COUNTDOWN_START	n/a	n/a	n/a	n/a	-999	4	[0, 0, 0]	n/a	catFR1	1	R1456D
578.498	0.0	865628	COUNTDOWN_END	n/a	n/a	n/a	n/a	-999	4	[0, 0, 0]	n/a	catFR1	1	R1456D
578.498	1.967	865637	ENCODING_START	n/a	n/a	n/a	n/a	-999	4	[0, 0, 0]	n/a	catFR1	1	R1456D
580.465	1.601	867600	WORD	n/a	wordpools/wordpool_categorized_EN.txt	SPANDEX	Fabric	1	4	[0, 0, 0]	n/a	catFR1	1	R1456D
582.066	0.866	869201	WORD_OFF	n/a	n/a	SPANDEX	Fabric	1	4	[0, 0, 0]	n/a	catFR1	1	R1456D
582.932	1.6	870067	WORD	n/a	wordpools/wordpool_categorized_EN.txt	VELVET	Fabric	2	4	[0, 0, 0]	n/a	catFR1	1	R1456D
584.532	0.884	871664	WORD_OFF	n/a	n/a	VELVET	Fabric	2	4	[0, 0, 0]	n/a	catFR1	1	R1456D
585.416	1.6	872547	WORD	n/a	wordpools/wordpool_categorized_EN.txt	DISHWASHER	Appliances	3	4	[0, 0, 0]	n/a	catFR1	1	R1456D
587.016	0.865	874153	WORD_OFF	n/a	n/a	DISHWASHER	Appliances	3	4	[0, 0, 0]	n/a	catFR1	1	R1456D
587.881	1.601	875019	WORD	n/a	wordpools/wordpool_categorized_EN.txt	BLENDER	Appliances	4	4	[0, 0, 0]	n/a	catFR1	1	R1456D
589.482	0.85	876616	WORD_OFF	n/a	n/a	BLENDER	Appliances	4	4	[0, 0, 0]	n/a	catFR1	1	R1456D
590.332	1.617	877465	WORD	n/a	wordpools/wordpool_categorized_EN.txt	CAKE	Desserts	5	4	[0, 0, 0]	n/a	catFR1	1	R1456D
591.949	0.983	879079	WORD_OFF	n/a	n/a	CAKE	Desserts	5	4	[0, 0, 0]	n/a	catFR1	1	R1456D
592.932	1.616	880063	WORD	n/a	wordpools/wordpool_categorized_EN.txt	COBBLER	Desserts	6	4	[0, 0, 0]	n/a	catFR1	1	R1456D
594.548	0.967	881685	WORD_OFF	n/a	n/a	COBBLER	Desserts	6	4	[0, 0, 0]	n/a	catFR1	1	R1456D
595.515	1.617	882652	WORD	n/a	wordpools/wordpool_categorized_EN.txt	WOOL	Fabric	7	4	[0, 0, 0]	n/a	catFR1	1	R1456D
597.132	0.967	884266	WORD_OFF	n/a	n/a	WOOL	Fabric	7	4	[0, 0, 0]	n/a	catFR1	1	R1456D
598.099	1.616	885233	WORD	n/a	wordpools/wordpool_categorized_EN.txt	SATIN	Fabric	8	4	[0, 0, 0]	n/a	catFR1	1	R1456D
599.715	0.783	886847	WORD_OFF	n/a	n/a	SATIN	Fabric	8	4	[0, 0, 0]	n/a	catFR1	1	R1456D
600.498	1.601	887629	WORD	n/a	wordpools/wordpool_categorized_EN.txt	WASHER	Appliances	9	4	[0, 0, 0]	n/a	catFR1	1	R1456D
602.099	0.966	889235	WORD_OFF	n/a	n/a	WASHER	Appliances	9	4	[0, 0, 0]	n/a	catFR1	1	R1456D
603.065	1.6	890201	WORD	n/a	wordpools/wordpool_categorized_EN.txt	VACUUM	Appliances	10	4	[0, 0, 0]	n/a	catFR1	1	R1456D
604.665	0.783	891799	WORD_OFF	n/a	n/a	VACUUM	Appliances	10	4	[0, 0, 0]	n/a	catFR1	1	R1456D
605.448	1.6	892580	WORD	n/a	wordpools/wordpool_categorized_EN.txt	PASTRY	Desserts	11	4	[0, 0, 0]	n/a	catFR1	1	R1456D
607.048	0.917	894178	WORD_OFF	n/a	n/a	PASTRY	Desserts	11	4	[0, 0, 0]	n/a	catFR1	1	R1456D
607.965	1.601	895102	WORD	n/a	wordpools/wordpool_categorized_EN.txt	PUDDING	Desserts	12	4	[0, 0, 0]	n/a	catFR1	1	R1456D
609.566	0.001	896700	WORD_OFF	n/a	n/a	PUDDING	Desserts	12	4	[0, 0, 0]	n/a	catFR1	1	R1456D
609.567	0.0	896700	ENCODING_END	n/a	n/a	n/a	n/a	-999	4	[0, 0, 0]	n/a	catFR1	1	R1456D
609.567	0.0	896700	DISTRACT_START	n/a	n/a	n/a	n/a	-999	4	[0, 0, 0]	n/a	catFR1	1	R1456D
609.566	0.001	896701	PROB	11.833	n/a	n/a	n/a	-999	4	[4, 8, 8]	20.0	catFR1	1	R1456D
609.567	11.849	896702	START	n/a	n/a	n/a	n/a	-999	4	[-999, -999, -999]	n/a	catFR1	1	R1456D
621.416	7.717	908550	PROB	7.7	n/a	n/a	n/a	-999	4	[3, 4, 3]	10.0	catFR1	1	R1456D
629.133	7.299	916267	PROB	7.283	n/a	n/a	n/a	-999	4	[4, 8, 6]	18.0	catFR1	1	R1456D
636.432	0.0	923559	DISTRACT_END	n/a	n/a	n/a	n/a	-999	4	[0, 0, 0]	n/a	catFR1	1	R1456D
636.432	2.117	923565	STOP	n/a	n/a	n/a	n/a	-999	4	[-999, -999, -999]	n/a	catFR1	1	R1456D
638.549	1.236	925678	REC_START	n/a	n/a	n/a	n/a	-999	4	[0, 0, 0]	n/a	catFR1	1	R1456D
639.785	21.518	926918	REC_WORD_VV	1.236	n/a	<>	n/a	-999	4	[0, 0, 0]	n/a	catFR1	1	R1456D
661.303	1.0	948435	REC_WORD_VV	22.754	n/a	<>	n/a	-999	4	[0, 0, 0]	n/a	catFR1	1	R1456D
662.303	1.0	949435	REC_WORD_VV	23.754	n/a	<>	n/a	-999	4	[0, 0, 0]	n/a	catFR1	1	R1456D
663.303	1.0	950435	REC_WORD_VV	24.754	n/a	<>	n/a	-999	4	[0, 0, 0]	n/a	catFR1	1	R1456D
664.303	1.0	951435	REC_WORD_VV	25.754	n/a	<>	n/a	-999	4	[0, 0, 0]	n/a	catFR1	1	R1456D
665.303	1.0	952435	REC_WORD_VV	26.754	n/a	<>	n/a	-999	4	[0, 0, 0]	n/a	catFR1	1	R1456D
666.303	2.451	953435	REC_WORD_VV	27.754	n/a	<>	n/a	-999	4	[0, 0, 0]	n/a	catFR1	1	R1456D
668.754	26.728	955883	REC_END	n/a	n/a	n/a	n/a	-999	4	[0, 0, 0]	n/a	catFR1	1	R1456D
695.482	10.35	982609	COUNTDOWN_START	n/a	n/a	n/a	n/a	-999	5	[0, 0, 0]	n/a	catFR1	1	R1456D
705.832	0.0	992957	COUNTDOWN_END	n/a	n/a	n/a	n/a	-999	5	[0, 0, 0]	n/a	catFR1	1	R1456D
705.832	1.966	992957	ENCODING_START	n/a	n/a	n/a	n/a	-999	5	[0, 0, 0]	n/a	catFR1	1	R1456D
707.798	1.6	994925	WORD	n/a	wordpools/wordpool_categorized_EN.txt	LAMB	FarmAnimals	1	5	[0, 0, 0]	n/a	catFR1	1	R1456D
709.398	0.934	996524	WORD_OFF	n/a	n/a	LAMB	FarmAnimals	1	5	[0, 0, 0]	n/a	catFR1	1	R1456D
710.332	1.6	997455	WORD	n/a	wordpools/wordpool_categorized_EN.txt	TURKEY	FarmAnimals	2	5	[0, 0, 0]	n/a	catFR1	1	R1456D
711.932	0.866	999061	WORD_OFF	n/a	n/a	TURKEY	FarmAnimals	2	5	[0, 0, 0]	n/a	catFR1	1	R1456D
712.798	1.6	999927	WORD	n/a	wordpools/wordpool_categorized_EN.txt	CALCULATOR	Electronics	3	5	[0, 0, 0]	n/a	catFR1	1	R1456D
714.398	0.868	1001524	WORD_OFF	n/a	n/a	CALCULATOR	Electronics	3	5	[0, 0, 0]	n/a	catFR1	1	R1456D
715.266	1.616	1002390	WORD	n/a	wordpools/wordpool_categorized_EN.txt	SCANNER	Electronics	4	5	[0, 0, 0]	n/a	catFR1	1	R1456D
716.882	0.883	1004012	WORD_OFF	n/a	n/a	SCANNER	Electronics	4	5	[0, 0, 0]	n/a	catFR1	1	R1456D
717.765	1.617	1004895	WORD	n/a	wordpools/wordpool_categorized_EN.txt	COTTON	Fabric	5	5	[0, 0, 0]	n/a	catFR1	1	R1456D
719.382	0.834	1006509	WORD_OFF	n/a	n/a	COTTON	Fabric	5	5	[0, 0, 0]	n/a	catFR1	1	R1456D
720.216	1.6	1007341	WORD	n/a	wordpools/wordpool_categorized_EN.txt	SILK	Fabric	6	5	[0, 0, 0]	n/a	catFR1	1	R1456D
721.816	0.983	1008939	WORD_OFF	n/a	n/a	SILK	Fabric	6	5	[0, 0, 0]	n/a	catFR1	1	R1456D
722.799	1.6	1009922	WORD	n/a	wordpools/wordpool_categorized_EN.txt	TELEVISION	Electronics	7	5	[0, 0, 0]	n/a	catFR1	1	R1456D
724.399	0.883	1011528	WORD_OFF	n/a	n/a	TELEVISION	Electronics	7	5	[0, 0, 0]	n/a	catFR1	1	R1456D
725.282	1.617	1012411	WORD	n/a	wordpools/wordpool_categorized_EN.txt	PRINTER	Electronics	8	5	[0, 0, 0]	n/a	catFR1	1	R1456D
726.899	0.85	1014025	WORD_OFF	n/a	n/a	PRINTER	Electronics	8	5	[0, 0, 0]	n/a	catFR1	1	R1456D
727.749	1.6	1014874	WORD	n/a	wordpools/wordpool_categorized_EN.txt	DENIM	Fabric	9	5	[0, 0, 0]	n/a	catFR1	1	R1456D
729.349	0.867	1016480	WORD_OFF	n/a	n/a	DENIM	Fabric	9	5	[0, 0, 0]	n/a	catFR1	1	R1456D
730.216	1.6	1017345	WORD	n/a	wordpools/wordpool_categorized_EN.txt	LEATHER	Fabric	10	5	[0, 0, 0]	n/a	catFR1	1	R1456D
731.816	0.85	1018943	WORD_OFF	n/a	n/a	LEATHER	Fabric	10	5	[0, 0, 0]	n/a	catFR1	1	R1456D
732.666	1.6	1019792	WORD	n/a	wordpools/wordpool_categorized_EN.txt	PIG	FarmAnimals	11	5	[0, 0, 0]	n/a	catFR1	1	R1456D
734.266	0.799	1021389	WORD_OFF	n/a	n/a	PIG	FarmAnimals	11	5	[0, 0, 0]	n/a	catFR1	1	R1456D
735.065	1.601	1022188	WORD	n/a	wordpools/wordpool_categorized_EN.txt	SHEEP	FarmAnimals	12	5	[0, 0, 0]	n/a	catFR1	1	R1456D
736.666	0.001	1023793	WORD_OFF	n/a	n/a	SHEEP	FarmAnimals	12	5	[0, 0, 0]	n/a	catFR1	1	R1456D
736.667	0.0	1023793	ENCODING_END	n/a	n/a	n/a	n/a	-999	5	[0, 0, 0]	n/a	catFR1	1	R1456D
736.667	0.0	1023793	DISTRACT_START	n/a	n/a	n/a	n/a	-999	5	[0, 0, 0]	n/a	catFR1	1	R1456D
736.666	0.001	1023794	PROB	4.85	n/a	n/a	n/a	-999	5	[3, 7, 1]	11.0	catFR1	1	R1456D
736.667	4.865	1023795	START	n/a	n/a	n/a	n/a	-999	5	[-999, -999, -999]	n/a	catFR1	1	R1456D
741.532	8.268	1028660	PROB	8.25	n/a	n/a	n/a	-999	5	[2, 7, 4]	13.0	catFR1	1	R1456D
749.8	4.666	1036927	PROB	4.649	n/a	n/a	n/a	-999	5	[2, 3, 1]	6.0	catFR1	1	R1456D
754.466	6.999	1041593	PROB	6.983	n/a	n/a	n/a	-999	5	[5, 2, 5]	12.0	catFR1	1	R1456D
761.465	0.0	1048592	STOP	n/a	n/a	n/a	n/a	-999	5	[-999, -999, -999]	n/a	catFR1	1	R1456D
761.465	2.35	1048593	DISTRACT_END	n/a	n/a	n/a	n/a	-999	5	[0, 0, 0]	n/a	catFR1	1	R1456D
763.815	1.02	1050938	REC_START	n/a	n/a	n/a	n/a	-999	5	[0, 0, 0]	n/a	catFR1	1	R1456D
764.835	0.722	1051962	REC_WORD_VV	1.02	n/a	<>	n/a	-999	5	[0, 0, 0]	n/a	catFR1	1	R1456D
765.557	3.364	1052683	REC_WORD	1.742	n/a	SHEEP	FarmAnimals	12	5	[0, 0, 0]	n/a	catFR1	1	R1456D
768.921	3.798	1056047	REC_WORD_VV	5.106	n/a	<>	n/a	-999	5	[0, 0, 0]	n/a	catFR1	1	R1456D
772.719	20.041	1059845	REC_WORD_VV	8.904	n/a	<>	n/a	-999	5	[0, 0, 0]	n/a	catFR1	1	R1456D
792.76	1.284	1079885	REC_WORD_VV	28.945	n/a	<>	n/a	-999	5	[0, 0, 0]	n/a	catFR1	1	R1456D
794.044	8.255	1081170	REC_END	n/a	n/a	n/a	n/a	-999	5	[0, 0, 0]	n/a	catFR1	1	R1456D
802.299	10.35	1089425	COUNTDOWN_START	n/a	n/a	n/a	n/a	-999	6	[0, 0, 0]	n/a	catFR1	1	R1456D
812.649	0.0	1099774	COUNTDOWN_END	n/a	n/a	n/a	n/a	-999	6	[0, 0, 0]	n/a	catFR1	1	R1456D
812.649	1.983	1099774	ENCODING_START	n/a	n/a	n/a	n/a	-999	6	[0, 0, 0]	n/a	catFR1	1	R1456D
814.632	1.617	1101758	WORD	n/a	wordpools/wordpool_categorized_EN.txt	HEADPHONES	Electronics	1	6	[0, 0, 0]	n/a	catFR1	1	R1456D
816.249	0.767	1103372	WORD_OFF	n/a	n/a	HEADPHONES	Electronics	1	6	[0, 0, 0]	n/a	catFR1	1	R1456D
817.016	1.6	1104137	WORD	n/a	wordpools/wordpool_categorized_EN.txt	SPEAKER	Electronics	2	6	[0, 0, 0]	n/a	catFR1	1	R1456D
818.616	0.832	1105734	WORD_OFF	n/a	n/a	SPEAKER	Electronics	2	6	[0, 0, 0]	n/a	catFR1	1	R1456D
819.448	1.601	1106566	WORD	n/a	wordpools/wordpool_categorized_EN.txt	PINE	Trees	3	6	[0, 0, 0]	n/a	catFR1	1	R1456D
821.049	0.883	1108172	WORD_OFF	n/a	n/a	PINE	Trees	3	6	[0, 0, 0]	n/a	catFR1	1	R1456D
821.932	1.616	1109055	WORD	n/a	wordpools/wordpool_categorized_EN.txt	CEDAR	Trees	4	6	[0, 0, 0]	n/a	catFR1	1	R1456D
823.548	0.901	1110669	WORD_OFF	n/a	n/a	CEDAR	Trees	4	6	[0, 0, 0]	n/a	catFR1	1	R1456D
824.449	1.6	1111569	WORD	n/a	wordpools/wordpool_categorized_EN.txt	MIXER	Appliances	5	6	[0, 0, 0]	n/a	catFR1	1	R1456D
826.049	0.9	1113174	WORD_OFF	n/a	n/a	MIXER	Appliances	5	6	[0, 0, 0]	n/a	catFR1	1	R1456D
826.949	1.616	1114074	WORD	n/a	wordpools/wordpool_categorized_EN.txt	REFRIGERATOR	Appliances	6	6	[0, 0, 0]	n/a	catFR1	1	R1456D
828.565	0.867	1115688	WORD_OFF	n/a	n/a	REFRIGERATOR	Appliances	6	6	[0, 0, 0]	n/a	catFR1	1	R1456D
829.432	1.617	1116554	WORD	n/a	wordpools/wordpool_categorized_EN.txt	COMPUTER	Electronics	7	6	[0, 0, 0]	n/a	catFR1	1	R1456D
831.049	0.949	1118168	WORD_OFF	n/a	n/a	COMPUTER	Electronics	7	6	[0, 0, 0]	n/a	catFR1	1	R1456D
831.998	1.601	1119118	WORD	n/a	wordpools/wordpool_categorized_EN.txt	STEREO	Electronics	8	6	[0, 0, 0]	n/a	catFR1	1	R1456D
833.599	0.85	1120724	WORD_OFF	n/a	n/a	STEREO	Electronics	8	6	[0, 0, 0]	n/a	catFR1	1	R1456D
834.449	1.6	1121573	WORD	n/a	wordpools/wordpool_categorized_EN.txt	HICKORY	Trees	9	6	[0, 0, 0]	n/a	catFR1	1	R1456D
836.049	0.782	1123170	WORD_OFF	n/a	n/a	HICKORY	Trees	9	6	[0, 0, 0]	n/a	catFR1	1	R1456D
836.831	1.618	1123952	WORD	n/a	wordpools/wordpool_categorized_EN.txt	MAPLE	Trees	10	6	[0, 0, 0]	n/a	catFR1	1	R1456D
838.449	0.833	1125566	WORD_OFF	n/a	n/a	MAPLE	Trees	10	6	[0, 0, 0]	n/a	catFR1	1	R1456D
839.282	1.6	1126406	WORD	n/a	wordpools/wordpool_categorized_EN.txt	DRYER	Appliances	11	6	[0, 0, 0]	n/a	catFR1	1	R1456D
840.882	0.817	1128004	WORD_OFF	n/a	n/a	DRYER	Appliances	11	6	[0, 0, 0]	n/a	catFR1	1	R1456D
841.699	1.6	1128819	WORD	n/a	wordpools/wordpool_categorized_EN.txt	TOASTER	Appliances	12	6	[0, 0, 0]	n/a	catFR1	1	R1456D
843.299	0.001	1130417	WORD_OFF	n/a	n/a	TOASTER	Appliances	12	6	[0, 0, 0]	n/a	catFR1	1	R1456D
843.3	0.001	1130422	START	n/a	n/a	n/a	n/a	-999	6	[-999, -999, -999]	n/a	catFR1	1	R1456D
843.301	0.0	1130423	PROB	7.716	n/a	n/a	n/a	-999	6	[5, 7, 5]	17.0	catFR1	1	R1456D
843.3	0.0	1130425	ENCODING_END	n/a	n/a	n/a	n/a	-999	6	[0, 0, 0]	n/a	catFR1	1	R1456D
843.3	7.733	1130425	DISTRACT_START	n/a	n/a	n/a	n/a	-999	6	[0, 0, 0]	n/a	catFR1	1	R1456D
851.033	10.783	1138155	PROB	10.765	n/a	n/a	n/a	-999	6	[2, 2, 8]	14.0	catFR1	1	R1456D
861.816	7.333	1148937	PROB	7.316	n/a	n/a	n/a	-999	6	[6, 4, 8]	18.0	catFR1	1	R1456D
869.149	0.0	1156267	DISTRACT_END	n/a	n/a	n/a	n/a	-999	6	[0, 0, 0]	n/a	catFR1	1	R1456D
869.149	2.016	1156270	STOP	n/a	n/a	n/a	n/a	-999	6	[-999, -999, -999]	n/a	catFR1	1	R1456D
871.165	1.445	1158285	REC_START	n/a	n/a	n/a	n/a	-999	6	[0, 0, 0]	n/a	catFR1	1	R1456D
872.61	0.771	1159731	REC_WORD_VV	1.445	n/a	<>	n/a	-999	6	[0, 0, 0]	n/a	catFR1	1	R1456D
873.381	4.292	1160502	REC_WORD	2.216	n/a	TOASTER	Appliances	12	6	[0, 0, 0]	n/a	catFR1	1	R1456D
877.673	23.71	1164793	REC_WORD_VV	6.508	n/a	<>	n/a	-999	6	[0, 0, 0]	n/a	catFR1	1	R1456D
901.383	8.55	1188499	REC_END	n/a	n/a	n/a	n/a	-999	6	[0, 0, 0]	n/a	catFR1	1	R1456D
909.933	10.349	1197049	COUNTDOWN_START	n/a	n/a	n/a	n/a	-999	7	[0, 0, 0]	n/a	catFR1	1	R1456D
920.282	0.0	1207397	COUNTDOWN_END	n/a	n/a	n/a	n/a	-999	7	[0, 0, 0]	n/a	catFR1	1	R1456D
920.282	2.183	1207397	ENCODING_START	n/a	n/a	n/a	n/a	-999	7	[0, 0, 0]	n/a	catFR1	1	R1456D
922.465	1.601	1209583	WORD	n/a	wordpools/wordpool_categorized_EN.txt	EYE	BodyParts	1	7	[0, 0, 0]	n/a	catFR1	1	R1456D
924.066	0.9	1211180	WORD_OFF	n/a	n/a	EYE	BodyParts	1	7	[0, 0, 0]	n/a	catFR1	1	R1456D
924.966	1.6	1212080	WORD	n/a	wordpools/wordpool_categorized_EN.txt	FINGERS	BodyParts	2	7	[0, 0, 0]	n/a	catFR1	1	R1456D
926.566	0.85	1213686	WORD_OFF	n/a	n/a	FINGERS	BodyParts	2	7	[0, 0, 0]	n/a	catFR1	1	R1456D
927.416	1.615	1214535	WORD	n/a	wordpools/wordpool_categorized_EN.txt	ONION	Vegetables	3	7	[0, 0, 0]	n/a	catFR1	1	R1456D
929.031	0.801	1216149	WORD_OFF	n/a	n/a	ONION	Vegetables	3	7	[0, 0, 0]	n/a	catFR1	1	R1456D
929.832	1.601	1216947	WORD	n/a	wordpools/wordpool_categorized_EN.txt	CORN	Vegetables	4	7	[0, 0, 0]	n/a	catFR1	1	R1456D
931.433	0.883	1218545	WORD_OFF	n/a	n/a	CORN	Vegetables	4	7	[0, 0, 0]	n/a	catFR1	1	R1456D
932.316	1.6	1219427	WORD	n/a	wordpools/wordpool_categorized_EN.txt	RECLINER	Furniture	5	7	[0, 0, 0]	n/a	catFR1	1	R1456D
933.916	0.833	1221033	WORD_OFF	n/a	n/a	RECLINER	Furniture	5	7	[0, 0, 0]	n/a	catFR1	1	R1456D
934.749	1.6	1221865	WORD	n/a	wordpools/wordpool_categorized_EN.txt	CHAIR	Furniture	6	7	[0, 0, 0]	n/a	catFR1	1	R1456D
936.349	0.8	1223463	WORD_OFF	n/a	n/a	CHAIR	Furniture	6	7	[0, 0, 0]	n/a	catFR1	1	R1456D
937.149	1.616	1224261	WORD	n/a	wordpools/wordpool_categorized_EN.txt	ELBOW	BodyParts	7	7	[0, 0, 0]	n/a	catFR1	1	R1456D
938.765	0.784	1225884	WORD_OFF	n/a	n/a	ELBOW	BodyParts	7	7	[0, 0, 0]	n/a	catFR1	1	R1456D
939.549	1.6	1226666	WORD	n/a	wordpools/wordpool_categorized_EN.txt	NOSE	BodyParts	8	7	[0, 0, 0]	n/a	catFR1	1	R1456D
941.149	0.9	1228263	WORD_OFF	n/a	n/a	NOSE	BodyParts	8	7	[0, 0, 0]	n/a	catFR1	1	R1456D
942.049	1.617	1229162	WORD	n/a	wordpools/wordpool_categorized_EN.txt	DESK	Furniture	9	7	[0, 0, 0]	n/a	catFR1	1	R1456D
943.666	0.883	1230780	WORD_OFF	n/a	n/a	DESK	Furniture	9	7	[0, 0, 0]	n/a	catFR1	1	R1456D
944.549	1.617	1231668	WORD	n/a	wordpools/wordpool_categorized_EN.txt	BOOKCASE	Furniture	10	7	[0, 0, 0]	n/a	catFR1	1	R1456D
946.166	0.866	1233282	WORD_OFF	n/a	n/a	BOOKCASE	Furniture	10	7	[0, 0, 0]	n/a	catFR1	1	R1456D
947.032	1.6	1234148	WORD	n/a	wordpools/wordpool_categorized_EN.txt	LETTUCE	Vegetables	11	7	[0, 0, 0]	n/a	catFR1	1	R1456D
948.632	0.867	1235745	WORD_OFF	n/a	n/a	LETTUCE	Vegetables	11	7	[0, 0, 0]	n/a	catFR1	1	R1456D
949.499	1.616	1236611	WORD	n/a	wordpools/wordpool_categorized_EN.txt	CABBAGE	Vegetables	12	7	[0, 0, 0]	n/a	catFR1	1	R1456D
951.115	0.0	1238232	PROB	6.783	n/a	n/a	n/a	-999	7	[7, 1, 8]	16.0	catFR1	1	R1456D
951.115	0.003	1238233	WORD_OFF	n/a	n/a	CABBAGE	Vegetables	12	7	[0, 0, 0]	n/a	catFR1	1	R1456D
951.118	0.0	1238233	ENCODING_END	n/a	n/a	n/a	n/a	-999	7	[0, 0, 0]	n/a	catFR1	1	R1456D
951.118	0.0	1238233	DISTRACT_START	n/a	n/a	n/a	n/a	-999	7	[0, 0, 0]	n/a	catFR1	1	R1456D
951.118	6.797	1238235	START	n/a	n/a	n/a	n/a	-999	7	[-999, -999, -999]	n/a	catFR1	1	R1456D
957.915	3.701	1245031	PROB	3.683	n/a	n/a	n/a	-999	7	[3, 1, 1]	5.0	catFR1	1	R1456D
961.616	6.434	1248732	PROB	6.417	n/a	n/a	n/a	-999	7	[6, 5, 6]	16.0	catFR1	1	R1456D
968.05	7.349	1255166	PROB	7.332	n/a	n/a	n/a	-999	7	[1, 8, 6]	15.0	catFR1	1	R1456D
975.399	0.0	1262512	DISTRACT_END	n/a	n/a	n/a	n/a	-999	7	[0, 0, 0]	n/a	catFR1	1	R1456D
975.399	2.017	1262514	STOP	n/a	n/a	n/a	n/a	-999	7	[-999, -999, -999]	n/a	catFR1	1	R1456D
977.416	2.141	1264529	REC_START	n/a	n/a	n/a	n/a	-999	7	[0, 0, 0]	n/a	catFR1	1	R1456D
979.557	0.98	1266672	REC_WORD_VV	2.141	n/a	<>	n/a	-999	7	[0, 0, 0]	n/a	catFR1	1	R1456D
980.537	3.804	1267652	REC_WORD	3.121	n/a	RECLINER	Furniture	5	7	[0, 0, 0]	n/a	catFR1	1	R1456D
984.341	5.768	1271456	REC_WORD_VV	6.925	n/a	<>	n/a	-999	7	[0, 0, 0]	n/a	catFR1	1	R1456D
990.109	7.563	1277223	REC_WORD_VV	12.693	n/a	<>	n/a	-999	7	[0, 0, 0]	n/a	catFR1	1	R1456D
997.672	5.141	1284786	REC_WORD_VV	20.256	n/a	<>	n/a	-999	7	[0, 0, 0]	n/a	catFR1	1	R1456D
1002.813	4.842	1289927	REC_WORD_VV	25.397	n/a	<>	n/a	-999	7	[0, 0, 0]	n/a	catFR1	1	R1456D
1007.655	7.394	1294769	REC_END	n/a	n/a	n/a	n/a	-999	7	[0, 0, 0]	n/a	catFR1	1	R1456D
1015.049	10.35	1302159	COUNTDOWN_START	n/a	n/a	n/a	n/a	-999	8	[0, 0, 0]	n/a	catFR1	1	R1456D
1025.399	0.0	1312507	COUNTDOWN_END	n/a	n/a	n/a	n/a	-999	8	[0, 0, 0]	n/a	catFR1	1	R1456D
1025.399	1.983	1312507	ENCODING_START	n/a	n/a	n/a	n/a	-999	8	[0, 0, 0]	n/a	catFR1	1	R1456D
1027.382	1.616	1314491	WORD	n/a	wordpools/wordpool_categorized_EN.txt	WHALE	OceanAnimals	1	8	[0, 0, 0]	n/a	catFR1	1	R1456D
1028.998	0.917	1316105	WORD_OFF	n/a	n/a	WHALE	OceanAnimals	1	8	[0, 0, 0]	n/a	catFR1	1	R1456D
1029.915	1.601	1317022	WORD	n/a	wordpools/wordpool_categorized_EN.txt	SQUID	OceanAnimals	2	8	[0, 0, 0]	n/a	catFR1	1	R1456D
1031.516	1.0	1318627	WORD_OFF	n/a	n/a	SQUID	OceanAnimals	2	8	[0, 0, 0]	n/a	catFR1	1	R1456D
1032.516	1.617	1319628	WORD	n/a	wordpools/wordpool_categorized_EN.txt	COUCH	Furniture	3	8	[0, 0, 0]	n/a	catFR1	1	R1456D
1034.133	0.849	1321242	WORD_OFF	n/a	n/a	COUCH	Furniture	3	8	[0, 0, 0]	n/a	catFR1	1	R1456D
1034.982	1.616	1322091	WORD	n/a	wordpools/wordpool_categorized_EN.txt	DRESSER	Furniture	4	8	[0, 0, 0]	n/a	catFR1	1	R1456D
1036.598	0.867	1323705	WORD_OFF	n/a	n/a	DRESSER	Furniture	4	8	[0, 0, 0]	n/a	catFR1	1	R1456D
1037.465	1.601	1324579	WORD	n/a	wordpools/wordpool_categorized_EN.txt	BUS	Vehicles	5	8	[0, 0, 0]	n/a	catFR1	1	R1456D
1039.066	0.883	1326177	WORD_OFF	n/a	n/a	BUS	Vehicles	5	8	[0, 0, 0]	n/a	catFR1	1	R1456D
1039.949	1.617	1327059	WORD	n/a	wordpools/wordpool_categorized_EN.txt	BIKE	Vehicles	6	8	[0, 0, 0]	n/a	catFR1	1	R1456D
1041.566	0.783	1328673	WORD_OFF	n/a	n/a	BIKE	Vehicles	6	8	[0, 0, 0]	n/a	catFR1	1	R1456D
1042.349	1.6	1329455	WORD	n/a	wordpools/wordpool_categorized_EN.txt	CABINET	Furniture	7	8	[0, 0, 0]	n/a	catFR1	1	R1456D
1043.949	0.766	1331061	WORD_OFF	n/a	n/a	CABINET	Furniture	7	8	[0, 0, 0]	n/a	catFR1	1	R1456D
1044.715	1.616	1331826	WORD	n/a	wordpools/wordpool_categorized_EN.txt	BED	Furniture	8	8	[0, 0, 0]	n/a	catFR1	1	R1456D
1046.331	0.884	1333440	WORD_OFF	n/a	n/a	BED	Furniture	8	8	[0, 0, 0]	n/a	catFR1	1	R1456D
1047.215	1.601	1334323	WORD	n/a	wordpools/wordpool_categorized_EN.txt	PLANE	Vehicles	9	8	[0, 0, 0]	n/a	catFR1	1	R1456D
1048.816	0.95	1335929	WORD_OFF	n/a	n/a	PLANE	Vehicles	9	8	[0, 0, 0]	n/a	catFR1	1	R1456D
1049.766	1.616	1336878	WORD	n/a	wordpools/wordpool_categorized_EN.txt	TRUCK	Vehicles	10	8	[0, 0, 0]	n/a	catFR1	1	R1456D
1051.382	0.934	1338493	WORD_OFF	n/a	n/a	TRUCK	Vehicles	10	8	[0, 0, 0]	n/a	catFR1	1	R1456D
1052.316	1.6	1339426	WORD	n/a	wordpools/wordpool_categorized_EN.txt	TURTLE	OceanAnimals	11	8	[0, 0, 0]	n/a	catFR1	1	R1456D
1053.916	1.0	1341023	WORD_OFF	n/a	n/a	TURTLE	OceanAnimals	11	8	[0, 0, 0]	n/a	catFR1	1	R1456D
1054.916	1.6	1342023	WORD	n/a	wordpools/wordpool_categorized_EN.txt	CRAB	OceanAnimals	12	8	[0, 0, 0]	n/a	catFR1	1	R1456D
1056.516	0.0	1343621	WORD_OFF	n/a	n/a	CRAB	OceanAnimals	12	8	[0, 0, 0]	n/a	catFR1	1	R1456D
1056.516	0.001	1343627	PROB	12.333	n/a	n/a	n/a	-999	8	[4, 2, 7]	16.0	catFR1	1	R1456D
1056.517	0.0	1343628	START	n/a	n/a	n/a	n/a	-999	8	[-999, -999, -999]	n/a	catFR1	1	R1456D
1056.517	0.0	1343629	ENCODING_END	n/a	n/a	n/a	n/a	-999	8	[0, 0, 0]	n/a	catFR1	1	R1456D
1056.517	12.349	1343629	DISTRACT_START	n/a	n/a	n/a	n/a	-999	8	[0, 0, 0]	n/a	catFR1	1	R1456D
1068.866	10.966	1355976	PROB	10.95	n/a	n/a	n/a	-999	8	[6, 7, 3]	16.0	catFR1	1	R1456D
1079.832	0.0	1366941	DISTRACT_END	n/a	n/a	n/a	n/a	-999	8	[0, 0, 0]	n/a	catFR1	1	R1456D
1079.832	2.25	1366942	STOP	n/a	n/a	n/a	n/a	-999	8	[-999, -999, -999]	n/a	catFR1	1	R1456D
1082.082	26.766	1369194	REC_START	n/a	n/a	n/a	n/a	-999	8	[0, 0, 0]	n/a	catFR1	1	R1456D
1108.848	3.487	1395956	REC_WORD_VV	26.766	n/a	<>	n/a	-999	8	[0, 0, 0]	n/a	catFR1	1	R1456D
1112.335	23.163	1399442	REC_END	n/a	n/a	n/a	n/a	-999	8	[0, 0, 0]	n/a	catFR1	1	R1456D
1135.498	10.351	1422602	COUNTDOWN_START	n/a	n/a	n/a	n/a	-999	9	[0, 0, 0]	n/a	catFR1	1	R1456D
1145.849	0.0	1432951	COUNTDOWN_END	n/a	n/a	n/a	n/a	-999	9	[0, 0, 0]	n/a	catFR1	1	R1456D
1145.849	2.099	1432960	ENCODING_START	n/a	n/a	n/a	n/a	-999	9	[0, 0, 0]	n/a	catFR1	1	R1456D
1147.948	1.601	1435053	WORD	n/a	wordpools/wordpool_categorized_EN.txt	LILY	Flowers	1	9	[0, 0, 0]	n/a	catFR1	1	R1456D
1149.549	0.949	1436650	WORD_OFF	n/a	n/a	LILY	Flowers	1	9	[0, 0, 0]	n/a	catFR1	1	R1456D
1150.498	1.601	1437600	WORD	n/a	wordpools/wordpool_categorized_EN.txt	DAISY	Flowers	2	9	[0, 0, 0]	n/a	catFR1	1	R1456D
1152.099	1.0	1439206	WORD_OFF	n/a	n/a	DAISY	Flowers	2	9	[0, 0, 0]	n/a	catFR1	1	R1456D
1153.099	1.6	1440206	WORD	n/a	wordpools/wordpool_categorized_EN.txt	OYSTER	OceanAnimals	3	9	[0, 0, 0]	n/a	catFR1	1	R1456D
1154.699	0.866	1441803	WORD_OFF	n/a	n/a	OYSTER	OceanAnimals	3	9	[0, 0, 0]	n/a	catFR1	1	R1456D
1155.565	1.615	1442669	WORD	n/a	wordpools/wordpool_categorized_EN.txt	DOLPHIN	OceanAnimals	4	9	[0, 0, 0]	n/a	catFR1	1	R1456D
1157.18	0.769	1444283	WORD_OFF	n/a	n/a	DOLPHIN	OceanAnimals	4	9	[0, 0, 0]	n/a	catFR1	1	R1456D
1157.949	1.616	1445048	WORD	n/a	wordpools/wordpool_categorized_EN.txt	TABLET	Electronics	5	9	[0, 0, 0]	n/a	catFR1	1	R1456D
1159.565	0.883	1446671	WORD_OFF	n/a	n/a	TABLET	Electronics	5	9	[0, 0, 0]	n/a	catFR1	1	R1456D
1160.448	1.6	1447554	WORD	n/a	wordpools/wordpool_categorized_EN.txt	MICROWAVE	Electronics	6	9	[0, 0, 0]	n/a	catFR1	1	R1456D
1162.048	0.917	1449151	WORD_OFF	n/a	n/a	MICROWAVE	Electronics	6	9	[0, 0, 0]	n/a	catFR1	1	R1456D
1162.965	1.6	1450067	WORD	n/a	wordpools/wordpool_categorized_EN.txt	OCTOPUS	OceanAnimals	7	9	[0, 0, 0]	n/a	catFR1	1	R1456D
1164.565	0.901	1451665	WORD_OFF	n/a	n/a	OCTOPUS	OceanAnimals	7	9	[0, 0, 0]	n/a	catFR1	1	R1456D
1165.466	1.6	1452573	WORD	n/a	wordpools/wordpool_categorized_EN.txt	LOBSTER	OceanAnimals	8	9	[0, 0, 0]	n/a	catFR1	1	R1456D
1167.066	0.95	1454170	WORD_OFF	n/a	n/a	LOBSTER	OceanAnimals	8	9	[0, 0, 0]	n/a	catFR1	1	R1456D
1168.016	1.599	1455120	WORD	n/a	wordpools/wordpool_categorized_EN.txt	RADIO	Electronics	9	9	[0, 0, 0]	n/a	catFR1	1	R1456D
1169.615	0.767	1456717	WORD_OFF	n/a	n/a	RADIO	Electronics	9	9	[0, 0, 0]	n/a	catFR1	1	R1456D
1170.382	1.617	1457482	WORD	n/a	wordpools/wordpool_categorized_EN.txt	PHONE	Electronics	10	9	[0, 0, 0]	n/a	catFR1	1	R1456D
1171.999	0.833	1459105	WORD_OFF	n/a	n/a	PHONE	Electronics	10	9	[0, 0, 0]	n/a	catFR1	1	R1456D
1172.832	1.617	1459937	WORD	n/a	wordpools/wordpool_categorized_EN.txt	VIOLET	Flowers	11	9	[0, 0, 0]	n/a	catFR1	1	R1456D
1174.449	0.917	1461551	WORD_OFF	n/a	n/a	VIOLET	Flowers	11	9	[0, 0, 0]	n/a	catFR1	1	R1456D
1175.366	1.6	1462467	WORD	n/a	wordpools/wordpool_categorized_EN.txt	CARNATION	Flowers	12	9	[0, 0, 0]	n/a	catFR1	1	R1456D
1176.966	0.0	1464065	WORD_OFF	n/a	n/a	CARNATION	Flowers	12	9	[0, 0, 0]	n/a	catFR1	1	R1456D
1176.966	0.001	1464070	PROB	10.716	n/a	n/a	n/a	-999	9	[2, 4, 6]	12.0	catFR1	1	R1456D
1176.967	0.0	1464071	START	n/a	n/a	n/a	n/a	-999	9	[-999, -999, -999]	n/a	catFR1	1	R1456D
1176.967	0.0	1464073	ENCODING_END	n/a	n/a	n/a	n/a	-999	9	[0, 0, 0]	n/a	catFR1	1	R1456D
1176.967	10.732	1464073	DISTRACT_START	n/a	n/a	n/a	n/a	-999	9	[0, 0, 0]	n/a	catFR1	1	R1456D
1187.699	6.7	1474803	PROB	6.683	n/a	n/a	n/a	-999	9	[2, 8, 3]	13.0	catFR1	1	R1456D
1194.399	5.77	1481503	PROB	5.75	n/a	n/a	n/a	-999	9	[3, 2, 4]	9.0	catFR1	1	R1456D
1200.169	0.0	1487267	DISTRACT_END	n/a	n/a	n/a	n/a	-999	9	[0, 0, 0]	n/a	catFR1	1	R1456D
1200.169	2.38	1487272	STOP	n/a	n/a	n/a	n/a	-999	9	[-999, -999, -999]	n/a	catFR1	1	R1456D
1202.549	1.809	1489654	REC_START	n/a	n/a	n/a	n/a	-999	9	[0, 0, 0]	n/a	catFR1	1	R1456D
1204.358	5.339	1491461	REC_WORD	1.809	n/a	CARNATION	Flowers	12	9	[0, 0, 0]	n/a	catFR1	1	R1456D
1209.697	5.492	1496800	REC_WORD_VV	7.148	n/a	<>	n/a	-999	9	[0, 0, 0]	n/a	catFR1	1	R1456D
1215.189	17.6	1502291	REC_WORD_VV	12.64	n/a	<>	n/a	-999	9	[0, 0, 0]	n/a	catFR1	1	R1456D
1232.789	6.11	1519886	REC_END	n/a	n/a	n/a	n/a	-999	9	[0, 0, 0]	n/a	catFR1	1	R1456D
1238.899	10.349	1525997	COUNTDOWN_START	n/a	n/a	n/a	n/a	-999	10	[0, 0, 0]	n/a	catFR1	1	R1456D
1249.248	0.0	1536346	COUNTDOWN_END	n/a	n/a	n/a	n/a	-999	10	[0, 0, 0]	n/a	catFR1	1	R1456D
1249.248	1.817	1536346	ENCODING_START	n/a	n/a	n/a	n/a	-999	10	[0, 0, 0]	n/a	catFR1	1	R1456D
1251.065	1.601	1538162	WORD	n/a	wordpools/wordpool_categorized_EN.txt	COFFEE	Beverages	1	10	[0, 0, 0]	n/a	catFR1	1	R1456D
1252.666	0.8	1539768	WORD_OFF	n/a	n/a	COFFEE	Beverages	1	10	[0, 0, 0]	n/a	catFR1	1	R1456D
1253.466	1.6	1540566	WORD	n/a	wordpools/wordpool_categorized_EN.txt	BEER	Beverages	2	10	[0, 0, 0]	n/a	catFR1	1	R1456D
1255.066	0.999	1542164	WORD_OFF	n/a	n/a	BEER	Beverages	2	10	[0, 0, 0]	n/a	catFR1	1	R1456D
1256.065	1.601	1543164	WORD	n/a	wordpools/wordpool_categorized_EN.txt	GUITAR	Instruments	3	10	[0, 0, 0]	n/a	catFR1	1	R1456D
1257.666	0.85	1544761	WORD_OFF	n/a	n/a	GUITAR	Instruments	3	10	[0, 0, 0]	n/a	catFR1	1	R1456D
1258.516	1.6	1545610	WORD	n/a	wordpools/wordpool_categorized_EN.txt	FLUTE	Instruments	4	10	[0, 0, 0]	n/a	catFR1	1	R1456D
1260.116	0.949	1547216	WORD_OFF	n/a	n/a	FLUTE	Instruments	4	10	[0, 0, 0]	n/a	catFR1	1	R1456D
1261.065	1.601	1548166	WORD	n/a	wordpools/wordpool_categorized_EN.txt	ELM	Trees	5	10	[0, 0, 0]	n/a	catFR1	1	R1456D
1262.666	0.883	1549763	WORD_OFF	n/a	n/a	ELM	Trees	5	10	[0, 0, 0]	n/a	catFR1	1	R1456D
1263.549	1.617	1550646	WORD	n/a	wordpools/wordpool_categorized_EN.txt	SPRUCE	Trees	6	10	[0, 0, 0]	n/a	catFR1	1	R1456D
1265.166	0.933	1552260	WORD_OFF	n/a	n/a	SPRUCE	Trees	6	10	[0, 0, 0]	n/a	catFR1	1	R1456D
1266.099	1.617	1553193	WORD	n/a	wordpools/wordpool_categorized_EN.txt	TROMBONE	Instruments	7	10	[0, 0, 0]	n/a	catFR1	1	R1456D
1267.716	0.965	1554816	WORD_OFF	n/a	n/a	TROMBONE	Instruments	7	10	[0, 0, 0]	n/a	catFR1	1	R1456D
1268.681	1.617	1555783	WORD	n/a	wordpools/wordpool_categorized_EN.txt	VIOLIN	Instruments	8	10	[0, 0, 0]	n/a	catFR1	1	R1456D
1270.298	0.835	1557397	WORD_OFF	n/a	n/a	VIOLIN	Instruments	8	10	[0, 0, 0]	n/a	catFR1	1	R1456D
1271.133	1.599	1558229	WORD	n/a	wordpools/wordpool_categorized_EN.txt	CYPRESS	Trees	9	10	[0, 0, 0]	n/a	catFR1	1	R1456D
1272.732	0.866	1559826	WORD_OFF	n/a	n/a	CYPRESS	Trees	9	10	[0, 0, 0]	n/a	catFR1	1	R1456D
1273.598	1.601	1560692	WORD	n/a	wordpools/wordpool_categorized_EN.txt	EVERGREEN	Trees	10	10	[0, 0, 0]	n/a	catFR1	1	R1456D
1275.199	1.0	1562298	WORD_OFF	n/a	n/a	EVERGREEN	Trees	10	10	[0, 0, 0]	n/a	catFR1	1	R1456D
1276.199	1.617	1563298	WORD	n/a	wordpools/wordpool_categorized_EN.txt	CIDER	Beverages	11	10	[0, 0, 0]	n/a	catFR1	1	R1456D
1277.816	0.766	1564912	WORD_OFF	n/a	n/a	CIDER	Beverages	11	10	[0, 0, 0]	n/a	catFR1	1	R1456D
1278.582	1.601	1565677	WORD	n/a	wordpools/wordpool_categorized_EN.txt	JUICE	Beverages	12	10	[0, 0, 0]	n/a	catFR1	1	R1456D
1280.183	0.0	1567282	PROB	8.266	n/a	n/a	n/a	-999	10	[2, 8, 7]	17.0	catFR1	1	R1456D
1280.182	0.002	1567283	WORD_OFF	n/a	n/a	JUICE	Beverages	12	10	[0, 0, 0]	n/a	catFR1	1	R1456D
1280.184	0.0	1567283	ENCODING_END	n/a	n/a	n/a	n/a	-999	10	[0, 0, 0]	n/a	catFR1	1	R1456D
1280.184	0.0	1567283	DISTRACT_START	n/a	n/a	n/a	n/a	-999	10	[0, 0, 0]	n/a	catFR1	1	R1456D
1280.184	8.281	1567283	START	n/a	n/a	n/a	n/a	-999	10	[-999, -999, -999]	n/a	catFR1	1	R1456D
1288.465	6.218	1575563	PROB	6.2	n/a	n/a	n/a	-999	10	[1, 4, 1]	6.0	catFR1	1	R1456D
1294.683	13.565	1581781	PROB	13.549	n/a	n/a	n/a	-999	10	[5, 4, 7]	16.0	catFR1	1	R1456D
1308.248	0.0	1595345	DISTRACT_END	n/a	n/a	n/a	n/a	-999	10	[0, 0, 0]	n/a	catFR1	1	R1456D
1308.248	2.101	1595345	STOP	n/a	n/a	n/a	n/a	-999	10	[-999, -999, -999]	n/a	catFR1	1	R1456D
1310.349	3.651	1597446	REC_START	n/a	n/a	n/a	n/a	-999	10	[0, 0, 0]	n/a	catFR1	1	R1456D
1314.0	5.105	1601097	REC_WORD_VV	3.651	n/a	<>	n/a	-999	10	[0, 0, 0]	n/a	catFR1	1	R1456D
1319.105	6.526	1606202	REC_WORD_VV	8.756	n/a	<>	n/a	-999	10	[0, 0, 0]	n/a	catFR1	1	R1456D
1325.631	1.863	1612728	REC_WORD	15.282	n/a	COFFEE	Beverages	1	10	[0, 0, 0]	n/a	catFR1	1	R1456D
1327.494	1.714	1614590	REC_WORD_VV	17.145	n/a	<>	n/a	-999	10	[0, 0, 0]	n/a	catFR1	1	R1456D
1329.208	1.0	1616304	REC_WORD_VV	18.859	n/a	<>	n/a	-999	10	[0, 0, 0]	n/a	catFR1	1	R1456D
1330.208	1.0	1617304	REC_WORD_VV	19.859	n/a	<>	n/a	-999	10	[0, 0, 0]	n/a	catFR1	1	R1456D
1331.208	9.387	1618304	REC_WORD_VV	20.859	n/a	<>	n/a	-999	10	[0, 0, 0]	n/a	catFR1	1	R1456D
1340.595	23.437	1627686	REC_END	n/a	n/a	n/a	n/a	-999	10	[0, 0, 0]	n/a	catFR1	1	R1456D
1364.032	10.35	1651124	COUNTDOWN_START	n/a	n/a	n/a	n/a	-999	11	[0, 0, 0]	n/a	catFR1	1	R1456D
1374.382	0.0	1661472	COUNTDOWN_END	n/a	n/a	n/a	n/a	-999	11	[0, 0, 0]	n/a	catFR1	1	R1456D
1374.382	2.3	1661472	ENCODING_START	n/a	n/a	n/a	n/a	-999	11	[0, 0, 0]	n/a	catFR1	1	R1456D
1376.682	1.6	1663776	WORD	n/a	wordpools/wordpool_categorized_EN.txt	GIRAFFE	Zoo	1	11	[0, 0, 0]	n/a	catFR1	1	R1456D
1378.282	0.817	1665373	WORD_OFF	n/a	n/a	GIRAFFE	Zoo	1	11	[0, 0, 0]	n/a	catFR1	1	R1456D
1379.099	1.617	1666189	WORD	n/a	wordpools/wordpool_categorized_EN.txt	ELEPHANT	Zoo	2	11	[0, 0, 0]	n/a	catFR1	1	R1456D
1380.716	0.833	1667811	WORD_OFF	n/a	n/a	ELEPHANT	Zoo	2	11	[0, 0, 0]	n/a	catFR1	1	R1456D
1381.549	1.617	1668643	WORD	n/a	wordpools/wordpool_categorized_EN.txt	HORSE	FarmAnimals	3	11	[0, 0, 0]	n/a	catFR1	1	R1456D
1383.166	0.815	1670258	WORD_OFF	n/a	n/a	HORSE	FarmAnimals	3	11	[0, 0, 0]	n/a	catFR1	1	R1456D
1383.981	1.601	1671081	WORD	n/a	wordpools/wordpool_categorized_EN.txt	GOAT	FarmAnimals	4	11	[0, 0, 0]	n/a	catFR1	1	R1456D
1385.582	0.917	1672670	WORD_OFF	n/a	n/a	GOAT	FarmAnimals	4	11	[0, 0, 0]	n/a	catFR1	1	R1456D
1386.499	1.617	1673587	WORD	n/a	wordpools/wordpool_categorized_EN.txt	TRAIN	Vehicles	5	11	[0, 0, 0]	n/a	catFR1	1	R1456D
1388.116	0.899	1675209	WORD_OFF	n/a	n/a	TRAIN	Vehicles	5	11	[0, 0, 0]	n/a	catFR1	1	R1456D
1389.015	1.6	1676109	WORD	n/a	wordpools/wordpool_categorized_EN.txt	CAR	Vehicles	6	11	[0, 0, 0]	n/a	catFR1	1	R1456D
1390.615	0.867	1677706	WORD_OFF	n/a	n/a	CAR	Vehicles	6	11	[0, 0, 0]	n/a	catFR1	1	R1456D
1391.482	1.6	1678572	WORD	n/a	wordpools/wordpool_categorized_EN.txt	CHICKEN	FarmAnimals	7	11	[0, 0, 0]	n/a	catFR1	1	R1456D
1393.082	0.884	1680169	WORD_OFF	n/a	n/a	CHICKEN	FarmAnimals	7	11	[0, 0, 0]	n/a	catFR1	1	R1456D
1393.966	1.616	1681060	WORD	n/a	wordpools/wordpool_categorized_EN.txt	COW	FarmAnimals	8	11	[0, 0, 0]	n/a	catFR1	1	R1456D
1395.582	0.867	1682674	WORD_OFF	n/a	n/a	COW	FarmAnimals	8	11	[0, 0, 0]	n/a	catFR1	1	R1456D
1396.449	1.6	1683540	WORD	n/a	wordpools/wordpool_categorized_EN.txt	JEEP	Vehicles	9	11	[0, 0, 0]	n/a	catFR1	1	R1456D
1398.049	0.767	1685138	WORD_OFF	n/a	n/a	JEEP	Vehicles	9	11	[0, 0, 0]	n/a	catFR1	1	R1456D
1398.816	1.6	1685903	WORD	n/a	wordpools/wordpool_categorized_EN.txt	MOPED	Vehicles	10	11	[0, 0, 0]	n/a	catFR1	1	R1456D
1400.416	0.866	1687508	WORD_OFF	n/a	n/a	MOPED	Vehicles	10	11	[0, 0, 0]	n/a	catFR1	1	R1456D
1401.282	1.616	1688374	WORD	n/a	wordpools/wordpool_categorized_EN.txt	CHEETAH	Zoo	11	11	[0, 0, 0]	n/a	catFR1	1	R1456D
1402.898	0.85	1689988	WORD_OFF	n/a	n/a	CHEETAH	Zoo	11	11	[0, 0, 0]	n/a	catFR1	1	R1456D
1403.748	1.6	1690837	WORD	n/a	wordpools/wordpool_categorized_EN.txt	BEAR	Zoo	12	11	[0, 0, 0]	n/a	catFR1	1	R1456D
1405.348	0.0	1692435	WORD_OFF	n/a	n/a	BEAR	Zoo	12	11	[0, 0, 0]	n/a	catFR1	1	R1456D
1405.348	0.001	1692440	PROB	6.717	n/a	n/a	n/a	-999	11	[8, 4, 2]	14.0	catFR1	1	R1456D
1405.349	0.0	1692441	START	n/a	n/a	n/a	n/a	-999	11	[-999, -999, -999]	n/a	catFR1	1	R1456D
1405.349	0.0	1692443	ENCODING_END	n/a	n/a	n/a	n/a	-999	11	[0, 0, 0]	n/a	catFR1	1	R1456D
1405.349	6.734	1692443	DISTRACT_START	n/a	n/a	n/a	n/a	-999	11	[0, 0, 0]	n/a	catFR1	1	R1456D
1412.083	10.0	1699175	PROB	9.982	n/a	n/a	n/a	-999	11	[7, 5, 8]	20.0	catFR1	1	R1456D
1422.083	5.966	1709174	PROB	5.949	n/a	n/a	n/a	-999	11	[8, 4, 7]	19.0	catFR1	1	R1456D
1428.049	0.0	1715140	STOP	n/a	n/a	n/a	n/a	-999	11	[-999, -999, -999]	n/a	catFR1	1	R1456D
1428.049	2.299	1715141	DISTRACT_END	n/a	n/a	n/a	n/a	-999	11	[0, 0, 0]	n/a	catFR1	1	R1456D
1430.348	3.02	1717436	REC_START	n/a	n/a	n/a	n/a	-999	11	[0, 0, 0]	n/a	catFR1	1	R1456D
1433.368	27.198	1720459	REC_WORD_VV	3.02	n/a	<>	n/a	-999	11	[0, 0, 0]	n/a	catFR1	1	R1456D
1460.566	10.366	1747650	REC_END	n/a	n/a	n/a	n/a	-999	11	[0, 0, 0]	n/a	catFR1	1	R1456D
1470.932	10.351	1758024	COUNTDOWN_START	n/a	n/a	n/a	n/a	-999	12	[0, 0, 0]	n/a	catFR1	1	R1456D
1481.283	0.0	1768373	COUNTDOWN_END	n/a	n/a	n/a	n/a	-999	12	[0, 0, 0]	n/a	catFR1	1	R1456D
1481.283	2.265	1768373	ENCODING_START	n/a	n/a	n/a	n/a	-999	12	[0, 0, 0]	n/a	catFR1	1	R1456D
1483.548	1.6	1770634	WORD	n/a	wordpools/wordpool_categorized_EN.txt	NIGHTSTAND	Furniture	1	12	[0, 0, 0]	n/a	catFR1	1	R1456D
1485.148	0.817	1772232	WORD_OFF	n/a	n/a	NIGHTSTAND	Furniture	1	12	[0, 0, 0]	n/a	catFR1	1	R1456D
1485.965	1.601	1773056	WORD	n/a	wordpools/wordpool_categorized_EN.txt	SHELF	Furniture	2	12	[0, 0, 0]	n/a	catFR1	1	R1456D
1487.566	0.966	1774653	WORD_OFF	n/a	n/a	SHELF	Furniture	2	12	[0, 0, 0]	n/a	catFR1	1	R1456D
1488.532	1.6	1775620	WORD	n/a	wordpools/wordpool_categorized_EN.txt	ORGAN	Instruments	3	12	[0, 0, 0]	n/a	catFR1	1	R1456D
1490.132	0.9	1777217	WORD_OFF	n/a	n/a	ORGAN	Instruments	3	12	[0, 0, 0]	n/a	catFR1	1	R1456D
1491.032	1.616	1778116	WORD	n/a	wordpools/wordpool_categorized_EN.txt	BASS	Instruments	4	12	[0, 0, 0]	n/a	catFR1	1	R1456D
1492.648	0.951	1779731	WORD_OFF	n/a	n/a	BASS	Instruments	4	12	[0, 0, 0]	n/a	catFR1	1	R1456D
1493.599	1.616	1780689	WORD	n/a	wordpools/wordpool_categorized_EN.txt	TIGER	Zoo	5	12	[0, 0, 0]	n/a	catFR1	1	R1456D
1495.215	0.9	1782303	WORD_OFF	n/a	n/a	TIGER	Zoo	5	12	[0, 0, 0]	n/a	catFR1	1	R1456D
1496.115	1.6	1783203	WORD	n/a	wordpools/wordpool_categorized_EN.txt	MONKEY	Zoo	6	12	[0, 0, 0]	n/a	catFR1	1	R1456D
1497.715	0.933	1784800	WORD_OFF	n/a	n/a	MONKEY	Zoo	6	12	[0, 0, 0]	n/a	catFR1	1	R1456D
1498.648	1.601	1785733	WORD	n/a	wordpools/wordpool_categorized_EN.txt	BANJO	Instruments	7	12	[0, 0, 0]	n/a	catFR1	1	R1456D
1500.249	0.966	1787330	WORD_OFF	n/a	n/a	BANJO	Instruments	7	12	[0, 0, 0]	n/a	catFR1	1	R1456D
1501.215	1.601	1788297	WORD	n/a	wordpools/wordpool_categorized_EN.txt	TRUMPET	Instruments	8	12	[0, 0, 0]	n/a	catFR1	1	R1456D
1502.816	0.816	1789903	WORD_OFF	n/a	n/a	TRUMPET	Instruments	8	12	[0, 0, 0]	n/a	catFR1	1	R1456D
1503.632	1.616	1790718	WORD	n/a	wordpools/wordpool_categorized_EN.txt	ZEBRA	Zoo	9	12	[0, 0, 0]	n/a	catFR1	1	R1456D
1505.248	0.918	1792332	WORD_OFF	n/a	n/a	ZEBRA	Zoo	9	12	[0, 0, 0]	n/a	catFR1	1	R1456D
1506.166	1.6	1793249	WORD	n/a	wordpools/wordpool_categorized_EN.txt	GORILLA	Zoo	10	12	[0, 0, 0]	n/a	catFR1	1	R1456D
1507.766	0.833	1794854	WORD_OFF	n/a	n/a	GORILLA	Zoo	10	12	[0, 0, 0]	n/a	catFR1	1	R1456D
1508.599	1.616	1795687	WORD	n/a	wordpools/wordpool_categorized_EN.txt	SOFA	Furniture	11	12	[0, 0, 0]	n/a	catFR1	1	R1456D
1510.215	0.883	1797301	WORD_OFF	n/a	n/a	SOFA	Furniture	11	12	[0, 0, 0]	n/a	catFR1	1	R1456D
1511.098	1.601	1798183	WORD	n/a	wordpools/wordpool_categorized_EN.txt	TABLE	Furniture	12	12	[0, 0, 0]	n/a	catFR1	1	R1456D
1512.699	0.001	1799781	WORD_OFF	n/a	n/a	TABLE	Furniture	12	12	[0, 0, 0]	n/a	catFR1	1	R1456D
1512.7	0.001	1799787	PROB	24.299	n/a	n/a	n/a	-999	12	[4, 6, 6]	16.0	catFR1	1	R1456D
1512.701	0.0	1799788	START	n/a	n/a	n/a	n/a	-999	12	[-999, -999, -999]	n/a	catFR1	1	R1456D
1512.7	0.001	1799789	ENCODING_END	n/a	n/a	n/a	n/a	-999	12	[0, 0, 0]	n/a	catFR1	1	R1456D
1512.701	24.315	1799789	DISTRACT_START	n/a	n/a	n/a	n/a	-999	12	[0, 0, 0]	n/a	catFR1	1	R1456D
1537.016	0.0	1824101	STOP	n/a	n/a	n/a	n/a	-999	12	[-999, -999, -999]	n/a	catFR1	1	R1456D
1537.016	2.183	1824102	DISTRACT_END	n/a	n/a	n/a	n/a	-999	12	[0, 0, 0]	n/a	catFR1	1	R1456D
1539.199	1.907	1826278	REC_START	n/a	n/a	n/a	n/a	-999	12	[0, 0, 0]	n/a	catFR1	1	R1456D
1541.106	0.553	1828191	REC_WORD_VV	1.907	n/a	<>	n/a	-999	12	[0, 0, 0]	n/a	catFR1	1	R1456D
1541.659	3.572	1828744	REC_WORD	2.46	n/a	SOFA	Furniture	11	12	[0, 0, 0]	n/a	catFR1	1	R1456D
1545.231	5.848	1832316	REC_WORD_VV	6.032	n/a	<>	n/a	-999	12	[0, 0, 0]	n/a	catFR1	1	R1456D
1551.079	18.374	1838164	REC_WORD_VV	11.88	n/a	<>	n/a	-999	12	[0, 0, 0]	n/a	catFR1	1	R1456D
1569.453	0.0	1856535	REC_END	n/a	n/a	n/a	n/a	-999	12	[0, 0, 0]	n/a	catFR1	1	R1456D
