onset	duration	sample	trial_type	response_time	stim_file	item_name	category	serialpos	list	test	answer	experiment	session	subject
0.0	0.0	28296	INSTRUCT_START	n/a	n/a	n/a	n/a	-999	-999	[0, 0, 0]	n/a	catFR1	1	R1269E
0.0	10.923	28296	INSTRUCT_END	n/a	n/a	n/a	n/a	-999	-999	[0, 0, 0]	n/a	catFR1	1	R1269E
10.923	0.0	39218	SESS_START	n/a	n/a	n/a	n/a	-999	-999	[0, 0, 0]	n/a	catFR1	1	R1269E
10.923	46.501	39218	MIC_TEST	n/a	n/a	n/a	n/a	-999	-999	[0, 0, 0]	n/a	catFR1	1	R1269E
57.424	4.886	85717	PRACTICE_TRIAL	n/a	n/a	n/a	n/a	-999	-1	[0, 0, 0]	n/a	catFR1	1	R1269E
62.31	10.428	90603	COUNTDOWN_START	n/a	n/a	n/a	n/a	-999	-1	[0, 0, 0]	n/a	catFR1	1	R1269E
72.738	0.007	101031	COUNTDOWN_END	n/a	n/a	n/a	n/a	-999	-1	[0, 0, 0]	n/a	catFR1	1	R1269E
72.745	1.618	101038	PRACTICE_ORIENT	n/a	n/a	n/a	n/a	-999	-1	[0, 0, 0]	n/a	catFR1	1	R1269E
74.363	2.234	102656	PRACTICE_ORIENT_OFF	n/a	n/a	n/a	n/a	-999	-1	[0, 0, 0]	n/a	catFR1	1	R1269E
76.597	1.617	104889	PRACTICE_WORD	n/a	n/a	FLOOD	n/a	-1	-1	[0, 0, 0]	n/a	catFR1	1	R1269E
78.214	1.0	106506	PRACTICE_WORD_OFF	n/a	n/a	FLOOD	n/a	-999	-1	[0, 0, 0]	n/a	catFR1	1	R1269E
79.214	1.616	107506	PRACTICE_WORD	n/a	n/a	CHEST	n/a	-1	-1	[0, 0, 0]	n/a	catFR1	1	R1269E
80.83	0.917	109122	PRACTICE_WORD_OFF	n/a	n/a	CHEST	n/a	-999	-1	[0, 0, 0]	n/a	catFR1	1	R1269E
81.747	1.618	110039	PRACTICE_WORD	n/a	n/a	ATTIC	n/a	-1	-1	[0, 0, 0]	n/a	catFR1	1	R1269E
83.365	0.883	111657	PRACTICE_WORD_OFF	n/a	n/a	ATTIC	n/a	-999	-1	[0, 0, 0]	n/a	catFR1	1	R1269E
84.248	1.616	112540	PRACTICE_WORD	n/a	n/a	BEAM	n/a	-1	-1	[0, 0, 0]	n/a	catFR1	1	R1269E
85.864	0.834	114156	PRACTICE_WORD_OFF	n/a	n/a	BEAM	n/a	-999	-1	[0, 0, 0]	n/a	catFR1	1	R1269E
86.698	1.618	114990	PRACTICE_WORD	n/a	n/a	COTTON	n/a	-1	-1	[0, 0, 0]	n/a	catFR1	1	R1269E
88.316	0.983	116608	PRACTICE_WORD_OFF	n/a	n/a	COTTON	n/a	-999	-1	[0, 0, 0]	n/a	catFR1	1	R1269E
89.299	1.616	117591	PRACTICE_WORD	n/a	n/a	WAGON	n/a	-1	-1	[0, 0, 0]	n/a	catFR1	1	R1269E
90.915	0.767	119207	PRACTICE_WORD_OFF	n/a	n/a	WAGON	n/a	-999	-1	[0, 0, 0]	n/a	catFR1	1	R1269E
91.682	1.618	119974	PRACTICE_WORD	n/a	n/a	TONGUE	n/a	-1	-1	[0, 0, 0]	n/a	catFR1	1	R1269E
93.3	0.933	121592	PRACTICE_WORD_OFF	n/a	n/a	TONGUE	n/a	-999	-1	[0, 0, 0]	n/a	catFR1	1	R1269E
94.233	1.616	122525	PRACTICE_WORD	n/a	n/a	IRON	n/a	-1	-1	[0, 0, 0]	n/a	catFR1	1	R1269E
95.849	0.967	124141	PRACTICE_WORD_OFF	n/a	n/a	IRON	n/a	-999	-1	[0, 0, 0]	n/a	catFR1	1	R1269E
96.816	1.618	125108	PRACTICE_WORD	n/a	n/a	RING	n/a	-1	-1	[0, 0, 0]	n/a	catFR1	1	R1269E
98.434	0.867	126726	PRACTICE_WORD_OFF	n/a	n/a	RING	n/a	-999	-1	[0, 0, 0]	n/a	catFR1	1	R1269E
99.301	1.616	127593	PRACTICE_WORD	n/a	n/a	RHINO	n/a	-1	-1	[0, 0, 0]	n/a	catFR1	1	R1269E
100.917	0.833	129209	PRACTICE_WORD_OFF	n/a	n/a	RHINO	n/a	-999	-1	[0, 0, 0]	n/a	catFR1	1	R1269E
101.75	1.618	130041	PRACTICE_WORD	n/a	n/a	CAMEL	n/a	-1	-1	[0, 0, 0]	n/a	catFR1	1	R1269E
103.368	0.817	131659	PRACTICE_WORD_OFF	n/a	n/a	CAMEL	n/a	-999	-1	[0, 0, 0]	n/a	catFR1	1	R1269E
104.185	1.616	132476	PRACTICE_WORD	n/a	n/a	WATCH	n/a	-1	-1	[0, 0, 0]	n/a	catFR1	1	R1269E
105.801	0.0	134092	DISTRACT_START	n/a	n/a	n/a	n/a	-999	-1	[0, 0, 0]	n/a	catFR1	1	R1269E
105.801	0.0	134092	PRACTICE_WORD_OFF	n/a	n/a	WATCH	n/a	-999	-1	[0, 0, 0]	n/a	catFR1	1	R1269E
105.801	0.001	134092	ENCODING_END	n/a	n/a	n/a	n/a	-999	-1	[0, 0, 0]	n/a	catFR1	1	R1269E
105.802	0.016	134093	START	n/a	n/a	n/a	n/a	-999	-1	[-999, -999, -999]	n/a	catFR1	1	R1269E
105.818	3.184	134109	PROB	3.155	n/a	n/a	n/a	-999	-1	[4, 5, 5]	14.0	catFR1	1	R1269E
109.002	3.101	137293	PROB	3.068	n/a	n/a	n/a	-999	-1	[3, 8, 7]	18.0	catFR1	1	R1269E
112.103	2.833	140394	PROB	2.798	n/a	n/a	n/a	-999	-1	[7, 2, 8]	17.0	catFR1	1	R1269E
114.936	3.351	143227	PROB	3.318	n/a	n/a	n/a	-999	-1	[5, 9, 5]	19.0	catFR1	1	R1269E
118.287	4.45	146578	PROB	4.413	n/a	n/a	n/a	-999	-1	[2, 8, 2]	12.0	catFR1	1	R1269E
122.737	3.34	151028	PROB	3.34	n/a	n/a	n/a	-999	-1	[2, 7, 5]	14.0	catFR1	1	R1269E
126.077	0.012	154367	STOP	n/a	n/a	n/a	n/a	-999	-1	[-999, -999, -999]	n/a	catFR1	1	R1269E
126.089	0.716	154379	DISTRACT_END	n/a	n/a	n/a	n/a	-999	-1	[0, 0, 0]	n/a	catFR1	1	R1269E
126.805	0.518	155095	RETRIEVAL_ORIENT	n/a	n/a	n/a	n/a	-999	-1	[0, 0, 0]	n/a	catFR1	1	R1269E
127.323	30.011	155613	PRACTICE_REC_START	n/a	n/a	n/a	n/a	-999	-1	[0, 0, 0]	n/a	catFR1	1	R1269E
157.334	9.394	185623	PRACTICE_REC_END	n/a	n/a	n/a	n/a	-999	-1	[0, 0, 0]	n/a	catFR1	1	R1269E
166.728	0.5	195017	TRIAL	n/a	n/a	n/a	n/a	-999	1	[0, 0, 0]	n/a	catFR1	1	R1269E
167.228	10.428	195517	COUNTDOWN_START	n/a	n/a	n/a	n/a	-999	1	[0, 0, 0]	n/a	catFR1	1	R1269E
177.656	0.007	205944	COUNTDOWN_END	n/a	n/a	n/a	n/a	-999	1	[0, 0, 0]	n/a	catFR1	1	R1269E
177.663	1.618	205951	ORIENT	n/a	n/a	n/a	n/a	-999	1	[0, 0, 0]	n/a	catFR1	1	R1269E
179.281	2.184	207569	ORIENT_OFF	n/a	n/a	n/a	n/a	-999	1	[0, 0, 0]	n/a	catFR1	1	R1269E
181.465	1.617	209753	WORD	n/a	wordpools/wordpool_categorized_EN.txt	WHISK	KitchenTools	1	1	[0, 0, 0]	n/a	catFR1	1	R1269E
183.082	1.017	211370	WORD_OFF	n/a	n/a	WHISK	n/a	1	1	[0, 0, 0]	n/a	catFR1	1	R1269E
184.099	1.616	212387	WORD	n/a	wordpools/wordpool_categorized_EN.txt	PEELER	KitchenTools	2	1	[0, 0, 0]	n/a	catFR1	1	R1269E
185.715	0.95	214003	WORD_OFF	n/a	n/a	PEELER	n/a	2	1	[0, 0, 0]	n/a	catFR1	1	R1269E
186.665	1.618	214953	WORD	n/a	wordpools/wordpool_categorized_EN.txt	LION	Zoo	3	1	[0, 0, 0]	n/a	catFR1	1	R1269E
188.283	0.917	216571	WORD_OFF	n/a	n/a	LION	n/a	3	1	[0, 0, 0]	n/a	catFR1	1	R1269E
189.2	1.616	217488	WORD	n/a	wordpools/wordpool_categorized_EN.txt	PANDA	Zoo	4	1	[0, 0, 0]	n/a	catFR1	1	R1269E
190.816	0.833	219104	WORD_OFF	n/a	n/a	PANDA	n/a	4	1	[0, 0, 0]	n/a	catFR1	1	R1269E
191.649	1.618	219937	WORD	n/a	wordpools/wordpool_categorized_EN.txt	BROWNIES	Desserts	5	1	[0, 0, 0]	n/a	catFR1	1	R1269E
193.267	1.0	221555	WORD_OFF	n/a	n/a	BROWNIES	n/a	5	1	[0, 0, 0]	n/a	catFR1	1	R1269E
194.267	1.616	222555	WORD	n/a	wordpools/wordpool_categorized_EN.txt	FUDGE	Desserts	6	1	[0, 0, 0]	n/a	catFR1	1	R1269E
195.883	0.917	224171	WORD_OFF	n/a	n/a	FUDGE	n/a	6	1	[0, 0, 0]	n/a	catFR1	1	R1269E
196.8	1.601	225088	WORD	n/a	wordpools/wordpool_categorized_EN.txt	TIGER	Zoo	7	1	[0, 0, 0]	n/a	catFR1	1	R1269E
198.401	0.867	226689	WORD_OFF	n/a	n/a	TIGER	n/a	7	1	[0, 0, 0]	n/a	catFR1	1	R1269E
199.268	1.616	227556	WORD	n/a	wordpools/wordpool_categorized_EN.txt	ORANGUTAN	Zoo	8	1	[0, 0, 0]	n/a	catFR1	1	R1269E
200.884	0.85	229171	WORD_OFF	n/a	n/a	ORANGUTAN	n/a	8	1	[0, 0, 0]	n/a	catFR1	1	R1269E
201.734	1.601	230021	WORD	n/a	wordpools/wordpool_categorized_EN.txt	CORKSCREW	KitchenTools	9	1	[0, 0, 0]	n/a	catFR1	1	R1269E
203.335	0.867	231622	WORD_OFF	n/a	n/a	CORKSCREW	n/a	9	1	[0, 0, 0]	n/a	catFR1	1	R1269E
204.202	1.616	232489	WORD	n/a	wordpools/wordpool_categorized_EN.txt	TONGS	KitchenTools	10	1	[0, 0, 0]	n/a	catFR1	1	R1269E
205.818	0.817	234105	WORD_OFF	n/a	n/a	TONGS	n/a	10	1	[0, 0, 0]	n/a	catFR1	1	R1269E
206.635	1.601	234922	WORD	n/a	wordpools/wordpool_categorized_EN.txt	COOKIE	Desserts	11	1	[0, 0, 0]	n/a	catFR1	1	R1269E
208.236	0.834	236523	WORD_OFF	n/a	n/a	COOKIE	n/a	11	1	[0, 0, 0]	n/a	catFR1	1	R1269E
209.07	1.616	237357	WORD	n/a	wordpools/wordpool_categorized_EN.txt	MOUSSE	Desserts	12	1	[0, 0, 0]	n/a	catFR1	1	R1269E
210.686	0.0	238973	WORD_OFF	n/a	n/a	MOUSSE	n/a	12	1	[0, 0, 0]	n/a	catFR1	1	R1269E
210.686	0.166	238973	ENCODING_END	n/a	n/a	n/a	n/a	-999	1	[0, 0, 0]	n/a	catFR1	1	R1269E
210.852	0.0	239139	DISTRACT_START	n/a	n/a	n/a	n/a	-999	1	[0, 0, 0]	n/a	catFR1	1	R1269E
210.852	0.017	239139	START	n/a	n/a	n/a	n/a	-999	1	[-999, -999, -999]	n/a	catFR1	1	R1269E
210.869	2.702	239156	PROB	2.668	n/a	n/a	n/a	-999	1	[6, 5, 1]	12.0	catFR1	1	R1269E
213.571	3.884	241858	PROB	3.846	n/a	n/a	n/a	-999	1	[6, 5, 3]	14.0	catFR1	1	R1269E
217.455	4.383	245742	PROB	4.345	n/a	n/a	n/a	-999	1	[6, 3, 7]	16.0	catFR1	1	R1269E
221.838	3.618	250125	PROB	3.587	n/a	n/a	n/a	-999	1	[3, 3, 5]	11.0	catFR1	1	R1269E
225.456	3.884	253742	PROB	3.849	n/a	n/a	n/a	-999	1	[7, 2, 9]	18.0	catFR1	1	R1269E
229.34	4.157	257626	PROB	4.157	n/a	n/a	n/a	-999	1	[3, 5, 8]	16.0	catFR1	1	R1269E
233.497	0.011	261783	STOP	n/a	n/a	n/a	n/a	-999	1	[-999, -999, -999]	n/a	catFR1	1	R1269E
233.508	0.633	261794	DISTRACT_END	n/a	n/a	n/a	n/a	-999	1	[0, 0, 0]	n/a	catFR1	1	R1269E
234.141	0.516	262427	RETRIEVAL_ORIENT	n/a	n/a	n/a	n/a	-999	1	[0, 0, 0]	n/a	catFR1	1	R1269E
234.657	0.714	262943	REC_START	n/a	n/a	n/a	n/a	-999	1	[0, 0, 0]	n/a	catFR1	1	R1269E
235.371	1.909	263657	REC_WORD	0.714	n/a	BROWNIES	Desserts	5	1	[0, 0, 0]	n/a	catFR1	1	R1269E
237.28	1.378	265566	REC_WORD	2.623	n/a	LION	Zoo	3	1	[0, 0, 0]	n/a	catFR1	1	R1269E
238.658	4.183	266944	REC_WORD	4.001	n/a	TIGER	Zoo	7	1	[0, 0, 0]	n/a	catFR1	1	R1269E
242.841	3.827	271127	REC_WORD	8.184	n/a	COOKIE	Desserts	11	1	[0, 0, 0]	n/a	catFR1	1	R1269E
246.668	2.663	274954	REC_WORD	12.011	n/a	ORANGUTAN	Zoo	8	1	[0, 0, 0]	n/a	catFR1	1	R1269E
249.331	4.564	277616	REC_WORD	14.674	n/a	CAMEL	n/a	-999	1	[0, 0, 0]	n/a	catFR1	1	R1269E
253.895	0.965	282180	REC_WORD_VV	19.238	n/a	<>	n/a	-999	1	[0, 0, 0]	n/a	catFR1	1	R1269E
254.86	2.084	283145	REC_WORD	20.203	n/a	STRAINER	n/a	-999	1	[0, 0, 0]	n/a	catFR1	1	R1269E
256.944	3.66	285229	REC_WORD	22.287	n/a	PEELER	KitchenTools	2	1	[0, 0, 0]	n/a	catFR1	1	R1269E
260.604	4.062	288889	REC_WORD	25.947	n/a	WHISK	KitchenTools	1	1	[0, 0, 0]	n/a	catFR1	1	R1269E
264.666	4.864	292951	REC_END	n/a	n/a	n/a	n/a	-999	1	[0, 0, 0]	n/a	catFR1	1	R1269E
269.53	0.5	297815	TRIAL	n/a	n/a	n/a	n/a	-999	2	[0, 0, 0]	n/a	catFR1	1	R1269E
270.03	10.428	298315	COUNTDOWN_START	n/a	n/a	n/a	n/a	-999	2	[0, 0, 0]	n/a	catFR1	1	R1269E
280.458	0.008	308742	COUNTDOWN_END	n/a	n/a	n/a	n/a	-999	2	[0, 0, 0]	n/a	catFR1	1	R1269E
280.466	1.617	308750	ORIENT	n/a	n/a	n/a	n/a	-999	2	[0, 0, 0]	n/a	catFR1	1	R1269E
282.083	2.033	310367	ORIENT_OFF	n/a	n/a	n/a	n/a	-999	2	[0, 0, 0]	n/a	catFR1	1	R1269E
284.116	1.616	312400	WORD	n/a	wordpools/wordpool_categorized_EN.txt	BEER	Beverages	1	2	[0, 0, 0]	n/a	catFR1	1	R1269E
285.732	0.934	314016	WORD_OFF	n/a	n/a	BEER	n/a	1	2	[0, 0, 0]	n/a	catFR1	1	R1269E
286.666	1.618	314950	WORD	n/a	wordpools/wordpool_categorized_EN.txt	MILK	Beverages	2	2	[0, 0, 0]	n/a	catFR1	1	R1269E
288.284	0.8	316568	WORD_OFF	n/a	n/a	MILK	n/a	2	2	[0, 0, 0]	n/a	catFR1	1	R1269E
289.084	1.616	317368	WORD	n/a	wordpools/wordpool_categorized_EN.txt	BOOKCASE	Furniture	3	2	[0, 0, 0]	n/a	catFR1	1	R1269E
290.7	0.801	318984	WORD_OFF	n/a	n/a	BOOKCASE	n/a	3	2	[0, 0, 0]	n/a	catFR1	1	R1269E
291.501	1.617	319785	WORD	n/a	wordpools/wordpool_categorized_EN.txt	BED	Furniture	4	2	[0, 0, 0]	n/a	catFR1	1	R1269E
293.118	0.816	321402	WORD_OFF	n/a	n/a	BED	n/a	4	2	[0, 0, 0]	n/a	catFR1	1	R1269E
293.934	1.618	322218	WORD	n/a	wordpools/wordpool_categorized_EN.txt	LEVEL	Tools	5	2	[0, 0, 0]	n/a	catFR1	1	R1269E
295.552	0.783	323836	WORD_OFF	n/a	n/a	LEVEL	n/a	5	2	[0, 0, 0]	n/a	catFR1	1	R1269E
296.335	1.616	324619	WORD	n/a	wordpools/wordpool_categorized_EN.txt	WRENCH	Tools	6	2	[0, 0, 0]	n/a	catFR1	1	R1269E
297.951	0.917	326235	WORD_OFF	n/a	n/a	WRENCH	n/a	6	2	[0, 0, 0]	n/a	catFR1	1	R1269E
298.868	1.618	327151	WORD	n/a	wordpools/wordpool_categorized_EN.txt	CHAIR	Furniture	7	2	[0, 0, 0]	n/a	catFR1	1	R1269E
300.486	0.833	328769	WORD_OFF	n/a	n/a	CHAIR	n/a	7	2	[0, 0, 0]	n/a	catFR1	1	R1269E
301.319	1.616	329602	WORD	n/a	wordpools/wordpool_categorized_EN.txt	SHELF	Furniture	8	2	[0, 0, 0]	n/a	catFR1	1	R1269E
302.935	0.884	331218	WORD_OFF	n/a	n/a	SHELF	n/a	8	2	[0, 0, 0]	n/a	catFR1	1	R1269E
303.819	1.618	332102	WORD	n/a	wordpools/wordpool_categorized_EN.txt	SODA	Beverages	9	2	[0, 0, 0]	n/a	catFR1	1	R1269E
305.437	0.783	333720	WORD_OFF	n/a	n/a	SODA	n/a	9	2	[0, 0, 0]	n/a	catFR1	1	R1269E
306.22	1.616	334503	WORD	n/a	wordpools/wordpool_categorized_EN.txt	WINE	Beverages	10	2	[0, 0, 0]	n/a	catFR1	1	R1269E
307.836	1.0	336119	WORD_OFF	n/a	n/a	WINE	n/a	10	2	[0, 0, 0]	n/a	catFR1	1	R1269E
308.836	1.601	337119	WORD	n/a	wordpools/wordpool_categorized_EN.txt	AXE	Tools	11	2	[0, 0, 0]	n/a	catFR1	1	R1269E
310.437	0.901	338720	WORD_OFF	n/a	n/a	AXE	n/a	11	2	[0, 0, 0]	n/a	catFR1	1	R1269E
311.338	1.616	339621	WORD	n/a	wordpools/wordpool_categorized_EN.txt	SAW	Tools	12	2	[0, 0, 0]	n/a	catFR1	1	R1269E
312.954	0.0	341237	ENCODING_END	n/a	n/a	n/a	n/a	-999	2	[0, 0, 0]	n/a	catFR1	1	R1269E
312.954	0.132	341237	WORD_OFF	n/a	n/a	SAW	n/a	12	2	[0, 0, 0]	n/a	catFR1	1	R1269E
313.086	0.0	341369	DISTRACT_START	n/a	n/a	n/a	n/a	-999	2	[0, 0, 0]	n/a	catFR1	1	R1269E
313.086	0.019	341369	START	n/a	n/a	n/a	n/a	-999	2	[-999, -999, -999]	n/a	catFR1	1	R1269E
313.105	4.417	341388	PROB	4.381	n/a	n/a	n/a	-999	2	[9, 5, 3]	17.0	catFR1	1	R1269E
317.522	3.2	345805	PROB	3.173	n/a	n/a	n/a	-999	2	[1, 9, 5]	15.0	catFR1	1	R1269E
320.722	3.718	349005	PROB	3.685	n/a	n/a	n/a	-999	2	[3, 4, 5]	12.0	catFR1	1	R1269E
324.44	9.286	352722	PROB	9.286	n/a	n/a	n/a	-999	2	[8, 9, 8]	25.0	catFR1	1	R1269E
333.726	0.015	362008	STOP	n/a	n/a	n/a	n/a	-999	2	[-999, -999, -999]	n/a	catFR1	1	R1269E
333.741	0.6	362023	DISTRACT_END	n/a	n/a	n/a	n/a	-999	2	[0, 0, 0]	n/a	catFR1	1	R1269E
334.341	0.517	362623	RETRIEVAL_ORIENT	n/a	n/a	n/a	n/a	-999	2	[0, 0, 0]	n/a	catFR1	1	R1269E
334.858	0.519	363140	REC_START	n/a	n/a	n/a	n/a	-999	2	[0, 0, 0]	n/a	catFR1	1	R1269E
335.377	5.298	363659	REC_WORD	0.519	n/a	LEVEL	Tools	5	2	[0, 0, 0]	n/a	catFR1	1	R1269E
340.675	1.08	368957	REC_WORD	5.817	n/a	TEA	n/a	-999	2	[0, 0, 0]	n/a	catFR1	1	R1269E
341.755	1.403	370037	REC_WORD	6.897	n/a	COLA	n/a	-999	2	[0, 0, 0]	n/a	catFR1	1	R1269E
343.158	1.146	371440	REC_WORD	8.3	n/a	BEER	Beverages	1	2	[0, 0, 0]	n/a	catFR1	1	R1269E
344.304	5.441	372586	REC_WORD	9.446	n/a	WINE	Beverages	10	2	[0, 0, 0]	n/a	catFR1	1	R1269E
349.745	6.739	378026	REC_WORD	14.887	n/a	RULER	n/a	-999	2	[0, 0, 0]	n/a	catFR1	1	R1269E
356.484	8.382	384765	REC_WORD	21.626	n/a	SCREWDRIVER	n/a	-999	2	[0, 0, 0]	n/a	catFR1	1	R1269E
364.866	5.432	393147	REC_END	n/a	n/a	n/a	n/a	-999	2	[0, 0, 0]	n/a	catFR1	1	R1269E
370.298	0.5	398579	TRIAL	n/a	n/a	n/a	n/a	-999	3	[0, 0, 0]	n/a	catFR1	1	R1269E
370.798	10.428	399079	COUNTDOWN_START	n/a	n/a	n/a	n/a	-999	3	[0, 0, 0]	n/a	catFR1	1	R1269E
381.226	0.007	409506	COUNTDOWN_END	n/a	n/a	n/a	n/a	-999	3	[0, 0, 0]	n/a	catFR1	1	R1269E
381.233	1.616	409513	ORIENT	n/a	n/a	n/a	n/a	-999	3	[0, 0, 0]	n/a	catFR1	1	R1269E
382.849	1.95	411129	ORIENT_OFF	n/a	n/a	n/a	n/a	-999	3	[0, 0, 0]	n/a	catFR1	1	R1269E
384.799	1.618	413079	WORD	n/a	wordpools/wordpool_categorized_EN.txt	COW	FarmAnimals	1	3	[0, 0, 0]	n/a	catFR1	1	R1269E
386.417	0.817	414697	WORD_OFF	n/a	n/a	COW	n/a	1	3	[0, 0, 0]	n/a	catFR1	1	R1269E
387.234	1.616	415514	WORD	n/a	wordpools/wordpool_categorized_EN.txt	CALF	FarmAnimals	2	3	[0, 0, 0]	n/a	catFR1	1	R1269E
388.85	1.0	417130	WORD_OFF	n/a	n/a	CALF	n/a	2	3	[0, 0, 0]	n/a	catFR1	1	R1269E
389.85	1.601	418130	WORD	n/a	wordpools/wordpool_categorized_EN.txt	SHRIMP	OceanAnimals	3	3	[0, 0, 0]	n/a	catFR1	1	R1269E
391.451	0.901	419731	WORD_OFF	n/a	n/a	SHRIMP	n/a	3	3	[0, 0, 0]	n/a	catFR1	1	R1269E
392.352	1.616	420632	WORD	n/a	wordpools/wordpool_categorized_EN.txt	DOLPHIN	OceanAnimals	4	3	[0, 0, 0]	n/a	catFR1	1	R1269E
393.968	0.883	422248	WORD_OFF	n/a	n/a	DOLPHIN	n/a	4	3	[0, 0, 0]	n/a	catFR1	1	R1269E
394.851	1.618	423131	WORD	n/a	wordpools/wordpool_categorized_EN.txt	BLOCKS	Toys	5	3	[0, 0, 0]	n/a	catFR1	1	R1269E
396.469	0.934	424749	WORD_OFF	n/a	n/a	BLOCKS	n/a	5	3	[0, 0, 0]	n/a	catFR1	1	R1269E
397.403	1.617	425682	WORD	n/a	wordpools/wordpool_categorized_EN.txt	FRISBEE	Toys	6	3	[0, 0, 0]	n/a	catFR1	1	R1269E
399.02	0.882	427299	WORD_OFF	n/a	n/a	FRISBEE	n/a	6	3	[0, 0, 0]	n/a	catFR1	1	R1269E
399.902	1.601	428181	WORD	n/a	wordpools/wordpool_categorized_EN.txt	OYSTER	OceanAnimals	7	3	[0, 0, 0]	n/a	catFR1	1	R1269E
401.503	0.784	429782	WORD_OFF	n/a	n/a	OYSTER	n/a	7	3	[0, 0, 0]	n/a	catFR1	1	R1269E
402.287	1.616	430566	WORD	n/a	wordpools/wordpool_categorized_EN.txt	FISH	OceanAnimals	8	3	[0, 0, 0]	n/a	catFR1	1	R1269E
403.903	0.883	432182	WORD_OFF	n/a	n/a	FISH	n/a	8	3	[0, 0, 0]	n/a	catFR1	1	R1269E
404.786	1.601	433065	WORD	n/a	wordpools/wordpool_categorized_EN.txt	HEN	FarmAnimals	9	3	[0, 0, 0]	n/a	catFR1	1	R1269E
406.387	0.884	434666	WORD_OFF	n/a	n/a	HEN	n/a	9	3	[0, 0, 0]	n/a	catFR1	1	R1269E
407.271	1.616	435550	WORD	n/a	wordpools/wordpool_categorized_EN.txt	CHICKEN	FarmAnimals	10	3	[0, 0, 0]	n/a	catFR1	1	R1269E
408.887	0.783	437166	WORD_OFF	n/a	n/a	CHICKEN	n/a	10	3	[0, 0, 0]	n/a	catFR1	1	R1269E
409.67	1.601	437949	WORD	n/a	wordpools/wordpool_categorized_EN.txt	MARBLES	Toys	11	3	[0, 0, 0]	n/a	catFR1	1	R1269E
411.271	0.867	439550	WORD_OFF	n/a	n/a	MARBLES	n/a	11	3	[0, 0, 0]	n/a	catFR1	1	R1269E
412.138	1.617	440417	WORD	n/a	wordpools/wordpool_categorized_EN.txt	BASKETBALL	Toys	12	3	[0, 0, 0]	n/a	catFR1	1	R1269E
413.755	0.0	442034	WORD_OFF	n/a	n/a	BASKETBALL	n/a	12	3	[0, 0, 0]	n/a	catFR1	1	R1269E
413.755	0.134	442034	ENCODING_END	n/a	n/a	n/a	n/a	-999	3	[0, 0, 0]	n/a	catFR1	1	R1269E
413.889	0.0	442168	DISTRACT_START	n/a	n/a	n/a	n/a	-999	3	[0, 0, 0]	n/a	catFR1	1	R1269E
413.889	0.016	442168	START	n/a	n/a	n/a	n/a	-999	3	[-999, -999, -999]	n/a	catFR1	1	R1269E
413.905	5.702	442184	PROB	5.668	n/a	n/a	n/a	-999	3	[9, 3, 4]	16.0	catFR1	1	R1269E
419.607	3.85	447886	PROB	3.823	n/a	n/a	n/a	-999	3	[5, 3, 9]	17.0	catFR1	1	R1269E
423.457	3.567	451735	PROB	3.533	n/a	n/a	n/a	-999	3	[3, 3, 9]	15.0	catFR1	1	R1269E
427.024	3.101	455302	PROB	3.069	n/a	n/a	n/a	-999	3	[6, 1, 7]	14.0	catFR1	1	R1269E
430.125	2.984	458403	PROB	2.951	n/a	n/a	n/a	-999	3	[1, 2, 6]	9.0	catFR1	1	R1269E
433.109	10.325	461387	PROB	10.325	n/a	n/a	n/a	-999	3	[9, 5, 7]	21.0	catFR1	1	R1269E
443.434	0.01	471712	STOP	n/a	n/a	n/a	n/a	-999	3	[-999, -999, -999]	n/a	catFR1	1	R1269E
443.444	0.617	471722	DISTRACT_END	n/a	n/a	n/a	n/a	-999	3	[0, 0, 0]	n/a	catFR1	1	R1269E
444.061	0.517	472339	RETRIEVAL_ORIENT	n/a	n/a	n/a	n/a	-999	3	[0, 0, 0]	n/a	catFR1	1	R1269E
444.578	0.404	472856	REC_START	n/a	n/a	n/a	n/a	-999	3	[0, 0, 0]	n/a	catFR1	1	R1269E
444.982	1.154	473260	REC_WORD	0.404	n/a	MARBLES	Toys	11	3	[0, 0, 0]	n/a	catFR1	1	R1269E
446.136	4.847	474414	REC_WORD	1.558	n/a	BASKETBALL	Toys	12	3	[0, 0, 0]	n/a	catFR1	1	R1269E
450.983	5.619	479260	REC_WORD	6.405	n/a	TENNIS	n/a	-999	3	[0, 0, 0]	n/a	catFR1	1	R1269E
456.602	1.063	484879	REC_WORD_VV	12.024	n/a	<>	n/a	-999	3	[0, 0, 0]	n/a	catFR1	1	R1269E
457.665	0.824	485942	REC_WORD	13.087	n/a	HEN	FarmAnimals	9	3	[0, 0, 0]	n/a	catFR1	1	R1269E
458.489	2.048	486766	REC_WORD	13.911	n/a	CHICKEN	FarmAnimals	10	3	[0, 0, 0]	n/a	catFR1	1	R1269E
460.537	1.085	488814	REC_WORD	15.959	n/a	COW	FarmAnimals	1	3	[0, 0, 0]	n/a	catFR1	1	R1269E
461.622	6.938	489899	REC_WORD	17.044	n/a	CALF	FarmAnimals	2	3	[0, 0, 0]	n/a	catFR1	1	R1269E
468.56	3.407	496837	REC_WORD	23.982	n/a	PIG	n/a	-999	3	[0, 0, 0]	n/a	catFR1	1	R1269E
471.967	2.62	500243	REC_WORD	27.389	n/a	HORSE	n/a	-999	3	[0, 0, 0]	n/a	catFR1	1	R1269E
474.587	5.763	502863	REC_END	n/a	n/a	n/a	n/a	-999	3	[0, 0, 0]	n/a	catFR1	1	R1269E
480.35	0.5	508626	TRIAL	n/a	n/a	n/a	n/a	-999	4	[0, 0, 0]	n/a	catFR1	1	R1269E
480.85	10.428	509126	COUNTDOWN_START	n/a	n/a	n/a	n/a	-999	4	[0, 0, 0]	n/a	catFR1	1	R1269E
491.278	0.008	519554	COUNTDOWN_END	n/a	n/a	n/a	n/a	-999	4	[0, 0, 0]	n/a	catFR1	1	R1269E
491.286	1.616	519562	ORIENT	n/a	n/a	n/a	n/a	-999	4	[0, 0, 0]	n/a	catFR1	1	R1269E
492.902	2.351	521178	ORIENT_OFF	n/a	n/a	n/a	n/a	-999	4	[0, 0, 0]	n/a	catFR1	1	R1269E
495.253	1.616	523529	WORD	n/a	wordpools/wordpool_categorized_EN.txt	CROWBAR	Tools	1	4	[0, 0, 0]	n/a	catFR1	1	R1269E
496.869	0.817	525144	WORD_OFF	n/a	n/a	CROWBAR	n/a	1	4	[0, 0, 0]	n/a	catFR1	1	R1269E
497.686	1.618	525961	WORD	n/a	wordpools/wordpool_categorized_EN.txt	HAMMER	Tools	2	4	[0, 0, 0]	n/a	catFR1	1	R1269E
499.304	0.967	527579	WORD_OFF	n/a	n/a	HAMMER	n/a	2	4	[0, 0, 0]	n/a	catFR1	1	R1269E
500.271	1.616	528546	WORD	n/a	wordpools/wordpool_categorized_EN.txt	KNIFE	KitchenTools	3	4	[0, 0, 0]	n/a	catFR1	1	R1269E
501.887	0.783	530162	WORD_OFF	n/a	n/a	KNIFE	n/a	3	4	[0, 0, 0]	n/a	catFR1	1	R1269E
502.67	1.618	530945	WORD	n/a	wordpools/wordpool_categorized_EN.txt	SPOON	KitchenTools	4	4	[0, 0, 0]	n/a	catFR1	1	R1269E
504.288	0.967	532563	WORD_OFF	n/a	n/a	SPOON	n/a	4	4	[0, 0, 0]	n/a	catFR1	1	R1269E
505.255	1.616	533530	WORD	n/a	wordpools/wordpool_categorized_EN.txt	IRON	Appliances	5	4	[0, 0, 0]	n/a	catFR1	1	R1269E
506.871	0.883	535146	WORD_OFF	n/a	n/a	IRON	n/a	5	4	[0, 0, 0]	n/a	catFR1	1	R1269E
507.754	1.618	536029	WORD	n/a	wordpools/wordpool_categorized_EN.txt	OVEN	Appliances	6	4	[0, 0, 0]	n/a	catFR1	1	R1269E
509.372	0.817	537647	WORD_OFF	n/a	n/a	OVEN	n/a	6	4	[0, 0, 0]	n/a	catFR1	1	R1269E
510.189	1.616	538464	WORD	n/a	wordpools/wordpool_categorized_EN.txt	STRAINER	KitchenTools	7	4	[0, 0, 0]	n/a	catFR1	1	R1269E
511.805	0.801	540080	WORD_OFF	n/a	n/a	STRAINER	n/a	7	4	[0, 0, 0]	n/a	catFR1	1	R1269E
512.606	1.617	540881	WORD	n/a	wordpools/wordpool_categorized_EN.txt	FORK	KitchenTools	8	4	[0, 0, 0]	n/a	catFR1	1	R1269E
514.223	1.0	542498	WORD_OFF	n/a	n/a	FORK	n/a	8	4	[0, 0, 0]	n/a	catFR1	1	R1269E
515.223	1.616	543498	WORD	n/a	wordpools/wordpool_categorized_EN.txt	DRILL	Tools	9	4	[0, 0, 0]	n/a	catFR1	1	R1269E
516.839	0.934	545114	WORD_OFF	n/a	n/a	DRILL	n/a	9	4	[0, 0, 0]	n/a	catFR1	1	R1269E
517.773	1.618	546048	WORD	n/a	wordpools/wordpool_categorized_EN.txt	SCREWDRIVER	Tools	10	4	[0, 0, 0]	n/a	catFR1	1	R1269E
519.391	0.833	547666	WORD_OFF	n/a	n/a	SCREWDRIVER	n/a	10	4	[0, 0, 0]	n/a	catFR1	1	R1269E
520.224	1.616	548499	WORD	n/a	wordpools/wordpool_categorized_EN.txt	MIXER	Appliances	11	4	[0, 0, 0]	n/a	catFR1	1	R1269E
521.84	0.768	550114	WORD_OFF	n/a	n/a	MIXER	n/a	11	4	[0, 0, 0]	n/a	catFR1	1	R1269E
522.608	1.617	550882	WORD	n/a	wordpools/wordpool_categorized_EN.txt	FREEZER	Appliances	12	4	[0, 0, 0]	n/a	catFR1	1	R1269E
524.225	0.0	552499	ENCODING_END	n/a	n/a	n/a	n/a	-999	4	[0, 0, 0]	n/a	catFR1	1	R1269E
524.225	0.164	552499	WORD_OFF	n/a	n/a	FREEZER	n/a	12	4	[0, 0, 0]	n/a	catFR1	1	R1269E
524.389	0.0	552663	DISTRACT_START	n/a	n/a	n/a	n/a	-999	4	[0, 0, 0]	n/a	catFR1	1	R1269E
524.389	0.019	552663	START	n/a	n/a	n/a	n/a	-999	4	[-999, -999, -999]	n/a	catFR1	1	R1269E
524.408	3.3	552682	PROB	3.273	n/a	n/a	n/a	-999	4	[6, 3, 5]	14.0	catFR1	1	R1269E
527.708	4.785	555982	PROB	4.758	n/a	n/a	n/a	-999	4	[2, 9, 8]	19.0	catFR1	1	R1269E
532.493	4.501	560767	PROB	4.474	n/a	n/a	n/a	-999	4	[3, 5, 1]	9.0	catFR1	1	R1269E
536.994	6.916	565268	PROB	6.89	n/a	n/a	n/a	-999	4	[9, 7, 9]	25.0	catFR1	1	R1269E
543.91	2.766	572184	PROB	2.766	n/a	n/a	n/a	-999	4	[6, 5, 1]	12.0	catFR1	1	R1269E
546.676	0.019	574949	STOP	n/a	n/a	n/a	n/a	-999	4	[-999, -999, -999]	n/a	catFR1	1	R1269E
546.695	0.517	574968	DISTRACT_END	n/a	n/a	n/a	n/a	-999	4	[0, 0, 0]	n/a	catFR1	1	R1269E
547.212	0.517	575485	RETRIEVAL_ORIENT	n/a	n/a	n/a	n/a	-999	4	[0, 0, 0]	n/a	catFR1	1	R1269E
547.729	0.354	576002	REC_START	n/a	n/a	n/a	n/a	-999	4	[0, 0, 0]	n/a	catFR1	1	R1269E
548.083	0.855	576356	REC_WORD	0.354	n/a	OVEN	Appliances	6	4	[0, 0, 0]	n/a	catFR1	1	R1269E
548.938	1.227	577211	REC_WORD	1.209	n/a	TOASTER	n/a	-999	4	[0, 0, 0]	n/a	catFR1	1	R1269E
550.165	6.462	578438	REC_WORD	2.436	n/a	STRAINER	KitchenTools	7	4	[0, 0, 0]	n/a	catFR1	1	R1269E
556.627	0.939	584900	REC_WORD	8.898	n/a	CROWBAR	Tools	1	4	[0, 0, 0]	n/a	catFR1	1	R1269E
557.566	5.573	585839	REC_WORD	9.837	n/a	SCREWDRIVER	Tools	10	4	[0, 0, 0]	n/a	catFR1	1	R1269E
563.139	3.938	591412	REC_WORD	15.41	n/a	IRON	Appliances	5	4	[0, 0, 0]	n/a	catFR1	1	R1269E
567.077	5.483	595350	REC_WORD	19.348	n/a	MIXER	Appliances	11	4	[0, 0, 0]	n/a	catFR1	1	R1269E
572.56	5.178	600832	REC_WORD	24.831	n/a	DRILL	Tools	9	4	[0, 0, 0]	n/a	catFR1	1	R1269E
577.738	10.448	606010	REC_END	n/a	n/a	n/a	n/a	-999	4	[0, 0, 0]	n/a	catFR1	1	R1269E
588.186	0.5	616458	TRIAL	n/a	n/a	n/a	n/a	-999	5	[0, 0, 0]	n/a	catFR1	1	R1269E
588.686	10.428	616958	COUNTDOWN_START	n/a	n/a	n/a	n/a	-999	5	[0, 0, 0]	n/a	catFR1	1	R1269E
599.114	0.007	627385	COUNTDOWN_END	n/a	n/a	n/a	n/a	-999	5	[0, 0, 0]	n/a	catFR1	1	R1269E
599.121	1.616	627392	ORIENT	n/a	n/a	n/a	n/a	-999	5	[0, 0, 0]	n/a	catFR1	1	R1269E
600.737	2.134	629008	ORIENT_OFF	n/a	n/a	n/a	n/a	-999	5	[0, 0, 0]	n/a	catFR1	1	R1269E
602.871	1.618	631142	WORD	n/a	wordpools/wordpool_categorized_EN.txt	PLIERS	Tools	1	5	[0, 0, 0]	n/a	catFR1	1	R1269E
604.489	0.85	632760	WORD_OFF	n/a	n/a	PLIERS	n/a	1	5	[0, 0, 0]	n/a	catFR1	1	R1269E
605.339	1.616	633610	WORD	n/a	wordpools/wordpool_categorized_EN.txt	SHOVEL	Tools	2	5	[0, 0, 0]	n/a	catFR1	1	R1269E
606.955	0.917	635226	WORD_OFF	n/a	n/a	SHOVEL	n/a	2	5	[0, 0, 0]	n/a	catFR1	1	R1269E
607.872	1.618	636143	WORD	n/a	wordpools/wordpool_categorized_EN.txt	CELLO	Instruments	3	5	[0, 0, 0]	n/a	catFR1	1	R1269E
609.49	0.833	637761	WORD_OFF	n/a	n/a	CELLO	n/a	3	5	[0, 0, 0]	n/a	catFR1	1	R1269E
610.323	1.616	638594	WORD	n/a	wordpools/wordpool_categorized_EN.txt	TRUMPET	Instruments	4	5	[0, 0, 0]	n/a	catFR1	1	R1269E
611.939	0.934	640210	WORD_OFF	n/a	n/a	TRUMPET	n/a	4	5	[0, 0, 0]	n/a	catFR1	1	R1269E
612.873	1.618	641144	WORD	n/a	wordpools/wordpool_categorized_EN.txt	STRAWBERRY	Fruit	5	5	[0, 0, 0]	n/a	catFR1	1	R1269E
614.491	0.866	642762	WORD_OFF	n/a	n/a	STRAWBERRY	n/a	5	5	[0, 0, 0]	n/a	catFR1	1	R1269E
615.357	1.617	643628	WORD	n/a	wordpools/wordpool_categorized_EN.txt	LEMON	Fruit	6	5	[0, 0, 0]	n/a	catFR1	1	R1269E
616.974	0.833	645245	WORD_OFF	n/a	n/a	LEMON	n/a	6	5	[0, 0, 0]	n/a	catFR1	1	R1269E
617.807	1.618	646078	WORD	n/a	wordpools/wordpool_categorized_EN.txt	BANJO	Instruments	7	5	[0, 0, 0]	n/a	catFR1	1	R1269E
619.425	0.767	647695	WORD_OFF	n/a	n/a	BANJO	n/a	7	5	[0, 0, 0]	n/a	catFR1	1	R1269E
620.192	1.615	648462	WORD	n/a	wordpools/wordpool_categorized_EN.txt	VIOLIN	Instruments	8	5	[0, 0, 0]	n/a	catFR1	1	R1269E
621.807	0.934	650077	WORD_OFF	n/a	n/a	VIOLIN	n/a	8	5	[0, 0, 0]	n/a	catFR1	1	R1269E
622.741	1.618	651011	WORD	n/a	wordpools/wordpool_categorized_EN.txt	RATCHET	Tools	9	5	[0, 0, 0]	n/a	catFR1	1	R1269E
624.359	0.9	652629	WORD_OFF	n/a	n/a	RATCHET	n/a	9	5	[0, 0, 0]	n/a	catFR1	1	R1269E
625.259	1.616	653529	WORD	n/a	wordpools/wordpool_categorized_EN.txt	SANDER	Tools	10	5	[0, 0, 0]	n/a	catFR1	1	R1269E
626.875	0.8	655145	WORD_OFF	n/a	n/a	SANDER	n/a	10	5	[0, 0, 0]	n/a	catFR1	1	R1269E
627.675	1.618	655945	WORD	n/a	wordpools/wordpool_categorized_EN.txt	APPLE	Fruit	11	5	[0, 0, 0]	n/a	catFR1	1	R1269E
629.293	1.0	657563	WORD_OFF	n/a	n/a	APPLE	n/a	11	5	[0, 0, 0]	n/a	catFR1	1	R1269E
630.293	1.616	658563	WORD	n/a	wordpools/wordpool_categorized_EN.txt	BLUEBERRY	Fruit	12	5	[0, 0, 0]	n/a	catFR1	1	R1269E
631.909	0.0	660179	ENCODING_END	n/a	n/a	n/a	n/a	-999	5	[0, 0, 0]	n/a	catFR1	1	R1269E
631.909	0.138	660179	WORD_OFF	n/a	n/a	BLUEBERRY	n/a	12	5	[0, 0, 0]	n/a	catFR1	1	R1269E
632.047	0.0	660317	DISTRACT_START	n/a	n/a	n/a	n/a	-999	5	[0, 0, 0]	n/a	catFR1	1	R1269E
632.047	0.013	660317	START	n/a	n/a	n/a	n/a	-999	5	[-999, -999, -999]	n/a	catFR1	1	R1269E
632.06	3.284	660330	PROB	3.258	n/a	n/a	n/a	-999	5	[5, 1, 8]	14.0	catFR1	1	R1269E
635.344	3.034	663614	PROB	3.006	n/a	n/a	n/a	-999	5	[1, 8, 2]	11.0	catFR1	1	R1269E
638.378	2.767	666648	PROB	2.741	n/a	n/a	n/a	-999	5	[2, 8, 4]	14.0	catFR1	1	R1269E
641.145	4.018	669415	PROB	3.99	n/a	n/a	n/a	-999	5	[8, 5, 2]	15.0	catFR1	1	R1269E
645.163	3.716	673432	PROB	3.683	n/a	n/a	n/a	-999	5	[9, 5, 2]	16.0	catFR1	1	R1269E
648.879	3.168	677148	PROB	3.135	n/a	n/a	n/a	-999	5	[7, 2, 2]	11.0	catFR1	1	R1269E
652.047	6.197	680316	PROB	6.197	n/a	n/a	n/a	-999	5	[8, 4, 7]	19.0	catFR1	1	R1269E
658.244	0.021	686513	STOP	n/a	n/a	n/a	n/a	-999	5	[-999, -999, -999]	n/a	catFR1	1	R1269E
658.265	0.566	686534	DISTRACT_END	n/a	n/a	n/a	n/a	-999	5	[0, 0, 0]	n/a	catFR1	1	R1269E
658.831	0.518	687100	RETRIEVAL_ORIENT	n/a	n/a	n/a	n/a	-999	5	[0, 0, 0]	n/a	catFR1	1	R1269E
659.349	0.435	687618	REC_START	n/a	n/a	n/a	n/a	-999	5	[0, 0, 0]	n/a	catFR1	1	R1269E
659.784	1.105	688053	REC_WORD	0.435	n/a	STRAWBERRY	Fruit	5	5	[0, 0, 0]	n/a	catFR1	1	R1269E
660.889	2.495	689158	REC_WORD	1.54	n/a	LEMON	Fruit	6	5	[0, 0, 0]	n/a	catFR1	1	R1269E
663.384	4.304	691653	REC_WORD	4.035	n/a	RATCHET	Tools	9	5	[0, 0, 0]	n/a	catFR1	1	R1269E
667.688	1.833	695957	REC_WORD	8.339	n/a	SANDER	Tools	10	5	[0, 0, 0]	n/a	catFR1	1	R1269E
669.521	2.442	697789	REC_WORD	10.172	n/a	STRAWBERRY	Fruit	5	5	[0, 0, 0]	n/a	catFR1	1	R1269E
671.963	17.396	700231	REC_WORD	12.614	n/a	PEACH	n/a	-999	5	[0, 0, 0]	n/a	catFR1	1	R1269E
689.359	5.729	717627	REC_END	n/a	n/a	n/a	n/a	-999	5	[0, 0, 0]	n/a	catFR1	1	R1269E
695.088	0.5	723355	TRIAL	n/a	n/a	n/a	n/a	-999	6	[0, 0, 0]	n/a	catFR1	1	R1269E
695.588	10.428	723855	COUNTDOWN_START	n/a	n/a	n/a	n/a	-999	6	[0, 0, 0]	n/a	catFR1	1	R1269E
706.016	0.007	734283	COUNTDOWN_END	n/a	n/a	n/a	n/a	-999	6	[0, 0, 0]	n/a	catFR1	1	R1269E
706.023	1.616	734290	ORIENT	n/a	n/a	n/a	n/a	-999	6	[0, 0, 0]	n/a	catFR1	1	R1269E
707.639	1.901	735906	ORIENT_OFF	n/a	n/a	n/a	n/a	-999	6	[0, 0, 0]	n/a	catFR1	1	R1269E
709.54	1.617	737807	WORD	n/a	wordpools/wordpool_categorized_EN.txt	ROBIN	Birds	1	6	[0, 0, 0]	n/a	catFR1	1	R1269E
711.157	1.001	739424	WORD_OFF	n/a	n/a	ROBIN	n/a	1	6	[0, 0, 0]	n/a	catFR1	1	R1269E
712.158	1.616	740425	WORD	n/a	wordpools/wordpool_categorized_EN.txt	GOOSE	Birds	2	6	[0, 0, 0]	n/a	catFR1	1	R1269E
713.774	0.801	742041	WORD_OFF	n/a	n/a	GOOSE	n/a	2	6	[0, 0, 0]	n/a	catFR1	1	R1269E
714.575	1.617	742842	WORD	n/a	wordpools/wordpool_categorized_EN.txt	BEACH	Landscapes	3	6	[0, 0, 0]	n/a	catFR1	1	R1269E
716.192	0.95	744459	WORD_OFF	n/a	n/a	BEACH	n/a	3	6	[0, 0, 0]	n/a	catFR1	1	R1269E
717.142	1.616	745409	WORD	n/a	wordpools/wordpool_categorized_EN.txt	VALLEY	Landscapes	4	6	[0, 0, 0]	n/a	catFR1	1	R1269E
718.758	0.851	747024	WORD_OFF	n/a	n/a	VALLEY	n/a	4	6	[0, 0, 0]	n/a	catFR1	1	R1269E
719.609	1.617	747875	WORD	n/a	wordpools/wordpool_categorized_EN.txt	BARBIE	Toys	5	6	[0, 0, 0]	n/a	catFR1	1	R1269E
721.226	0.9	749492	WORD_OFF	n/a	n/a	BARBIE	n/a	5	6	[0, 0, 0]	n/a	catFR1	1	R1269E
722.126	1.616	750392	WORD	n/a	wordpools/wordpool_categorized_EN.txt	PUZZLE	Toys	6	6	[0, 0, 0]	n/a	catFR1	1	R1269E
723.742	0.818	752008	WORD_OFF	n/a	n/a	PUZZLE	n/a	6	6	[0, 0, 0]	n/a	catFR1	1	R1269E
724.56	1.617	752826	WORD	n/a	wordpools/wordpool_categorized_EN.txt	DUCK	Birds	7	6	[0, 0, 0]	n/a	catFR1	1	R1269E
726.177	0.933	754443	WORD_OFF	n/a	n/a	DUCK	n/a	7	6	[0, 0, 0]	n/a	catFR1	1	R1269E
727.11	1.616	755376	WORD	n/a	wordpools/wordpool_categorized_EN.txt	SPARROW	Birds	8	6	[0, 0, 0]	n/a	catFR1	1	R1269E
728.726	1.0	756992	WORD_OFF	n/a	n/a	SPARROW	n/a	8	6	[0, 0, 0]	n/a	catFR1	1	R1269E
729.726	1.618	757992	WORD	n/a	wordpools/wordpool_categorized_EN.txt	FOREST	Landscapes	9	6	[0, 0, 0]	n/a	catFR1	1	R1269E
731.344	0.934	759610	WORD_OFF	n/a	n/a	FOREST	n/a	9	6	[0, 0, 0]	n/a	catFR1	1	R1269E
732.278	1.616	760544	WORD	n/a	wordpools/wordpool_categorized_EN.txt	CREEK	Landscapes	10	6	[0, 0, 0]	n/a	catFR1	1	R1269E
733.894	1.017	762160	WORD_OFF	n/a	n/a	CREEK	n/a	10	6	[0, 0, 0]	n/a	catFR1	1	R1269E
734.911	1.618	763177	WORD	n/a	wordpools/wordpool_categorized_EN.txt	DOLLHOUSE	Toys	11	6	[0, 0, 0]	n/a	catFR1	1	R1269E
736.529	0.783	764795	WORD_OFF	n/a	n/a	DOLLHOUSE	n/a	11	6	[0, 0, 0]	n/a	catFR1	1	R1269E
737.312	1.616	765578	WORD	n/a	wordpools/wordpool_categorized_EN.txt	BASEBALL	Toys	12	6	[0, 0, 0]	n/a	catFR1	1	R1269E
738.928	0.0	767194	ENCODING_END	n/a	n/a	n/a	n/a	-999	6	[0, 0, 0]	n/a	catFR1	1	R1269E
738.928	0.175	767194	WORD_OFF	n/a	n/a	BASEBALL	n/a	12	6	[0, 0, 0]	n/a	catFR1	1	R1269E
739.103	0.0	767369	DISTRACT_START	n/a	n/a	n/a	n/a	-999	6	[0, 0, 0]	n/a	catFR1	1	R1269E
739.103	0.009	767369	START	n/a	n/a	n/a	n/a	-999	6	[-999, -999, -999]	n/a	catFR1	1	R1269E
739.112	2.901	767378	PROB	2.873	n/a	n/a	n/a	-999	6	[1, 6, 5]	12.0	catFR1	1	R1269E
742.013	4.267	770279	PROB	4.229	n/a	n/a	n/a	-999	6	[2, 8, 3]	13.0	catFR1	1	R1269E
746.28	2.55	774545	PROB	2.513	n/a	n/a	n/a	-999	6	[1, 1, 9]	11.0	catFR1	1	R1269E
748.83	3.751	777095	PROB	3.723	n/a	n/a	n/a	-999	6	[5, 3, 2]	10.0	catFR1	1	R1269E
752.581	8.77	780846	PROB	8.77	n/a	n/a	n/a	-999	6	[3, 8, 3]	14.0	catFR1	1	R1269E
761.351	0.015	789616	STOP	n/a	n/a	n/a	n/a	-999	6	[-999, -999, -999]	n/a	catFR1	1	R1269E
761.366	0.667	789631	DISTRACT_END	n/a	n/a	n/a	n/a	-999	6	[0, 0, 0]	n/a	catFR1	1	R1269E
762.033	0.517	790298	RETRIEVAL_ORIENT	n/a	n/a	n/a	n/a	-999	6	[0, 0, 0]	n/a	catFR1	1	R1269E
762.55	1.929	790815	REC_START	n/a	n/a	n/a	n/a	-999	6	[0, 0, 0]	n/a	catFR1	1	R1269E
764.479	9.833	792744	REC_WORD	1.929	n/a	ROBIN	Birds	1	6	[0, 0, 0]	n/a	catFR1	1	R1269E
774.312	7.537	802576	REC_WORD	11.762	n/a	PIGEON	n/a	-999	6	[0, 0, 0]	n/a	catFR1	1	R1269E
781.849	1.282	810113	REC_WORD	19.299	n/a	MOUNTAIN	n/a	-999	6	[0, 0, 0]	n/a	catFR1	1	R1269E
783.131	1.993	811395	REC_WORD	20.581	n/a	WOODS	n/a	-999	6	[0, 0, 0]	n/a	catFR1	1	R1269E
785.124	2.872	813388	REC_WORD	22.574	n/a	CREEK	Landscapes	10	6	[0, 0, 0]	n/a	catFR1	1	R1269E
787.996	0.744	816260	REC_WORD	25.446	n/a	STREAM	n/a	-999	6	[0, 0, 0]	n/a	catFR1	1	R1269E
788.74	3.82	817004	REC_WORD	26.19	n/a	VALLEY	Landscapes	4	6	[0, 0, 0]	n/a	catFR1	1	R1269E
792.56	5.278	820823	REC_END	n/a	n/a	n/a	n/a	-999	6	[0, 0, 0]	n/a	catFR1	1	R1269E
797.838	0.5	826101	TRIAL	n/a	n/a	n/a	n/a	-999	7	[0, 0, 0]	n/a	catFR1	1	R1269E
798.338	10.428	826601	COUNTDOWN_START	n/a	n/a	n/a	n/a	-999	7	[0, 0, 0]	n/a	catFR1	1	R1269E
808.766	0.008	837029	COUNTDOWN_END	n/a	n/a	n/a	n/a	-999	7	[0, 0, 0]	n/a	catFR1	1	R1269E
808.774	1.618	837037	ORIENT	n/a	n/a	n/a	n/a	-999	7	[0, 0, 0]	n/a	catFR1	1	R1269E
810.392	2.116	838655	ORIENT_OFF	n/a	n/a	n/a	n/a	-999	7	[0, 0, 0]	n/a	catFR1	1	R1269E
812.508	1.617	840771	WORD	n/a	wordpools/wordpool_categorized_EN.txt	PLANKTON	OceanAnimals	1	7	[0, 0, 0]	n/a	catFR1	1	R1269E
814.125	0.967	842388	WORD_OFF	n/a	n/a	PLANKTON	n/a	1	7	[0, 0, 0]	n/a	catFR1	1	R1269E
815.092	1.616	843355	WORD	n/a	wordpools/wordpool_categorized_EN.txt	SQUID	OceanAnimals	2	7	[0, 0, 0]	n/a	catFR1	1	R1269E
816.708	0.784	844970	WORD_OFF	n/a	n/a	SQUID	n/a	2	7	[0, 0, 0]	n/a	catFR1	1	R1269E
817.492	1.618	845754	WORD	n/a	wordpools/wordpool_categorized_EN.txt	CUPCAKE	Desserts	3	7	[0, 0, 0]	n/a	catFR1	1	R1269E
819.11	0.832	847372	WORD_OFF	n/a	n/a	CUPCAKE	n/a	3	7	[0, 0, 0]	n/a	catFR1	1	R1269E
819.942	1.601	848204	WORD	n/a	wordpools/wordpool_categorized_EN.txt	PASTRY	Desserts	4	7	[0, 0, 0]	n/a	catFR1	1	R1269E
821.543	0.834	849805	WORD_OFF	n/a	n/a	PASTRY	n/a	4	7	[0, 0, 0]	n/a	catFR1	1	R1269E
822.377	1.617	850639	WORD	n/a	wordpools/wordpool_categorized_EN.txt	SHOES	Clothing	5	7	[0, 0, 0]	n/a	catFR1	1	R1269E
823.994	0.949	852256	WORD_OFF	n/a	n/a	SHOES	n/a	5	7	[0, 0, 0]	n/a	catFR1	1	R1269E
824.943	1.618	853205	WORD	n/a	wordpools/wordpool_categorized_EN.txt	BLOUSE	Clothing	6	7	[0, 0, 0]	n/a	catFR1	1	R1269E
826.561	0.917	854823	WORD_OFF	n/a	n/a	BLOUSE	n/a	6	7	[0, 0, 0]	n/a	catFR1	1	R1269E
827.478	1.617	855740	WORD	n/a	wordpools/wordpool_categorized_EN.txt	JELLYFISH	OceanAnimals	7	7	[0, 0, 0]	n/a	catFR1	1	R1269E
829.095	0.815	857357	WORD_OFF	n/a	n/a	JELLYFISH	n/a	7	7	[0, 0, 0]	n/a	catFR1	1	R1269E
829.91	1.602	858172	WORD	n/a	wordpools/wordpool_categorized_EN.txt	CRAB	OceanAnimals	8	7	[0, 0, 0]	n/a	catFR1	1	R1269E
831.512	0.8	859774	WORD_OFF	n/a	n/a	CRAB	n/a	8	7	[0, 0, 0]	n/a	catFR1	1	R1269E
832.312	1.616	860574	WORD	n/a	wordpools/wordpool_categorized_EN.txt	JELLO	Desserts	9	7	[0, 0, 0]	n/a	catFR1	1	R1269E
833.928	0.833	862190	WORD_OFF	n/a	n/a	JELLO	n/a	9	7	[0, 0, 0]	n/a	catFR1	1	R1269E
834.761	1.618	863023	WORD	n/a	wordpools/wordpool_categorized_EN.txt	PUDDING	Desserts	10	7	[0, 0, 0]	n/a	catFR1	1	R1269E
836.379	0.917	864641	WORD_OFF	n/a	n/a	PUDDING	n/a	10	7	[0, 0, 0]	n/a	catFR1	1	R1269E
837.296	1.616	865558	WORD	n/a	wordpools/wordpool_categorized_EN.txt	SHIRT	Clothing	11	7	[0, 0, 0]	n/a	catFR1	1	R1269E
838.912	0.9	867174	WORD_OFF	n/a	n/a	SHIRT	n/a	11	7	[0, 0, 0]	n/a	catFR1	1	R1269E
839.812	1.618	868074	WORD	n/a	wordpools/wordpool_categorized_EN.txt	SKIRT	Clothing	12	7	[0, 0, 0]	n/a	catFR1	1	R1269E
841.43	0.0	869691	WORD_OFF	n/a	n/a	SKIRT	n/a	12	7	[0, 0, 0]	n/a	catFR1	1	R1269E
841.43	0.166	869691	ENCODING_END	n/a	n/a	n/a	n/a	-999	7	[0, 0, 0]	n/a	catFR1	1	R1269E
841.596	0.0	869857	DISTRACT_START	n/a	n/a	n/a	n/a	-999	7	[0, 0, 0]	n/a	catFR1	1	R1269E
841.596	0.018	869857	START	n/a	n/a	n/a	n/a	-999	7	[-999, -999, -999]	n/a	catFR1	1	R1269E
841.614	2.733	869875	PROB	2.696	n/a	n/a	n/a	-999	7	[1, 4, 4]	9.0	catFR1	1	R1269E
844.347	7.818	872608	PROB	7.784	n/a	n/a	n/a	-999	7	[5, 8, 6]	19.0	catFR1	1	R1269E
852.165	8.235	880426	PROB	8.201	n/a	n/a	n/a	-999	7	[4, 9, 3]	16.0	catFR1	1	R1269E
860.4	8.112	888661	PROB	8.112	n/a	n/a	n/a	-999	7	[7, 7, 8]	22.0	catFR1	1	R1269E
868.512	0.006	896772	STOP	n/a	n/a	n/a	n/a	-999	7	[-999, -999, -999]	n/a	catFR1	1	R1269E
868.518	0.584	896778	DISTRACT_END	n/a	n/a	n/a	n/a	-999	7	[0, 0, 0]	n/a	catFR1	1	R1269E
869.102	0.517	897362	RETRIEVAL_ORIENT	n/a	n/a	n/a	n/a	-999	7	[0, 0, 0]	n/a	catFR1	1	R1269E
869.619	0.779	897879	REC_START	n/a	n/a	n/a	n/a	-999	7	[0, 0, 0]	n/a	catFR1	1	R1269E
870.398	2.137	898658	REC_WORD	0.779	n/a	PLANKTON	OceanAnimals	1	7	[0, 0, 0]	n/a	catFR1	1	R1269E
872.535	2.098	900795	REC_WORD	2.916	n/a	CRAB	OceanAnimals	8	7	[0, 0, 0]	n/a	catFR1	1	R1269E
874.633	18.145	902893	REC_WORD	5.014	n/a	FISH	n/a	-999	7	[0, 0, 0]	n/a	catFR1	1	R1269E
892.778	0.757	921037	REC_WORD	23.159	n/a	SHIRT	Clothing	11	7	[0, 0, 0]	n/a	catFR1	1	R1269E
893.535	1.768	921794	REC_WORD	23.916	n/a	BLOUSE	Clothing	6	7	[0, 0, 0]	n/a	catFR1	1	R1269E
895.303	1.104	923562	REC_WORD	25.684	n/a	SKIRT	Clothing	12	7	[0, 0, 0]	n/a	catFR1	1	R1269E
896.407	2.936	924666	REC_WORD	26.788	n/a	SHOES	Clothing	5	7	[0, 0, 0]	n/a	catFR1	1	R1269E
899.343	0.284	927602	REC_WORD	29.724	n/a	JACKET	n/a	-999	7	[0, 0, 0]	n/a	catFR1	1	R1269E
899.627	5.498	927886	REC_END	n/a	n/a	n/a	n/a	-999	7	[0, 0, 0]	n/a	catFR1	1	R1269E
905.125	0.5	933384	TRIAL	n/a	n/a	n/a	n/a	-999	8	[0, 0, 0]	n/a	catFR1	1	R1269E
905.625	10.428	933884	COUNTDOWN_START	n/a	n/a	n/a	n/a	-999	8	[0, 0, 0]	n/a	catFR1	1	R1269E
916.053	0.007	944311	COUNTDOWN_END	n/a	n/a	n/a	n/a	-999	8	[0, 0, 0]	n/a	catFR1	1	R1269E
916.06	1.616	944318	ORIENT	n/a	n/a	n/a	n/a	-999	8	[0, 0, 0]	n/a	catFR1	1	R1269E
917.676	2.017	945934	ORIENT_OFF	n/a	n/a	n/a	n/a	-999	8	[0, 0, 0]	n/a	catFR1	1	R1269E
919.693	1.618	947951	WORD	n/a	wordpools/wordpool_categorized_EN.txt	EVERGREEN	Trees	1	8	[0, 0, 0]	n/a	catFR1	1	R1269E
921.311	1.017	949569	WORD_OFF	n/a	n/a	EVERGREEN	n/a	1	8	[0, 0, 0]	n/a	catFR1	1	R1269E
922.328	1.616	950586	WORD	n/a	wordpools/wordpool_categorized_EN.txt	BIRCH	Trees	2	8	[0, 0, 0]	n/a	catFR1	1	R1269E
923.944	1.0	952202	WORD_OFF	n/a	n/a	BIRCH	n/a	2	8	[0, 0, 0]	n/a	catFR1	1	R1269E
924.944	1.618	953202	WORD	n/a	wordpools/wordpool_categorized_EN.txt	FLY	Insects	3	8	[0, 0, 0]	n/a	catFR1	1	R1269E
926.562	0.783	954820	WORD_OFF	n/a	n/a	FLY	n/a	3	8	[0, 0, 0]	n/a	catFR1	1	R1269E
927.345	1.616	955603	WORD	n/a	wordpools/wordpool_categorized_EN.txt	BEETLE	Insects	4	8	[0, 0, 0]	n/a	catFR1	1	R1269E
928.961	0.984	957219	WORD_OFF	n/a	n/a	BEETLE	n/a	4	8	[0, 0, 0]	n/a	catFR1	1	R1269E
929.945	1.618	958203	WORD	n/a	wordpools/wordpool_categorized_EN.txt	GLUE	OfficeSupplies	5	8	[0, 0, 0]	n/a	catFR1	1	R1269E
931.563	0.767	959821	WORD_OFF	n/a	n/a	GLUE	n/a	5	8	[0, 0, 0]	n/a	catFR1	1	R1269E
932.33	1.615	960588	WORD	n/a	wordpools/wordpool_categorized_EN.txt	PEN	OfficeSupplies	6	8	[0, 0, 0]	n/a	catFR1	1	R1269E
933.945	0.784	962203	WORD_OFF	n/a	n/a	PEN	n/a	6	8	[0, 0, 0]	n/a	catFR1	1	R1269E
934.729	1.618	962987	WORD	n/a	wordpools/wordpool_categorized_EN.txt	ROACH	Insects	7	8	[0, 0, 0]	n/a	catFR1	1	R1269E
936.347	0.767	964605	WORD_OFF	n/a	n/a	ROACH	n/a	7	8	[0, 0, 0]	n/a	catFR1	1	R1269E
937.114	1.616	965372	WORD	n/a	wordpools/wordpool_categorized_EN.txt	LADYBUG	Insects	8	8	[0, 0, 0]	n/a	catFR1	1	R1269E
938.73	0.767	966988	WORD_OFF	n/a	n/a	LADYBUG	n/a	8	8	[0, 0, 0]	n/a	catFR1	1	R1269E
939.497	1.617	967755	WORD	n/a	wordpools/wordpool_categorized_EN.txt	WILLOW	Trees	9	8	[0, 0, 0]	n/a	catFR1	1	R1269E
941.114	0.984	969371	WORD_OFF	n/a	n/a	WILLOW	n/a	9	8	[0, 0, 0]	n/a	catFR1	1	R1269E
942.098	1.616	970355	WORD	n/a	wordpools/wordpool_categorized_EN.txt	WALNUT	Trees	10	8	[0, 0, 0]	n/a	catFR1	1	R1269E
943.714	0.933	971971	WORD_OFF	n/a	n/a	WALNUT	n/a	10	8	[0, 0, 0]	n/a	catFR1	1	R1269E
944.647	1.618	972904	WORD	n/a	wordpools/wordpool_categorized_EN.txt	MARKER	OfficeSupplies	11	8	[0, 0, 0]	n/a	catFR1	1	R1269E
946.265	0.784	974522	WORD_OFF	n/a	n/a	MARKER	n/a	11	8	[0, 0, 0]	n/a	catFR1	1	R1269E
947.049	1.616	975306	WORD	n/a	wordpools/wordpool_categorized_EN.txt	BINDER	OfficeSupplies	12	8	[0, 0, 0]	n/a	catFR1	1	R1269E
948.665	0.0	976922	ENCODING_END	n/a	n/a	n/a	n/a	-999	8	[0, 0, 0]	n/a	catFR1	1	R1269E
948.665	0.131	976922	WORD_OFF	n/a	n/a	BINDER	n/a	12	8	[0, 0, 0]	n/a	catFR1	1	R1269E
948.796	0.001	977053	DISTRACT_START	n/a	n/a	n/a	n/a	-999	8	[0, 0, 0]	n/a	catFR1	1	R1269E
948.797	0.018	977054	START	n/a	n/a	n/a	n/a	-999	8	[-999, -999, -999]	n/a	catFR1	1	R1269E
948.815	3.033	977072	PROB	2.996	n/a	n/a	n/a	-999	8	[5, 1, 2]	8.0	catFR1	1	R1269E
951.848	5.302	980105	PROB	5.275	n/a	n/a	n/a	-999	8	[4, 9, 6]	19.0	catFR1	1	R1269E
957.15	7.835	985407	PROB	7.796	n/a	n/a	n/a	-999	8	[9, 4, 2]	15.0	catFR1	1	R1269E
964.985	3.284	993241	PROB	3.25	n/a	n/a	n/a	-999	8	[4, 1, 2]	7.0	catFR1	1	R1269E
968.269	3.141	996525	PROB	3.141	n/a	n/a	n/a	-999	8	[1, 1, 3]	5.0	catFR1	1	R1269E
971.41	0.01	999666	STOP	n/a	n/a	n/a	n/a	-999	8	[-999, -999, -999]	n/a	catFR1	1	R1269E
971.42	0.583	999676	DISTRACT_END	n/a	n/a	n/a	n/a	-999	8	[0, 0, 0]	n/a	catFR1	1	R1269E
972.003	0.518	1000259	RETRIEVAL_ORIENT	n/a	n/a	n/a	n/a	-999	8	[0, 0, 0]	n/a	catFR1	1	R1269E
972.521	0.324	1000777	REC_START	n/a	n/a	n/a	n/a	-999	8	[0, 0, 0]	n/a	catFR1	1	R1269E
972.845	0.737	1001101	REC_WORD	0.324	n/a	BIRCH	Trees	2	8	[0, 0, 0]	n/a	catFR1	1	R1269E
973.582	3.597	1001838	REC_WORD	1.061	n/a	EVERGREEN	Trees	1	8	[0, 0, 0]	n/a	catFR1	1	R1269E
977.179	2.781	1005435	REC_WORD	4.658	n/a	LADYBUG	Insects	8	8	[0, 0, 0]	n/a	catFR1	1	R1269E
979.96	2.952	1008216	REC_WORD	7.439	n/a	WILLOW	Trees	9	8	[0, 0, 0]	n/a	catFR1	1	R1269E
982.912	4.823	1011168	REC_WORD	10.391	n/a	FLY	Insects	3	8	[0, 0, 0]	n/a	catFR1	1	R1269E
987.735	10.821	1015991	REC_WORD	15.214	n/a	ELM	n/a	-999	8	[0, 0, 0]	n/a	catFR1	1	R1269E
998.556	0.551	1026811	REC_WORD	26.035	n/a	ELM	n/a	-999	8	[0, 0, 0]	n/a	catFR1	1	R1269E
999.107	1.0	1027362	REC_WORD_VV	26.586	n/a	<>	n/a	-999	8	[0, 0, 0]	n/a	catFR1	1	R1269E
1000.107	0.257	1028362	REC_WORD_VV	27.586	n/a	<>	n/a	-999	8	[0, 0, 0]	n/a	catFR1	1	R1269E
1000.364	2.165	1028619	REC_WORD	27.843	n/a	ELM	n/a	-999	8	[0, 0, 0]	n/a	catFR1	1	R1269E
1002.529	5.764	1030784	REC_END	n/a	n/a	n/a	n/a	-999	8	[0, 0, 0]	n/a	catFR1	1	R1269E
1008.293	0.5	1036548	TRIAL	n/a	n/a	n/a	n/a	-999	9	[0, 0, 0]	n/a	catFR1	1	R1269E
1008.793	10.428	1037048	COUNTDOWN_START	n/a	n/a	n/a	n/a	-999	9	[0, 0, 0]	n/a	catFR1	1	R1269E
1019.221	0.007	1047475	COUNTDOWN_END	n/a	n/a	n/a	n/a	-999	9	[0, 0, 0]	n/a	catFR1	1	R1269E
1019.228	1.616	1047482	ORIENT	n/a	n/a	n/a	n/a	-999	9	[0, 0, 0]	n/a	catFR1	1	R1269E
1020.844	1.867	1049098	ORIENT_OFF	n/a	n/a	n/a	n/a	-999	9	[0, 0, 0]	n/a	catFR1	1	R1269E
1022.711	1.618	1050965	WORD	n/a	wordpools/wordpool_categorized_EN.txt	PRINTER	Electronics	1	9	[0, 0, 0]	n/a	catFR1	1	R1269E
1024.329	0.933	1052583	WORD_OFF	n/a	n/a	PRINTER	n/a	1	9	[0, 0, 0]	n/a	catFR1	1	R1269E
1025.262	1.616	1053516	WORD	n/a	wordpools/wordpool_categorized_EN.txt	CALCULATOR	Electronics	2	9	[0, 0, 0]	n/a	catFR1	1	R1269E
1026.878	0.767	1055132	WORD_OFF	n/a	n/a	CALCULATOR	n/a	2	9	[0, 0, 0]	n/a	catFR1	1	R1269E
1027.645	1.618	1055899	WORD	n/a	wordpools/wordpool_categorized_EN.txt	WIND	Weather	3	9	[0, 0, 0]	n/a	catFR1	1	R1269E
1029.263	0.817	1057517	WORD_OFF	n/a	n/a	WIND	n/a	3	9	[0, 0, 0]	n/a	catFR1	1	R1269E
1030.08	1.616	1058334	WORD	n/a	wordpools/wordpool_categorized_EN.txt	HUMIDITY	Weather	4	9	[0, 0, 0]	n/a	catFR1	1	R1269E
1031.696	0.801	1059950	WORD_OFF	n/a	n/a	HUMIDITY	n/a	4	9	[0, 0, 0]	n/a	catFR1	1	R1269E
1032.497	1.617	1060751	WORD	n/a	wordpools/wordpool_categorized_EN.txt	PIGEON	Birds	5	9	[0, 0, 0]	n/a	catFR1	1	R1269E
1034.114	0.983	1062368	WORD_OFF	n/a	n/a	PIGEON	n/a	5	9	[0, 0, 0]	n/a	catFR1	1	R1269E
1035.097	1.616	1063351	WORD	n/a	wordpools/wordpool_categorized_EN.txt	DOVE	Birds	6	9	[0, 0, 0]	n/a	catFR1	1	R1269E
1036.713	0.802	1064967	WORD_OFF	n/a	n/a	DOVE	n/a	6	9	[0, 0, 0]	n/a	catFR1	1	R1269E
1037.515	1.616	1065769	WORD	n/a	wordpools/wordpool_categorized_EN.txt	SCANNER	Electronics	7	9	[0, 0, 0]	n/a	catFR1	1	R1269E
1039.131	0.833	1067384	WORD_OFF	n/a	n/a	SCANNER	n/a	7	9	[0, 0, 0]	n/a	catFR1	1	R1269E
1039.964	1.618	1068217	WORD	n/a	wordpools/wordpool_categorized_EN.txt	TELEVISION	Electronics	8	9	[0, 0, 0]	n/a	catFR1	1	R1269E
1041.582	0.85	1069835	WORD_OFF	n/a	n/a	TELEVISION	n/a	8	9	[0, 0, 0]	n/a	catFR1	1	R1269E
1042.432	1.617	1070685	WORD	n/a	wordpools/wordpool_categorized_EN.txt	TORNADO	Weather	9	9	[0, 0, 0]	n/a	catFR1	1	R1269E
1044.049	0.799	1072302	WORD_OFF	n/a	n/a	TORNADO	n/a	9	9	[0, 0, 0]	n/a	catFR1	1	R1269E
1044.848	1.618	1073101	WORD	n/a	wordpools/wordpool_categorized_EN.txt	SNOW	Weather	10	9	[0, 0, 0]	n/a	catFR1	1	R1269E
1046.466	0.767	1074719	WORD_OFF	n/a	n/a	SNOW	n/a	10	9	[0, 0, 0]	n/a	catFR1	1	R1269E
1047.233	1.616	1075486	WORD	n/a	wordpools/wordpool_categorized_EN.txt	SEAGULL	Birds	11	9	[0, 0, 0]	n/a	catFR1	1	R1269E
1048.849	0.783	1077102	WORD_OFF	n/a	n/a	SEAGULL	n/a	11	9	[0, 0, 0]	n/a	catFR1	1	R1269E
1049.632	1.601	1077885	WORD	n/a	wordpools/wordpool_categorized_EN.txt	CARDINAL	Birds	12	9	[0, 0, 0]	n/a	catFR1	1	R1269E
1051.233	0.001	1079486	WORD_OFF	n/a	n/a	CARDINAL	n/a	12	9	[0, 0, 0]	n/a	catFR1	1	R1269E
1051.234	0.168	1079487	ENCODING_END	n/a	n/a	n/a	n/a	-999	9	[0, 0, 0]	n/a	catFR1	1	R1269E
1051.402	0.0	1079655	DISTRACT_START	n/a	n/a	n/a	n/a	-999	9	[0, 0, 0]	n/a	catFR1	1	R1269E
1051.402	0.015	1079655	START	n/a	n/a	n/a	n/a	-999	9	[-999, -999, -999]	n/a	catFR1	1	R1269E
1051.417	3.35	1079670	PROB	3.322	n/a	n/a	n/a	-999	9	[5, 8, 1]	14.0	catFR1	1	R1269E
1054.767	3.568	1083020	PROB	3.541	n/a	n/a	n/a	-999	9	[5, 9, 2]	16.0	catFR1	1	R1269E
1058.335	6.55	1086588	PROB	6.518	n/a	n/a	n/a	-999	9	[8, 4, 6]	18.0	catFR1	1	R1269E
1064.885	4.118	1093137	PROB	4.089	n/a	n/a	n/a	-999	9	[5, 7, 2]	14.0	catFR1	1	R1269E
1069.003	7.176	1097255	PROB	7.176	n/a	n/a	n/a	-999	9	[8, 6, 7]	21.0	catFR1	1	R1269E
1076.179	0.009	1104431	STOP	n/a	n/a	n/a	n/a	-999	9	[-999, -999, -999]	n/a	catFR1	1	R1269E
1076.188	0.665	1104440	DISTRACT_END	n/a	n/a	n/a	n/a	-999	9	[0, 0, 0]	n/a	catFR1	1	R1269E
1076.853	0.519	1105105	RETRIEVAL_ORIENT	n/a	n/a	n/a	n/a	-999	9	[0, 0, 0]	n/a	catFR1	1	R1269E
1077.372	0.284	1105624	REC_START	n/a	n/a	n/a	n/a	-999	9	[0, 0, 0]	n/a	catFR1	1	R1269E
1077.656	0.893	1105908	REC_WORD	0.284	n/a	PIGEON	Birds	5	9	[0, 0, 0]	n/a	catFR1	1	R1269E
1078.549	3.972	1106801	REC_WORD	1.177	n/a	DOVE	Birds	6	9	[0, 0, 0]	n/a	catFR1	1	R1269E
1082.521	7.346	1110773	REC_WORD	5.149	n/a	CARDINAL	Birds	12	9	[0, 0, 0]	n/a	catFR1	1	R1269E
1089.867	5.148	1118118	REC_WORD	12.495	n/a	TORNADO	Weather	9	9	[0, 0, 0]	n/a	catFR1	1	R1269E
1095.015	4.647	1123266	REC_WORD	17.643	n/a	DRIZZLE	n/a	-999	9	[0, 0, 0]	n/a	catFR1	1	R1269E
1099.662	3.868	1127913	REC_WORD	22.29	n/a	THUNDER	n/a	-999	9	[0, 0, 0]	n/a	catFR1	1	R1269E
1103.53	3.852	1131781	REC_WORD	26.158	n/a	CROW	n/a	-999	9	[0, 0, 0]	n/a	catFR1	1	R1269E
1107.382	7.963	1135633	REC_END	n/a	n/a	n/a	n/a	-999	9	[0, 0, 0]	n/a	catFR1	1	R1269E
1115.345	0.5	1143595	TRIAL	n/a	n/a	n/a	n/a	-999	10	[0, 0, 0]	n/a	catFR1	1	R1269E
1115.845	10.428	1144095	COUNTDOWN_START	n/a	n/a	n/a	n/a	-999	10	[0, 0, 0]	n/a	catFR1	1	R1269E
1126.273	0.007	1154523	COUNTDOWN_END	n/a	n/a	n/a	n/a	-999	10	[0, 0, 0]	n/a	catFR1	1	R1269E
1126.28	1.616	1154530	ORIENT	n/a	n/a	n/a	n/a	-999	10	[0, 0, 0]	n/a	catFR1	1	R1269E
1127.896	2.151	1156146	ORIENT_OFF	n/a	n/a	n/a	n/a	-999	10	[0, 0, 0]	n/a	catFR1	1	R1269E
1130.047	1.616	1158297	WORD	n/a	wordpools/wordpool_categorized_EN.txt	STAIRS	Building	1	10	[0, 0, 0]	n/a	catFR1	1	R1269E
1131.663	0.802	1159913	WORD_OFF	n/a	n/a	STAIRS	n/a	1	10	[0, 0, 0]	n/a	catFR1	1	R1269E
1132.465	1.616	1160715	WORD	n/a	wordpools/wordpool_categorized_EN.txt	ATTIC	Building	2	10	[0, 0, 0]	n/a	catFR1	1	R1269E
1134.081	0.901	1162331	WORD_OFF	n/a	n/a	ATTIC	n/a	2	10	[0, 0, 0]	n/a	catFR1	1	R1269E
1134.982	1.617	1163232	WORD	n/a	wordpools/wordpool_categorized_EN.txt	VAN	Vehicles	3	10	[0, 0, 0]	n/a	catFR1	1	R1269E
1136.599	0.866	1164849	WORD_OFF	n/a	n/a	VAN	n/a	3	10	[0, 0, 0]	n/a	catFR1	1	R1269E
1137.465	1.617	1165714	WORD	n/a	wordpools/wordpool_categorized_EN.txt	SCOOTER	Vehicles	4	10	[0, 0, 0]	n/a	catFR1	1	R1269E
1139.082	0.849	1167331	WORD_OFF	n/a	n/a	SCOOTER	n/a	4	10	[0, 0, 0]	n/a	catFR1	1	R1269E
1139.931	1.618	1168180	WORD	n/a	wordpools/wordpool_categorized_EN.txt	FINCH	Birds	5	10	[0, 0, 0]	n/a	catFR1	1	R1269E
1141.549	0.767	1169798	WORD_OFF	n/a	n/a	FINCH	n/a	5	10	[0, 0, 0]	n/a	catFR1	1	R1269E
1142.316	1.616	1170565	WORD	n/a	wordpools/wordpool_categorized_EN.txt	HAWK	Birds	6	10	[0, 0, 0]	n/a	catFR1	1	R1269E
1143.932	0.8	1172181	WORD_OFF	n/a	n/a	HAWK	n/a	6	10	[0, 0, 0]	n/a	catFR1	1	R1269E
1144.732	1.618	1172981	WORD	n/a	wordpools/wordpool_categorized_EN.txt	MOTORCYCLE	Vehicles	7	10	[0, 0, 0]	n/a	catFR1	1	R1269E
1146.35	0.967	1174599	WORD_OFF	n/a	n/a	MOTORCYCLE	n/a	7	10	[0, 0, 0]	n/a	catFR1	1	R1269E
1147.317	1.616	1175566	WORD	n/a	wordpools/wordpool_categorized_EN.txt	BUS	Vehicles	8	10	[0, 0, 0]	n/a	catFR1	1	R1269E
1148.933	1.0	1177182	WORD_OFF	n/a	n/a	BUS	n/a	8	10	[0, 0, 0]	n/a	catFR1	1	R1269E
1149.933	1.618	1178182	WORD	n/a	wordpools/wordpool_categorized_EN.txt	BATHROOM	Building	9	10	[0, 0, 0]	n/a	catFR1	1	R1269E
1151.551	0.85	1179800	WORD_OFF	n/a	n/a	BATHROOM	n/a	9	10	[0, 0, 0]	n/a	catFR1	1	R1269E
1152.401	1.617	1180650	WORD	n/a	wordpools/wordpool_categorized_EN.txt	DOOR	Building	10	10	[0, 0, 0]	n/a	catFR1	1	R1269E
1154.018	0.899	1182267	WORD_OFF	n/a	n/a	DOOR	n/a	10	10	[0, 0, 0]	n/a	catFR1	1	R1269E
1154.917	1.601	1183166	WORD	n/a	wordpools/wordpool_categorized_EN.txt	CROW	Birds	11	10	[0, 0, 0]	n/a	catFR1	1	R1269E
1156.518	0.968	1184767	WORD_OFF	n/a	n/a	CROW	n/a	11	10	[0, 0, 0]	n/a	catFR1	1	R1269E
1157.486	1.617	1185735	WORD	n/a	wordpools/wordpool_categorized_EN.txt	BLUEBIRD	Birds	12	10	[0, 0, 0]	n/a	catFR1	1	R1269E
1159.103	0.0	1187352	ENCODING_END	n/a	n/a	n/a	n/a	-999	10	[0, 0, 0]	n/a	catFR1	1	R1269E
1159.103	0.13	1187352	WORD_OFF	n/a	n/a	BLUEBIRD	n/a	12	10	[0, 0, 0]	n/a	catFR1	1	R1269E
1159.233	0.0	1187482	DISTRACT_START	n/a	n/a	n/a	n/a	-999	10	[0, 0, 0]	n/a	catFR1	1	R1269E
1159.233	0.019	1187482	START	n/a	n/a	n/a	n/a	-999	10	[-999, -999, -999]	n/a	catFR1	1	R1269E
1159.252	7.769	1187501	PROB	7.737	n/a	n/a	n/a	-999	10	[6, 8, 6]	20.0	catFR1	1	R1269E
1167.021	4.334	1195269	PROB	4.304	n/a	n/a	n/a	-999	10	[9, 3, 2]	14.0	catFR1	1	R1269E
1171.355	6.416	1199603	PROB	6.384	n/a	n/a	n/a	-999	10	[4, 7, 5]	16.0	catFR1	1	R1269E
1177.771	7.119	1206019	PROB	7.119	n/a	n/a	n/a	-999	10	[4, 1, 9]	15.0	catFR1	1	R1269E
1184.89	0.016	1213138	STOP	n/a	n/a	n/a	n/a	-999	10	[-999, -999, -999]	n/a	catFR1	1	R1269E
1184.906	0.551	1213154	DISTRACT_END	n/a	n/a	n/a	n/a	-999	10	[0, 0, 0]	n/a	catFR1	1	R1269E
1185.457	0.518	1213705	RETRIEVAL_ORIENT	n/a	n/a	n/a	n/a	-999	10	[0, 0, 0]	n/a	catFR1	1	R1269E
1185.975	0.764	1214223	REC_START	n/a	n/a	n/a	n/a	-999	10	[0, 0, 0]	n/a	catFR1	1	R1269E
1186.739	0.85	1214987	REC_WORD	0.764	n/a	STAIRS	Building	1	10	[0, 0, 0]	n/a	catFR1	1	R1269E
1187.589	2.707	1215836	REC_WORD	1.614	n/a	ATTIC	Building	2	10	[0, 0, 0]	n/a	catFR1	1	R1269E
1190.296	1.552	1218543	REC_WORD	4.321	n/a	CROW	Birds	11	10	[0, 0, 0]	n/a	catFR1	1	R1269E
1191.848	1.298	1220095	REC_WORD	5.873	n/a	VAN	Vehicles	3	10	[0, 0, 0]	n/a	catFR1	1	R1269E
1193.146	1.95	1221393	REC_WORD	7.171	n/a	BUS	Vehicles	8	10	[0, 0, 0]	n/a	catFR1	1	R1269E
1195.096	1.809	1223343	REC_WORD	9.121	n/a	MOTORCYCLE	Vehicles	7	10	[0, 0, 0]	n/a	catFR1	1	R1269E
1196.905	13.757	1225152	REC_WORD	10.93	n/a	SCOOTER	Vehicles	4	10	[0, 0, 0]	n/a	catFR1	1	R1269E
1210.662	5.321	1238909	REC_WORD	24.687	n/a	CEILING	n/a	-999	10	[0, 0, 0]	n/a	catFR1	1	R1269E
1215.983	5.663	1244229	REC_END	n/a	n/a	n/a	n/a	-999	10	[0, 0, 0]	n/a	catFR1	1	R1269E
1221.646	0.5	1249892	TRIAL	n/a	n/a	n/a	n/a	-999	11	[0, 0, 0]	n/a	catFR1	1	R1269E
1222.146	10.428	1250392	COUNTDOWN_START	n/a	n/a	n/a	n/a	-999	11	[0, 0, 0]	n/a	catFR1	1	R1269E
1232.574	0.008	1260820	COUNTDOWN_END	n/a	n/a	n/a	n/a	-999	11	[0, 0, 0]	n/a	catFR1	1	R1269E
1232.582	1.617	1260828	ORIENT	n/a	n/a	n/a	n/a	-999	11	[0, 0, 0]	n/a	catFR1	1	R1269E
1234.199	2.1	1262445	ORIENT_OFF	n/a	n/a	n/a	n/a	-999	11	[0, 0, 0]	n/a	catFR1	1	R1269E
1236.299	1.616	1264544	WORD	n/a	wordpools/wordpool_categorized_EN.txt	BANANA	Fruit	1	11	[0, 0, 0]	n/a	catFR1	1	R1269E
1237.915	0.967	1266160	WORD_OFF	n/a	n/a	BANANA	n/a	1	11	[0, 0, 0]	n/a	catFR1	1	R1269E
1238.882	1.618	1267127	WORD	n/a	wordpools/wordpool_categorized_EN.txt	PEACH	Fruit	2	11	[0, 0, 0]	n/a	catFR1	1	R1269E
1240.5	0.784	1268745	WORD_OFF	n/a	n/a	PEACH	n/a	2	11	[0, 0, 0]	n/a	catFR1	1	R1269E
1241.284	1.615	1269529	WORD	n/a	wordpools/wordpool_categorized_EN.txt	BEE	Insects	3	11	[0, 0, 0]	n/a	catFR1	1	R1269E
1242.899	0.884	1271144	WORD_OFF	n/a	n/a	BEE	n/a	3	11	[0, 0, 0]	n/a	catFR1	1	R1269E
1243.783	1.601	1272028	WORD	n/a	wordpools/wordpool_categorized_EN.txt	BUTTERFLY	Insects	4	11	[0, 0, 0]	n/a	catFR1	1	R1269E
1245.384	0.867	1273629	WORD_OFF	n/a	n/a	BUTTERFLY	n/a	4	11	[0, 0, 0]	n/a	catFR1	1	R1269E
1246.251	1.616	1274496	WORD	n/a	wordpools/wordpool_categorized_EN.txt	CARROT	Vegetables	5	11	[0, 0, 0]	n/a	catFR1	1	R1269E
1247.867	0.95	1276112	WORD_OFF	n/a	n/a	CARROT	n/a	5	11	[0, 0, 0]	n/a	catFR1	1	R1269E
1248.817	1.618	1277062	WORD	n/a	wordpools/wordpool_categorized_EN.txt	POTATO	Vegetables	6	11	[0, 0, 0]	n/a	catFR1	1	R1269E
1250.435	0.834	1278680	WORD_OFF	n/a	n/a	POTATO	n/a	6	11	[0, 0, 0]	n/a	catFR1	1	R1269E
1251.269	1.616	1279514	WORD	n/a	wordpools/wordpool_categorized_EN.txt	PLUM	Fruit	7	11	[0, 0, 0]	n/a	catFR1	1	R1269E
1252.885	0.966	1281130	WORD_OFF	n/a	n/a	PLUM	n/a	7	11	[0, 0, 0]	n/a	catFR1	1	R1269E
1253.851	1.601	1282096	WORD	n/a	wordpools/wordpool_categorized_EN.txt	CHERRY	Fruit	8	11	[0, 0, 0]	n/a	catFR1	1	R1269E
1255.452	0.901	1283697	WORD_OFF	n/a	n/a	CHERRY	n/a	8	11	[0, 0, 0]	n/a	catFR1	1	R1269E
1256.353	1.616	1284598	WORD	n/a	wordpools/wordpool_categorized_EN.txt	GNAT	Insects	9	11	[0, 0, 0]	n/a	catFR1	1	R1269E
1257.969	0.85	1286214	WORD_OFF	n/a	n/a	GNAT	n/a	9	11	[0, 0, 0]	n/a	catFR1	1	R1269E
1258.819	1.618	1287064	WORD	n/a	wordpools/wordpool_categorized_EN.txt	CRICKET	Insects	10	11	[0, 0, 0]	n/a	catFR1	1	R1269E
1260.437	0.967	1288682	WORD_OFF	n/a	n/a	CRICKET	n/a	10	11	[0, 0, 0]	n/a	catFR1	1	R1269E
1261.404	1.617	1289648	WORD	n/a	wordpools/wordpool_categorized_EN.txt	PEAS	Vegetables	11	11	[0, 0, 0]	n/a	catFR1	1	R1269E
1263.021	0.866	1291265	WORD_OFF	n/a	n/a	PEAS	n/a	11	11	[0, 0, 0]	n/a	catFR1	1	R1269E
1263.887	1.617	1292131	WORD	n/a	wordpools/wordpool_categorized_EN.txt	BROCCOLI	Vegetables	12	11	[0, 0, 0]	n/a	catFR1	1	R1269E
1265.504	0.001	1293748	WORD_OFF	n/a	n/a	BROCCOLI	n/a	12	11	[0, 0, 0]	n/a	catFR1	1	R1269E
1265.505	0.131	1293749	ENCODING_END	n/a	n/a	n/a	n/a	-999	11	[0, 0, 0]	n/a	catFR1	1	R1269E
1265.636	0.0	1293880	DISTRACT_START	n/a	n/a	n/a	n/a	-999	11	[0, 0, 0]	n/a	catFR1	1	R1269E
1265.636	0.017	1293880	START	n/a	n/a	n/a	n/a	-999	11	[-999, -999, -999]	n/a	catFR1	1	R1269E
1265.653	3.369	1293897	PROB	3.338	n/a	n/a	n/a	-999	11	[3, 5, 3]	11.0	catFR1	1	R1269E
1269.022	2.633	1297266	PROB	2.601	n/a	n/a	n/a	-999	11	[5, 6, 1]	12.0	catFR1	1	R1269E
1271.655	4.868	1299899	PROB	4.833	n/a	n/a	n/a	-999	11	[9, 6, 4]	19.0	catFR1	1	R1269E
1276.523	4.551	1304767	PROB	4.517	n/a	n/a	n/a	-999	11	[8, 2, 5]	15.0	catFR1	1	R1269E
1281.074	6.203	1309318	PROB	6.203	n/a	n/a	n/a	-999	11	[9, 5, 3]	17.0	catFR1	1	R1269E
1287.277	0.015	1315520	STOP	n/a	n/a	n/a	n/a	-999	11	[-999, -999, -999]	n/a	catFR1	1	R1269E
1287.292	0.515	1315535	DISTRACT_END	n/a	n/a	n/a	n/a	-999	11	[0, 0, 0]	n/a	catFR1	1	R1269E
1287.807	0.519	1316050	RETRIEVAL_ORIENT	n/a	n/a	n/a	n/a	-999	11	[0, 0, 0]	n/a	catFR1	1	R1269E
1288.326	1.24	1316569	REC_START	n/a	n/a	n/a	n/a	-999	11	[0, 0, 0]	n/a	catFR1	1	R1269E
1289.566	12.818	1317809	REC_WORD	1.24	n/a	GNAT	Insects	9	11	[0, 0, 0]	n/a	catFR1	1	R1269E
1302.384	1.092	1330627	REC_WORD	14.058	n/a	BANANA	Fruit	1	11	[0, 0, 0]	n/a	catFR1	1	R1269E
1303.476	1.77	1331719	REC_WORD	15.15	n/a	BROCCOLI	Vegetables	12	11	[0, 0, 0]	n/a	catFR1	1	R1269E
1305.246	6.904	1333489	REC_WORD	16.92	n/a	PEACH	Fruit	2	11	[0, 0, 0]	n/a	catFR1	1	R1269E
1312.15	6.184	1340392	REC_WORD	23.824	n/a	PEAS	Vegetables	11	11	[0, 0, 0]	n/a	catFR1	1	R1269E
1318.334	5.164	1346576	REC_END	n/a	n/a	n/a	n/a	-999	11	[0, 0, 0]	n/a	catFR1	1	R1269E
1323.498	0.5	1351740	TRIAL	n/a	n/a	n/a	n/a	-999	12	[0, 0, 0]	n/a	catFR1	1	R1269E
1323.998	10.428	1352240	COUNTDOWN_START	n/a	n/a	n/a	n/a	-999	12	[0, 0, 0]	n/a	catFR1	1	R1269E
1334.426	0.007	1362668	COUNTDOWN_END	n/a	n/a	n/a	n/a	-999	12	[0, 0, 0]	n/a	catFR1	1	R1269E
1334.433	1.617	1362675	ORIENT	n/a	n/a	n/a	n/a	-999	12	[0, 0, 0]	n/a	catFR1	1	R1269E
1336.05	2.251	1364291	ORIENT_OFF	n/a	n/a	n/a	n/a	-999	12	[0, 0, 0]	n/a	catFR1	1	R1269E
1338.301	1.615	1366542	WORD	n/a	wordpools/wordpool_categorized_EN.txt	ONION	Vegetables	1	12	[0, 0, 0]	n/a	catFR1	1	R1269E
1339.916	0.934	1368157	WORD_OFF	n/a	n/a	ONION	n/a	1	12	[0, 0, 0]	n/a	catFR1	1	R1269E
1340.85	1.618	1369091	WORD	n/a	wordpools/wordpool_categorized_EN.txt	CAULIFLOWER	Vegetables	2	12	[0, 0, 0]	n/a	catFR1	1	R1269E
1342.468	0.85	1370709	WORD_OFF	n/a	n/a	CAULIFLOWER	n/a	2	12	[0, 0, 0]	n/a	catFR1	1	R1269E
1343.318	1.616	1371559	WORD	n/a	wordpools/wordpool_categorized_EN.txt	WOODS	Landscapes	3	12	[0, 0, 0]	n/a	catFR1	1	R1269E
1344.934	0.834	1373175	WORD_OFF	n/a	n/a	WOODS	n/a	3	12	[0, 0, 0]	n/a	catFR1	1	R1269E
1345.768	1.618	1374009	WORD	n/a	wordpools/wordpool_categorized_EN.txt	RIVER	Landscapes	4	12	[0, 0, 0]	n/a	catFR1	1	R1269E
1347.386	1.0	1375627	WORD_OFF	n/a	n/a	RIVER	n/a	4	12	[0, 0, 0]	n/a	catFR1	1	R1269E
1348.386	1.617	1376627	WORD	n/a	wordpools/wordpool_categorized_EN.txt	CAR	Vehicles	5	12	[0, 0, 0]	n/a	catFR1	1	R1269E
1350.003	0.782	1378244	WORD_OFF	n/a	n/a	CAR	n/a	5	12	[0, 0, 0]	n/a	catFR1	1	R1269E
1350.785	1.618	1379026	WORD	n/a	wordpools/wordpool_categorized_EN.txt	MOPED	Vehicles	6	12	[0, 0, 0]	n/a	catFR1	1	R1269E
1352.403	0.783	1380644	WORD_OFF	n/a	n/a	MOPED	n/a	6	12	[0, 0, 0]	n/a	catFR1	1	R1269E
1353.186	1.616	1381427	WORD	n/a	wordpools/wordpool_categorized_EN.txt	HILLS	Landscapes	7	12	[0, 0, 0]	n/a	catFR1	1	R1269E
1354.802	0.768	1383043	WORD_OFF	n/a	n/a	HILLS	n/a	7	12	[0, 0, 0]	n/a	catFR1	1	R1269E
1355.57	1.617	1383811	WORD	n/a	wordpools/wordpool_categorized_EN.txt	STREAM	Landscapes	8	12	[0, 0, 0]	n/a	catFR1	1	R1269E
1357.187	0.917	1385428	WORD_OFF	n/a	n/a	STREAM	n/a	8	12	[0, 0, 0]	n/a	catFR1	1	R1269E
1358.104	1.616	1386345	WORD	n/a	wordpools/wordpool_categorized_EN.txt	SPINACH	Vegetables	9	12	[0, 0, 0]	n/a	catFR1	1	R1269E
1359.72	0.801	1387960	WORD_OFF	n/a	n/a	SPINACH	n/a	9	12	[0, 0, 0]	n/a	catFR1	1	R1269E
1360.521	1.617	1388761	WORD	n/a	wordpools/wordpool_categorized_EN.txt	LETTUCE	Vegetables	10	12	[0, 0, 0]	n/a	catFR1	1	R1269E
1362.138	0.984	1390378	WORD_OFF	n/a	n/a	LETTUCE	n/a	10	12	[0, 0, 0]	n/a	catFR1	1	R1269E
1363.122	1.615	1391362	WORD	n/a	wordpools/wordpool_categorized_EN.txt	PLANE	Vehicles	11	12	[0, 0, 0]	n/a	catFR1	1	R1269E
1364.737	0.885	1392977	WORD_OFF	n/a	n/a	PLANE	n/a	11	12	[0, 0, 0]	n/a	catFR1	1	R1269E
1365.622	1.617	1393862	WORD	n/a	wordpools/wordpool_categorized_EN.txt	TRAIN	Vehicles	12	12	[0, 0, 0]	n/a	catFR1	1	R1269E
1367.239	0.0	1395479	ENCODING_END	n/a	n/a	n/a	n/a	-999	12	[0, 0, 0]	n/a	catFR1	1	R1269E
1367.239	0.17	1395479	WORD_OFF	n/a	n/a	TRAIN	n/a	12	12	[0, 0, 0]	n/a	catFR1	1	R1269E
1367.409	0.0	1395649	DISTRACT_START	n/a	n/a	n/a	n/a	-999	12	[0, 0, 0]	n/a	catFR1	1	R1269E
1367.409	0.013	1395649	START	n/a	n/a	n/a	n/a	-999	12	[-999, -999, -999]	n/a	catFR1	1	R1269E
1367.422	6.3	1395662	PROB	6.272	n/a	n/a	n/a	-999	12	[7, 8, 7]	22.0	catFR1	1	R1269E
1373.722	5.486	1401962	PROB	5.46	n/a	n/a	n/a	-999	12	[6, 2, 2]	10.0	catFR1	1	R1269E
1379.208	3.284	1407448	PROB	3.261	n/a	n/a	n/a	-999	12	[3, 5, 2]	10.0	catFR1	1	R1269E
1382.492	4.349	1410732	PROB	4.322	n/a	n/a	n/a	-999	12	[1, 6, 9]	16.0	catFR1	1	R1269E
1386.841	7.231	1415080	PROB	7.231	n/a	n/a	n/a	-999	12	[4, 5, 9]	18.0	catFR1	1	R1269E
1394.072	0.022	1422311	STOP	n/a	n/a	n/a	n/a	-999	12	[-999, -999, -999]	n/a	catFR1	1	R1269E
1394.094	0.533	1422333	DISTRACT_END	n/a	n/a	n/a	n/a	-999	12	[0, 0, 0]	n/a	catFR1	1	R1269E
1394.627	0.518	1422866	RETRIEVAL_ORIENT	n/a	n/a	n/a	n/a	-999	12	[0, 0, 0]	n/a	catFR1	1	R1269E
1395.145	0.339	1423384	REC_START	n/a	n/a	n/a	n/a	-999	12	[0, 0, 0]	n/a	catFR1	1	R1269E
1395.484	0.58	1423723	REC_WORD	0.339	n/a	PLANE	Vehicles	11	12	[0, 0, 0]	n/a	catFR1	1	R1269E
1396.064	5.859	1424303	REC_WORD	0.919	n/a	TRAIN	Vehicles	12	12	[0, 0, 0]	n/a	catFR1	1	R1269E
1401.923	7.084	1430162	REC_WORD	6.778	n/a	AUTOMOBILE	n/a	-999	12	[0, 0, 0]	n/a	catFR1	1	R1269E
1409.007	4.945	1437245	REC_WORD	13.862	n/a	MOPED	Vehicles	6	12	[0, 0, 0]	n/a	catFR1	1	R1269E
1413.952	0.588	1442190	REC_WORD	18.807	n/a	RIVER	Landscapes	4	12	[0, 0, 0]	n/a	catFR1	1	R1269E
1414.54	1.696	1442778	REC_WORD	19.395	n/a	WOODS	Landscapes	3	12	[0, 0, 0]	n/a	catFR1	1	R1269E
1416.236	7.662	1444474	REC_WORD	21.091	n/a	STREAM	Landscapes	8	12	[0, 0, 0]	n/a	catFR1	1	R1269E
1423.898	1.255	1452136	REC_WORD	28.753	n/a	HILLS	Landscapes	7	12	[0, 0, 0]	n/a	catFR1	1	R1269E
1425.153	6.981	1453391	REC_END	n/a	n/a	n/a	n/a	-999	12	[0, 0, 0]	n/a	catFR1	1	R1269E
1432.134	0.5	1460372	TRIAL	n/a	n/a	n/a	n/a	-999	13	[0, 0, 0]	n/a	catFR1	1	R1269E
1432.634	10.428	1460872	COUNTDOWN_START	n/a	n/a	n/a	n/a	-999	13	[0, 0, 0]	n/a	catFR1	1	R1269E
1443.062	0.007	1471299	COUNTDOWN_END	n/a	n/a	n/a	n/a	-999	13	[0, 0, 0]	n/a	catFR1	1	R1269E
1443.069	1.616	1471306	ORIENT	n/a	n/a	n/a	n/a	-999	13	[0, 0, 0]	n/a	catFR1	1	R1269E
1444.685	2.184	1472922	ORIENT_OFF	n/a	n/a	n/a	n/a	-999	13	[0, 0, 0]	n/a	catFR1	1	R1269E
1446.869	1.618	1475106	WORD	n/a	wordpools/wordpool_categorized_EN.txt	DRESSER	Furniture	1	13	[0, 0, 0]	n/a	catFR1	1	R1269E
1448.487	0.899	1476724	WORD_OFF	n/a	n/a	DRESSER	n/a	1	13	[0, 0, 0]	n/a	catFR1	1	R1269E
1449.386	1.618	1477623	WORD	n/a	wordpools/wordpool_categorized_EN.txt	TABLE	Furniture	2	13	[0, 0, 0]	n/a	catFR1	1	R1269E
1451.004	0.765	1479241	WORD_OFF	n/a	n/a	TABLE	n/a	2	13	[0, 0, 0]	n/a	catFR1	1	R1269E
1451.769	1.601	1480006	WORD	n/a	wordpools/wordpool_categorized_EN.txt	GRAPE	Fruit	3	13	[0, 0, 0]	n/a	catFR1	1	R1269E
1453.37	0.784	1481607	WORD_OFF	n/a	n/a	GRAPE	n/a	3	13	[0, 0, 0]	n/a	catFR1	1	R1269E
1454.154	1.616	1482391	WORD	n/a	wordpools/wordpool_categorized_EN.txt	PEAR	Fruit	4	13	[0, 0, 0]	n/a	catFR1	1	R1269E
1455.77	0.867	1484007	WORD_OFF	n/a	n/a	PEAR	n/a	4	13	[0, 0, 0]	n/a	catFR1	1	R1269E
1456.637	1.618	1484874	WORD	n/a	wordpools/wordpool_categorized_EN.txt	STEREO	Electronics	5	13	[0, 0, 0]	n/a	catFR1	1	R1269E
1458.255	0.9	1486491	WORD_OFF	n/a	n/a	STEREO	n/a	5	13	[0, 0, 0]	n/a	catFR1	1	R1269E
1459.155	1.616	1487391	WORD	n/a	wordpools/wordpool_categorized_EN.txt	HEADPHONES	Electronics	6	13	[0, 0, 0]	n/a	catFR1	1	R1269E
1460.771	0.9	1489007	WORD_OFF	n/a	n/a	HEADPHONES	n/a	6	13	[0, 0, 0]	n/a	catFR1	1	R1269E
1461.671	1.618	1489907	WORD	n/a	wordpools/wordpool_categorized_EN.txt	NIGHTSTAND	Furniture	7	13	[0, 0, 0]	n/a	catFR1	1	R1269E
1463.289	0.9	1491525	WORD_OFF	n/a	n/a	NIGHTSTAND	n/a	7	13	[0, 0, 0]	n/a	catFR1	1	R1269E
1464.189	1.616	1492425	WORD	n/a	wordpools/wordpool_categorized_EN.txt	CABINET	Furniture	8	13	[0, 0, 0]	n/a	catFR1	1	R1269E
1465.805	0.934	1494041	WORD_OFF	n/a	n/a	CABINET	n/a	8	13	[0, 0, 0]	n/a	catFR1	1	R1269E
1466.739	1.618	1494975	WORD	n/a	wordpools/wordpool_categorized_EN.txt	ORANGE	Fruit	9	13	[0, 0, 0]	n/a	catFR1	1	R1269E
1468.357	0.85	1496593	WORD_OFF	n/a	n/a	ORANGE	n/a	9	13	[0, 0, 0]	n/a	catFR1	1	R1269E
1469.207	1.616	1497443	WORD	n/a	wordpools/wordpool_categorized_EN.txt	LIME	Fruit	10	13	[0, 0, 0]	n/a	catFR1	1	R1269E
1470.823	0.9	1499059	WORD_OFF	n/a	n/a	LIME	n/a	10	13	[0, 0, 0]	n/a	catFR1	1	R1269E
1471.723	1.618	1499959	WORD	n/a	wordpools/wordpool_categorized_EN.txt	PHONE	Electronics	11	13	[0, 0, 0]	n/a	catFR1	1	R1269E
1473.341	0.783	1501577	WORD_OFF	n/a	n/a	PHONE	n/a	11	13	[0, 0, 0]	n/a	catFR1	1	R1269E
1474.124	1.616	1502360	WORD	n/a	wordpools/wordpool_categorized_EN.txt	MICROWAVE	Electronics	12	13	[0, 0, 0]	n/a	catFR1	1	R1269E
1475.74	0.001	1503976	WORD_OFF	n/a	n/a	MICROWAVE	n/a	12	13	[0, 0, 0]	n/a	catFR1	1	R1269E
1475.741	0.134	1503977	ENCODING_END	n/a	n/a	n/a	n/a	-999	13	[0, 0, 0]	n/a	catFR1	1	R1269E
1475.875	0.0	1504111	DISTRACT_START	n/a	n/a	n/a	n/a	-999	13	[0, 0, 0]	n/a	catFR1	1	R1269E
1475.875	0.015	1504111	START	n/a	n/a	n/a	n/a	-999	13	[-999, -999, -999]	n/a	catFR1	1	R1269E
1475.89	6.051	1504126	PROB	6.029	n/a	n/a	n/a	-999	13	[9, 6, 8]	23.0	catFR1	1	R1269E
1481.941	5.935	1510177	PROB	5.898	n/a	n/a	n/a	-999	13	[4, 7, 5]	16.0	catFR1	1	R1269E
1487.876	2.8	1516111	PROB	2.771	n/a	n/a	n/a	-999	13	[1, 5, 1]	7.0	catFR1	1	R1269E
1490.676	3.552	1518911	PROB	3.525	n/a	n/a	n/a	-999	13	[5, 2, 1]	8.0	catFR1	1	R1269E
1494.228	3.173	1522463	PROB	3.173	n/a	n/a	n/a	-999	13	[9, 5, 1]	15.0	catFR1	1	R1269E
1497.401	0.011	1525636	STOP	n/a	n/a	n/a	n/a	-999	13	[-999, -999, -999]	n/a	catFR1	1	R1269E
1497.412	0.633	1525647	DISTRACT_END	n/a	n/a	n/a	n/a	-999	13	[0, 0, 0]	n/a	catFR1	1	R1269E
1498.045	0.518	1526280	RETRIEVAL_ORIENT	n/a	n/a	n/a	n/a	-999	13	[0, 0, 0]	n/a	catFR1	1	R1269E
1498.563	0.169	1526798	REC_START	n/a	n/a	n/a	n/a	-999	13	[0, 0, 0]	n/a	catFR1	1	R1269E
1498.732	0.572	1526967	REC_WORD	0.169	n/a	DRESSER	Furniture	1	13	[0, 0, 0]	n/a	catFR1	1	R1269E
1499.304	0.601	1527539	REC_WORD	0.741	n/a	TABLE	Furniture	2	13	[0, 0, 0]	n/a	catFR1	1	R1269E
1499.905	0.722	1528140	REC_WORD	1.342	n/a	ORANGE	Fruit	9	13	[0, 0, 0]	n/a	catFR1	1	R1269E
1500.627	2.328	1528862	REC_WORD	2.064	n/a	NIGHTSTAND	Furniture	7	13	[0, 0, 0]	n/a	catFR1	1	R1269E
1502.955	4.121	1531190	REC_WORD	4.392	n/a	TELEVISION	n/a	-999	13	[0, 0, 0]	n/a	catFR1	1	R1269E
1507.076	5.58	1535311	REC_WORD	8.513	n/a	BED	n/a	-999	13	[0, 0, 0]	n/a	catFR1	1	R1269E
1512.656	15.915	1540890	REC_WORD	14.093	n/a	LIME	Fruit	10	13	[0, 0, 0]	n/a	catFR1	1	R1269E
1528.571	10.748	1556805	REC_END	n/a	n/a	n/a	n/a	-999	13	[0, 0, 0]	n/a	catFR1	1	R1269E
1539.319	0.5	1567552	TRIAL	n/a	n/a	n/a	n/a	-999	14	[0, 0, 0]	n/a	catFR1	1	R1269E
1539.819	10.428	1568052	COUNTDOWN_START	n/a	n/a	n/a	n/a	-999	14	[0, 0, 0]	n/a	catFR1	1	R1269E
1550.247	0.007	1578480	COUNTDOWN_END	n/a	n/a	n/a	n/a	-999	14	[0, 0, 0]	n/a	catFR1	1	R1269E
1550.254	1.616	1578487	ORIENT	n/a	n/a	n/a	n/a	-999	14	[0, 0, 0]	n/a	catFR1	1	R1269E
1551.87	1.917	1580103	ORIENT_OFF	n/a	n/a	n/a	n/a	-999	14	[0, 0, 0]	n/a	catFR1	1	R1269E
1553.787	1.618	1582020	WORD	n/a	wordpools/wordpool_categorized_EN.txt	COLA	Beverages	1	14	[0, 0, 0]	n/a	catFR1	1	R1269E
1555.405	0.784	1583638	WORD_OFF	n/a	n/a	COLA	n/a	1	14	[0, 0, 0]	n/a	catFR1	1	R1269E
1556.189	1.616	1584422	WORD	n/a	wordpools/wordpool_categorized_EN.txt	COFFEE	Beverages	2	14	[0, 0, 0]	n/a	catFR1	1	R1269E
1557.805	0.933	1586037	WORD_OFF	n/a	n/a	COFFEE	n/a	2	14	[0, 0, 0]	n/a	catFR1	1	R1269E
1558.738	1.601	1586970	WORD	n/a	wordpools/wordpool_categorized_EN.txt	SUNFLOWER	Flowers	3	14	[0, 0, 0]	n/a	catFR1	1	R1269E
1560.339	1.001	1588571	WORD_OFF	n/a	n/a	SUNFLOWER	n/a	3	14	[0, 0, 0]	n/a	catFR1	1	R1269E
1561.34	1.616	1589572	WORD	n/a	wordpools/wordpool_categorized_EN.txt	MARIGOLD	Flowers	4	14	[0, 0, 0]	n/a	catFR1	1	R1269E
1562.956	0.766	1591188	WORD_OFF	n/a	n/a	MARIGOLD	n/a	4	14	[0, 0, 0]	n/a	catFR1	1	R1269E
1563.722	1.601	1591954	WORD	n/a	wordpools/wordpool_categorized_EN.txt	BEAR	Zoo	5	14	[0, 0, 0]	n/a	catFR1	1	R1269E
1565.323	1.017	1593555	WORD_OFF	n/a	n/a	BEAR	n/a	5	14	[0, 0, 0]	n/a	catFR1	1	R1269E
1566.34	1.617	1594572	WORD	n/a	wordpools/wordpool_categorized_EN.txt	ELEPHANT	Zoo	6	14	[0, 0, 0]	n/a	catFR1	1	R1269E
1567.957	0.933	1596189	WORD_OFF	n/a	n/a	ELEPHANT	n/a	6	14	[0, 0, 0]	n/a	catFR1	1	R1269E
1568.89	1.618	1597122	WORD	n/a	wordpools/wordpool_categorized_EN.txt	RUM	Beverages	7	14	[0, 0, 0]	n/a	catFR1	1	R1269E
1570.508	1.0	1598740	WORD_OFF	n/a	n/a	RUM	n/a	7	14	[0, 0, 0]	n/a	catFR1	1	R1269E
1571.508	1.617	1599740	WORD	n/a	wordpools/wordpool_categorized_EN.txt	WATER	Beverages	8	14	[0, 0, 0]	n/a	catFR1	1	R1269E
1573.125	1.017	1601357	WORD_OFF	n/a	n/a	WATER	n/a	8	14	[0, 0, 0]	n/a	catFR1	1	R1269E
1574.142	1.616	1602374	WORD	n/a	wordpools/wordpool_categorized_EN.txt	ORCHID	Flowers	9	14	[0, 0, 0]	n/a	catFR1	1	R1269E
1575.758	0.851	1603990	WORD_OFF	n/a	n/a	ORCHID	n/a	9	14	[0, 0, 0]	n/a	catFR1	1	R1269E
1576.609	1.617	1604841	WORD	n/a	wordpools/wordpool_categorized_EN.txt	DAFFODIL	Flowers	10	14	[0, 0, 0]	n/a	catFR1	1	R1269E
1578.226	0.917	1606458	WORD_OFF	n/a	n/a	DAFFODIL	n/a	10	14	[0, 0, 0]	n/a	catFR1	1	R1269E
1579.143	1.616	1607375	WORD	n/a	wordpools/wordpool_categorized_EN.txt	MONKEY	Zoo	11	14	[0, 0, 0]	n/a	catFR1	1	R1269E
1580.759	0.9	1608991	WORD_OFF	n/a	n/a	MONKEY	n/a	11	14	[0, 0, 0]	n/a	catFR1	1	R1269E
1581.659	1.618	1609890	WORD	n/a	wordpools/wordpool_categorized_EN.txt	GORILLA	Zoo	12	14	[0, 0, 0]	n/a	catFR1	1	R1269E
1583.277	0.0	1611508	ENCODING_END	n/a	n/a	n/a	n/a	-999	14	[0, 0, 0]	n/a	catFR1	1	R1269E
1583.277	0.129	1611508	WORD_OFF	n/a	n/a	GORILLA	n/a	12	14	[0, 0, 0]	n/a	catFR1	1	R1269E
1583.406	0.001	1611637	DISTRACT_START	n/a	n/a	n/a	n/a	-999	14	[0, 0, 0]	n/a	catFR1	1	R1269E
1583.407	0.02	1611638	START	n/a	n/a	n/a	n/a	-999	14	[-999, -999, -999]	n/a	catFR1	1	R1269E
1583.427	4.551	1611658	PROB	4.515	n/a	n/a	n/a	-999	14	[2, 9, 4]	15.0	catFR1	1	R1269E
1587.978	3.783	1616209	PROB	3.747	n/a	n/a	n/a	-999	14	[5, 2, 7]	14.0	catFR1	1	R1269E
1591.761	3.385	1619992	PROB	3.35	n/a	n/a	n/a	-999	14	[3, 5, 3]	12.0	catFR1	1	R1269E
1595.146	8.364	1623377	PROB	8.364	n/a	n/a	n/a	-999	14	[9, 9, 6]	25.0	catFR1	1	R1269E
1603.51	0.021	1631741	STOP	n/a	n/a	n/a	n/a	-999	14	[-999, -999, -999]	n/a	catFR1	1	R1269E
1603.531	0.6	1631762	DISTRACT_END	n/a	n/a	n/a	n/a	-999	14	[0, 0, 0]	n/a	catFR1	1	R1269E
1604.131	0.516	1632362	RETRIEVAL_ORIENT	n/a	n/a	n/a	n/a	-999	14	[0, 0, 0]	n/a	catFR1	1	R1269E
1604.647	4.223	1632878	REC_START	n/a	n/a	n/a	n/a	-999	14	[0, 0, 0]	n/a	catFR1	1	R1269E
1608.87	0.821	1637100	REC_WORD	4.223	n/a	DAFFODIL	Flowers	10	14	[0, 0, 0]	n/a	catFR1	1	R1269E
1609.691	1.58	1637921	REC_WORD	5.044	n/a	SUNFLOWER	Flowers	3	14	[0, 0, 0]	n/a	catFR1	1	R1269E
1611.271	9.338	1639501	REC_WORD	6.624	n/a	ORCHID	Flowers	9	14	[0, 0, 0]	n/a	catFR1	1	R1269E
1620.609	2.702	1648839	REC_WORD	15.962	n/a	VIOLET	n/a	-999	14	[0, 0, 0]	n/a	catFR1	1	R1269E
1623.311	11.345	1651541	REC_WORD	18.664	n/a	DAFFODIL	Flowers	10	14	[0, 0, 0]	n/a	catFR1	1	R1269E
1634.656	5.414	1662885	REC_END	n/a	n/a	n/a	n/a	-999	14	[0, 0, 0]	n/a	catFR1	1	R1269E
1640.07	0.5	1668299	TRIAL	n/a	n/a	n/a	n/a	-999	15	[0, 0, 0]	n/a	catFR1	1	R1269E
1640.57	10.428	1668799	COUNTDOWN_START	n/a	n/a	n/a	n/a	-999	15	[0, 0, 0]	n/a	catFR1	1	R1269E
1650.998	0.007	1679227	COUNTDOWN_END	n/a	n/a	n/a	n/a	-999	15	[0, 0, 0]	n/a	catFR1	1	R1269E
1651.005	1.617	1679234	ORIENT	n/a	n/a	n/a	n/a	-999	15	[0, 0, 0]	n/a	catFR1	1	R1269E
1652.622	2.25	1680851	ORIENT_OFF	n/a	n/a	n/a	n/a	-999	15	[0, 0, 0]	n/a	catFR1	1	R1269E
1654.872	1.618	1683101	WORD	n/a	wordpools/wordpool_categorized_EN.txt	KNEE	BodyParts	1	15	[0, 0, 0]	n/a	catFR1	1	R1269E
1656.49	0.833	1684718	WORD_OFF	n/a	n/a	KNEE	n/a	1	15	[0, 0, 0]	n/a	catFR1	1	R1269E
1657.323	1.616	1685551	WORD	n/a	wordpools/wordpool_categorized_EN.txt	FOOT	BodyParts	2	15	[0, 0, 0]	n/a	catFR1	1	R1269E
1658.939	0.884	1687167	WORD_OFF	n/a	n/a	FOOT	n/a	2	15	[0, 0, 0]	n/a	catFR1	1	R1269E
1659.823	1.618	1688051	WORD	n/a	wordpools/wordpool_categorized_EN.txt	TRUCK	Vehicles	3	15	[0, 0, 0]	n/a	catFR1	1	R1269E
1661.441	1.016	1689669	WORD_OFF	n/a	n/a	TRUCK	n/a	3	15	[0, 0, 0]	n/a	catFR1	1	R1269E
1662.457	1.617	1690685	WORD	n/a	wordpools/wordpool_categorized_EN.txt	BOAT	Vehicles	4	15	[0, 0, 0]	n/a	catFR1	1	R1269E
1664.074	0.967	1692302	WORD_OFF	n/a	n/a	BOAT	n/a	4	15	[0, 0, 0]	n/a	catFR1	1	R1269E
1665.041	1.616	1693269	WORD	n/a	wordpools/wordpool_categorized_EN.txt	TUBA	Instruments	5	15	[0, 0, 0]	n/a	catFR1	1	R1269E
1666.657	0.785	1694885	WORD_OFF	n/a	n/a	TUBA	n/a	5	15	[0, 0, 0]	n/a	catFR1	1	R1269E
1667.442	1.617	1695670	WORD	n/a	wordpools/wordpool_categorized_EN.txt	DRUM	Instruments	6	15	[0, 0, 0]	n/a	catFR1	1	R1269E
1669.059	0.849	1697287	WORD_OFF	n/a	n/a	DRUM	n/a	6	15	[0, 0, 0]	n/a	catFR1	1	R1269E
1669.908	1.618	1698136	WORD	n/a	wordpools/wordpool_categorized_EN.txt	JEEP	Vehicles	7	15	[0, 0, 0]	n/a	catFR1	1	R1269E
1671.526	0.816	1699754	WORD_OFF	n/a	n/a	JEEP	n/a	7	15	[0, 0, 0]	n/a	catFR1	1	R1269E
1672.342	1.616	1700570	WORD	n/a	wordpools/wordpool_categorized_EN.txt	BIKE	Vehicles	8	15	[0, 0, 0]	n/a	catFR1	1	R1269E
1673.958	0.934	1702186	WORD_OFF	n/a	n/a	BIKE	n/a	8	15	[0, 0, 0]	n/a	catFR1	1	R1269E
1674.892	1.618	1703120	WORD	n/a	wordpools/wordpool_categorized_EN.txt	FINGERS	BodyParts	9	15	[0, 0, 0]	n/a	catFR1	1	R1269E
1676.51	0.95	1704738	WORD_OFF	n/a	n/a	FINGERS	n/a	9	15	[0, 0, 0]	n/a	catFR1	1	R1269E
1677.46	1.617	1705688	WORD	n/a	wordpools/wordpool_categorized_EN.txt	EYE	BodyParts	10	15	[0, 0, 0]	n/a	catFR1	1	R1269E
1679.077	0.95	1707305	WORD_OFF	n/a	n/a	EYE	n/a	10	15	[0, 0, 0]	n/a	catFR1	1	R1269E
1680.027	1.616	1708255	WORD	n/a	wordpools/wordpool_categorized_EN.txt	FLUTE	Instruments	11	15	[0, 0, 0]	n/a	catFR1	1	R1269E
1681.643	0.818	1709870	WORD_OFF	n/a	n/a	FLUTE	n/a	11	15	[0, 0, 0]	n/a	catFR1	1	R1269E
1682.461	1.617	1710688	WORD	n/a	wordpools/wordpool_categorized_EN.txt	BASS	Instruments	12	15	[0, 0, 0]	n/a	catFR1	1	R1269E
1684.078	0.0	1712305	ENCODING_END	n/a	n/a	n/a	n/a	-999	15	[0, 0, 0]	n/a	catFR1	1	R1269E
1684.078	0.169	1712305	WORD_OFF	n/a	n/a	BASS	n/a	12	15	[0, 0, 0]	n/a	catFR1	1	R1269E
1684.247	0.0	1712474	DISTRACT_START	n/a	n/a	n/a	n/a	-999	15	[0, 0, 0]	n/a	catFR1	1	R1269E
1684.247	0.014	1712474	START	n/a	n/a	n/a	n/a	-999	15	[-999, -999, -999]	n/a	catFR1	1	R1269E
1684.261	4.617	1712488	PROB	4.588	n/a	n/a	n/a	-999	15	[4, 4, 8]	16.0	catFR1	1	R1269E
1688.878	3.368	1717105	PROB	3.331	n/a	n/a	n/a	-999	15	[9, 1, 3]	13.0	catFR1	1	R1269E
1692.246	4.317	1720473	PROB	4.284	n/a	n/a	n/a	-999	15	[8, 3, 3]	14.0	catFR1	1	R1269E
1696.563	8.417	1724790	PROB	8.417	n/a	n/a	n/a	-999	15	[7, 4, 6]	17.0	catFR1	1	R1269E
1704.98	0.018	1733206	STOP	n/a	n/a	n/a	n/a	-999	15	[-999, -999, -999]	n/a	catFR1	1	R1269E
1704.998	0.6	1733224	DISTRACT_END	n/a	n/a	n/a	n/a	-999	15	[0, 0, 0]	n/a	catFR1	1	R1269E
1705.598	0.518	1733824	RETRIEVAL_ORIENT	n/a	n/a	n/a	n/a	-999	15	[0, 0, 0]	n/a	catFR1	1	R1269E
1706.116	1.334	1734342	REC_START	n/a	n/a	n/a	n/a	-999	15	[0, 0, 0]	n/a	catFR1	1	R1269E
1707.45	0.59	1735676	REC_WORD	1.334	n/a	BASS	Instruments	12	15	[0, 0, 0]	n/a	catFR1	1	R1269E
1708.04	0.735	1736266	REC_WORD	1.924	n/a	TUBA	Instruments	5	15	[0, 0, 0]	n/a	catFR1	1	R1269E
1708.775	7.316	1737001	REC_WORD	2.659	n/a	FLUTE	Instruments	11	15	[0, 0, 0]	n/a	catFR1	1	R1269E
1716.091	5.871	1744317	REC_WORD	9.975	n/a	DRUM	Instruments	6	15	[0, 0, 0]	n/a	catFR1	1	R1269E
1721.962	5.433	1750188	REC_WORD	15.846	n/a	CAR	n/a	-999	15	[0, 0, 0]	n/a	catFR1	1	R1269E
1727.395	0.621	1755621	REC_WORD	21.279	n/a	HAND	n/a	-999	15	[0, 0, 0]	n/a	catFR1	1	R1269E
1728.016	0.803	1756242	REC_WORD	21.9	n/a	FOOT	BodyParts	2	15	[0, 0, 0]	n/a	catFR1	1	R1269E
1728.819	7.306	1757045	REC_WORD	22.703	n/a	FINGERS	BodyParts	9	15	[0, 0, 0]	n/a	catFR1	1	R1269E
1736.125	5.578	1764350	REC_END	n/a	n/a	n/a	n/a	-999	15	[0, 0, 0]	n/a	catFR1	1	R1269E
1741.703	0.5	1769928	TRIAL	n/a	n/a	n/a	n/a	-999	16	[0, 0, 0]	n/a	catFR1	1	R1269E
1742.203	10.428	1770428	COUNTDOWN_START	n/a	n/a	n/a	n/a	-999	16	[0, 0, 0]	n/a	catFR1	1	R1269E
1752.631	0.008	1780856	COUNTDOWN_END	n/a	n/a	n/a	n/a	-999	16	[0, 0, 0]	n/a	catFR1	1	R1269E
1752.639	1.618	1780864	ORIENT	n/a	n/a	n/a	n/a	-999	16	[0, 0, 0]	n/a	catFR1	1	R1269E
1754.257	2.1	1782481	ORIENT_OFF	n/a	n/a	n/a	n/a	-999	16	[0, 0, 0]	n/a	catFR1	1	R1269E
1756.357	1.617	1784581	WORD	n/a	wordpools/wordpool_categorized_EN.txt	LAKE	Landscapes	1	16	[0, 0, 0]	n/a	catFR1	1	R1269E
1757.974	0.816	1786198	WORD_OFF	n/a	n/a	LAKE	n/a	1	16	[0, 0, 0]	n/a	catFR1	1	R1269E
1758.79	1.618	1787014	WORD	n/a	wordpools/wordpool_categorized_EN.txt	MOUNTAIN	Landscapes	2	16	[0, 0, 0]	n/a	catFR1	1	R1269E
1760.408	0.967	1788632	WORD_OFF	n/a	n/a	MOUNTAIN	n/a	2	16	[0, 0, 0]	n/a	catFR1	1	R1269E
1761.375	1.617	1789599	WORD	n/a	wordpools/wordpool_categorized_EN.txt	RECLINER	Furniture	3	16	[0, 0, 0]	n/a	catFR1	1	R1269E
1762.992	0.915	1791216	WORD_OFF	n/a	n/a	RECLINER	n/a	3	16	[0, 0, 0]	n/a	catFR1	1	R1269E
1763.907	1.601	1792131	WORD	n/a	wordpools/wordpool_categorized_EN.txt	COUCH	Furniture	4	16	[0, 0, 0]	n/a	catFR1	1	R1269E
1765.508	0.868	1793732	WORD_OFF	n/a	n/a	COUCH	n/a	4	16	[0, 0, 0]	n/a	catFR1	1	R1269E
1766.376	1.617	1794600	WORD	n/a	wordpools/wordpool_categorized_EN.txt	FLOOR	Building	5	16	[0, 0, 0]	n/a	catFR1	1	R1269E
1767.993	0.949	1796217	WORD_OFF	n/a	n/a	FLOOR	n/a	5	16	[0, 0, 0]	n/a	catFR1	1	R1269E
1768.942	1.618	1797166	WORD	n/a	wordpools/wordpool_categorized_EN.txt	FOUNDATION	Building	6	16	[0, 0, 0]	n/a	catFR1	1	R1269E
1770.56	0.9	1798784	WORD_OFF	n/a	n/a	FOUNDATION	n/a	6	16	[0, 0, 0]	n/a	catFR1	1	R1269E
1771.46	1.617	1799684	WORD	n/a	wordpools/wordpool_categorized_EN.txt	OCEAN	Landscapes	7	16	[0, 0, 0]	n/a	catFR1	1	R1269E
1773.077	0.866	1801301	WORD_OFF	n/a	n/a	OCEAN	n/a	7	16	[0, 0, 0]	n/a	catFR1	1	R1269E
1773.943	1.618	1802167	WORD	n/a	wordpools/wordpool_categorized_EN.txt	ISLAND	Landscapes	8	16	[0, 0, 0]	n/a	catFR1	1	R1269E
1775.561	0.9	1803785	WORD_OFF	n/a	n/a	ISLAND	n/a	8	16	[0, 0, 0]	n/a	catFR1	1	R1269E
1776.461	1.617	1804685	WORD	n/a	wordpools/wordpool_categorized_EN.txt	SOFA	Furniture	9	16	[0, 0, 0]	n/a	catFR1	1	R1269E
1778.078	1.0	1806302	WORD_OFF	n/a	n/a	SOFA	n/a	9	16	[0, 0, 0]	n/a	catFR1	1	R1269E
1779.078	1.616	1807301	WORD	n/a	wordpools/wordpool_categorized_EN.txt	DESK	Furniture	10	16	[0, 0, 0]	n/a	catFR1	1	R1269E
1780.694	0.901	1808917	WORD_OFF	n/a	n/a	DESK	n/a	10	16	[0, 0, 0]	n/a	catFR1	1	R1269E
1781.595	1.617	1809818	WORD	n/a	wordpools/wordpool_categorized_EN.txt	HALLWAY	Building	11	16	[0, 0, 0]	n/a	catFR1	1	R1269E
1783.212	0.8	1811435	WORD_OFF	n/a	n/a	HALLWAY	n/a	11	16	[0, 0, 0]	n/a	catFR1	1	R1269E
1784.012	1.617	1812235	WORD	n/a	wordpools/wordpool_categorized_EN.txt	ROOM	Building	12	16	[0, 0, 0]	n/a	catFR1	1	R1269E
1785.629	0.0	1813852	WORD_OFF	n/a	n/a	ROOM	n/a	12	16	[0, 0, 0]	n/a	catFR1	1	R1269E
1785.629	0.13	1813852	ENCODING_END	n/a	n/a	n/a	n/a	-999	16	[0, 0, 0]	n/a	catFR1	1	R1269E
1785.759	0.0	1813982	DISTRACT_START	n/a	n/a	n/a	n/a	-999	16	[0, 0, 0]	n/a	catFR1	1	R1269E
1785.759	0.019	1813982	START	n/a	n/a	n/a	n/a	-999	16	[-999, -999, -999]	n/a	catFR1	1	R1269E
1785.778	5.719	1814001	PROB	5.684	n/a	n/a	n/a	-999	16	[9, 4, 1]	14.0	catFR1	1	R1269E
1791.497	5.051	1819720	PROB	5.02	n/a	n/a	n/a	-999	16	[4, 4, 6]	14.0	catFR1	1	R1269E
1796.548	6.4	1824771	PROB	6.37	n/a	n/a	n/a	-999	16	[7, 8, 6]	21.0	catFR1	1	R1269E
1802.948	3.466	1831171	PROB	3.466	n/a	n/a	n/a	-999	16	[7, 2, 7]	16.0	catFR1	1	R1269E
1806.414	0.019	1834636	STOP	n/a	n/a	n/a	n/a	-999	16	[-999, -999, -999]	n/a	catFR1	1	R1269E
1806.433	0.65	1834655	DISTRACT_END	n/a	n/a	n/a	n/a	-999	16	[0, 0, 0]	n/a	catFR1	1	R1269E
1807.083	0.517	1835305	RETRIEVAL_ORIENT	n/a	n/a	n/a	n/a	-999	16	[0, 0, 0]	n/a	catFR1	1	R1269E
1807.6	0.395	1835822	REC_START	n/a	n/a	n/a	n/a	-999	16	[0, 0, 0]	n/a	catFR1	1	R1269E
1807.995	1.402	1836217	REC_WORD	0.395	n/a	DESK	Furniture	10	16	[0, 0, 0]	n/a	catFR1	1	R1269E
1809.397	1.054	1837619	REC_WORD	1.797	n/a	MOUNTAIN	Landscapes	2	16	[0, 0, 0]	n/a	catFR1	1	R1269E
1810.451	0.965	1838673	REC_WORD	2.851	n/a	ROOM	Building	12	16	[0, 0, 0]	n/a	catFR1	1	R1269E
1811.416	2.242	1839638	REC_WORD	3.816	n/a	PILLOW	n/a	-999	16	[0, 0, 0]	n/a	catFR1	1	R1269E
1813.658	6.247	1841880	REC_WORD	6.058	n/a	RECLINER	Furniture	3	16	[0, 0, 0]	n/a	catFR1	1	R1269E
1819.905	6.944	1848127	REC_WORD	12.305	n/a	SOFA	Furniture	9	16	[0, 0, 0]	n/a	catFR1	1	R1269E
1826.849	10.76	1855071	REC_WORD	19.249	n/a	FLOOR	Building	5	16	[0, 0, 0]	n/a	catFR1	1	R1269E
1837.609	5.48	1865830	REC_END	n/a	n/a	n/a	n/a	-999	16	[0, 0, 0]	n/a	catFR1	1	R1269E
1843.089	0.5	1871310	TRIAL	n/a	n/a	n/a	n/a	-999	17	[0, 0, 0]	n/a	catFR1	1	R1269E
1843.589	10.428	1871810	COUNTDOWN_START	n/a	n/a	n/a	n/a	-999	17	[0, 0, 0]	n/a	catFR1	1	R1269E
1854.017	0.007	1882237	COUNTDOWN_END	n/a	n/a	n/a	n/a	-999	17	[0, 0, 0]	n/a	catFR1	1	R1269E
1854.024	1.616	1882244	ORIENT	n/a	n/a	n/a	n/a	-999	17	[0, 0, 0]	n/a	catFR1	1	R1269E
1855.64	2.067	1883860	ORIENT_OFF	n/a	n/a	n/a	n/a	-999	17	[0, 0, 0]	n/a	catFR1	1	R1269E
1857.707	1.618	1885927	WORD	n/a	wordpools/wordpool_categorized_EN.txt	WINDOW	Building	1	17	[0, 0, 0]	n/a	catFR1	1	R1269E
1859.325	0.867	1887545	WORD_OFF	n/a	n/a	WINDOW	n/a	1	17	[0, 0, 0]	n/a	catFR1	1	R1269E
1860.192	1.616	1888412	WORD	n/a	wordpools/wordpool_categorized_EN.txt	ROOF	Building	2	17	[0, 0, 0]	n/a	catFR1	1	R1269E
1861.808	0.933	1890028	WORD_OFF	n/a	n/a	ROOF	n/a	2	17	[0, 0, 0]	n/a	catFR1	1	R1269E
1862.741	1.618	1890961	WORD	n/a	wordpools/wordpool_categorized_EN.txt	DISHWASHER	Appliances	3	17	[0, 0, 0]	n/a	catFR1	1	R1269E
1864.359	0.901	1892579	WORD_OFF	n/a	n/a	DISHWASHER	n/a	3	17	[0, 0, 0]	n/a	catFR1	1	R1269E
1865.26	1.616	1893480	WORD	n/a	wordpools/wordpool_categorized_EN.txt	BLENDER	Appliances	4	17	[0, 0, 0]	n/a	catFR1	1	R1269E
1866.876	0.983	1895096	WORD_OFF	n/a	n/a	BLENDER	n/a	4	17	[0, 0, 0]	n/a	catFR1	1	R1269E
1867.859	1.618	1896079	WORD	n/a	wordpools/wordpool_categorized_EN.txt	TURTLE	OceanAnimals	5	17	[0, 0, 0]	n/a	catFR1	1	R1269E
1869.477	0.95	1897697	WORD_OFF	n/a	n/a	TURTLE	n/a	5	17	[0, 0, 0]	n/a	catFR1	1	R1269E
1870.427	1.617	1898647	WORD	n/a	wordpools/wordpool_categorized_EN.txt	LOBSTER	OceanAnimals	6	17	[0, 0, 0]	n/a	catFR1	1	R1269E
1872.044	0.849	1900264	WORD_OFF	n/a	n/a	LOBSTER	n/a	6	17	[0, 0, 0]	n/a	catFR1	1	R1269E
1872.893	1.618	1901113	WORD	n/a	wordpools/wordpool_categorized_EN.txt	CEILING	Building	7	17	[0, 0, 0]	n/a	catFR1	1	R1269E
1874.511	0.767	1902731	WORD_OFF	n/a	n/a	CEILING	n/a	7	17	[0, 0, 0]	n/a	catFR1	1	R1269E
1875.278	1.616	1903498	WORD	n/a	wordpools/wordpool_categorized_EN.txt	WALL	Building	8	17	[0, 0, 0]	n/a	catFR1	1	R1269E
1876.894	1.0	1905114	WORD_OFF	n/a	n/a	WALL	n/a	8	17	[0, 0, 0]	n/a	catFR1	1	R1269E
1877.894	1.618	1906113	WORD	n/a	wordpools/wordpool_categorized_EN.txt	VACUUM	Appliances	9	17	[0, 0, 0]	n/a	catFR1	1	R1269E
1879.512	0.967	1907731	WORD_OFF	n/a	n/a	VACUUM	n/a	9	17	[0, 0, 0]	n/a	catFR1	1	R1269E
1880.479	1.617	1908698	WORD	n/a	wordpools/wordpool_categorized_EN.txt	WASHER	Appliances	10	17	[0, 0, 0]	n/a	catFR1	1	R1269E
1882.096	0.9	1910315	WORD_OFF	n/a	n/a	WASHER	n/a	10	17	[0, 0, 0]	n/a	catFR1	1	R1269E
1882.996	1.617	1911215	WORD	n/a	wordpools/wordpool_categorized_EN.txt	WHALE	OceanAnimals	11	17	[0, 0, 0]	n/a	catFR1	1	R1269E
1884.613	0.867	1912832	WORD_OFF	n/a	n/a	WHALE	n/a	11	17	[0, 0, 0]	n/a	catFR1	1	R1269E
1885.48	1.617	1913699	WORD	n/a	wordpools/wordpool_categorized_EN.txt	OCTOPUS	OceanAnimals	12	17	[0, 0, 0]	n/a	catFR1	1	R1269E
1887.097	0.0	1915316	ENCODING_END	n/a	n/a	n/a	n/a	-999	17	[0, 0, 0]	n/a	catFR1	1	R1269E
1887.097	0.129	1915316	WORD_OFF	n/a	n/a	OCTOPUS	n/a	12	17	[0, 0, 0]	n/a	catFR1	1	R1269E
1887.226	0.0	1915445	DISTRACT_START	n/a	n/a	n/a	n/a	-999	17	[0, 0, 0]	n/a	catFR1	1	R1269E
1887.226	0.021	1915445	START	n/a	n/a	n/a	n/a	-999	17	[-999, -999, -999]	n/a	catFR1	1	R1269E
1887.247	5.483	1915466	PROB	5.452	n/a	n/a	n/a	-999	17	[6, 2, 2]	10.0	catFR1	1	R1269E
1892.73	2.984	1920949	PROB	2.953	n/a	n/a	n/a	-999	17	[7, 1, 7]	15.0	catFR1	1	R1269E
1895.714	8.619	1923933	PROB	8.582	n/a	n/a	n/a	-999	17	[8, 9, 7]	24.0	catFR1	1	R1269E
1904.333	2.616	1932551	PROB	2.593	n/a	n/a	n/a	-999	17	[1, 5, 6]	12.0	catFR1	1	R1269E
1906.949	6.675	1935167	PROB	6.675	n/a	n/a	n/a	-999	17	[8, 6, 9]	23.0	catFR1	1	R1269E
1913.624	0.01	1941842	STOP	n/a	n/a	n/a	n/a	-999	17	[-999, -999, -999]	n/a	catFR1	1	R1269E
1913.634	0.584	1941852	DISTRACT_END	n/a	n/a	n/a	n/a	-999	17	[0, 0, 0]	n/a	catFR1	1	R1269E
1914.218	0.517	1942436	RETRIEVAL_ORIENT	n/a	n/a	n/a	n/a	-999	17	[0, 0, 0]	n/a	catFR1	1	R1269E
1914.735	1.026	1942953	REC_START	n/a	n/a	n/a	n/a	-999	17	[0, 0, 0]	n/a	catFR1	1	R1269E
1915.761	1.272	1943979	REC_WORD	1.026	n/a	OVEN	n/a	-999	17	[0, 0, 0]	n/a	catFR1	1	R1269E
1917.033	1.655	1945251	REC_WORD	2.298	n/a	CEILING	Building	7	17	[0, 0, 0]	n/a	catFR1	1	R1269E
1918.688	8.564	1946906	REC_WORD	3.953	n/a	FLOOR	n/a	-999	17	[0, 0, 0]	n/a	catFR1	1	R1269E
1927.252	4.34	1955469	REC_WORD	12.517	n/a	WINDOW	Building	1	17	[0, 0, 0]	n/a	catFR1	1	R1269E
1931.592	8.491	1959809	REC_WORD	16.857	n/a	ROOM	n/a	-999	17	[0, 0, 0]	n/a	catFR1	1	R1269E
1940.083	4.661	1968300	REC_WORD	25.348	n/a	OCEAN	n/a	-999	17	[0, 0, 0]	n/a	catFR1	1	R1269E
1944.744	5.431	1972961	REC_END	n/a	n/a	n/a	n/a	-999	17	[0, 0, 0]	n/a	catFR1	1	R1269E
1950.175	0.5	1978392	TRIAL	n/a	n/a	n/a	n/a	-999	18	[0, 0, 0]	n/a	catFR1	1	R1269E
1950.675	10.428	1978892	COUNTDOWN_START	n/a	n/a	n/a	n/a	-999	18	[0, 0, 0]	n/a	catFR1	1	R1269E
1961.103	0.007	1989319	COUNTDOWN_END	n/a	n/a	n/a	n/a	-999	18	[0, 0, 0]	n/a	catFR1	1	R1269E
1961.11	1.616	1989326	ORIENT	n/a	n/a	n/a	n/a	-999	18	[0, 0, 0]	n/a	catFR1	1	R1269E
1962.726	2.033	1990942	ORIENT_OFF	n/a	n/a	n/a	n/a	-999	18	[0, 0, 0]	n/a	catFR1	1	R1269E
1964.759	1.618	1992975	WORD	n/a	wordpools/wordpool_categorized_EN.txt	BALL	Toys	1	18	[0, 0, 0]	n/a	catFR1	1	R1269E
1966.377	0.801	1994593	WORD_OFF	n/a	n/a	BALL	n/a	1	18	[0, 0, 0]	n/a	catFR1	1	R1269E
1967.178	1.615	1995394	WORD	n/a	wordpools/wordpool_categorized_EN.txt	FOOTBALL	Toys	2	18	[0, 0, 0]	n/a	catFR1	1	R1269E
1968.793	0.835	1997009	WORD_OFF	n/a	n/a	FOOTBALL	n/a	2	18	[0, 0, 0]	n/a	catFR1	1	R1269E
1969.628	1.617	1997844	WORD	n/a	wordpools/wordpool_categorized_EN.txt	ARM	BodyParts	3	18	[0, 0, 0]	n/a	catFR1	1	R1269E
1971.245	1.017	1999461	WORD_OFF	n/a	n/a	ARM	n/a	3	18	[0, 0, 0]	n/a	catFR1	1	R1269E
1972.262	1.616	2000478	WORD	n/a	wordpools/wordpool_categorized_EN.txt	HAND	BodyParts	4	18	[0, 0, 0]	n/a	catFR1	1	R1269E
1973.878	0.817	2002094	WORD_OFF	n/a	n/a	HAND	n/a	4	18	[0, 0, 0]	n/a	catFR1	1	R1269E
1974.695	1.617	2002911	WORD	n/a	wordpools/wordpool_categorized_EN.txt	UNDERWEAR	Clothing	5	18	[0, 0, 0]	n/a	catFR1	1	R1269E
1976.312	0.951	2004527	WORD_OFF	n/a	n/a	UNDERWEAR	n/a	5	18	[0, 0, 0]	n/a	catFR1	1	R1269E
1977.263	1.616	2005478	WORD	n/a	wordpools/wordpool_categorized_EN.txt	COAT	Clothing	6	18	[0, 0, 0]	n/a	catFR1	1	R1269E
1978.879	0.849	2007094	WORD_OFF	n/a	n/a	COAT	n/a	6	18	[0, 0, 0]	n/a	catFR1	1	R1269E
1979.728	1.619	2007943	WORD	n/a	wordpools/wordpool_categorized_EN.txt	SLINKY	Toys	7	18	[0, 0, 0]	n/a	catFR1	1	R1269E
1981.347	0.9	2009562	WORD_OFF	n/a	n/a	SLINKY	n/a	7	18	[0, 0, 0]	n/a	catFR1	1	R1269E
1982.247	1.616	2010462	WORD	n/a	wordpools/wordpool_categorized_EN.txt	DOLL	Toys	8	18	[0, 0, 0]	n/a	catFR1	1	R1269E
1983.863	0.833	2012078	WORD_OFF	n/a	n/a	DOLL	n/a	8	18	[0, 0, 0]	n/a	catFR1	1	R1269E
1984.696	1.618	2012911	WORD	n/a	wordpools/wordpool_categorized_EN.txt	NOSE	BodyParts	9	18	[0, 0, 0]	n/a	catFR1	1	R1269E
1986.314	0.817	2014529	WORD_OFF	n/a	n/a	NOSE	n/a	9	18	[0, 0, 0]	n/a	catFR1	1	R1269E
1987.131	1.616	2015346	WORD	n/a	wordpools/wordpool_categorized_EN.txt	ELBOW	BodyParts	10	18	[0, 0, 0]	n/a	catFR1	1	R1269E
1988.747	0.784	2016962	WORD_OFF	n/a	n/a	ELBOW	n/a	10	18	[0, 0, 0]	n/a	catFR1	1	R1269E
1989.531	1.617	2017746	WORD	n/a	wordpools/wordpool_categorized_EN.txt	JEANS	Clothing	11	18	[0, 0, 0]	n/a	catFR1	1	R1269E
1991.148	0.867	2019363	WORD_OFF	n/a	n/a	JEANS	n/a	11	18	[0, 0, 0]	n/a	catFR1	1	R1269E
1992.015	1.616	2020230	WORD	n/a	wordpools/wordpool_categorized_EN.txt	JACKET	Clothing	12	18	[0, 0, 0]	n/a	catFR1	1	R1269E
1993.631	0.0	2021846	ENCODING_END	n/a	n/a	n/a	n/a	-999	18	[0, 0, 0]	n/a	catFR1	1	R1269E
1993.631	0.165	2021846	WORD_OFF	n/a	n/a	JACKET	n/a	12	18	[0, 0, 0]	n/a	catFR1	1	R1269E
1993.796	0.0	2022011	DISTRACT_START	n/a	n/a	n/a	n/a	-999	18	[0, 0, 0]	n/a	catFR1	1	R1269E
1993.796	0.019	2022011	START	n/a	n/a	n/a	n/a	-999	18	[-999, -999, -999]	n/a	catFR1	1	R1269E
1993.815	3.384	2022030	PROB	3.349	n/a	n/a	n/a	-999	18	[8, 2, 8]	18.0	catFR1	1	R1269E
1997.199	6.885	2025414	PROB	6.861	n/a	n/a	n/a	-999	18	[2, 7, 2]	11.0	catFR1	1	R1269E
2004.084	4.716	2032298	PROB	4.686	n/a	n/a	n/a	-999	18	[6, 8, 3]	17.0	catFR1	1	R1269E
2008.8	3.118	2037014	PROB	3.09	n/a	n/a	n/a	-999	18	[3, 1, 9]	13.0	catFR1	1	R1269E
2011.918	4.421	2040132	PROB	4.421	n/a	n/a	n/a	-999	18	[4, 8, 4]	16.0	catFR1	1	R1269E
2016.339	0.014	2044553	STOP	n/a	n/a	n/a	n/a	-999	18	[-999, -999, -999]	n/a	catFR1	1	R1269E
2016.353	0.599	2044567	DISTRACT_END	n/a	n/a	n/a	n/a	-999	18	[0, 0, 0]	n/a	catFR1	1	R1269E
2016.952	0.518	2045166	RETRIEVAL_ORIENT	n/a	n/a	n/a	n/a	-999	18	[0, 0, 0]	n/a	catFR1	1	R1269E
2017.47	0.815	2045684	REC_START	n/a	n/a	n/a	n/a	-999	18	[0, 0, 0]	n/a	catFR1	1	R1269E
2018.285	0.7	2046499	REC_WORD	0.815	n/a	JEANS	Clothing	11	18	[0, 0, 0]	n/a	catFR1	1	R1269E
2018.985	2.732	2047199	REC_WORD	1.515	n/a	JACKET	Clothing	12	18	[0, 0, 0]	n/a	catFR1	1	R1269E
2021.717	1.873	2049931	REC_WORD	4.247	n/a	ARM	BodyParts	3	18	[0, 0, 0]	n/a	catFR1	1	R1269E
2023.59	3.434	2051804	REC_WORD	6.12	n/a	NOSE	BodyParts	9	18	[0, 0, 0]	n/a	catFR1	1	R1269E
2027.024	4.32	2055237	REC_WORD	9.554	n/a	ELBOW	BodyParts	10	18	[0, 0, 0]	n/a	catFR1	1	R1269E
2031.344	5.037	2059557	REC_WORD	13.874	n/a	UNDERWEAR	Clothing	5	18	[0, 0, 0]	n/a	catFR1	1	R1269E
2036.381	3.178	2064594	REC_WORD	18.911	n/a	SHIRT	n/a	-999	18	[0, 0, 0]	n/a	catFR1	1	R1269E
2039.559	7.92	2067772	REC_WORD	22.089	n/a	COAT	Clothing	6	18	[0, 0, 0]	n/a	catFR1	1	R1269E
2047.479	6.196	2075692	REC_END	n/a	n/a	n/a	n/a	-999	18	[0, 0, 0]	n/a	catFR1	1	R1269E
2053.675	0.5	2081887	TRIAL	n/a	n/a	n/a	n/a	-999	19	[0, 0, 0]	n/a	catFR1	1	R1269E
2054.175	10.428	2082387	COUNTDOWN_START	n/a	n/a	n/a	n/a	-999	19	[0, 0, 0]	n/a	catFR1	1	R1269E
2064.603	0.008	2092815	COUNTDOWN_END	n/a	n/a	n/a	n/a	-999	19	[0, 0, 0]	n/a	catFR1	1	R1269E
2064.611	1.617	2092823	ORIENT	n/a	n/a	n/a	n/a	-999	19	[0, 0, 0]	n/a	catFR1	1	R1269E
2066.228	1.967	2094440	ORIENT_OFF	n/a	n/a	n/a	n/a	-999	19	[0, 0, 0]	n/a	catFR1	1	R1269E
2068.195	1.616	2096407	WORD	n/a	wordpools/wordpool_categorized_EN.txt	GUITAR	Instruments	1	19	[0, 0, 0]	n/a	catFR1	1	R1269E
2069.811	0.933	2098023	WORD_OFF	n/a	n/a	GUITAR	n/a	1	19	[0, 0, 0]	n/a	catFR1	1	R1269E
2070.744	1.619	2098956	WORD	n/a	wordpools/wordpool_categorized_EN.txt	ORGAN	Instruments	2	19	[0, 0, 0]	n/a	catFR1	1	R1269E
2072.363	0.983	2100575	WORD_OFF	n/a	n/a	ORGAN	n/a	2	19	[0, 0, 0]	n/a	catFR1	1	R1269E
2073.346	1.616	2101558	WORD	n/a	wordpools/wordpool_categorized_EN.txt	CLOUD	Weather	3	19	[0, 0, 0]	n/a	catFR1	1	R1269E
2074.962	0.767	2103174	WORD_OFF	n/a	n/a	CLOUD	n/a	3	19	[0, 0, 0]	n/a	catFR1	1	R1269E
2075.729	1.618	2103940	WORD	n/a	wordpools/wordpool_categorized_EN.txt	HURRICANE	Weather	4	19	[0, 0, 0]	n/a	catFR1	1	R1269E
2077.347	0.85	2105558	WORD_OFF	n/a	n/a	HURRICANE	n/a	4	19	[0, 0, 0]	n/a	catFR1	1	R1269E
2078.197	1.616	2106408	WORD	n/a	wordpools/wordpool_categorized_EN.txt	LADLE	KitchenTools	5	19	[0, 0, 0]	n/a	catFR1	1	R1269E
2079.813	0.95	2108024	WORD_OFF	n/a	n/a	LADLE	n/a	5	19	[0, 0, 0]	n/a	catFR1	1	R1269E
2080.763	1.618	2108974	WORD	n/a	wordpools/wordpool_categorized_EN.txt	COLANDER	KitchenTools	6	19	[0, 0, 0]	n/a	catFR1	1	R1269E
2082.381	0.8	2110592	WORD_OFF	n/a	n/a	COLANDER	n/a	6	19	[0, 0, 0]	n/a	catFR1	1	R1269E
2083.181	1.616	2111392	WORD	n/a	wordpools/wordpool_categorized_EN.txt	TROMBONE	Instruments	7	19	[0, 0, 0]	n/a	catFR1	1	R1269E
2084.797	0.85	2113008	WORD_OFF	n/a	n/a	TROMBONE	n/a	7	19	[0, 0, 0]	n/a	catFR1	1	R1269E
2085.647	1.601	2113858	WORD	n/a	wordpools/wordpool_categorized_EN.txt	PIANO	Instruments	8	19	[0, 0, 0]	n/a	catFR1	1	R1269E
2087.248	0.917	2115459	WORD_OFF	n/a	n/a	PIANO	n/a	8	19	[0, 0, 0]	n/a	catFR1	1	R1269E
2088.165	1.616	2116376	WORD	n/a	wordpools/wordpool_categorized_EN.txt	RAIN	Weather	9	19	[0, 0, 0]	n/a	catFR1	1	R1269E
2089.781	0.85	2117992	WORD_OFF	n/a	n/a	RAIN	n/a	9	19	[0, 0, 0]	n/a	catFR1	1	R1269E
2090.631	1.601	2118842	WORD	n/a	wordpools/wordpool_categorized_EN.txt	THUNDERSTORM	Weather	10	19	[0, 0, 0]	n/a	catFR1	1	R1269E
2092.232	0.918	2120443	WORD_OFF	n/a	n/a	THUNDERSTORM	n/a	10	19	[0, 0, 0]	n/a	catFR1	1	R1269E
2093.15	1.616	2121361	WORD	n/a	wordpools/wordpool_categorized_EN.txt	SPATULA	KitchenTools	11	19	[0, 0, 0]	n/a	catFR1	1	R1269E
2094.766	0.866	2122977	WORD_OFF	n/a	n/a	SPATULA	n/a	11	19	[0, 0, 0]	n/a	catFR1	1	R1269E
2095.632	1.618	2123843	WORD	n/a	wordpools/wordpool_categorized_EN.txt	GRATER	KitchenTools	12	19	[0, 0, 0]	n/a	catFR1	1	R1269E
2097.25	0.001	2125461	WORD_OFF	n/a	n/a	GRATER	n/a	12	19	[0, 0, 0]	n/a	catFR1	1	R1269E
2097.251	0.134	2125462	ENCODING_END	n/a	n/a	n/a	n/a	-999	19	[0, 0, 0]	n/a	catFR1	1	R1269E
2097.385	0.0	2125596	DISTRACT_START	n/a	n/a	n/a	n/a	-999	19	[0, 0, 0]	n/a	catFR1	1	R1269E
2097.385	0.015	2125596	START	n/a	n/a	n/a	n/a	-999	19	[-999, -999, -999]	n/a	catFR1	1	R1269E
2097.4	4.885	2125611	PROB	4.862	n/a	n/a	n/a	-999	19	[6, 3, 8]	17.0	catFR1	1	R1269E
2102.285	4.717	2130495	PROB	4.681	n/a	n/a	n/a	-999	19	[8, 3, 6]	17.0	catFR1	1	R1269E
2107.002	7.684	2135212	PROB	7.649	n/a	n/a	n/a	-999	19	[9, 8, 9]	26.0	catFR1	1	R1269E
2114.686	5.146	2142896	PROB	5.146	n/a	n/a	n/a	-999	19	[7, 6, 2]	15.0	catFR1	1	R1269E
2119.832	0.022	2148042	STOP	n/a	n/a	n/a	n/a	-999	19	[-999, -999, -999]	n/a	catFR1	1	R1269E
2119.854	0.55	2148064	DISTRACT_END	n/a	n/a	n/a	n/a	-999	19	[0, 0, 0]	n/a	catFR1	1	R1269E
2120.404	0.517	2148614	RETRIEVAL_ORIENT	n/a	n/a	n/a	n/a	-999	19	[0, 0, 0]	n/a	catFR1	1	R1269E
2120.921	0.129	2149131	REC_START	n/a	n/a	n/a	n/a	-999	19	[0, 0, 0]	n/a	catFR1	1	R1269E
2121.05	5.723	2149260	REC_WORD	0.129	n/a	SPATULA	KitchenTools	11	19	[0, 0, 0]	n/a	catFR1	1	R1269E
2126.773	1.002	2154982	REC_WORD	5.852	n/a	STRAINER	n/a	-999	19	[0, 0, 0]	n/a	catFR1	1	R1269E
2127.775	0.805	2155984	REC_WORD	6.854	n/a	GRATER	KitchenTools	12	19	[0, 0, 0]	n/a	catFR1	1	R1269E
2128.58	7.561	2156789	REC_WORD	7.659	n/a	PEELER	n/a	-999	19	[0, 0, 0]	n/a	catFR1	1	R1269E
2136.141	0.968	2164350	REC_WORD	15.22	n/a	THUNDERSTORM	Weather	10	19	[0, 0, 0]	n/a	catFR1	1	R1269E
2137.109	0.626	2165318	REC_WORD	16.188	n/a	THUNDER	n/a	-999	19	[0, 0, 0]	n/a	catFR1	1	R1269E
2137.735	7.125	2165944	REC_WORD	16.814	n/a	TORNADO	n/a	-999	19	[0, 0, 0]	n/a	catFR1	1	R1269E
2144.86	2.63	2173069	REC_WORD	23.939	n/a	HURRICANE	Weather	4	19	[0, 0, 0]	n/a	catFR1	1	R1269E
2147.49	3.44	2175699	REC_WORD	26.569	n/a	CLOUD	Weather	3	19	[0, 0, 0]	n/a	catFR1	1	R1269E
2150.93	5.464	2179138	REC_END	n/a	n/a	n/a	n/a	-999	19	[0, 0, 0]	n/a	catFR1	1	R1269E
2156.394	0.5	2184602	TRIAL	n/a	n/a	n/a	n/a	-999	20	[0, 0, 0]	n/a	catFR1	1	R1269E
2156.894	10.428	2185102	COUNTDOWN_START	n/a	n/a	n/a	n/a	-999	20	[0, 0, 0]	n/a	catFR1	1	R1269E
2167.322	0.007	2195530	COUNTDOWN_END	n/a	n/a	n/a	n/a	-999	20	[0, 0, 0]	n/a	catFR1	1	R1269E
2167.329	1.616	2195537	ORIENT	n/a	n/a	n/a	n/a	-999	20	[0, 0, 0]	n/a	catFR1	1	R1269E
2168.945	2.218	2197153	ORIENT_OFF	n/a	n/a	n/a	n/a	-999	20	[0, 0, 0]	n/a	catFR1	1	R1269E
2171.163	1.616	2199371	WORD	n/a	wordpools/wordpool_categorized_EN.txt	CARNATION	Flowers	1	20	[0, 0, 0]	n/a	catFR1	1	R1269E
2172.779	0.9	2200987	WORD_OFF	n/a	n/a	CARNATION	n/a	1	20	[0, 0, 0]	n/a	catFR1	1	R1269E
2173.679	1.618	2201886	WORD	n/a	wordpools/wordpool_categorized_EN.txt	LILY	Flowers	2	20	[0, 0, 0]	n/a	catFR1	1	R1269E
2175.297	0.834	2203504	WORD_OFF	n/a	n/a	LILY	n/a	2	20	[0, 0, 0]	n/a	catFR1	1	R1269E
2176.131	1.616	2204338	WORD	n/a	wordpools/wordpool_categorized_EN.txt	CHEESECAKE	Desserts	3	20	[0, 0, 0]	n/a	catFR1	1	R1269E
2177.747	1.0	2205954	WORD_OFF	n/a	n/a	CHEESECAKE	n/a	3	20	[0, 0, 0]	n/a	catFR1	1	R1269E
2178.747	1.618	2206954	WORD	n/a	wordpools/wordpool_categorized_EN.txt	CAKE	Desserts	4	20	[0, 0, 0]	n/a	catFR1	1	R1269E
2180.365	0.867	2208572	WORD_OFF	n/a	n/a	CAKE	n/a	4	20	[0, 0, 0]	n/a	catFR1	1	R1269E
2181.232	1.616	2209439	WORD	n/a	wordpools/wordpool_categorized_EN.txt	THUNDER	Weather	5	20	[0, 0, 0]	n/a	catFR1	1	R1269E
2182.848	1.0	2211055	WORD_OFF	n/a	n/a	THUNDER	n/a	5	20	[0, 0, 0]	n/a	catFR1	1	R1269E
2183.848	1.618	2212055	WORD	n/a	wordpools/wordpool_categorized_EN.txt	FOG	Weather	6	20	[0, 0, 0]	n/a	catFR1	1	R1269E
2185.466	0.783	2213673	WORD_OFF	n/a	n/a	FOG	n/a	6	20	[0, 0, 0]	n/a	catFR1	1	R1269E
2186.249	1.616	2214456	WORD	n/a	wordpools/wordpool_categorized_EN.txt	VIOLET	Flowers	7	20	[0, 0, 0]	n/a	catFR1	1	R1269E
2187.865	1.0	2216072	WORD_OFF	n/a	n/a	VIOLET	n/a	7	20	[0, 0, 0]	n/a	catFR1	1	R1269E
2188.865	1.618	2217072	WORD	n/a	wordpools/wordpool_categorized_EN.txt	DAISY	Flowers	8	20	[0, 0, 0]	n/a	catFR1	1	R1269E
2190.483	0.984	2218690	WORD_OFF	n/a	n/a	DAISY	n/a	8	20	[0, 0, 0]	n/a	catFR1	1	R1269E
2191.467	1.617	2219674	WORD	n/a	wordpools/wordpool_categorized_EN.txt	COBBLER	Desserts	9	20	[0, 0, 0]	n/a	catFR1	1	R1269E
2193.084	0.816	2221291	WORD_OFF	n/a	n/a	COBBLER	n/a	9	20	[0, 0, 0]	n/a	catFR1	1	R1269E
2193.9	1.618	2222107	WORD	n/a	wordpools/wordpool_categorized_EN.txt	PIE	Desserts	10	20	[0, 0, 0]	n/a	catFR1	1	R1269E
2195.518	1.0	2223725	WORD_OFF	n/a	n/a	PIE	n/a	10	20	[0, 0, 0]	n/a	catFR1	1	R1269E
2196.518	1.617	2224725	WORD	n/a	wordpools/wordpool_categorized_EN.txt	LIGHTNING	Weather	11	20	[0, 0, 0]	n/a	catFR1	1	R1269E
2198.135	0.883	2226342	WORD_OFF	n/a	n/a	LIGHTNING	n/a	11	20	[0, 0, 0]	n/a	catFR1	1	R1269E
2199.018	1.616	2227224	WORD	n/a	wordpools/wordpool_categorized_EN.txt	DRIZZLE	Weather	12	20	[0, 0, 0]	n/a	catFR1	1	R1269E
2200.634	0.0	2228840	ENCODING_END	n/a	n/a	n/a	n/a	-999	20	[0, 0, 0]	n/a	catFR1	1	R1269E
2200.634	0.133	2228840	WORD_OFF	n/a	n/a	DRIZZLE	n/a	12	20	[0, 0, 0]	n/a	catFR1	1	R1269E
2200.767	0.0	2228973	DISTRACT_START	n/a	n/a	n/a	n/a	-999	20	[0, 0, 0]	n/a	catFR1	1	R1269E
2200.767	0.017	2228973	START	n/a	n/a	n/a	n/a	-999	20	[-999, -999, -999]	n/a	catFR1	1	R1269E
2200.784	3.735	2228990	PROB	3.712	n/a	n/a	n/a	-999	20	[5, 5, 9]	19.0	catFR1	1	R1269E
2204.519	4.834	2232725	PROB	4.802	n/a	n/a	n/a	-999	20	[3, 9, 7]	19.0	catFR1	1	R1269E
2209.353	3.001	2237559	PROB	2.969	n/a	n/a	n/a	-999	20	[9, 5, 5]	19.0	catFR1	1	R1269E
2212.354	4.117	2240560	PROB	4.095	n/a	n/a	n/a	-999	20	[7, 8, 3]	18.0	catFR1	1	R1269E
2216.471	3.968	2244677	PROB	3.93	n/a	n/a	n/a	-999	20	[9, 1, 8]	18.0	catFR1	1	R1269E
2220.439	3.018	2248645	PROB	3.018	n/a	n/a	n/a	-999	20	[1, 6, 3]	10.0	catFR1	1	R1269E
2223.457	0.016	2251662	STOP	n/a	n/a	n/a	n/a	-999	20	[-999, -999, -999]	n/a	catFR1	1	R1269E
2223.473	0.533	2251678	DISTRACT_END	n/a	n/a	n/a	n/a	-999	20	[0, 0, 0]	n/a	catFR1	1	R1269E
2224.006	0.518	2252211	RETRIEVAL_ORIENT	n/a	n/a	n/a	n/a	-999	20	[0, 0, 0]	n/a	catFR1	1	R1269E
2224.524	0.279	2252729	REC_START	n/a	n/a	n/a	n/a	-999	20	[0, 0, 0]	n/a	catFR1	1	R1269E
2224.803	0.758	2253008	REC_WORD	0.279	n/a	LIGHTNING	Weather	11	20	[0, 0, 0]	n/a	catFR1	1	R1269E
2225.561	1.462	2253766	REC_WORD	1.037	n/a	THUNDER	Weather	5	20	[0, 0, 0]	n/a	catFR1	1	R1269E
2227.023	1.043	2255228	REC_WORD	2.499	n/a	PASTRY	n/a	-999	20	[0, 0, 0]	n/a	catFR1	1	R1269E
2228.066	0.593	2256271	REC_WORD	3.542	n/a	PIE	Desserts	10	20	[0, 0, 0]	n/a	catFR1	1	R1269E
2228.659	1.375	2256864	REC_WORD	4.135	n/a	COBBLER	Desserts	9	20	[0, 0, 0]	n/a	catFR1	1	R1269E
2230.034	2.151	2258239	REC_WORD	5.51	n/a	CHEESECAKE	Desserts	3	20	[0, 0, 0]	n/a	catFR1	1	R1269E
2232.185	6.69	2260390	REC_WORD	7.661	n/a	CAKE	Desserts	4	20	[0, 0, 0]	n/a	catFR1	1	R1269E
2238.875	2.935	2267080	REC_WORD	14.351	n/a	BROWNIE	n/a	-999	20	[0, 0, 0]	n/a	catFR1	1	R1269E
2241.81	5.058	2270015	REC_WORD	17.286	n/a	PUDDING	n/a	-999	20	[0, 0, 0]	n/a	catFR1	1	R1269E
2246.868	7.664	2275073	REC_WORD	22.344	n/a	JELLO	n/a	-999	20	[0, 0, 0]	n/a	catFR1	1	R1269E
2254.532	5.697	2282736	REC_END	n/a	n/a	n/a	n/a	-999	20	[0, 0, 0]	n/a	catFR1	1	R1269E
2260.229	0.5	2288433	TRIAL	n/a	n/a	n/a	n/a	-999	21	[0, 0, 0]	n/a	catFR1	1	R1269E
2260.729	10.428	2288933	COUNTDOWN_START	n/a	n/a	n/a	n/a	-999	21	[0, 0, 0]	n/a	catFR1	1	R1269E
2271.157	0.007	2299361	COUNTDOWN_END	n/a	n/a	n/a	n/a	-999	21	[0, 0, 0]	n/a	catFR1	1	R1269E
2271.164	1.616	2299368	ORIENT	n/a	n/a	n/a	n/a	-999	21	[0, 0, 0]	n/a	catFR1	1	R1269E
2272.78	1.934	2300983	ORIENT_OFF	n/a	n/a	n/a	n/a	-999	21	[0, 0, 0]	n/a	catFR1	1	R1269E
2274.714	1.618	2302917	WORD	n/a	wordpools/wordpool_categorized_EN.txt	STOVE	Appliances	1	21	[0, 0, 0]	n/a	catFR1	1	R1269E
2276.332	0.8	2304535	WORD_OFF	n/a	n/a	STOVE	n/a	1	21	[0, 0, 0]	n/a	catFR1	1	R1269E
2277.132	1.616	2305335	WORD	n/a	wordpools/wordpool_categorized_EN.txt	DRYER	Appliances	2	21	[0, 0, 0]	n/a	catFR1	1	R1269E
2278.748	0.9	2306951	WORD_OFF	n/a	n/a	DRYER	n/a	2	21	[0, 0, 0]	n/a	catFR1	1	R1269E
2279.648	1.618	2307851	WORD	n/a	wordpools/wordpool_categorized_EN.txt	LEG	BodyParts	3	21	[0, 0, 0]	n/a	catFR1	1	R1269E
2281.266	0.783	2309469	WORD_OFF	n/a	n/a	LEG	n/a	3	21	[0, 0, 0]	n/a	catFR1	1	R1269E
2282.049	1.616	2310252	WORD	n/a	wordpools/wordpool_categorized_EN.txt	TOE	BodyParts	4	21	[0, 0, 0]	n/a	catFR1	1	R1269E
2283.665	0.902	2311868	WORD_OFF	n/a	n/a	TOE	n/a	4	21	[0, 0, 0]	n/a	catFR1	1	R1269E
2284.567	1.617	2312770	WORD	n/a	wordpools/wordpool_categorized_EN.txt	TAPE	OfficeSupplies	5	21	[0, 0, 0]	n/a	catFR1	1	R1269E
2286.184	0.765	2314387	WORD_OFF	n/a	n/a	TAPE	n/a	5	21	[0, 0, 0]	n/a	catFR1	1	R1269E
2286.949	1.618	2315152	WORD	n/a	wordpools/wordpool_categorized_EN.txt	ERASER	OfficeSupplies	6	21	[0, 0, 0]	n/a	catFR1	1	R1269E
2288.567	0.834	2316770	WORD_OFF	n/a	n/a	ERASER	n/a	6	21	[0, 0, 0]	n/a	catFR1	1	R1269E
