onset	duration	sample	trial_type	response_time	stim_file	item_name	category	serialpos	list	test	answer	experiment	session	subject
0.0	5.099	151737	INSTRUCT_START	n/a	n/a	n/a	n/a	-999	-999	[0, 0, 0]	n/a	catFR1	3	R1406M
5.099	28.35	156850	INSTRUCT_END	n/a	n/a	n/a	n/a	-999	-999	[0, 0, 0]	n/a	catFR1	3	R1406M
33.449	10.384	185198	COUNTDOWN_START	n/a	n/a	n/a	n/a	-999	-999	[0, 0, 0]	n/a	catFR1	3	R1406M
43.833	0.0	195576	COUNTDOWN_END	n/a	n/a	n/a	n/a	-999	-999	[0, 0, 0]	n/a	catFR1	3	R1406M
43.833	2.283	195576	ENCODING_START	n/a	n/a	n/a	n/a	-999	-1	[0, 0, 0]	n/a	catFR1	3	R1406M
46.116	1.617	197846	WORD	n/a	n/a	BEE	Insects	1	-1	[0, 0, 0]	n/a	catFR1	3	R1406M
47.733	0.965	199468	WORD_OFF	n/a	n/a	BEE	Insects	1	-1	[0, 0, 0]	n/a	catFR1	3	R1406M
48.698	1.617	200441	WORD	n/a	n/a	ANT	Insects	2	-1	[0, 0, 0]	n/a	catFR1	3	R1406M
50.315	0.8	202062	WORD_OFF	n/a	n/a	ANT	Insects	2	-1	[0, 0, 0]	n/a	catFR1	3	R1406M
51.115	1.618	202863	WORD	n/a	n/a	PIANO	Instruments	3	-1	[0, 0, 0]	n/a	catFR1	3	R1406M
52.733	0.847	204466	WORD_OFF	n/a	n/a	PIANO	Instruments	3	-1	[0, 0, 0]	n/a	catFR1	3	R1406M
53.58	1.601	205324	WORD	n/a	n/a	TROMBONE	Instruments	4	-1	[0, 0, 0]	n/a	catFR1	3	R1406M
55.181	0.95	206927	WORD_OFF	n/a	n/a	TROMBONE	Instruments	4	-1	[0, 0, 0]	n/a	catFR1	3	R1406M
56.131	1.602	207861	WORD	n/a	n/a	WHALE	OceanAnimals	5	-1	[0, 0, 0]	n/a	catFR1	3	R1406M
57.733	0.799	209464	WORD_OFF	n/a	n/a	WHALE	OceanAnimals	5	-1	[0, 0, 0]	n/a	catFR1	3	R1406M
58.532	1.616	210265	WORD	n/a	n/a	FISH	OceanAnimals	6	-1	[0, 0, 0]	n/a	catFR1	3	R1406M
60.148	0.983	211887	WORD_OFF	n/a	n/a	FISH	OceanAnimals	6	-1	[0, 0, 0]	n/a	catFR1	3	R1406M
61.131	1.602	212879	WORD	n/a	n/a	ROACH	Insects	7	-1	[0, 0, 0]	n/a	catFR1	3	R1406M
62.733	0.782	214481	WORD_OFF	n/a	n/a	ROACH	Insects	7	-1	[0, 0, 0]	n/a	catFR1	3	R1406M
63.515	1.617	215263	WORD	n/a	n/a	SPIDER	Insects	8	-1	[0, 0, 0]	n/a	catFR1	3	R1406M
65.132	0.817	216866	WORD_OFF	n/a	n/a	SPIDER	Insects	8	-1	[0, 0, 0]	n/a	catFR1	3	R1406M
65.949	1.616	217686	WORD	n/a	n/a	PLANKTON	OceanAnimals	9	-1	[0, 0, 0]	n/a	catFR1	3	R1406M
67.565	0.767	219308	WORD_OFF	n/a	n/a	PLANKTON	OceanAnimals	9	-1	[0, 0, 0]	n/a	catFR1	3	R1406M
68.332	1.6	220071	WORD	n/a	n/a	OYSTER	OceanAnimals	10	-1	[0, 0, 0]	n/a	catFR1	3	R1406M
69.932	0.9	221673	WORD_OFF	n/a	n/a	OYSTER	OceanAnimals	10	-1	[0, 0, 0]	n/a	catFR1	3	R1406M
70.832	1.616	222570	WORD	n/a	n/a	TRUMPET	Instruments	11	-1	[0, 0, 0]	n/a	catFR1	3	R1406M
72.448	0.767	224191	WORD_OFF	n/a	n/a	TRUMPET	Instruments	11	-1	[0, 0, 0]	n/a	catFR1	3	R1406M
73.215	1.601	224954	WORD	n/a	n/a	DRUM	Instruments	12	-1	[0, 0, 0]	n/a	catFR1	3	R1406M
74.816	0.0	226554	PROB	0.0	n/a	n/a	n/a	-999	-1	[1, 5, 7]	13	catFR1	3	R1406M
74.815	0.008	226557	WORD_OFF	n/a	n/a	DRUM	Instruments	12	-1	[0, 0, 0]	n/a	catFR1	3	R1406M
74.823	0.001	226557	ENCODING_END	n/a	n/a	n/a	n/a	-999	-1	[0, 0, 0]	n/a	catFR1	3	R1406M
74.824	0.0	226557	DISTRACT_START	n/a	n/a	n/a	n/a	-999	-1	[0, 0, 0]	n/a	catFR1	3	R1406M
74.824	4.992	226562	START	n/a	n/a	n/a	n/a	-999	-1	[-999, -999, -999]	n/a	catFR1	3	R1406M
79.816	4.016	231553	PROB	4.016	n/a	n/a	n/a	-999	-1	[1, 2, 6]	9	catFR1	3	R1406M
83.832	3.666	235569	PROB	3.666	n/a	n/a	n/a	-999	-1	[2, 4, 8]	14	catFR1	3	R1406M
87.498	5.55	239235	PROB	5.55	n/a	n/a	n/a	-999	-1	[5, 8, 3]	14	catFR1	3	R1406M
93.048	4.167	244785	PROB	4.167	n/a	n/a	n/a	-999	-1	[2, 3, 1]	6	catFR1	3	R1406M
97.215	0.0	248951	STOP	n/a	n/a	n/a	n/a	-999	-1	[-999, -999, -999]	n/a	catFR1	3	R1406M
97.215	1.066	248953	DISTRACT_END	n/a	n/a	n/a	n/a	-999	-1	[0, 0, 0]	n/a	catFR1	3	R1406M
98.281	5.775	250021	REC_START	n/a	n/a	n/a	n/a	-999	-1	[0, 0, 0]	n/a	catFR1	3	R1406M
104.056	5.096	255792	REC_WORD	5.096	n/a	WHALE	OceanAnimals	5	-1	[0, 0, 0]	n/a	catFR1	3	R1406M
109.152	5.658	260888	REC_WORD	5.658	n/a	PLANKTON	OceanAnimals	9	-1	[0, 0, 0]	n/a	catFR1	3	R1406M
114.81	14.703	266546	REC_WORD	14.703	n/a	SPIDER	Insects	8	-1	[0, 0, 0]	n/a	catFR1	3	R1406M
129.513	5.519	281250	REC_END	n/a	n/a	n/a	n/a	-999	-1	[0, 0, 0]	n/a	catFR1	3	R1406M
135.032	10.35	286764	COUNTDOWN_START	n/a	n/a	n/a	n/a	-999	1	[0, 0, 0]	n/a	catFR1	3	R1406M
145.382	0.001	297122	COUNTDOWN_END	n/a	n/a	n/a	n/a	-999	1	[0, 0, 0]	n/a	catFR1	3	R1406M
145.383	1.932	297122	ENCODING_START	n/a	n/a	n/a	n/a	-999	1	[0, 0, 0]	n/a	catFR1	3	R1406M
147.315	1.617	299049	WORD	n/a	wordpools/wordpool_categorized_EN.txt	ROBIN	Birds	1	1	[0, 0, 0]	n/a	catFR1	3	R1406M
148.932	0.833	300671	WORD_OFF	n/a	n/a	ROBIN	Birds	1	1	[0, 0, 0]	n/a	catFR1	3	R1406M
149.765	1.6	301491	WORD	n/a	wordpools/wordpool_categorized_EN.txt	FINCH	Birds	2	1	[0, 0, 0]	n/a	catFR1	3	R1406M
151.365	0.817	303093	WORD_OFF	n/a	n/a	FINCH	Birds	2	1	[0, 0, 0]	n/a	catFR1	3	R1406M
152.182	1.617	303914	WORD	n/a	wordpools/wordpool_categorized_EN.txt	CARROT	Vegetables	3	1	[0, 0, 0]	n/a	catFR1	3	R1406M
153.799	0.883	305535	WORD_OFF	n/a	n/a	CARROT	Vegetables	3	1	[0, 0, 0]	n/a	catFR1	3	R1406M
154.682	1.6	306413	WORD	n/a	wordpools/wordpool_categorized_EN.txt	ONION	Vegetables	4	1	[0, 0, 0]	n/a	catFR1	3	R1406M
156.282	0.9	308015	WORD_OFF	n/a	n/a	ONION	Vegetables	4	1	[0, 0, 0]	n/a	catFR1	3	R1406M
157.182	1.6	308912	WORD	n/a	wordpools/wordpool_categorized_EN.txt	MARBLES	Toys	5	1	[0, 0, 0]	n/a	catFR1	3	R1406M
158.782	0.968	310514	WORD_OFF	n/a	n/a	MARBLES	Toys	5	1	[0, 0, 0]	n/a	catFR1	3	R1406M
159.75	1.615	311487	WORD	n/a	wordpools/wordpool_categorized_EN.txt	BARBIE	Toys	6	1	[0, 0, 0]	n/a	catFR1	3	R1406M
161.365	0.867	313109	WORD_OFF	n/a	n/a	BARBIE	Toys	6	1	[0, 0, 0]	n/a	catFR1	3	R1406M
162.232	1.616	313967	WORD	n/a	wordpools/wordpool_categorized_EN.txt	CABBAGE	Vegetables	7	1	[0, 0, 0]	n/a	catFR1	3	R1406M
163.848	0.817	315589	WORD_OFF	n/a	n/a	CABBAGE	Vegetables	7	1	[0, 0, 0]	n/a	catFR1	3	R1406M
164.665	1.6	316390	WORD	n/a	wordpools/wordpool_categorized_EN.txt	CORN	Vegetables	8	1	[0, 0, 0]	n/a	catFR1	3	R1406M
166.265	0.934	317992	WORD_OFF	n/a	n/a	CORN	Vegetables	8	1	[0, 0, 0]	n/a	catFR1	3	R1406M
167.199	1.616	318927	WORD	n/a	wordpools/wordpool_categorized_EN.txt	DOVE	Birds	9	1	[0, 0, 0]	n/a	catFR1	3	R1406M
168.815	0.799	320549	WORD_OFF	n/a	n/a	DOVE	Birds	9	1	[0, 0, 0]	n/a	catFR1	3	R1406M
169.614	1.601	321350	WORD	n/a	wordpools/wordpool_categorized_EN.txt	SEAGULL	Birds	10	1	[0, 0, 0]	n/a	catFR1	3	R1406M
171.215	0.833	322952	WORD_OFF	n/a	n/a	SEAGULL	Birds	10	1	[0, 0, 0]	n/a	catFR1	3	R1406M
172.048	1.6	323773	WORD	n/a	wordpools/wordpool_categorized_EN.txt	FRISBEE	Toys	11	1	[0, 0, 0]	n/a	catFR1	3	R1406M
173.648	0.884	325375	WORD_OFF	n/a	n/a	FRISBEE	Toys	11	1	[0, 0, 0]	n/a	catFR1	3	R1406M
174.532	1.616	326272	WORD	n/a	wordpools/wordpool_categorized_EN.txt	PUZZLE	Toys	12	1	[0, 0, 0]	n/a	catFR1	3	R1406M
176.148	0.002	327874	WORD_OFF	n/a	n/a	PUZZLE	Toys	12	1	[0, 0, 0]	n/a	catFR1	3	R1406M
176.15	0.0	327874	ENCODING_END	n/a	n/a	n/a	n/a	-999	1	[0, 0, 0]	n/a	catFR1	3	R1406M
176.149	0.001	327881	PROB	0.001	n/a	n/a	n/a	-999	1	[2, 6, 6]	14	catFR1	3	R1406M
176.15	0.0	327882	START	n/a	n/a	n/a	n/a	-999	1	[-999, -999, -999]	n/a	catFR1	3	R1406M
176.15	3.732	327893	DISTRACT_START	n/a	n/a	n/a	n/a	-999	1	[0, 0, 0]	n/a	catFR1	3	R1406M
179.882	3.934	331614	PROB	3.934	n/a	n/a	n/a	-999	1	[2, 6, 6]	14	catFR1	3	R1406M
183.816	3.316	335548	PROB	3.316	n/a	n/a	n/a	-999	1	[1, 6, 7]	14	catFR1	3	R1406M
187.132	4.583	338864	PROB	4.583	n/a	n/a	n/a	-999	1	[4, 7, 4]	14	catFR1	3	R1406M
191.715	3.717	343446	PROB	3.717	n/a	n/a	n/a	-999	1	[2, 8, 4]	14	catFR1	3	R1406M
195.432	2.632	347163	PROB	2.632	n/a	n/a	n/a	-999	1	[1, 8, 2]	11	catFR1	3	R1406M
198.064	0.0	349794	DISTRACT_END	n/a	n/a	n/a	n/a	-999	1	[0, 0, 0]	n/a	catFR1	3	R1406M
198.064	1.25	349795	STOP	n/a	n/a	n/a	n/a	-999	1	[-999, -999, -999]	n/a	catFR1	3	R1406M
199.314	24.76	351053	REC_START	n/a	n/a	n/a	n/a	-999	1	[0, 0, 0]	n/a	catFR1	3	R1406M
224.074	6.448	375804	REC_WORD	6.448	n/a	BEE	Insects	-999	1	[0, 0, 0]	n/a	catFR1	3	R1406M
230.522	4.41	382243	REC_END	n/a	n/a	n/a	n/a	-999	1	[0, 0, 0]	n/a	catFR1	3	R1406M
234.932	10.35	386669	COUNTDOWN_START	n/a	n/a	n/a	n/a	-999	1	[0, 0, 0]	n/a	catFR1	3	R1406M
245.282	0.001	397009	COUNTDOWN_END	n/a	n/a	n/a	n/a	-999	1	[0, 0, 0]	n/a	catFR1	3	R1406M
245.283	2.099	397009	ENCODING_START	n/a	n/a	n/a	n/a	-999	2	[0, 0, 0]	n/a	catFR1	3	R1406M
247.382	1.6	399107	WORD	n/a	wordpools/wordpool_categorized_EN.txt	CHAIR	Furniture	1	2	[0, 0, 0]	n/a	catFR1	3	R1406M
248.982	0.833	400710	WORD_OFF	n/a	n/a	CHAIR	Furniture	1	2	[0, 0, 0]	n/a	catFR1	3	R1406M
249.815	1.6	401549	WORD	n/a	wordpools/wordpool_categorized_EN.txt	NIGHTSTAND	Furniture	2	2	[0, 0, 0]	n/a	catFR1	3	R1406M
251.415	0.967	403152	WORD_OFF	n/a	n/a	NIGHTSTAND	Furniture	2	2	[0, 0, 0]	n/a	catFR1	3	R1406M
252.382	1.6	404106	WORD	n/a	wordpools/wordpool_categorized_EN.txt	GUITAR	Instruments	3	2	[0, 0, 0]	n/a	catFR1	3	R1406M
253.982	0.967	405708	WORD_OFF	n/a	n/a	GUITAR	Instruments	3	2	[0, 0, 0]	n/a	catFR1	3	R1406M
254.949	1.616	406681	WORD	n/a	wordpools/wordpool_categorized_EN.txt	BANJO	Instruments	4	2	[0, 0, 0]	n/a	catFR1	3	R1406M
256.565	0.767	408302	WORD_OFF	n/a	n/a	BANJO	Instruments	4	2	[0, 0, 0]	n/a	catFR1	3	R1406M
257.332	1.6	409066	WORD	n/a	wordpools/wordpool_categorized_EN.txt	GNAT	Insects	5	2	[0, 0, 0]	n/a	catFR1	3	R1406M
258.932	0.983	410668	WORD_OFF	n/a	n/a	GNAT	Insects	5	2	[0, 0, 0]	n/a	catFR1	3	R1406M
259.915	1.616	411641	WORD	n/a	wordpools/wordpool_categorized_EN.txt	CRICKET	Insects	6	2	[0, 0, 0]	n/a	catFR1	3	R1406M
261.531	0.851	413262	WORD_OFF	n/a	n/a	CRICKET	Insects	6	2	[0, 0, 0]	n/a	catFR1	3	R1406M
262.382	1.6	414102	WORD	n/a	wordpools/wordpool_categorized_EN.txt	COUCH	Furniture	7	2	[0, 0, 0]	n/a	catFR1	3	R1406M
263.982	0.916	415704	WORD_OFF	n/a	n/a	COUCH	Furniture	7	2	[0, 0, 0]	n/a	catFR1	3	R1406M
264.898	1.6	416620	WORD	n/a	wordpools/wordpool_categorized_EN.txt	TABLE	Furniture	8	2	[0, 0, 0]	n/a	catFR1	3	R1406M
266.498	0.867	418222	WORD_OFF	n/a	n/a	TABLE	Furniture	8	2	[0, 0, 0]	n/a	catFR1	3	R1406M
267.365	1.617	419100	WORD	n/a	wordpools/wordpool_categorized_EN.txt	CELLO	Instruments	9	2	[0, 0, 0]	n/a	catFR1	3	R1406M
268.982	0.983	420702	WORD_OFF	n/a	n/a	CELLO	Instruments	9	2	[0, 0, 0]	n/a	catFR1	3	R1406M
269.965	1.617	421694	WORD	n/a	wordpools/wordpool_categorized_EN.txt	TUBA	Instruments	10	2	[0, 0, 0]	n/a	catFR1	3	R1406M
271.582	0.866	423316	WORD_OFF	n/a	n/a	TUBA	Instruments	10	2	[0, 0, 0]	n/a	catFR1	3	R1406M
272.448	1.617	424174	WORD	n/a	wordpools/wordpool_categorized_EN.txt	BUTTERFLY	Insects	11	2	[0, 0, 0]	n/a	catFR1	3	R1406M
274.065	0.867	425796	WORD_OFF	n/a	n/a	BUTTERFLY	Insects	11	2	[0, 0, 0]	n/a	catFR1	3	R1406M
274.932	1.616	426654	WORD	n/a	wordpools/wordpool_categorized_EN.txt	MOTH	Insects	12	2	[0, 0, 0]	n/a	catFR1	3	R1406M
276.548	0.002	428276	WORD_OFF	n/a	n/a	MOTH	Insects	12	2	[0, 0, 0]	n/a	catFR1	3	R1406M
276.55	0.0	428276	ENCODING_END	n/a	n/a	n/a	n/a	-999	2	[0, 0, 0]	n/a	catFR1	3	R1406M
276.55	0.0	428276	DISTRACT_START	n/a	n/a	n/a	n/a	-999	2	[0, 0, 0]	n/a	catFR1	3	R1406M
276.549	0.001	428276	PROB	0.001	n/a	n/a	n/a	-999	2	[1, 4, 2]	7	catFR1	3	R1406M
276.55	3.965	428277	START	n/a	n/a	n/a	n/a	-999	2	[-999, -999, -999]	n/a	catFR1	3	R1406M
280.515	8.35	432242	PROB	8.35	n/a	n/a	n/a	-999	2	[4, 5, 8]	16	catFR1	3	R1406M
288.865	11.616	440591	PROB	11.616	n/a	n/a	n/a	-999	2	[6, 5, 8]	19	catFR1	3	R1406M
300.481	0.0	452198	DISTRACT_END	n/a	n/a	n/a	n/a	-999	2	[0, 0, 0]	n/a	catFR1	3	R1406M
300.481	1.25	452207	STOP	n/a	n/a	n/a	n/a	-999	2	[-999, -999, -999]	n/a	catFR1	3	R1406M
301.731	19.631	453457	REC_START	n/a	n/a	n/a	n/a	-999	2	[0, 0, 0]	n/a	catFR1	3	R1406M
321.362	11.58	473087	REC_WORD	11.58	n/a	TUBA	Instruments	10	2	[0, 0, 0]	n/a	catFR1	3	R1406M
332.942	2.64	484667	REC_END	n/a	n/a	n/a	n/a	-999	2	[0, 0, 0]	n/a	catFR1	3	R1406M
335.582	10.351	487300	COUNTDOWN_START	n/a	n/a	n/a	n/a	-999	2	[0, 0, 0]	n/a	catFR1	3	R1406M
345.933	0.0	497659	COUNTDOWN_END	n/a	n/a	n/a	n/a	-999	2	[0, 0, 0]	n/a	catFR1	3	R1406M
345.933	2.216	497659	ENCODING_START	n/a	n/a	n/a	n/a	-999	3	[0, 0, 0]	n/a	catFR1	3	R1406M
348.149	1.6	499872	WORD	n/a	wordpools/wordpool_categorized_EN.txt	RECLINER	Furniture	1	3	[0, 0, 0]	n/a	catFR1	3	R1406M
349.749	0.866	501474	WORD_OFF	n/a	n/a	RECLINER	Furniture	1	3	[0, 0, 0]	n/a	catFR1	3	R1406M
350.615	1.617	502332	WORD	n/a	wordpools/wordpool_categorized_EN.txt	BED	Furniture	2	3	[0, 0, 0]	n/a	catFR1	3	R1406M
352.232	0.783	503954	WORD_OFF	n/a	n/a	BED	Furniture	2	3	[0, 0, 0]	n/a	catFR1	3	R1406M
353.015	1.6	504736	WORD	n/a	wordpools/wordpool_categorized_EN.txt	SHOES	Clothing	3	3	[0, 0, 0]	n/a	catFR1	3	R1406M
354.615	0.8	506339	WORD_OFF	n/a	n/a	SHOES	Clothing	3	3	[0, 0, 0]	n/a	catFR1	3	R1406M
355.415	1.617	507140	WORD	n/a	wordpools/wordpool_categorized_EN.txt	JEANS	Clothing	4	3	[0, 0, 0]	n/a	catFR1	3	R1406M
357.032	0.917	508761	WORD_OFF	n/a	n/a	JEANS	Clothing	4	3	[0, 0, 0]	n/a	catFR1	3	R1406M
357.949	1.6	509677	WORD	n/a	wordpools/wordpool_categorized_EN.txt	ZEBRA	Zoo	5	3	[0, 0, 0]	n/a	catFR1	3	R1406M
359.549	0.899	511280	WORD_OFF	n/a	n/a	ZEBRA	Zoo	5	3	[0, 0, 0]	n/a	catFR1	3	R1406M
360.448	1.6	512176	WORD	n/a	wordpools/wordpool_categorized_EN.txt	BEAR	Zoo	6	3	[0, 0, 0]	n/a	catFR1	3	R1406M
362.048	0.884	513779	WORD_OFF	n/a	n/a	BEAR	Zoo	6	3	[0, 0, 0]	n/a	catFR1	3	R1406M
362.932	1.617	514656	WORD	n/a	wordpools/wordpool_categorized_EN.txt	SKIRT	Clothing	7	3	[0, 0, 0]	n/a	catFR1	3	R1406M
364.549	0.95	516278	WORD_OFF	n/a	n/a	SKIRT	Clothing	7	3	[0, 0, 0]	n/a	catFR1	3	R1406M
365.499	1.6	517232	WORD	n/a	wordpools/wordpool_categorized_EN.txt	JACKET	Clothing	8	3	[0, 0, 0]	n/a	catFR1	3	R1406M
367.099	0.833	518815	WORD_OFF	n/a	n/a	JACKET	Clothing	8	3	[0, 0, 0]	n/a	catFR1	3	R1406M
367.932	1.6	519654	WORD	n/a	wordpools/wordpool_categorized_EN.txt	TIGER	Zoo	9	3	[0, 0, 0]	n/a	catFR1	3	R1406M
369.532	0.867	521257	WORD_OFF	n/a	n/a	TIGER	Zoo	9	3	[0, 0, 0]	n/a	catFR1	3	R1406M
370.399	1.6	522115	WORD	n/a	wordpools/wordpool_categorized_EN.txt	LION	Zoo	10	3	[0, 0, 0]	n/a	catFR1	3	R1406M
371.999	0.883	523718	WORD_OFF	n/a	n/a	LION	Zoo	10	3	[0, 0, 0]	n/a	catFR1	3	R1406M
372.882	1.6	524614	WORD	n/a	wordpools/wordpool_categorized_EN.txt	DESK	Furniture	11	3	[0, 0, 0]	n/a	catFR1	3	R1406M
374.482	1.0	526198	WORD_OFF	n/a	n/a	DESK	Furniture	11	3	[0, 0, 0]	n/a	catFR1	3	R1406M
375.482	1.601	527209	WORD	n/a	wordpools/wordpool_categorized_EN.txt	BOOKCASE	Furniture	12	3	[0, 0, 0]	n/a	catFR1	3	R1406M
377.083	0.001	528805	PROB	0.001	n/a	n/a	n/a	-999	3	[3, 4, 4]	11	catFR1	3	R1406M
377.084	0.0	528806	START	n/a	n/a	n/a	n/a	-999	3	[-999, -999, -999]	n/a	catFR1	3	R1406M
377.082	0.001	528811	WORD_OFF	n/a	n/a	BOOKCASE	Furniture	12	3	[0, 0, 0]	n/a	catFR1	3	R1406M
377.083	0.001	528811	ENCODING_END	n/a	n/a	n/a	n/a	-999	3	[0, 0, 0]	n/a	catFR1	3	R1406M
377.084	6.015	528811	DISTRACT_START	n/a	n/a	n/a	n/a	-999	3	[0, 0, 0]	n/a	catFR1	3	R1406M
383.099	8.616	534820	PROB	8.616	n/a	n/a	n/a	-999	3	[7, 1, 5]	13	catFR1	3	R1406M
391.715	3.583	543436	PROB	3.583	n/a	n/a	n/a	-999	3	[2, 8, 7]	17	catFR1	3	R1406M
395.298	4.7	547019	PROB	4.7	n/a	n/a	n/a	-999	3	[3, 3, 6]	12	catFR1	3	R1406M
399.998	0.0	551719	STOP	n/a	n/a	n/a	n/a	-999	3	[-999, -999, -999]	n/a	catFR1	3	R1406M
399.998	1.333	551723	DISTRACT_END	n/a	n/a	n/a	n/a	-999	3	[0, 0, 0]	n/a	catFR1	3	R1406M
401.331	13.454	553058	REC_START	n/a	n/a	n/a	n/a	-999	3	[0, 0, 0]	n/a	catFR1	3	R1406M
414.785	6.006	566505	REC_WORD	6.006	n/a	SHOES	Clothing	3	3	[0, 0, 0]	n/a	catFR1	3	R1406M
420.791	11.749	572510	REC_WORD	11.749	n/a	CARPET	n/a	-999	3	[0, 0, 0]	n/a	catFR1	3	R1406M
432.54	5.159	584268	REC_END	n/a	n/a	n/a	n/a	-999	3	[0, 0, 0]	n/a	catFR1	3	R1406M
437.699	10.349	589419	COUNTDOWN_START	n/a	n/a	n/a	n/a	-999	3	[0, 0, 0]	n/a	catFR1	3	R1406M
448.048	0.0	599758	COUNTDOWN_END	n/a	n/a	n/a	n/a	-999	3	[0, 0, 0]	n/a	catFR1	3	R1406M
448.048	2.234	599777	ENCODING_START	n/a	n/a	n/a	n/a	-999	4	[0, 0, 0]	n/a	catFR1	3	R1406M
450.282	1.6	602009	WORD	n/a	wordpools/wordpool_categorized_EN.txt	OCTOPUS	OceanAnimals	1	4	[0, 0, 0]	n/a	catFR1	3	R1406M
451.882	0.85	603593	WORD_OFF	n/a	n/a	OCTOPUS	OceanAnimals	1	4	[0, 0, 0]	n/a	catFR1	3	R1406M
452.732	1.6	604451	WORD	n/a	wordpools/wordpool_categorized_EN.txt	DOLPHIN	OceanAnimals	2	4	[0, 0, 0]	n/a	catFR1	3	R1406M
454.332	0.817	606054	WORD_OFF	n/a	n/a	DOLPHIN	OceanAnimals	2	4	[0, 0, 0]	n/a	catFR1	3	R1406M
455.149	1.6	606874	WORD	n/a	wordpools/wordpool_categorized_EN.txt	CHEESECAKE	Desserts	3	4	[0, 0, 0]	n/a	catFR1	3	R1406M
456.749	0.833	608457	WORD_OFF	n/a	n/a	CHEESECAKE	Desserts	3	4	[0, 0, 0]	n/a	catFR1	3	R1406M
457.582	1.617	609297	WORD	n/a	wordpools/wordpool_categorized_EN.txt	BROWNIES	Desserts	4	4	[0, 0, 0]	n/a	catFR1	3	R1406M
459.199	0.916	610918	WORD_OFF	n/a	n/a	BROWNIES	Desserts	4	4	[0, 0, 0]	n/a	catFR1	3	R1406M
460.115	1.617	611834	WORD	n/a	wordpools/wordpool_categorized_EN.txt	DRYER	Appliances	5	4	[0, 0, 0]	n/a	catFR1	3	R1406M
461.732	0.799	613455	WORD_OFF	n/a	n/a	DRYER	Appliances	5	4	[0, 0, 0]	n/a	catFR1	3	R1406M
462.531	1.601	614257	WORD	n/a	wordpools/wordpool_categorized_EN.txt	WASHER	Appliances	6	4	[0, 0, 0]	n/a	catFR1	3	R1406M
464.132	0.832	615859	WORD_OFF	n/a	n/a	WASHER	Appliances	6	4	[0, 0, 0]	n/a	catFR1	3	R1406M
464.964	1.6	616679	WORD	n/a	wordpools/wordpool_categorized_EN.txt	SHRIMP	OceanAnimals	7	4	[0, 0, 0]	n/a	catFR1	3	R1406M
466.564	0.817	618282	WORD_OFF	n/a	n/a	SHRIMP	OceanAnimals	7	4	[0, 0, 0]	n/a	catFR1	3	R1406M
467.381	1.6	619102	WORD	n/a	wordpools/wordpool_categorized_EN.txt	CRAB	OceanAnimals	8	4	[0, 0, 0]	n/a	catFR1	3	R1406M
468.981	0.816	620705	WORD_OFF	n/a	n/a	CRAB	OceanAnimals	8	4	[0, 0, 0]	n/a	catFR1	3	R1406M
469.797	1.601	621506	WORD	n/a	wordpools/wordpool_categorized_EN.txt	VACUUM	Appliances	9	4	[0, 0, 0]	n/a	catFR1	3	R1406M
471.398	0.95	623108	WORD_OFF	n/a	n/a	VACUUM	Appliances	9	4	[0, 0, 0]	n/a	catFR1	3	R1406M
472.348	1.6	624062	WORD	n/a	wordpools/wordpool_categorized_EN.txt	BLENDER	Appliances	10	4	[0, 0, 0]	n/a	catFR1	3	R1406M
473.948	0.901	625665	WORD_OFF	n/a	n/a	BLENDER	Appliances	10	4	[0, 0, 0]	n/a	catFR1	3	R1406M
474.849	1.616	626561	WORD	n/a	wordpools/wordpool_categorized_EN.txt	FUDGE	Desserts	11	4	[0, 0, 0]	n/a	catFR1	3	R1406M
476.465	0.967	628183	WORD_OFF	n/a	n/a	FUDGE	Desserts	11	4	[0, 0, 0]	n/a	catFR1	3	R1406M
477.432	1.6	629156	WORD	n/a	wordpools/wordpool_categorized_EN.txt	PIE	Desserts	12	4	[0, 0, 0]	n/a	catFR1	3	R1406M
479.032	0.001	630748	PROB	0.001	n/a	n/a	n/a	-999	4	[2, 7, 5]	14	catFR1	3	R1406M
479.033	0.0	630749	START	n/a	n/a	n/a	n/a	-999	4	[-999, -999, -999]	n/a	catFR1	3	R1406M
479.032	0.001	630758	WORD_OFF	n/a	n/a	PIE	Desserts	12	4	[0, 0, 0]	n/a	catFR1	3	R1406M
479.033	0.0	630758	ENCODING_END	n/a	n/a	n/a	n/a	-999	4	[0, 0, 0]	n/a	catFR1	3	R1406M
479.033	5.283	630758	DISTRACT_START	n/a	n/a	n/a	n/a	-999	4	[0, 0, 0]	n/a	catFR1	3	R1406M
484.316	3.383	636032	PROB	3.383	n/a	n/a	n/a	-999	4	[2, 2, 6]	10	catFR1	3	R1406M
487.699	4.916	639415	PROB	4.916	n/a	n/a	n/a	-999	4	[8, 6, 5]	19	catFR1	3	R1406M
492.615	5.983	644331	PROB	5.983	n/a	n/a	n/a	-999	4	[6, 5, 1]	12	catFR1	3	R1406M
498.598	3.75	650313	PROB	3.75	n/a	n/a	n/a	-999	4	[5, 5, 6]	16	catFR1	3	R1406M
502.348	0.0	654063	STOP	n/a	n/a	n/a	n/a	-999	4	[-999, -999, -999]	n/a	catFR1	3	R1406M
502.348	1.15	654070	DISTRACT_END	n/a	n/a	n/a	n/a	-999	4	[0, 0, 0]	n/a	catFR1	3	R1406M
503.498	1.772	655215	REC_START	n/a	n/a	n/a	n/a	-999	4	[0, 0, 0]	n/a	catFR1	3	R1406M
505.27	2.909	656985	REC_WORD	2.909	n/a	OCTOPUS	OceanAnimals	1	4	[0, 0, 0]	n/a	catFR1	3	R1406M
508.179	4.099	659894	REC_WORD	4.099	n/a	DOLPHIN	OceanAnimals	2	4	[0, 0, 0]	n/a	catFR1	3	R1406M
512.278	9.821	663993	REC_WORD	9.821	n/a	FUDGE	Desserts	11	4	[0, 0, 0]	n/a	catFR1	3	R1406M
522.099	10.643	673813	REC_WORD	10.643	n/a	CHEESECAKE	Desserts	3	4	[0, 0, 0]	n/a	catFR1	3	R1406M
532.742	1.974	684456	REC_WORD	1.974	n/a	OYSTER	OceanAnimals	-999	4	[0, 0, 0]	n/a	catFR1	3	R1406M
534.716	6.899	686425	REC_END	n/a	n/a	n/a	n/a	-999	4	[0, 0, 0]	n/a	catFR1	3	R1406M
541.615	10.351	693330	COUNTDOWN_START	n/a	n/a	n/a	n/a	-999	4	[0, 0, 0]	n/a	catFR1	3	R1406M
551.966	0.0	703670	COUNTDOWN_END	n/a	n/a	n/a	n/a	-999	4	[0, 0, 0]	n/a	catFR1	3	R1406M
551.966	2.232	703689	ENCODING_START	n/a	n/a	n/a	n/a	-999	5	[0, 0, 0]	n/a	catFR1	3	R1406M
554.198	1.6	705902	WORD	n/a	wordpools/wordpool_categorized_EN.txt	ISLAND	Landscapes	1	5	[0, 0, 0]	n/a	catFR1	3	R1406M
555.798	0.817	707505	WORD_OFF	n/a	n/a	ISLAND	Landscapes	1	5	[0, 0, 0]	n/a	catFR1	3	R1406M
556.615	1.617	708325	WORD	n/a	wordpools/wordpool_categorized_EN.txt	OCEAN	Landscapes	2	5	[0, 0, 0]	n/a	catFR1	3	R1406M
558.232	0.816	709946	WORD_OFF	n/a	n/a	OCEAN	Landscapes	2	5	[0, 0, 0]	n/a	catFR1	3	R1406M
559.048	1.601	710767	WORD	n/a	wordpools/wordpool_categorized_EN.txt	CARDINAL	Birds	3	5	[0, 0, 0]	n/a	catFR1	3	R1406M
560.649	0.832	712369	WORD_OFF	n/a	n/a	CARDINAL	Birds	3	5	[0, 0, 0]	n/a	catFR1	3	R1406M
561.481	1.6	713189	WORD	n/a	wordpools/wordpool_categorized_EN.txt	CROW	Birds	4	5	[0, 0, 0]	n/a	catFR1	3	R1406M
563.081	0.934	714792	WORD_OFF	n/a	n/a	CROW	Birds	4	5	[0, 0, 0]	n/a	catFR1	3	R1406M
564.015	1.6	715727	WORD	n/a	wordpools/wordpool_categorized_EN.txt	HEADPHONES	Electronics	5	5	[0, 0, 0]	n/a	catFR1	3	R1406M
565.615	0.95	717329	WORD_OFF	n/a	n/a	HEADPHONES	Electronics	5	5	[0, 0, 0]	n/a	catFR1	3	R1406M
566.565	1.617	718283	WORD	n/a	wordpools/wordpool_categorized_EN.txt	CALCULATOR	Electronics	6	5	[0, 0, 0]	n/a	catFR1	3	R1406M
568.182	0.767	719885	WORD_OFF	n/a	n/a	CALCULATOR	Electronics	6	5	[0, 0, 0]	n/a	catFR1	3	R1406M
568.949	1.6	720668	WORD	n/a	wordpools/wordpool_categorized_EN.txt	PIGEON	Birds	7	5	[0, 0, 0]	n/a	catFR1	3	R1406M
570.549	0.848	722270	WORD_OFF	n/a	n/a	PIGEON	Birds	7	5	[0, 0, 0]	n/a	catFR1	3	R1406M
571.397	1.601	723109	WORD	n/a	wordpools/wordpool_categorized_EN.txt	HAWK	Birds	8	5	[0, 0, 0]	n/a	catFR1	3	R1406M
572.998	0.816	724712	WORD_OFF	n/a	n/a	HAWK	Birds	8	5	[0, 0, 0]	n/a	catFR1	3	R1406M
573.814	1.601	725532	WORD	n/a	wordpools/wordpool_categorized_EN.txt	PHONE	Electronics	9	5	[0, 0, 0]	n/a	catFR1	3	R1406M
575.415	0.817	727135	WORD_OFF	n/a	n/a	PHONE	Electronics	9	5	[0, 0, 0]	n/a	catFR1	3	R1406M
576.232	1.616	727936	WORD	n/a	wordpools/wordpool_categorized_EN.txt	TABLET	Electronics	10	5	[0, 0, 0]	n/a	catFR1	3	R1406M
577.848	0.918	729557	WORD_OFF	n/a	n/a	TABLET	Electronics	10	5	[0, 0, 0]	n/a	catFR1	3	R1406M
578.766	1.616	730473	WORD	n/a	wordpools/wordpool_categorized_EN.txt	LAKE	Landscapes	11	5	[0, 0, 0]	n/a	catFR1	3	R1406M
580.382	0.9	732095	WORD_OFF	n/a	n/a	LAKE	Landscapes	11	5	[0, 0, 0]	n/a	catFR1	3	R1406M
581.282	1.616	732991	WORD	n/a	wordpools/wordpool_categorized_EN.txt	STREAM	Landscapes	12	5	[0, 0, 0]	n/a	catFR1	3	R1406M
582.898	0.002	734609	PROB	0.002	n/a	n/a	n/a	-999	5	[7, 6, 7]	20	catFR1	3	R1406M
582.9	0.0	734611	START	n/a	n/a	n/a	n/a	-999	5	[-999, -999, -999]	n/a	catFR1	3	R1406M
582.898	0.002	734613	WORD_OFF	n/a	n/a	STREAM	Landscapes	12	5	[0, 0, 0]	n/a	catFR1	3	R1406M
582.9	0.0	734613	ENCODING_END	n/a	n/a	n/a	n/a	-999	5	[0, 0, 0]	n/a	catFR1	3	R1406M
582.9	6.465	734613	DISTRACT_START	n/a	n/a	n/a	n/a	-999	5	[0, 0, 0]	n/a	catFR1	3	R1406M
589.365	5.167	741076	PROB	5.167	n/a	n/a	n/a	-999	5	[3, 6, 2]	11	catFR1	3	R1406M
594.532	3.699	746242	PROB	3.699	n/a	n/a	n/a	-999	5	[6, 7, 1]	14	catFR1	3	R1406M
598.231	3.068	749941	PROB	3.068	n/a	n/a	n/a	-999	5	[3, 2, 2]	7	catFR1	3	R1406M
601.299	2.516	753009	PROB	2.516	n/a	n/a	n/a	-999	5	[5, 3, 1]	9	catFR1	3	R1406M
603.815	0.0	755521	DISTRACT_END	n/a	n/a	n/a	n/a	-999	5	[0, 0, 0]	n/a	catFR1	3	R1406M
603.815	1.05	755525	STOP	n/a	n/a	n/a	n/a	-999	5	[-999, -999, -999]	n/a	catFR1	3	R1406M
604.865	17.889	756570	REC_START	n/a	n/a	n/a	n/a	-999	5	[0, 0, 0]	n/a	catFR1	3	R1406M
622.754	13.345	774463	REC_WORD	13.345	n/a	MICROWAVE	n/a	-999	5	[0, 0, 0]	n/a	catFR1	3	R1406M
636.099	2.783	787799	REC_END	n/a	n/a	n/a	n/a	-999	5	[0, 0, 0]	n/a	catFR1	3	R1406M
638.882	10.351	790584	COUNTDOWN_START	n/a	n/a	n/a	n/a	-999	5	[0, 0, 0]	n/a	catFR1	3	R1406M
649.233	0.0	800943	COUNTDOWN_END	n/a	n/a	n/a	n/a	-999	5	[0, 0, 0]	n/a	catFR1	3	R1406M
649.233	2.332	800943	ENCODING_START	n/a	n/a	n/a	n/a	-999	6	[0, 0, 0]	n/a	catFR1	3	R1406M
651.565	1.6	803271	WORD	n/a	wordpools/wordpool_categorized_EN.txt	BANANA	Fruit	1	6	[0, 0, 0]	n/a	catFR1	3	R1406M
653.165	0.899	804873	WORD_OFF	n/a	n/a	BANANA	Fruit	1	6	[0, 0, 0]	n/a	catFR1	3	R1406M
654.064	1.601	805770	WORD	n/a	wordpools/wordpool_categorized_EN.txt	STRAWBERRY	Fruit	2	6	[0, 0, 0]	n/a	catFR1	3	R1406M
655.665	1.017	807372	WORD_OFF	n/a	n/a	STRAWBERRY	Fruit	2	6	[0, 0, 0]	n/a	catFR1	3	R1406M
656.682	1.616	808383	WORD	n/a	wordpools/wordpool_categorized_EN.txt	SCREWDRIVER	Tools	3	6	[0, 0, 0]	n/a	catFR1	3	R1406M
658.298	1.001	810005	WORD_OFF	n/a	n/a	SCREWDRIVER	Tools	3	6	[0, 0, 0]	n/a	catFR1	3	R1406M
659.299	1.6	810997	WORD	n/a	wordpools/wordpool_categorized_EN.txt	SHOVEL	Tools	4	6	[0, 0, 0]	n/a	catFR1	3	R1406M
660.899	0.866	812599	WORD_OFF	n/a	n/a	SHOVEL	Tools	4	6	[0, 0, 0]	n/a	catFR1	3	R1406M
661.765	1.6	813477	WORD	n/a	wordpools/wordpool_categorized_EN.txt	LILAC	Flowers	5	6	[0, 0, 0]	n/a	catFR1	3	R1406M
663.365	0.9	815079	WORD_OFF	n/a	n/a	LILAC	Flowers	5	6	[0, 0, 0]	n/a	catFR1	3	R1406M
664.265	1.617	815976	WORD	n/a	wordpools/wordpool_categorized_EN.txt	ROSE	Flowers	6	6	[0, 0, 0]	n/a	catFR1	3	R1406M
665.882	0.966	817597	WORD_OFF	n/a	n/a	ROSE	Flowers	6	6	[0, 0, 0]	n/a	catFR1	3	R1406M
666.848	1.601	818551	WORD	n/a	wordpools/wordpool_categorized_EN.txt	APPLE	Fruit	7	6	[0, 0, 0]	n/a	catFR1	3	R1406M
668.449	0.949	820154	WORD_OFF	n/a	n/a	APPLE	Fruit	7	6	[0, 0, 0]	n/a	catFR1	3	R1406M
669.398	1.601	821107	WORD	n/a	wordpools/wordpool_categorized_EN.txt	CHERRY	Fruit	8	6	[0, 0, 0]	n/a	catFR1	3	R1406M
670.999	0.899	822710	WORD_OFF	n/a	n/a	CHERRY	Fruit	8	6	[0, 0, 0]	n/a	catFR1	3	R1406M
671.898	1.601	823607	WORD	n/a	wordpools/wordpool_categorized_EN.txt	SAW	Tools	9	6	[0, 0, 0]	n/a	catFR1	3	R1406M
673.499	0.915	825209	WORD_OFF	n/a	n/a	SAW	Tools	9	6	[0, 0, 0]	n/a	catFR1	3	R1406M
674.414	1.6	826125	WORD	n/a	wordpools/wordpool_categorized_EN.txt	SANDER	Tools	10	6	[0, 0, 0]	n/a	catFR1	3	R1406M
676.014	0.8	827727	WORD_OFF	n/a	n/a	SANDER	Tools	10	6	[0, 0, 0]	n/a	catFR1	3	R1406M
676.814	1.601	828528	WORD	n/a	wordpools/wordpool_categorized_EN.txt	DAISY	Flowers	11	6	[0, 0, 0]	n/a	catFR1	3	R1406M
678.415	0.917	830112	WORD_OFF	n/a	n/a	DAISY	Flowers	11	6	[0, 0, 0]	n/a	catFR1	3	R1406M
679.332	1.616	831047	WORD	n/a	wordpools/wordpool_categorized_EN.txt	MARIGOLD	Flowers	12	6	[0, 0, 0]	n/a	catFR1	3	R1406M
680.948	0.002	832649	WORD_OFF	n/a	n/a	MARIGOLD	Flowers	12	6	[0, 0, 0]	n/a	catFR1	3	R1406M
680.95	0.0	832649	ENCODING_END	n/a	n/a	n/a	n/a	-999	6	[0, 0, 0]	n/a	catFR1	3	R1406M
680.95	0.0	832649	DISTRACT_START	n/a	n/a	n/a	n/a	-999	6	[0, 0, 0]	n/a	catFR1	3	R1406M
680.948	0.002	832654	PROB	0.002	n/a	n/a	n/a	-999	6	[3, 4, 2]	9	catFR1	3	R1406M
680.95	4.016	832656	START	n/a	n/a	n/a	n/a	-999	6	[-999, -999, -999]	n/a	catFR1	3	R1406M
684.966	4.916	836672	PROB	4.916	n/a	n/a	n/a	-999	6	[8, 4, 7]	19	catFR1	3	R1406M
689.882	2.417	841587	PROB	2.417	n/a	n/a	n/a	-999	6	[1, 4, 6]	11	catFR1	3	R1406M
692.299	2.884	844004	PROB	2.884	n/a	n/a	n/a	-999	6	[4, 4, 4]	12	catFR1	3	R1406M
695.183	2.816	846888	PROB	2.816	n/a	n/a	n/a	-999	6	[5, 1, 3]	9	catFR1	3	R1406M
697.999	3.899	849704	PROB	3.899	n/a	n/a	n/a	-999	6	[7, 3, 2]	11	catFR1	3	R1406M
701.898	0.0	853595	DISTRACT_END	n/a	n/a	n/a	n/a	-999	6	[0, 0, 0]	n/a	catFR1	3	R1406M
701.898	1.183	853603	STOP	n/a	n/a	n/a	n/a	-999	6	[-999, -999, -999]	n/a	catFR1	3	R1406M
703.081	3.536	854778	REC_START	n/a	n/a	n/a	n/a	-999	6	[0, 0, 0]	n/a	catFR1	3	R1406M
706.617	1.427	858321	REC_WORD	1.427	n/a	BANANA	Fruit	1	6	[0, 0, 0]	n/a	catFR1	3	R1406M
708.044	2.982	859748	REC_WORD	2.982	n/a	STRAWBERRY	Fruit	2	6	[0, 0, 0]	n/a	catFR1	3	R1406M
711.026	14.455	862730	REC_WORD	14.455	n/a	SCREWDRIVER	Tools	3	6	[0, 0, 0]	n/a	catFR1	3	R1406M
725.481	8.817	877184	REC_WORD	8.817	n/a	APPLE	Fruit	7	6	[0, 0, 0]	n/a	catFR1	3	R1406M
734.298	50.167	886007	REC_END	n/a	n/a	n/a	n/a	-999	6	[0, 0, 0]	n/a	catFR1	3	R1406M
784.465	10.35	936160	COUNTDOWN_START	n/a	n/a	n/a	n/a	-999	6	[0, 0, 0]	n/a	catFR1	3	R1406M
794.815	0.0	946519	COUNTDOWN_END	n/a	n/a	n/a	n/a	-999	6	[0, 0, 0]	n/a	catFR1	3	R1406M
794.815	2.283	946519	ENCODING_START	n/a	n/a	n/a	n/a	-999	7	[0, 0, 0]	n/a	catFR1	3	R1406M
797.098	1.617	948808	WORD	n/a	wordpools/wordpool_categorized_EN.txt	WIND	Weather	1	7	[0, 0, 0]	n/a	catFR1	3	R1406M
798.715	0.899	950411	WORD_OFF	n/a	n/a	WIND	Weather	1	7	[0, 0, 0]	n/a	catFR1	3	R1406M
799.614	1.601	951307	WORD	n/a	wordpools/wordpool_categorized_EN.txt	RAIN	Weather	2	7	[0, 0, 0]	n/a	catFR1	3	R1406M
801.215	0.783	952910	WORD_OFF	n/a	n/a	RAIN	Weather	2	7	[0, 0, 0]	n/a	catFR1	3	R1406M
801.998	1.6	953692	WORD	n/a	wordpools/wordpool_categorized_EN.txt	TURKEY	FarmAnimals	3	7	[0, 0, 0]	n/a	catFR1	3	R1406M
803.598	0.85	955294	WORD_OFF	n/a	n/a	TURKEY	FarmAnimals	3	7	[0, 0, 0]	n/a	catFR1	3	R1406M
804.448	1.617	956153	WORD	n/a	wordpools/wordpool_categorized_EN.txt	CHICKEN	FarmAnimals	4	7	[0, 0, 0]	n/a	catFR1	3	R1406M
806.065	0.833	957755	WORD_OFF	n/a	n/a	CHICKEN	FarmAnimals	4	7	[0, 0, 0]	n/a	catFR1	3	R1406M
806.898	1.6	958595	WORD	n/a	wordpools/wordpool_categorized_EN.txt	SQUID	OceanAnimals	5	7	[0, 0, 0]	n/a	catFR1	3	R1406M
808.498	0.833	960197	WORD_OFF	n/a	n/a	SQUID	OceanAnimals	5	7	[0, 0, 0]	n/a	catFR1	3	R1406M
809.331	1.617	961037	WORD	n/a	wordpools/wordpool_categorized_EN.txt	LOBSTER	OceanAnimals	6	7	[0, 0, 0]	n/a	catFR1	3	R1406M
810.948	0.883	962639	WORD_OFF	n/a	n/a	LOBSTER	OceanAnimals	6	7	[0, 0, 0]	n/a	catFR1	3	R1406M
811.831	1.617	963536	WORD	n/a	wordpools/wordpool_categorized_EN.txt	HORSE	FarmAnimals	7	7	[0, 0, 0]	n/a	catFR1	3	R1406M
813.448	0.983	965138	WORD_OFF	n/a	n/a	HORSE	FarmAnimals	7	7	[0, 0, 0]	n/a	catFR1	3	R1406M
814.431	1.616	966130	WORD	n/a	wordpools/wordpool_categorized_EN.txt	BULL	FarmAnimals	8	7	[0, 0, 0]	n/a	catFR1	3	R1406M
816.047	0.767	967752	WORD_OFF	n/a	n/a	BULL	FarmAnimals	8	7	[0, 0, 0]	n/a	catFR1	3	R1406M
816.814	1.6	968515	WORD	n/a	wordpools/wordpool_categorized_EN.txt	DRIZZLE	Weather	9	7	[0, 0, 0]	n/a	catFR1	3	R1406M
818.414	0.817	970117	WORD_OFF	n/a	n/a	DRIZZLE	Weather	9	7	[0, 0, 0]	n/a	catFR1	3	R1406M
819.231	1.617	970937	WORD	n/a	wordpools/wordpool_categorized_EN.txt	HURRICANE	Weather	10	7	[0, 0, 0]	n/a	catFR1	3	R1406M
820.848	0.833	972540	WORD_OFF	n/a	n/a	HURRICANE	Weather	10	7	[0, 0, 0]	n/a	catFR1	3	R1406M
821.681	1.6	973379	WORD	n/a	wordpools/wordpool_categorized_EN.txt	JELLYFISH	OceanAnimals	11	7	[0, 0, 0]	n/a	catFR1	3	R1406M
823.281	0.817	974982	WORD_OFF	n/a	n/a	JELLYFISH	OceanAnimals	11	7	[0, 0, 0]	n/a	catFR1	3	R1406M
824.098	1.616	975802	WORD	n/a	wordpools/wordpool_categorized_EN.txt	TURTLE	OceanAnimals	12	7	[0, 0, 0]	n/a	catFR1	3	R1406M
825.714	0.001	977404	WORD_OFF	n/a	n/a	TURTLE	OceanAnimals	12	7	[0, 0, 0]	n/a	catFR1	3	R1406M
825.715	0.001	977413	PROB	0.001	n/a	n/a	n/a	-999	7	[5, 5, 2]	12	catFR1	3	R1406M
825.716	0.0	977414	START	n/a	n/a	n/a	n/a	-999	7	[-999, -999, -999]	n/a	catFR1	3	R1406M
825.716	0.0	977424	ENCODING_END	n/a	n/a	n/a	n/a	-999	7	[0, 0, 0]	n/a	catFR1	3	R1406M
825.716	4.7	977424	DISTRACT_START	n/a	n/a	n/a	n/a	-999	7	[0, 0, 0]	n/a	catFR1	3	R1406M
830.416	3.683	982114	PROB	3.683	n/a	n/a	n/a	-999	7	[7, 7, 1]	15	catFR1	3	R1406M
834.099	2.817	985797	PROB	2.817	n/a	n/a	n/a	-999	7	[6, 1, 1]	8	catFR1	3	R1406M
836.916	4.316	988614	PROB	4.316	n/a	n/a	n/a	-999	7	[8, 7, 3]	18	catFR1	3	R1406M
841.232	5.1	992929	PROB	5.1	n/a	n/a	n/a	-999	7	[2, 4, 7]	13	catFR1	3	R1406M
846.332	0.0	998027	DISTRACT_END	n/a	n/a	n/a	n/a	-999	7	[0, 0, 0]	n/a	catFR1	3	R1406M
846.332	1.233	998029	STOP	n/a	n/a	n/a	n/a	-999	7	[-999, -999, -999]	n/a	catFR1	3	R1406M
847.565	2.255	999267	REC_START	n/a	n/a	n/a	n/a	-999	7	[0, 0, 0]	n/a	catFR1	3	R1406M
849.82	12.113	1001517	REC_WORD	12.113	n/a	LOBSTER	OceanAnimals	6	7	[0, 0, 0]	n/a	catFR1	3	R1406M
861.933	16.876	1013629	REC_WORD	16.876	n/a	OYSTER	OceanAnimals	-999	7	[0, 0, 0]	n/a	catFR1	3	R1406M
878.809	43.656	1030495	REC_END	n/a	n/a	n/a	n/a	-999	7	[0, 0, 0]	n/a	catFR1	3	R1406M
922.465	10.35	1074163	COUNTDOWN_START	n/a	n/a	n/a	n/a	-999	7	[0, 0, 0]	n/a	catFR1	3	R1406M
932.815	0.0	1084502	COUNTDOWN_END	n/a	n/a	n/a	n/a	-999	7	[0, 0, 0]	n/a	catFR1	3	R1406M
932.815	2.234	1084502	ENCODING_START	n/a	n/a	n/a	n/a	-999	8	[0, 0, 0]	n/a	catFR1	3	R1406M
935.049	1.6	1086734	WORD	n/a	wordpools/wordpool_categorized_EN.txt	MOUNTAIN	Landscapes	1	8	[0, 0, 0]	n/a	catFR1	3	R1406M
936.649	0.816	1088337	WORD_OFF	n/a	n/a	MOUNTAIN	Landscapes	1	8	[0, 0, 0]	n/a	catFR1	3	R1406M
937.465	1.601	1089157	WORD	n/a	wordpools/wordpool_categorized_EN.txt	VALLEY	Landscapes	2	8	[0, 0, 0]	n/a	catFR1	3	R1406M
939.066	0.866	1090759	WORD_OFF	n/a	n/a	VALLEY	Landscapes	2	8	[0, 0, 0]	n/a	catFR1	3	R1406M
939.932	1.617	1091618	WORD	n/a	wordpools/wordpool_categorized_EN.txt	ELBOW	BodyParts	3	8	[0, 0, 0]	n/a	catFR1	3	R1406M
941.549	0.933	1093239	WORD_OFF	n/a	n/a	ELBOW	BodyParts	3	8	[0, 0, 0]	n/a	catFR1	3	R1406M
942.482	1.617	1094174	WORD	n/a	wordpools/wordpool_categorized_EN.txt	FINGERS	BodyParts	4	8	[0, 0, 0]	n/a	catFR1	3	R1406M
944.099	0.9	1095796	WORD_OFF	n/a	n/a	FINGERS	BodyParts	4	8	[0, 0, 0]	n/a	catFR1	3	R1406M
944.999	1.616	1096692	WORD	n/a	wordpools/wordpool_categorized_EN.txt	CALF	FarmAnimals	5	8	[0, 0, 0]	n/a	catFR1	3	R1406M
946.615	0.767	1098314	WORD_OFF	n/a	n/a	CALF	FarmAnimals	5	8	[0, 0, 0]	n/a	catFR1	3	R1406M
947.382	1.617	1099077	WORD	n/a	wordpools/wordpool_categorized_EN.txt	LAMB	FarmAnimals	6	8	[0, 0, 0]	n/a	catFR1	3	R1406M
948.999	0.933	1100698	WORD_OFF	n/a	n/a	LAMB	FarmAnimals	6	8	[0, 0, 0]	n/a	catFR1	3	R1406M
949.932	1.616	1101614	WORD	n/a	wordpools/wordpool_categorized_EN.txt	WOODS	Landscapes	7	8	[0, 0, 0]	n/a	catFR1	3	R1406M
951.548	0.883	1103236	WORD_OFF	n/a	n/a	WOODS	Landscapes	7	8	[0, 0, 0]	n/a	catFR1	3	R1406M
952.431	1.601	1104132	WORD	n/a	wordpools/wordpool_categorized_EN.txt	HILLS	Landscapes	8	8	[0, 0, 0]	n/a	catFR1	3	R1406M
954.032	0.966	1105716	WORD_OFF	n/a	n/a	HILLS	Landscapes	8	8	[0, 0, 0]	n/a	catFR1	3	R1406M
954.998	1.601	1106689	WORD	n/a	wordpools/wordpool_categorized_EN.txt	LEG	BodyParts	9	8	[0, 0, 0]	n/a	catFR1	3	R1406M
956.599	0.865	1108291	WORD_OFF	n/a	n/a	LEG	BodyParts	9	8	[0, 0, 0]	n/a	catFR1	3	R1406M
957.464	1.601	1109150	WORD	n/a	wordpools/wordpool_categorized_EN.txt	EYE	BodyParts	10	8	[0, 0, 0]	n/a	catFR1	3	R1406M
959.065	0.8	1110752	WORD_OFF	n/a	n/a	EYE	BodyParts	10	8	[0, 0, 0]	n/a	catFR1	3	R1406M
959.865	1.617	1111553	WORD	n/a	wordpools/wordpool_categorized_EN.txt	COW	FarmAnimals	11	8	[0, 0, 0]	n/a	catFR1	3	R1406M
961.482	0.918	1113175	WORD_OFF	n/a	n/a	COW	FarmAnimals	11	8	[0, 0, 0]	n/a	catFR1	3	R1406M
962.4	1.616	1114090	WORD	n/a	wordpools/wordpool_categorized_EN.txt	SHEEP	FarmAnimals	12	8	[0, 0, 0]	n/a	catFR1	3	R1406M
964.016	0.001	1115707	PROB	0.001	n/a	n/a	n/a	-999	8	[8, 7, 4]	19	catFR1	3	R1406M
964.017	0.0	1115708	START	n/a	n/a	n/a	n/a	-999	8	[-999, -999, -999]	n/a	catFR1	3	R1406M
964.015	0.002	1115712	WORD_OFF	n/a	n/a	SHEEP	FarmAnimals	12	8	[0, 0, 0]	n/a	catFR1	3	R1406M
964.017	0.0	1115712	ENCODING_END	n/a	n/a	n/a	n/a	-999	8	[0, 0, 0]	n/a	catFR1	3	R1406M
964.017	12.365	1115712	DISTRACT_START	n/a	n/a	n/a	n/a	-999	8	[0, 0, 0]	n/a	catFR1	3	R1406M
976.382	4.833	1128072	PROB	4.833	n/a	n/a	n/a	-999	8	[7, 4, 5]	16	catFR1	3	R1406M
981.215	3.8	1132905	PROB	3.8	n/a	n/a	n/a	-999	8	[5, 6, 5]	16	catFR1	3	R1406M
985.015	0.0	1136697	DISTRACT_END	n/a	n/a	n/a	n/a	-999	8	[0, 0, 0]	n/a	catFR1	3	R1406M
985.015	1.15	1136705	STOP	n/a	n/a	n/a	n/a	-999	8	[-999, -999, -999]	n/a	catFR1	3	R1406M
986.165	2.895	1137860	REC_START	n/a	n/a	n/a	n/a	-999	8	[0, 0, 0]	n/a	catFR1	3	R1406M
989.06	24.384	1140750	REC_WORD	24.384	n/a	MOUNTAIN	Landscapes	1	8	[0, 0, 0]	n/a	catFR1	3	R1406M
1013.444	3.954	1165132	REC_WORD	3.954	n/a	VALLEY	Landscapes	2	8	[0, 0, 0]	n/a	catFR1	3	R1406M
1017.398	9.75	1169089	REC_END	n/a	n/a	n/a	n/a	-999	8	[0, 0, 0]	n/a	catFR1	3	R1406M
1027.148	10.351	1178837	COUNTDOWN_START	n/a	n/a	n/a	n/a	-999	8	[0, 0, 0]	n/a	catFR1	3	R1406M
1037.499	0.0	1189177	COUNTDOWN_END	n/a	n/a	n/a	n/a	-999	8	[0, 0, 0]	n/a	catFR1	3	R1406M
1037.499	2.082	1189196	ENCODING_START	n/a	n/a	n/a	n/a	-999	9	[0, 0, 0]	n/a	catFR1	3	R1406M
1039.581	1.601	1191276	WORD	n/a	wordpools/wordpool_categorized_EN.txt	ORCHID	Flowers	1	9	[0, 0, 0]	n/a	catFR1	3	R1406M
1041.182	0.849	1192859	WORD_OFF	n/a	n/a	ORCHID	Flowers	1	9	[0, 0, 0]	n/a	catFR1	3	R1406M
1042.031	1.601	1193717	WORD	n/a	wordpools/wordpool_categorized_EN.txt	CARNATION	Flowers	2	9	[0, 0, 0]	n/a	catFR1	3	R1406M
1043.632	0.866	1195320	WORD_OFF	n/a	n/a	CARNATION	Flowers	2	9	[0, 0, 0]	n/a	catFR1	3	R1406M
1044.498	1.601	1196178	WORD	n/a	wordpools/wordpool_categorized_EN.txt	THUNDER	Weather	3	9	[0, 0, 0]	n/a	catFR1	3	R1406M
1046.099	0.883	1197781	WORD_OFF	n/a	n/a	THUNDER	Weather	3	9	[0, 0, 0]	n/a	catFR1	3	R1406M
1046.982	1.617	1198677	WORD	n/a	wordpools/wordpool_categorized_EN.txt	LIGHTNING	Weather	4	9	[0, 0, 0]	n/a	catFR1	3	R1406M
1048.599	0.983	1200280	WORD_OFF	n/a	n/a	LIGHTNING	Weather	4	9	[0, 0, 0]	n/a	catFR1	3	R1406M
1049.582	1.616	1201272	WORD	n/a	wordpools/wordpool_categorized_EN.txt	HAMMER	Tools	5	9	[0, 0, 0]	n/a	catFR1	3	R1406M
1051.198	0.784	1202893	WORD_OFF	n/a	n/a	HAMMER	Tools	5	9	[0, 0, 0]	n/a	catFR1	3	R1406M
1051.982	1.617	1203676	WORD	n/a	wordpools/wordpool_categorized_EN.txt	LEVEL	Tools	6	9	[0, 0, 0]	n/a	catFR1	3	R1406M
1053.599	0.916	1205278	WORD_OFF	n/a	n/a	LEVEL	Tools	6	9	[0, 0, 0]	n/a	catFR1	3	R1406M
1054.515	1.6	1206194	WORD	n/a	wordpools/wordpool_categorized_EN.txt	SUNFLOWER	Flowers	7	9	[0, 0, 0]	n/a	catFR1	3	R1406M
1056.115	0.999	1207796	WORD_OFF	n/a	n/a	SUNFLOWER	Flowers	7	9	[0, 0, 0]	n/a	catFR1	3	R1406M
1057.114	1.601	1208807	WORD	n/a	wordpools/wordpool_categorized_EN.txt	LILY	Flowers	8	9	[0, 0, 0]	n/a	catFR1	3	R1406M
1058.715	0.783	1210410	WORD_OFF	n/a	n/a	LILY	Flowers	8	9	[0, 0, 0]	n/a	catFR1	3	R1406M
1059.498	1.601	1211192	WORD	n/a	wordpools/wordpool_categorized_EN.txt	CROWBAR	Tools	9	9	[0, 0, 0]	n/a	catFR1	3	R1406M
1061.099	0.983	1212775	WORD_OFF	n/a	n/a	CROWBAR	Tools	9	9	[0, 0, 0]	n/a	catFR1	3	R1406M
1062.082	1.617	1213767	WORD	n/a	wordpools/wordpool_categorized_EN.txt	RATCHET	Tools	10	9	[0, 0, 0]	n/a	catFR1	3	R1406M
1063.699	1.0	1215389	WORD_OFF	n/a	n/a	RATCHET	Tools	10	9	[0, 0, 0]	n/a	catFR1	3	R1406M
1064.699	1.6	1216381	WORD	n/a	wordpools/wordpool_categorized_EN.txt	SNOW	Weather	11	9	[0, 0, 0]	n/a	catFR1	3	R1406M
1066.299	0.982	1217983	WORD_OFF	n/a	n/a	SNOW	Weather	11	9	[0, 0, 0]	n/a	catFR1	3	R1406M
1067.281	1.601	1218975	WORD	n/a	wordpools/wordpool_categorized_EN.txt	THUNDERSTORM	Weather	12	9	[0, 0, 0]	n/a	catFR1	3	R1406M
1068.882	0.001	1220559	WORD_OFF	n/a	n/a	THUNDERSTORM	Weather	12	9	[0, 0, 0]	n/a	catFR1	3	R1406M
1068.883	0.0	1220568	START	n/a	n/a	n/a	n/a	-999	9	[-999, -999, -999]	n/a	catFR1	3	R1406M
1068.883	0.0	1220568	PROB	0.0	n/a	n/a	n/a	-999	9	[3, 6, 3]	12	catFR1	3	R1406M
1068.883	0.0	1220578	ENCODING_END	n/a	n/a	n/a	n/a	-999	9	[0, 0, 0]	n/a	catFR1	3	R1406M
1068.883	5.583	1220578	DISTRACT_START	n/a	n/a	n/a	n/a	-999	9	[0, 0, 0]	n/a	catFR1	3	R1406M
1074.466	5.899	1226151	PROB	5.899	n/a	n/a	n/a	-999	9	[8, 4, 8]	20	catFR1	3	R1406M
1080.365	3.367	1232050	PROB	3.367	n/a	n/a	n/a	-999	9	[2, 7, 7]	16	catFR1	3	R1406M
1083.732	2.968	1235417	PROB	2.968	n/a	n/a	n/a	-999	9	[2, 5, 4]	11	catFR1	3	R1406M
1086.7	2.432	1238384	PROB	2.432	n/a	n/a	n/a	-999	9	[1, 8, 4]	13	catFR1	3	R1406M
1089.132	0.0	1240816	STOP	n/a	n/a	n/a	n/a	-999	9	[-999, -999, -999]	n/a	catFR1	3	R1406M
1089.132	1.249	1240818	DISTRACT_END	n/a	n/a	n/a	n/a	-999	9	[0, 0, 0]	n/a	catFR1	3	R1406M
1090.381	4.546	1242058	REC_START	n/a	n/a	n/a	n/a	-999	9	[0, 0, 0]	n/a	catFR1	3	R1406M
1094.927	2.299	1246611	REC_WORD	2.299	n/a	BLENDER	Appliances	-999	9	[0, 0, 0]	n/a	catFR1	3	R1406M
1097.226	24.38	1248910	REC_WORD	24.38	n/a	LIGHTNING	Weather	4	9	[0, 0, 0]	n/a	catFR1	3	R1406M
1121.606	3.326	1273287	REC_END	n/a	n/a	n/a	n/a	-999	9	[0, 0, 0]	n/a	catFR1	3	R1406M
1124.932	10.35	1276626	COUNTDOWN_START	n/a	n/a	n/a	n/a	-999	9	[0, 0, 0]	n/a	catFR1	3	R1406M
1135.282	0.0	1286965	COUNTDOWN_END	n/a	n/a	n/a	n/a	-999	9	[0, 0, 0]	n/a	catFR1	3	R1406M
1135.282	1.983	1286965	ENCODING_START	n/a	n/a	n/a	n/a	-999	10	[0, 0, 0]	n/a	catFR1	3	R1406M
1137.265	1.616	1288949	WORD	n/a	wordpools/wordpool_categorized_EN.txt	DAFFODIL	Flowers	1	10	[0, 0, 0]	n/a	catFR1	3	R1406M
1138.881	0.85	1290571	WORD_OFF	n/a	n/a	DAFFODIL	Flowers	1	10	[0, 0, 0]	n/a	catFR1	3	R1406M
1139.731	1.617	1291410	WORD	n/a	wordpools/wordpool_categorized_EN.txt	PETUNIA	Flowers	2	10	[0, 0, 0]	n/a	catFR1	3	R1406M
1141.348	0.933	1293032	WORD_OFF	n/a	n/a	PETUNIA	Flowers	2	10	[0, 0, 0]	n/a	catFR1	3	R1406M
1142.281	1.617	1293967	WORD	n/a	wordpools/wordpool_categorized_EN.txt	TOASTER	Appliances	3	10	[0, 0, 0]	n/a	catFR1	3	R1406M
1143.898	0.966	1295588	WORD_OFF	n/a	n/a	TOASTER	Appliances	3	10	[0, 0, 0]	n/a	catFR1	3	R1406M
1144.864	1.601	1296542	WORD	n/a	wordpools/wordpool_categorized_EN.txt	REFRIGERATOR	Appliances	4	10	[0, 0, 0]	n/a	catFR1	3	R1406M
1146.465	0.949	1298144	WORD_OFF	n/a	n/a	REFRIGERATOR	Appliances	4	10	[0, 0, 0]	n/a	catFR1	3	R1406M
1147.414	1.601	1299098	WORD	n/a	wordpools/wordpool_categorized_EN.txt	FORK	KitchenTools	5	10	[0, 0, 0]	n/a	catFR1	3	R1406M
1149.015	0.767	1300701	WORD_OFF	n/a	n/a	FORK	KitchenTools	5	10	[0, 0, 0]	n/a	catFR1	3	R1406M
1149.782	1.616	1301464	WORD	n/a	wordpools/wordpool_categorized_EN.txt	GRATER	KitchenTools	6	10	[0, 0, 0]	n/a	catFR1	3	R1406M
1151.398	0.85	1303085	WORD_OFF	n/a	n/a	GRATER	KitchenTools	6	10	[0, 0, 0]	n/a	catFR1	3	R1406M
1152.248	1.601	1303925	WORD	n/a	wordpools/wordpool_categorized_EN.txt	FREEZER	Appliances	7	10	[0, 0, 0]	n/a	catFR1	3	R1406M
1153.849	0.998	1305527	WORD_OFF	n/a	n/a	FREEZER	Appliances	7	10	[0, 0, 0]	n/a	catFR1	3	R1406M
1154.847	1.601	1306519	WORD	n/a	wordpools/wordpool_categorized_EN.txt	STOVE	Appliances	8	10	[0, 0, 0]	n/a	catFR1	3	R1406M
1156.448	0.95	1308122	WORD_OFF	n/a	n/a	STOVE	Appliances	8	10	[0, 0, 0]	n/a	catFR1	3	R1406M
1157.398	1.6	1309075	WORD	n/a	wordpools/wordpool_categorized_EN.txt	TULIP	Flowers	9	10	[0, 0, 0]	n/a	catFR1	3	R1406M
1158.998	0.95	1310678	WORD_OFF	n/a	n/a	TULIP	Flowers	9	10	[0, 0, 0]	n/a	catFR1	3	R1406M
1159.948	1.601	1311632	WORD	n/a	wordpools/wordpool_categorized_EN.txt	VIOLET	Flowers	10	10	[0, 0, 0]	n/a	catFR1	3	R1406M
1161.549	0.933	1313234	WORD_OFF	n/a	n/a	VIOLET	Flowers	10	10	[0, 0, 0]	n/a	catFR1	3	R1406M
1162.482	1.617	1314169	WORD	n/a	wordpools/wordpool_categorized_EN.txt	PEELER	KitchenTools	11	10	[0, 0, 0]	n/a	catFR1	3	R1406M
1164.099	0.833	1315771	WORD_OFF	n/a	n/a	PEELER	KitchenTools	11	10	[0, 0, 0]	n/a	catFR1	3	R1406M
1164.932	1.618	1316611	WORD	n/a	wordpools/wordpool_categorized_EN.txt	SPATULA	KitchenTools	12	10	[0, 0, 0]	n/a	catFR1	3	R1406M
1166.55	0.0	1318230	PROB	0.0	n/a	n/a	n/a	-999	10	[7, 5, 3]	15	catFR1	3	R1406M
1166.55	0.0	1318230	START	n/a	n/a	n/a	n/a	-999	10	[-999, -999, -999]	n/a	catFR1	3	R1406M
1166.549	0.001	1318232	WORD_OFF	n/a	n/a	SPATULA	KitchenTools	12	10	[0, 0, 0]	n/a	catFR1	3	R1406M
1166.55	0.0	1318232	ENCODING_END	n/a	n/a	n/a	n/a	-999	10	[0, 0, 0]	n/a	catFR1	3	R1406M
1166.55	6.915	1318232	DISTRACT_START	n/a	n/a	n/a	n/a	-999	10	[0, 0, 0]	n/a	catFR1	3	R1406M
1173.465	3.067	1325145	PROB	3.067	n/a	n/a	n/a	-999	10	[7, 7, 1]	15	catFR1	3	R1406M
1176.532	2.817	1328212	PROB	2.817	n/a	n/a	n/a	-999	10	[1, 6, 7]	14	catFR1	3	R1406M
1179.349	3.251	1331029	PROB	3.251	n/a	n/a	n/a	-999	10	[4, 7, 1]	12	catFR1	3	R1406M
1182.6	2.615	1334279	PROB	2.615	n/a	n/a	n/a	-999	10	[5, 5, 6]	16	catFR1	3	R1406M
1185.215	3.467	1336894	PROB	3.467	n/a	n/a	n/a	-999	10	[4, 8, 1]	13	catFR1	3	R1406M
1188.682	0.0	1340361	STOP	n/a	n/a	n/a	n/a	-999	10	[-999, -999, -999]	n/a	catFR1	3	R1406M
1188.682	1.283	1340362	DISTRACT_END	n/a	n/a	n/a	n/a	-999	10	[0, 0, 0]	n/a	catFR1	3	R1406M
1189.965	3.104	1341640	REC_START	n/a	n/a	n/a	n/a	-999	10	[0, 0, 0]	n/a	catFR1	3	R1406M
1193.069	28.131	1344748	REC_WORD	28.131	n/a	PETUNIA	Flowers	2	10	[0, 0, 0]	n/a	catFR1	3	R1406M
1221.2	2.849	1372869	REC_END	n/a	n/a	n/a	n/a	-999	10	[0, 0, 0]	n/a	catFR1	3	R1406M
1224.049	10.35	1375730	COUNTDOWN_START	n/a	n/a	n/a	n/a	-999	10	[0, 0, 0]	n/a	catFR1	3	R1406M
1234.399	0.0	1386070	COUNTDOWN_END	n/a	n/a	n/a	n/a	-999	10	[0, 0, 0]	n/a	catFR1	3	R1406M
1234.399	2.016	1386070	ENCODING_START	n/a	n/a	n/a	n/a	-999	11	[0, 0, 0]	n/a	catFR1	3	R1406M
1236.415	1.6	1388092	WORD	n/a	wordpools/wordpool_categorized_EN.txt	BLUEBIRD	Birds	1	11	[0, 0, 0]	n/a	catFR1	3	R1406M
1238.015	0.933	1389694	WORD_OFF	n/a	n/a	BLUEBIRD	Birds	1	11	[0, 0, 0]	n/a	catFR1	3	R1406M
1238.948	1.616	1390629	WORD	n/a	wordpools/wordpool_categorized_EN.txt	DUCK	Birds	2	11	[0, 0, 0]	n/a	catFR1	3	R1406M
1240.564	0.934	1392232	WORD_OFF	n/a	n/a	DUCK	Birds	2	11	[0, 0, 0]	n/a	catFR1	3	R1406M
1241.498	1.6	1393166	WORD	n/a	wordpools/wordpool_categorized_EN.txt	SUEDE	Fabric	3	11	[0, 0, 0]	n/a	catFR1	3	R1406M
1243.098	0.933	1394769	WORD_OFF	n/a	n/a	SUEDE	Fabric	3	11	[0, 0, 0]	n/a	catFR1	3	R1406M
1244.031	1.6	1395704	WORD	n/a	wordpools/wordpool_categorized_EN.txt	SATIN	Fabric	4	11	[0, 0, 0]	n/a	catFR1	3	R1406M
1245.631	0.834	1397306	WORD_OFF	n/a	n/a	SATIN	Fabric	4	11	[0, 0, 0]	n/a	catFR1	3	R1406M
1246.465	1.617	1398145	WORD	n/a	wordpools/wordpool_categorized_EN.txt	FOLDER	OfficeSupplies	5	11	[0, 0, 0]	n/a	catFR1	3	R1406M
1248.082	0.916	1399767	WORD_OFF	n/a	n/a	FOLDER	OfficeSupplies	5	11	[0, 0, 0]	n/a	catFR1	3	R1406M
1248.998	1.6	1400683	WORD	n/a	wordpools/wordpool_categorized_EN.txt	GLUE	OfficeSupplies	6	11	[0, 0, 0]	n/a	catFR1	3	R1406M
1250.598	0.967	1402266	WORD_OFF	n/a	n/a	GLUE	OfficeSupplies	6	11	[0, 0, 0]	n/a	catFR1	3	R1406M
1251.565	1.6	1403239	WORD	n/a	wordpools/wordpool_categorized_EN.txt	GOOSE	Birds	7	11	[0, 0, 0]	n/a	catFR1	3	R1406M
1253.165	0.784	1404841	WORD_OFF	n/a	n/a	GOOSE	Birds	7	11	[0, 0, 0]	n/a	catFR1	3	R1406M
1253.949	1.599	1405624	WORD	n/a	wordpools/wordpool_categorized_EN.txt	SPARROW	Birds	8	11	[0, 0, 0]	n/a	catFR1	3	R1406M
1255.548	0.934	1407226	WORD_OFF	n/a	n/a	SPARROW	Birds	8	11	[0, 0, 0]	n/a	catFR1	3	R1406M
1256.482	1.6	1408161	WORD	n/a	wordpools/wordpool_categorized_EN.txt	NYLON	Fabric	9	11	[0, 0, 0]	n/a	catFR1	3	R1406M
1258.082	0.767	1409763	WORD_OFF	n/a	n/a	NYLON	Fabric	9	11	[0, 0, 0]	n/a	catFR1	3	R1406M
1258.849	1.616	1410526	WORD	n/a	wordpools/wordpool_categorized_EN.txt	SPANDEX	Fabric	10	11	[0, 0, 0]	n/a	catFR1	3	R1406M
1260.465	0.9	1412148	WORD_OFF	n/a	n/a	SPANDEX	Fabric	10	11	[0, 0, 0]	n/a	catFR1	3	R1406M
1261.365	1.6	1413045	WORD	n/a	wordpools/wordpool_categorized_EN.txt	MARKER	OfficeSupplies	11	11	[0, 0, 0]	n/a	catFR1	3	R1406M
1262.965	0.967	1414647	WORD_OFF	n/a	n/a	MARKER	OfficeSupplies	11	11	[0, 0, 0]	n/a	catFR1	3	R1406M
1263.932	1.601	1415601	WORD	n/a	wordpools/wordpool_categorized_EN.txt	RULER	OfficeSupplies	12	11	[0, 0, 0]	n/a	catFR1	3	R1406M
1265.533	0.002	1417203	WORD_OFF	n/a	n/a	RULER	OfficeSupplies	12	11	[0, 0, 0]	n/a	catFR1	3	R1406M
1265.535	0.0	1417203	ENCODING_END	n/a	n/a	n/a	n/a	-999	11	[0, 0, 0]	n/a	catFR1	3	R1406M
1265.535	0.0	1417203	DISTRACT_START	n/a	n/a	n/a	n/a	-999	11	[0, 0, 0]	n/a	catFR1	3	R1406M
1265.532	0.003	1417207	PROB	0.003	n/a	n/a	n/a	-999	11	[8, 2, 1]	11	catFR1	3	R1406M
1265.535	3.764	1417210	START	n/a	n/a	n/a	n/a	-999	11	[-999, -999, -999]	n/a	catFR1	3	R1406M
1269.299	2.333	1420974	PROB	2.333	n/a	n/a	n/a	-999	11	[4, 4, 1]	9	catFR1	3	R1406M
1271.632	2.967	1423307	PROB	2.967	n/a	n/a	n/a	-999	11	[2, 5, 5]	12	catFR1	3	R1406M
1274.599	6.75	1426274	PROB	6.75	n/a	n/a	n/a	-999	11	[8, 6, 1]	15	catFR1	3	R1406M
1281.349	2.683	1433023	PROB	2.683	n/a	n/a	n/a	-999	11	[2, 6, 1]	9	catFR1	3	R1406M
1284.032	4.317	1435706	PROB	4.317	n/a	n/a	n/a	-999	11	[7, 5, 5]	17	catFR1	3	R1406M
1288.349	0.0	1440019	DISTRACT_END	n/a	n/a	n/a	n/a	-999	11	[0, 0, 0]	n/a	catFR1	3	R1406M
1288.349	1.016	1440023	STOP	n/a	n/a	n/a	n/a	-999	11	[-999, -999, -999]	n/a	catFR1	3	R1406M
1289.365	29.999	1441030	REC_START	n/a	n/a	n/a	n/a	-999	11	[0, 0, 0]	n/a	catFR1	3	R1406M
1319.364	1.227	1471036	REC_WORD_VV	1.227	n/a	<>	n/a	-999	11	[0, 0, 0]	n/a	catFR1	3	R1406M
1320.591	2.857	1472259	REC_END	n/a	n/a	n/a	n/a	-999	11	[0, 0, 0]	n/a	catFR1	3	R1406M
1323.448	10.35	1475121	COUNTDOWN_START	n/a	n/a	n/a	n/a	-999	11	[0, 0, 0]	n/a	catFR1	3	R1406M
1333.798	0.0	1485480	COUNTDOWN_END	n/a	n/a	n/a	n/a	-999	11	[0, 0, 0]	n/a	catFR1	3	R1406M
1333.798	2.066	1485480	ENCODING_START	n/a	n/a	n/a	n/a	-999	12	[0, 0, 0]	n/a	catFR1	3	R1406M
1335.864	1.617	1487540	WORD	n/a	wordpools/wordpool_categorized_EN.txt	NOTEBOOK	OfficeSupplies	1	12	[0, 0, 0]	n/a	catFR1	3	R1406M
1337.481	1.0	1489161	WORD_OFF	n/a	n/a	NOTEBOOK	OfficeSupplies	1	12	[0, 0, 0]	n/a	catFR1	3	R1406M
1338.481	1.6	1490153	WORD	n/a	wordpools/wordpool_categorized_EN.txt	PAPER	OfficeSupplies	2	12	[0, 0, 0]	n/a	catFR1	3	R1406M
1340.081	0.883	1491756	WORD_OFF	n/a	n/a	PAPER	OfficeSupplies	2	12	[0, 0, 0]	n/a	catFR1	3	R1406M
1340.964	1.601	1492633	WORD	n/a	wordpools/wordpool_categorized_EN.txt	WHISK	KitchenTools	3	12	[0, 0, 0]	n/a	catFR1	3	R1406M
1342.565	0.966	1494236	WORD_OFF	n/a	n/a	WHISK	KitchenTools	3	12	[0, 0, 0]	n/a	catFR1	3	R1406M
1343.531	1.6	1495209	WORD	n/a	wordpools/wordpool_categorized_EN.txt	TONGS	KitchenTools	4	12	[0, 0, 0]	n/a	catFR1	3	R1406M
1345.131	0.818	1496811	WORD_OFF	n/a	n/a	TONGS	KitchenTools	4	12	[0, 0, 0]	n/a	catFR1	3	R1406M
1345.949	1.6	1497612	WORD	n/a	wordpools/wordpool_categorized_EN.txt	AXE	Tools	5	12	[0, 0, 0]	n/a	catFR1	3	R1406M
1347.549	0.966	1499215	WORD_OFF	n/a	n/a	AXE	Tools	5	12	[0, 0, 0]	n/a	catFR1	3	R1406M
1348.515	1.601	1500188	WORD	n/a	wordpools/wordpool_categorized_EN.txt	WRENCH	Tools	6	12	[0, 0, 0]	n/a	catFR1	3	R1406M
1350.116	0.9	1501790	WORD_OFF	n/a	n/a	WRENCH	Tools	6	12	[0, 0, 0]	n/a	catFR1	3	R1406M
1351.016	1.616	1502687	WORD	n/a	wordpools/wordpool_categorized_EN.txt	SPOON	KitchenTools	7	12	[0, 0, 0]	n/a	catFR1	3	R1406M
1352.632	0.983	1504308	WORD_OFF	n/a	n/a	SPOON	KitchenTools	7	12	[0, 0, 0]	n/a	catFR1	3	R1406M
1353.615	1.6	1505281	WORD	n/a	wordpools/wordpool_categorized_EN.txt	LADLE	KitchenTools	8	12	[0, 0, 0]	n/a	catFR1	3	R1406M
1355.215	0.933	1506884	WORD_OFF	n/a	n/a	LADLE	KitchenTools	8	12	[0, 0, 0]	n/a	catFR1	3	R1406M
1356.148	1.6	1507819	WORD	n/a	wordpools/wordpool_categorized_EN.txt	PLIERS	Tools	9	12	[0, 0, 0]	n/a	catFR1	3	R1406M
1357.748	0.917	1509421	WORD_OFF	n/a	n/a	PLIERS	Tools	9	12	[0, 0, 0]	n/a	catFR1	3	R1406M
1358.665	1.616	1510337	WORD	n/a	wordpools/wordpool_categorized_EN.txt	DRILL	Tools	10	12	[0, 0, 0]	n/a	catFR1	3	R1406M
1360.281	0.818	1511958	WORD_OFF	n/a	n/a	DRILL	Tools	10	12	[0, 0, 0]	n/a	catFR1	3	R1406M
1361.099	1.6	1512779	WORD	n/a	wordpools/wordpool_categorized_EN.txt	PENCIL	OfficeSupplies	11	12	[0, 0, 0]	n/a	catFR1	3	R1406M
1362.699	0.966	1514362	WORD_OFF	n/a	n/a	PENCIL	OfficeSupplies	11	12	[0, 0, 0]	n/a	catFR1	3	R1406M
1363.665	1.6	1515335	WORD	n/a	wordpools/wordpool_categorized_EN.txt	TAPE	OfficeSupplies	12	12	[0, 0, 0]	n/a	catFR1	3	R1406M
1365.265	0.001	1516935	PROB	0.001	n/a	n/a	n/a	-999	12	[7, 2, 6]	14	catFR1	3	R1406M
1365.266	0.0	1516936	START	n/a	n/a	n/a	n/a	-999	12	[-999, -999, -999]	n/a	catFR1	3	R1406M
1365.265	0.001	1516937	WORD_OFF	n/a	n/a	TAPE	OfficeSupplies	12	12	[0, 0, 0]	n/a	catFR1	3	R1406M
1365.266	0.0	1516937	ENCODING_END	n/a	n/a	n/a	n/a	-999	12	[0, 0, 0]	n/a	catFR1	3	R1406M
1365.266	5.199	1516937	DISTRACT_START	n/a	n/a	n/a	n/a	-999	12	[0, 0, 0]	n/a	catFR1	3	R1406M
1370.465	4.867	1522135	PROB	4.867	n/a	n/a	n/a	-999	12	[8, 6, 6]	20	catFR1	3	R1406M
1375.332	2.9	1527001	PROB	2.9	n/a	n/a	n/a	-999	12	[1, 5, 4]	10	catFR1	3	R1406M
1378.232	3.167	1529901	PROB	3.167	n/a	n/a	n/a	-999	12	[1, 4, 3]	8	catFR1	3	R1406M
1381.399	2.867	1533068	PROB	2.867	n/a	n/a	n/a	-999	12	[1, 6, 4]	11	catFR1	3	R1406M
1384.266	2.616	1535935	PROB	2.616	n/a	n/a	n/a	-999	12	[5, 3, 1]	9	catFR1	3	R1406M
1386.882	0.0	1538551	DISTRACT_END	n/a	n/a	n/a	n/a	-999	12	[0, 0, 0]	n/a	catFR1	3	R1406M
1386.882	1.35	1538551	STOP	n/a	n/a	n/a	n/a	-999	12	[-999, -999, -999]	n/a	catFR1	3	R1406M
1388.232	14.937	1539906	REC_START	n/a	n/a	n/a	n/a	-999	12	[0, 0, 0]	n/a	catFR1	3	R1406M
1403.169	16.316	1554837	REC_WORD	16.316	n/a	BLUEBIRD	Birds	-999	12	[0, 0, 0]	n/a	catFR1	3	R1406M
1419.485	0.0	1571154	REC_END	n/a	n/a	n/a	n/a	-999	12	[0, 0, 0]	n/a	catFR1	3	R1406M
