onset	duration	sample	trial_type	response_time	stim_file	item_name	category	serialpos	list	test	answer	experiment	session	subject
0.0	164.763	103670	INSTRUCT_START	n/a	n/a	n/a	n/a	-999	-999	[0, 0, 0]	n/a	catFR1	1	R1474T
164.763	36.835	268426	INSTRUCT_END	n/a	n/a	n/a	n/a	-999	-999	[0, 0, 0]	n/a	catFR1	1	R1474T
201.598	10.35	305256	COUNTDOWN_START	n/a	n/a	n/a	n/a	-999	-999	[0, 0, 0]	n/a	catFR1	1	R1474T
211.948	0.0	315609	COUNTDOWN_END	n/a	n/a	n/a	n/a	-999	-999	[0, 0, 0]	n/a	catFR1	1	R1474T
211.948	2.234	315609	ENCODING_START	n/a	n/a	n/a	n/a	-999	-1	[0, 0, 0]	n/a	catFR1	1	R1474T
214.182	1.616	317844	WORD	n/a	n/a	BUTTERFLY	Insects	1	-1	[0, 0, 0]	n/a	catFR1	1	R1474T
215.798	0.883	319465	WORD_OFF	n/a	n/a	BUTTERFLY	Insects	1	-1	[0, 0, 0]	n/a	catFR1	1	R1474T
216.681	1.601	320345	WORD	n/a	n/a	BEE	Insects	2	-1	[0, 0, 0]	n/a	catFR1	1	R1474T
218.282	0.932	321938	WORD_OFF	n/a	n/a	BEE	Insects	2	-1	[0, 0, 0]	n/a	catFR1	1	R1474T
219.214	1.601	322874	WORD	n/a	n/a	FLUTE	Instruments	3	-1	[0, 0, 0]	n/a	catFR1	1	R1474T
220.815	0.784	324481	WORD_OFF	n/a	n/a	FLUTE	Instruments	3	-1	[0, 0, 0]	n/a	catFR1	1	R1474T
221.599	1.616	325263	WORD	n/a	n/a	VIOLIN	Instruments	4	-1	[0, 0, 0]	n/a	catFR1	1	R1474T
223.215	0.984	326870	WORD_OFF	n/a	n/a	VIOLIN	Instruments	4	-1	[0, 0, 0]	n/a	catFR1	1	R1474T
224.199	1.6	327862	WORD	n/a	n/a	WIND	Weather	5	-1	[0, 0, 0]	n/a	catFR1	1	R1474T
225.799	0.899	329455	WORD_OFF	n/a	n/a	WIND	Weather	5	-1	[0, 0, 0]	n/a	catFR1	1	R1474T
226.698	1.6	330363	WORD	n/a	n/a	SNOW	Weather	6	-1	[0, 0, 0]	n/a	catFR1	1	R1474T
228.298	0.784	331956	WORD_OFF	n/a	n/a	SNOW	Weather	6	-1	[0, 0, 0]	n/a	catFR1	1	R1474T
229.082	1.615	332738	WORD	n/a	n/a	BASS	Instruments	7	-1	[0, 0, 0]	n/a	catFR1	1	R1474T
230.697	0.918	334359	WORD_OFF	n/a	n/a	BASS	Instruments	7	-1	[0, 0, 0]	n/a	catFR1	1	R1474T
231.615	1.6	335281	WORD	n/a	n/a	PIANO	Instruments	8	-1	[0, 0, 0]	n/a	catFR1	1	R1474T
233.215	0.767	336874	WORD_OFF	n/a	n/a	PIANO	Instruments	8	-1	[0, 0, 0]	n/a	catFR1	1	R1474T
233.982	1.6	337642	WORD	n/a	n/a	RAIN	Weather	9	-1	[0, 0, 0]	n/a	catFR1	1	R1474T
235.582	0.933	339249	WORD_OFF	n/a	n/a	RAIN	Weather	9	-1	[0, 0, 0]	n/a	catFR1	1	R1474T
236.515	1.6	340171	WORD	n/a	n/a	THUNDERSTORM	Weather	10	-1	[0, 0, 0]	n/a	catFR1	1	R1474T
238.115	0.95	341778	WORD_OFF	n/a	n/a	THUNDERSTORM	Weather	10	-1	[0, 0, 0]	n/a	catFR1	1	R1474T
239.065	1.617	342728	WORD	n/a	n/a	ANT	Insects	11	-1	[0, 0, 0]	n/a	catFR1	1	R1474T
240.682	0.866	344349	WORD_OFF	n/a	n/a	ANT	Insects	11	-1	[0, 0, 0]	n/a	catFR1	1	R1474T
241.548	1.617	345215	WORD	n/a	n/a	SPIDER	Insects	12	-1	[0, 0, 0]	n/a	catFR1	1	R1474T
243.165	0.001	346822	WORD_OFF	n/a	n/a	SPIDER	Insects	12	-1	[0, 0, 0]	n/a	catFR1	1	R1474T
243.166	0.0	346822	ENCODING_END	n/a	n/a	n/a	n/a	-999	-1	[0, 0, 0]	n/a	catFR1	1	R1474T
243.166	0.001	346825	PROB	0.001	n/a	n/a	n/a	-999	-1	[2, 3, 5]	10	catFR1	1	R1474T
243.167	0.0	346826	START	n/a	n/a	n/a	n/a	-999	-1	[-999, -999, -999]	n/a	catFR1	1	R1474T
243.167	4.482	346836	DISTRACT_START	n/a	n/a	n/a	n/a	-999	-1	[0, 0, 0]	n/a	catFR1	1	R1474T
247.649	3.55	351308	PROB	3.55	n/a	n/a	n/a	-999	-1	[5, 1, 5]	11	catFR1	1	R1474T
251.199	6.283	354858	PROB	6.283	n/a	n/a	n/a	-999	-1	[7, 7, 1]	15	catFR1	1	R1474T
257.482	5.282	361141	PROB	5.282	n/a	n/a	n/a	-999	-1	[3, 4, 6]	13	catFR1	1	R1474T
262.764	2.851	366422	PROB	2.851	n/a	n/a	n/a	-999	-1	[6, 1, 6]	13	catFR1	1	R1474T
265.615	0.0	369273	STOP	n/a	n/a	n/a	n/a	-999	-1	[-999, -999, -999]	n/a	catFR1	1	R1474T
265.615	2.248	369275	DISTRACT_END	n/a	n/a	n/a	n/a	-999	-1	[0, 0, 0]	n/a	catFR1	1	R1474T
267.863	0.882	371518	REC_START	n/a	n/a	n/a	n/a	-999	-1	[0, 0, 0]	n/a	catFR1	1	R1474T
268.745	0.999	372403	REC_WORD	0.999	n/a	BUTTERFLY	Insects	1	-1	[0, 0, 0]	n/a	catFR1	1	R1474T
269.744	0.411	373402	REC_WORD	0.411	n/a	BUTTERFLY	Insects	1	-1	[0, 0, 0]	n/a	catFR1	1	R1474T
270.155	3.302	373813	REC_WORD	3.302	n/a	BEE	Insects	2	-1	[0, 0, 0]	n/a	catFR1	1	R1474T
273.457	5.059	377115	REC_WORD	5.059	n/a	ANT	Insects	11	-1	[0, 0, 0]	n/a	catFR1	1	R1474T
278.516	1.0	382174	REC_WORD	1.0	n/a	THUNDERSTORM	Weather	10	-1	[0, 0, 0]	n/a	catFR1	1	R1474T
279.516	18.549	383174	REC_WORD	18.549	n/a	THUNDERSTORM	Weather	10	-1	[0, 0, 0]	n/a	catFR1	1	R1474T
298.065	29.383	401717	REC_END	n/a	n/a	n/a	n/a	-999	-1	[0, 0, 0]	n/a	catFR1	1	R1474T
327.448	10.349	431100	COUNTDOWN_START	n/a	n/a	n/a	n/a	-999	1	[0, 0, 0]	n/a	catFR1	1	R1474T
337.797	0.0	441453	COUNTDOWN_END	n/a	n/a	n/a	n/a	-999	1	[0, 0, 0]	n/a	catFR1	1	R1474T
337.797	2.218	441453	ENCODING_START	n/a	n/a	n/a	n/a	-999	1	[0, 0, 0]	n/a	catFR1	1	R1474T
340.015	1.616	443675	WORD	n/a	wordpools/wordpool_categorized_EN.txt	ELM	Trees	1	1	[0, 0, 0]	n/a	catFR1	1	R1474T
341.631	0.951	445281	WORD_OFF	n/a	n/a	ELM	Trees	1	1	[0, 0, 0]	n/a	catFR1	1	R1474T
342.582	1.615	446231	WORD	n/a	wordpools/wordpool_categorized_EN.txt	PINE	Trees	2	1	[0, 0, 0]	n/a	catFR1	1	R1474T
344.197	0.933	447852	WORD_OFF	n/a	n/a	PINE	Trees	2	1	[0, 0, 0]	n/a	catFR1	1	R1474T
345.13	1.601	448788	WORD	n/a	wordpools/wordpool_categorized_EN.txt	TONGS	KitchenTools	3	1	[0, 0, 0]	n/a	catFR1	1	R1474T
346.731	0.901	450381	WORD_OFF	n/a	n/a	TONGS	KitchenTools	3	1	[0, 0, 0]	n/a	catFR1	1	R1474T
347.632	1.616	451289	WORD	n/a	wordpools/wordpool_categorized_EN.txt	LADLE	KitchenTools	4	1	[0, 0, 0]	n/a	catFR1	1	R1474T
349.248	0.799	452910	WORD_OFF	n/a	n/a	LADLE	KitchenTools	4	1	[0, 0, 0]	n/a	catFR1	1	R1474T
350.047	1.601	453706	WORD	n/a	wordpools/wordpool_categorized_EN.txt	BLUEBIRD	Birds	5	1	[0, 0, 0]	n/a	catFR1	1	R1474T
351.648	0.833	455299	WORD_OFF	n/a	n/a	BLUEBIRD	Birds	5	1	[0, 0, 0]	n/a	catFR1	1	R1474T
352.481	1.601	456137	WORD	n/a	wordpools/wordpool_categorized_EN.txt	PIGEON	Birds	6	1	[0, 0, 0]	n/a	catFR1	1	R1474T
354.082	0.8	457730	WORD_OFF	n/a	n/a	PIGEON	Birds	6	1	[0, 0, 0]	n/a	catFR1	1	R1474T
354.882	1.616	458541	WORD	n/a	wordpools/wordpool_categorized_EN.txt	WALNUT	Trees	7	1	[0, 0, 0]	n/a	catFR1	1	R1474T
356.498	0.866	460147	WORD_OFF	n/a	n/a	WALNUT	Trees	7	1	[0, 0, 0]	n/a	catFR1	1	R1474T
357.364	1.601	461014	WORD	n/a	wordpools/wordpool_categorized_EN.txt	WILLOW	Trees	8	1	[0, 0, 0]	n/a	catFR1	1	R1474T
358.965	0.967	462620	WORD_OFF	n/a	n/a	WILLOW	Trees	8	1	[0, 0, 0]	n/a	catFR1	1	R1474T
359.932	1.615	463584	WORD	n/a	wordpools/wordpool_categorized_EN.txt	FINCH	Birds	9	1	[0, 0, 0]	n/a	catFR1	1	R1474T
361.547	0.917	465205	WORD_OFF	n/a	n/a	FINCH	Birds	9	1	[0, 0, 0]	n/a	catFR1	1	R1474T
362.464	1.601	466113	WORD	n/a	wordpools/wordpool_categorized_EN.txt	SEAGULL	Birds	10	1	[0, 0, 0]	n/a	catFR1	1	R1474T
364.065	0.849	467720	WORD_OFF	n/a	n/a	SEAGULL	Birds	10	1	[0, 0, 0]	n/a	catFR1	1	R1474T
364.914	1.601	468572	WORD	n/a	wordpools/wordpool_categorized_EN.txt	STRAINER	KitchenTools	11	1	[0, 0, 0]	n/a	catFR1	1	R1474T
366.515	0.867	470165	WORD_OFF	n/a	n/a	STRAINER	KitchenTools	11	1	[0, 0, 0]	n/a	catFR1	1	R1474T
367.382	1.617	471031	WORD	n/a	wordpools/wordpool_categorized_EN.txt	KNIFE	KitchenTools	12	1	[0, 0, 0]	n/a	catFR1	1	R1474T
368.999	0.001	472652	WORD_OFF	n/a	n/a	KNIFE	KitchenTools	12	1	[0, 0, 0]	n/a	catFR1	1	R1474T
369.0	0.0	472652	ENCODING_END	n/a	n/a	n/a	n/a	-999	1	[0, 0, 0]	n/a	catFR1	1	R1474T
369.0	0.0	472652	DISTRACT_START	n/a	n/a	n/a	n/a	-999	1	[0, 0, 0]	n/a	catFR1	1	R1474T
368.999	0.001	472652	PROB	0.001	n/a	n/a	n/a	-999	1	[2, 2, 1]	5	catFR1	1	R1474T
369.0	3.048	472653	START	n/a	n/a	n/a	n/a	-999	1	[-999, -999, -999]	n/a	catFR1	1	R1474T
372.048	3.017	475701	PROB	3.017	n/a	n/a	n/a	-999	1	[5, 2, 1]	8	catFR1	1	R1474T
375.065	7.817	478718	PROB	7.817	n/a	n/a	n/a	-999	1	[8, 5, 5]	18	catFR1	1	R1474T
382.882	4.432	486534	PROB	4.432	n/a	n/a	n/a	-999	1	[1, 4, 7]	12	catFR1	1	R1474T
387.314	3.817	490966	PROB	3.817	n/a	n/a	n/a	-999	1	[1, 3, 7]	11	catFR1	1	R1474T
391.131	0.0	494783	STOP	n/a	n/a	n/a	n/a	-999	1	[-999, -999, -999]	n/a	catFR1	1	R1474T
391.131	2.351	494784	DISTRACT_END	n/a	n/a	n/a	n/a	-999	1	[0, 0, 0]	n/a	catFR1	1	R1474T
393.482	0.836	497139	REC_START	n/a	n/a	n/a	n/a	-999	1	[0, 0, 0]	n/a	catFR1	1	R1474T
394.318	1.521	497970	REC_WORD	1.521	n/a	ELM	Trees	1	1	[0, 0, 0]	n/a	catFR1	1	R1474T
395.839	1.588	499491	REC_WORD	1.588	n/a	PINE	Trees	2	1	[0, 0, 0]	n/a	catFR1	1	R1474T
397.427	4.428	501079	REC_WORD	4.428	n/a	SEAGULL	Birds	10	1	[0, 0, 0]	n/a	catFR1	1	R1474T
401.855	21.816	505507	REC_WORD	21.816	n/a	KNIFE	KitchenTools	12	1	[0, 0, 0]	n/a	catFR1	1	R1474T
423.671	9.344	527324	REC_END	n/a	n/a	n/a	n/a	-999	1	[0, 0, 0]	n/a	catFR1	1	R1474T
433.015	10.35	536671	COUNTDOWN_START	n/a	n/a	n/a	n/a	-999	2	[0, 0, 0]	n/a	catFR1	1	R1474T
443.365	0.0	547010	COUNTDOWN_END	n/a	n/a	n/a	n/a	-999	2	[0, 0, 0]	n/a	catFR1	1	R1474T
443.365	2.25	547010	ENCODING_START	n/a	n/a	n/a	n/a	-999	2	[0, 0, 0]	n/a	catFR1	1	R1474T
445.615	1.617	549260	WORD	n/a	wordpools/wordpool_categorized_EN.txt	WASHER	Appliances	1	2	[0, 0, 0]	n/a	catFR1	1	R1474T
447.232	0.867	550880	WORD_OFF	n/a	n/a	WASHER	Appliances	1	2	[0, 0, 0]	n/a	catFR1	1	R1474T
448.099	1.599	551747	WORD	n/a	wordpools/wordpool_categorized_EN.txt	FREEZER	Appliances	2	2	[0, 0, 0]	n/a	catFR1	1	R1474T
449.698	0.884	553353	WORD_OFF	n/a	n/a	FREEZER	Appliances	2	2	[0, 0, 0]	n/a	catFR1	1	R1474T
450.582	1.6	554234	WORD	n/a	wordpools/wordpool_categorized_EN.txt	ORCHID	Flowers	3	2	[0, 0, 0]	n/a	catFR1	1	R1474T
452.182	0.8	555826	WORD_OFF	n/a	n/a	ORCHID	Flowers	3	2	[0, 0, 0]	n/a	catFR1	1	R1474T
452.982	1.6	556637	WORD	n/a	wordpools/wordpool_categorized_EN.txt	ROSE	Flowers	4	2	[0, 0, 0]	n/a	catFR1	1	R1474T
454.582	0.833	558230	WORD_OFF	n/a	n/a	ROSE	Flowers	4	2	[0, 0, 0]	n/a	catFR1	1	R1474T
455.415	1.617	559068	WORD	n/a	wordpools/wordpool_categorized_EN.txt	CABINET	Furniture	5	2	[0, 0, 0]	n/a	catFR1	1	R1474T
457.032	0.783	560689	WORD_OFF	n/a	n/a	CABINET	Furniture	5	2	[0, 0, 0]	n/a	catFR1	1	R1474T
457.815	1.6	561471	WORD	n/a	wordpools/wordpool_categorized_EN.txt	SOFA	Furniture	6	2	[0, 0, 0]	n/a	catFR1	1	R1474T
459.415	0.966	563064	WORD_OFF	n/a	n/a	SOFA	Furniture	6	2	[0, 0, 0]	n/a	catFR1	1	R1474T
460.381	1.601	564028	WORD	n/a	wordpools/wordpool_categorized_EN.txt	REFRIGERATOR	Appliances	7	2	[0, 0, 0]	n/a	catFR1	1	R1474T
461.982	0.882	565635	WORD_OFF	n/a	n/a	REFRIGERATOR	Appliances	7	2	[0, 0, 0]	n/a	catFR1	1	R1474T
462.864	1.601	566515	WORD	n/a	wordpools/wordpool_categorized_EN.txt	TOASTER	Appliances	8	2	[0, 0, 0]	n/a	catFR1	1	R1474T
464.465	0.765	568108	WORD_OFF	n/a	n/a	TOASTER	Appliances	8	2	[0, 0, 0]	n/a	catFR1	1	R1474T
465.23	1.601	568876	WORD	n/a	wordpools/wordpool_categorized_EN.txt	DESK	Furniture	9	2	[0, 0, 0]	n/a	catFR1	1	R1474T
466.831	0.801	570483	WORD_OFF	n/a	n/a	DESK	Furniture	9	2	[0, 0, 0]	n/a	catFR1	1	R1474T
467.632	1.616	571279	WORD	n/a	wordpools/wordpool_categorized_EN.txt	BED	Furniture	10	2	[0, 0, 0]	n/a	catFR1	1	R1474T
469.248	0.917	572900	WORD_OFF	n/a	n/a	BED	Furniture	10	2	[0, 0, 0]	n/a	catFR1	1	R1474T
470.165	1.617	573808	WORD	n/a	wordpools/wordpool_categorized_EN.txt	DAISY	Flowers	11	2	[0, 0, 0]	n/a	catFR1	1	R1474T
471.782	0.783	575429	WORD_OFF	n/a	n/a	DAISY	Flowers	11	2	[0, 0, 0]	n/a	catFR1	1	R1474T
472.565	1.617	576211	WORD	n/a	wordpools/wordpool_categorized_EN.txt	VIOLET	Flowers	12	2	[0, 0, 0]	n/a	catFR1	1	R1474T
474.182	0.001	577830	PROB	0.001	n/a	n/a	n/a	-999	2	[3, 4, 4]	11	catFR1	1	R1474T
474.183	0.0	577831	START	n/a	n/a	n/a	n/a	-999	2	[-999, -999, -999]	n/a	catFR1	1	R1474T
474.182	0.001	577832	WORD_OFF	n/a	n/a	VIOLET	Flowers	12	2	[0, 0, 0]	n/a	catFR1	1	R1474T
474.183	0.0	577832	ENCODING_END	n/a	n/a	n/a	n/a	-999	2	[0, 0, 0]	n/a	catFR1	1	R1474T
474.183	4.232	577832	DISTRACT_START	n/a	n/a	n/a	n/a	-999	2	[0, 0, 0]	n/a	catFR1	1	R1474T
478.415	4.949	582063	PROB	4.949	n/a	n/a	n/a	-999	2	[5, 3, 2]	10	catFR1	1	R1474T
483.364	2.901	587011	PROB	2.901	n/a	n/a	n/a	-999	2	[6, 1, 2]	9	catFR1	1	R1474T
486.265	3.5	589912	PROB	3.5	n/a	n/a	n/a	-999	2	[7, 2, 2]	11	catFR1	1	R1474T
489.765	5.198	593412	PROB	5.198	n/a	n/a	n/a	-999	2	[8, 2, 8]	18	catFR1	1	R1474T
494.963	0.0	598608	DISTRACT_END	n/a	n/a	n/a	n/a	-999	2	[0, 0, 0]	n/a	catFR1	1	R1474T
494.963	2.118	598610	STOP	n/a	n/a	n/a	n/a	-999	2	[-999, -999, -999]	n/a	catFR1	1	R1474T
497.081	2.645	600726	REC_START	n/a	n/a	n/a	n/a	-999	2	[0, 0, 0]	n/a	catFR1	1	R1474T
499.726	1.354	603373	REC_WORD	1.354	n/a	ORCHID	Flowers	3	2	[0, 0, 0]	n/a	catFR1	1	R1474T
501.08	1.863	604727	REC_WORD	1.863	n/a	FREEZER	Appliances	2	2	[0, 0, 0]	n/a	catFR1	1	R1474T
502.943	2.781	606589	REC_WORD	2.781	n/a	SOFA	Furniture	6	2	[0, 0, 0]	n/a	catFR1	1	R1474T
505.724	2.807	609370	REC_WORD	2.807	n/a	BED	Furniture	10	2	[0, 0, 0]	n/a	catFR1	1	R1474T
508.531	18.734	612177	REC_WORD	18.734	n/a	ROSE	Flowers	4	2	[0, 0, 0]	n/a	catFR1	1	R1474T
527.265	7.117	630911	REC_END	n/a	n/a	n/a	n/a	-999	2	[0, 0, 0]	n/a	catFR1	1	R1474T
534.382	10.348	638023	COUNTDOWN_START	n/a	n/a	n/a	n/a	-999	3	[0, 0, 0]	n/a	catFR1	1	R1474T
544.73	0.0	648376	COUNTDOWN_END	n/a	n/a	n/a	n/a	-999	3	[0, 0, 0]	n/a	catFR1	1	R1474T
544.73	2.135	648376	ENCODING_START	n/a	n/a	n/a	n/a	-999	3	[0, 0, 0]	n/a	catFR1	1	R1474T
546.865	1.6	650513	WORD	n/a	wordpools/wordpool_categorized_EN.txt	FUDGE	Desserts	1	3	[0, 0, 0]	n/a	catFR1	1	R1474T
548.465	0.9	652106	WORD_OFF	n/a	n/a	FUDGE	Desserts	1	3	[0, 0, 0]	n/a	catFR1	1	R1474T
549.365	1.6	653014	WORD	n/a	wordpools/wordpool_categorized_EN.txt	BROWNIES	Desserts	2	3	[0, 0, 0]	n/a	catFR1	1	R1474T
550.965	0.817	654607	WORD_OFF	n/a	n/a	BROWNIES	Desserts	2	3	[0, 0, 0]	n/a	catFR1	1	R1474T
551.782	1.616	655432	WORD	n/a	wordpools/wordpool_categorized_EN.txt	LOBSTER	OceanAnimals	3	3	[0, 0, 0]	n/a	catFR1	1	R1474T
553.398	0.867	657038	WORD_OFF	n/a	n/a	LOBSTER	OceanAnimals	3	3	[0, 0, 0]	n/a	catFR1	1	R1474T
554.265	1.616	657905	WORD	n/a	wordpools/wordpool_categorized_EN.txt	FISH	OceanAnimals	4	3	[0, 0, 0]	n/a	catFR1	1	R1474T
555.881	0.966	659525	WORD_OFF	n/a	n/a	FISH	OceanAnimals	4	3	[0, 0, 0]	n/a	catFR1	1	R1474T
556.847	1.601	660489	WORD	n/a	wordpools/wordpool_categorized_EN.txt	BOOKCASE	Furniture	5	3	[0, 0, 0]	n/a	catFR1	1	R1474T
558.448	0.816	662096	WORD_OFF	n/a	n/a	BOOKCASE	Furniture	5	3	[0, 0, 0]	n/a	catFR1	1	R1474T
559.264	1.601	662906	WORD	n/a	wordpools/wordpool_categorized_EN.txt	CHAIR	Furniture	6	3	[0, 0, 0]	n/a	catFR1	1	R1474T
560.865	0.867	664513	WORD_OFF	n/a	n/a	CHAIR	Furniture	6	3	[0, 0, 0]	n/a	catFR1	1	R1474T
561.732	1.6	665379	WORD	n/a	wordpools/wordpool_categorized_EN.txt	CRAB	OceanAnimals	7	3	[0, 0, 0]	n/a	catFR1	1	R1474T
563.332	0.983	666972	WORD_OFF	n/a	n/a	CRAB	OceanAnimals	7	3	[0, 0, 0]	n/a	catFR1	1	R1474T
564.315	1.6	667964	WORD	n/a	wordpools/wordpool_categorized_EN.txt	SQUID	OceanAnimals	8	3	[0, 0, 0]	n/a	catFR1	1	R1474T
565.915	0.834	669557	WORD_OFF	n/a	n/a	SQUID	OceanAnimals	8	3	[0, 0, 0]	n/a	catFR1	1	R1474T
566.749	1.617	670395	WORD	n/a	wordpools/wordpool_categorized_EN.txt	RECLINER	Furniture	9	3	[0, 0, 0]	n/a	catFR1	1	R1474T
568.366	0.999	672016	WORD_OFF	n/a	n/a	RECLINER	Furniture	9	3	[0, 0, 0]	n/a	catFR1	1	R1474T
569.365	1.6	673008	WORD	n/a	wordpools/wordpool_categorized_EN.txt	SHELF	Furniture	10	3	[0, 0, 0]	n/a	catFR1	1	R1474T
570.965	0.9	674615	WORD_OFF	n/a	n/a	SHELF	Furniture	10	3	[0, 0, 0]	n/a	catFR1	1	R1474T
571.865	1.6	675509	WORD	n/a	wordpools/wordpool_categorized_EN.txt	JELLO	Desserts	11	3	[0, 0, 0]	n/a	catFR1	1	R1474T
573.465	0.85	677102	WORD_OFF	n/a	n/a	JELLO	Desserts	11	3	[0, 0, 0]	n/a	catFR1	1	R1474T
574.315	1.616	677954	WORD	n/a	wordpools/wordpool_categorized_EN.txt	COOKIE	Desserts	12	3	[0, 0, 0]	n/a	catFR1	1	R1474T
575.931	0.0	679574	PROB	0.0	n/a	n/a	n/a	-999	3	[5, 7, 7]	19	catFR1	1	R1474T
575.931	0.001	679575	WORD_OFF	n/a	n/a	COOKIE	Desserts	12	3	[0, 0, 0]	n/a	catFR1	1	R1474T
575.932	0.0	679575	ENCODING_END	n/a	n/a	n/a	n/a	-999	3	[0, 0, 0]	n/a	catFR1	1	R1474T
575.932	0.0	679575	DISTRACT_START	n/a	n/a	n/a	n/a	-999	3	[0, 0, 0]	n/a	catFR1	1	R1474T
575.932	6.934	679575	START	n/a	n/a	n/a	n/a	-999	3	[-999, -999, -999]	n/a	catFR1	1	R1474T
582.866	3.233	686508	PROB	3.233	n/a	n/a	n/a	-999	3	[2, 8, 1]	11	catFR1	1	R1474T
586.099	6.099	689741	PROB	6.099	n/a	n/a	n/a	-999	3	[8, 6, 4]	18	catFR1	1	R1474T
592.198	6.884	695840	PROB	6.884	n/a	n/a	n/a	-999	3	[3, 8, 2]	13	catFR1	1	R1474T
599.082	0.0	702724	STOP	n/a	n/a	n/a	n/a	-999	3	[-999, -999, -999]	n/a	catFR1	1	R1474T
599.082	2.233	702726	DISTRACT_END	n/a	n/a	n/a	n/a	-999	3	[0, 0, 0]	n/a	catFR1	1	R1474T
601.315	1.506	704956	REC_START	n/a	n/a	n/a	n/a	-999	3	[0, 0, 0]	n/a	catFR1	1	R1474T
602.821	1.0	706462	REC_WORD	1.0	n/a	SQUID	OceanAnimals	8	3	[0, 0, 0]	n/a	catFR1	1	R1474T
603.821	0.493	707462	REC_WORD	0.493	n/a	SQUID	OceanAnimals	8	3	[0, 0, 0]	n/a	catFR1	1	R1474T
604.314	1.0	707955	REC_WORD	1.0	n/a	BOOKCASE	Furniture	5	3	[0, 0, 0]	n/a	catFR1	1	R1474T
605.314	6.014	708955	REC_WORD	6.014	n/a	BOOKCASE	Furniture	5	3	[0, 0, 0]	n/a	catFR1	1	R1474T
611.328	20.162	714969	REC_WORD	20.162	n/a	FUDGE	Desserts	1	3	[0, 0, 0]	n/a	catFR1	1	R1474T
631.49	4.591	735127	REC_END	n/a	n/a	n/a	n/a	-999	3	[0, 0, 0]	n/a	catFR1	1	R1474T
636.081	10.351	739723	COUNTDOWN_START	n/a	n/a	n/a	n/a	-999	4	[0, 0, 0]	n/a	catFR1	1	R1474T
646.432	0.0	750077	COUNTDOWN_END	n/a	n/a	n/a	n/a	-999	4	[0, 0, 0]	n/a	catFR1	1	R1474T
646.432	2.05	750077	ENCODING_START	n/a	n/a	n/a	n/a	-999	4	[0, 0, 0]	n/a	catFR1	1	R1474T
648.482	1.6	752116	WORD	n/a	wordpools/wordpool_categorized_EN.txt	CARNATION	Flowers	1	4	[0, 0, 0]	n/a	catFR1	1	R1474T
650.082	1.0	753723	WORD_OFF	n/a	n/a	CARNATION	Flowers	1	4	[0, 0, 0]	n/a	catFR1	1	R1474T
651.082	1.616	754715	WORD	n/a	wordpools/wordpool_categorized_EN.txt	PETUNIA	Flowers	2	4	[0, 0, 0]	n/a	catFR1	1	R1474T
652.698	0.884	756336	WORD_OFF	n/a	n/a	PETUNIA	Flowers	2	4	[0, 0, 0]	n/a	catFR1	1	R1474T
653.582	1.6	757216	WORD	n/a	wordpools/wordpool_categorized_EN.txt	COW	FarmAnimals	3	4	[0, 0, 0]	n/a	catFR1	1	R1474T
655.182	1.0	758823	WORD_OFF	n/a	n/a	COW	FarmAnimals	3	4	[0, 0, 0]	n/a	catFR1	1	R1474T
656.182	1.6	759815	WORD	n/a	wordpools/wordpool_categorized_EN.txt	GOAT	FarmAnimals	4	4	[0, 0, 0]	n/a	catFR1	1	R1474T
657.782	0.766	761422	WORD_OFF	n/a	n/a	GOAT	FarmAnimals	4	4	[0, 0, 0]	n/a	catFR1	1	R1474T
658.548	1.6	762190	WORD	n/a	wordpools/wordpool_categorized_EN.txt	SPOON	KitchenTools	5	4	[0, 0, 0]	n/a	catFR1	1	R1474T
660.148	0.915	763783	WORD_OFF	n/a	n/a	SPOON	KitchenTools	5	4	[0, 0, 0]	n/a	catFR1	1	R1474T
661.063	1.602	764705	WORD	n/a	wordpools/wordpool_categorized_EN.txt	CORKSCREW	KitchenTools	6	4	[0, 0, 0]	n/a	catFR1	1	R1474T
662.665	1.0	766298	WORD_OFF	n/a	n/a	CORKSCREW	KitchenTools	6	4	[0, 0, 0]	n/a	catFR1	1	R1474T
663.665	1.617	767304	WORD	n/a	wordpools/wordpool_categorized_EN.txt	ROOSTER	FarmAnimals	7	4	[0, 0, 0]	n/a	catFR1	1	R1474T
665.282	0.948	768925	WORD_OFF	n/a	n/a	ROOSTER	FarmAnimals	7	4	[0, 0, 0]	n/a	catFR1	1	R1474T
666.23	1.601	769875	WORD	n/a	wordpools/wordpool_categorized_EN.txt	TURKEY	FarmAnimals	8	4	[0, 0, 0]	n/a	catFR1	1	R1474T
667.831	0.868	771467	WORD_OFF	n/a	n/a	TURKEY	FarmAnimals	8	4	[0, 0, 0]	n/a	catFR1	1	R1474T
668.699	1.615	772334	WORD	n/a	wordpools/wordpool_categorized_EN.txt	FORK	KitchenTools	9	4	[0, 0, 0]	n/a	catFR1	1	R1474T
670.314	0.767	773954	WORD_OFF	n/a	n/a	FORK	KitchenTools	9	4	[0, 0, 0]	n/a	catFR1	1	R1474T
671.081	1.601	774723	WORD	n/a	wordpools/wordpool_categorized_EN.txt	COLANDER	KitchenTools	10	4	[0, 0, 0]	n/a	catFR1	1	R1474T
672.682	0.766	776316	WORD_OFF	n/a	n/a	COLANDER	KitchenTools	10	4	[0, 0, 0]	n/a	catFR1	1	R1474T
673.448	1.617	777084	WORD	n/a	wordpools/wordpool_categorized_EN.txt	DAFFODIL	Flowers	11	4	[0, 0, 0]	n/a	catFR1	1	R1474T
675.065	0.967	778705	WORD_OFF	n/a	n/a	DAFFODIL	Flowers	11	4	[0, 0, 0]	n/a	catFR1	1	R1474T
676.032	1.616	779669	WORD	n/a	wordpools/wordpool_categorized_EN.txt	LILY	Flowers	12	4	[0, 0, 0]	n/a	catFR1	1	R1474T
677.648	0.002	781286	PROB	0.002	n/a	n/a	n/a	-999	4	[2, 2, 6]	10	catFR1	1	R1474T
677.65	0.0	781288	START	n/a	n/a	n/a	n/a	-999	4	[-999, -999, -999]	n/a	catFR1	1	R1474T
677.648	0.002	781290	WORD_OFF	n/a	n/a	LILY	Flowers	12	4	[0, 0, 0]	n/a	catFR1	1	R1474T
677.65	0.0	781290	ENCODING_END	n/a	n/a	n/a	n/a	-999	4	[0, 0, 0]	n/a	catFR1	1	R1474T
677.65	4.765	781290	DISTRACT_START	n/a	n/a	n/a	n/a	-999	4	[0, 0, 0]	n/a	catFR1	1	R1474T
682.415	4.65	786052	PROB	4.65	n/a	n/a	n/a	-999	4	[3, 6, 6]	15	catFR1	1	R1474T
687.065	3.217	790702	PROB	3.217	n/a	n/a	n/a	-999	4	[6, 6, 2]	14	catFR1	1	R1474T
690.282	2.883	793919	PROB	2.883	n/a	n/a	n/a	-999	4	[2, 1, 3]	6	catFR1	1	R1474T
693.165	6.2	796802	PROB	6.2	n/a	n/a	n/a	-999	4	[7, 2, 5]	14	catFR1	1	R1474T
699.365	0.0	803002	DISTRACT_END	n/a	n/a	n/a	n/a	-999	4	[0, 0, 0]	n/a	catFR1	1	R1474T
699.365	2.35	803002	STOP	n/a	n/a	n/a	n/a	-999	4	[-999, -999, -999]	n/a	catFR1	1	R1474T
701.715	2.623	805357	REC_START	n/a	n/a	n/a	n/a	-999	4	[0, 0, 0]	n/a	catFR1	1	R1474T
704.338	1.067	807974	REC_WORD	1.067	n/a	COW	FarmAnimals	3	4	[0, 0, 0]	n/a	catFR1	1	R1474T
705.405	1.0	809041	REC_WORD	1.0	n/a	CORKSCREW	KitchenTools	6	4	[0, 0, 0]	n/a	catFR1	1	R1474T
706.405	2.931	810041	REC_WORD	2.931	n/a	CORKSCREW	KitchenTools	6	4	[0, 0, 0]	n/a	catFR1	1	R1474T
709.336	3.705	812972	REC_WORD	3.705	n/a	LILY	Flowers	12	4	[0, 0, 0]	n/a	catFR1	1	R1474T
713.041	7.522	816677	REC_WORD	7.522	n/a	DAFFODIL	Flowers	11	4	[0, 0, 0]	n/a	catFR1	1	R1474T
720.563	0.999	824199	REC_WORD	0.999	n/a	PETUNIA	Flowers	2	4	[0, 0, 0]	n/a	catFR1	1	R1474T
721.562	10.339	825198	REC_WORD	10.339	n/a	PETUNIA	Flowers	2	4	[0, 0, 0]	n/a	catFR1	1	R1474T
731.901	9.429	835542	REC_END	n/a	n/a	n/a	n/a	-999	4	[0, 0, 0]	n/a	catFR1	1	R1474T
741.33	10.352	844973	COUNTDOWN_START	n/a	n/a	n/a	n/a	-999	5	[0, 0, 0]	n/a	catFR1	1	R1474T
751.682	0.0	855312	COUNTDOWN_END	n/a	n/a	n/a	n/a	-999	5	[0, 0, 0]	n/a	catFR1	1	R1474T
751.682	1.998	855312	ENCODING_START	n/a	n/a	n/a	n/a	-999	5	[0, 0, 0]	n/a	catFR1	1	R1474T
753.68	1.602	857310	WORD	n/a	wordpools/wordpool_categorized_EN.txt	PEACH	Fruit	1	5	[0, 0, 0]	n/a	catFR1	1	R1474T
755.282	0.983	858917	WORD_OFF	n/a	n/a	PEACH	Fruit	1	5	[0, 0, 0]	n/a	catFR1	1	R1474T
756.265	1.617	859895	WORD	n/a	wordpools/wordpool_categorized_EN.txt	STRAWBERRY	Fruit	2	5	[0, 0, 0]	n/a	catFR1	1	R1474T
757.882	0.85	861516	WORD_OFF	n/a	n/a	STRAWBERRY	Fruit	2	5	[0, 0, 0]	n/a	catFR1	1	R1474T
758.732	1.6	862368	WORD	n/a	wordpools/wordpool_categorized_EN.txt	VELVET	Fabric	3	5	[0, 0, 0]	n/a	catFR1	1	R1474T
760.332	0.867	863961	WORD_OFF	n/a	n/a	VELVET	Fabric	3	5	[0, 0, 0]	n/a	catFR1	1	R1474T
761.199	1.6	864827	WORD	n/a	wordpools/wordpool_categorized_EN.txt	COTTON	Fabric	4	5	[0, 0, 0]	n/a	catFR1	1	R1474T
762.799	0.815	866434	WORD_OFF	n/a	n/a	COTTON	Fabric	4	5	[0, 0, 0]	n/a	catFR1	1	R1474T
763.614	1.601	867244	WORD	n/a	wordpools/wordpool_categorized_EN.txt	TROMBONE	Instruments	5	5	[0, 0, 0]	n/a	catFR1	1	R1474T
765.215	0.916	868851	WORD_OFF	n/a	n/a	TROMBONE	Instruments	5	5	[0, 0, 0]	n/a	catFR1	1	R1474T
766.131	1.6	869759	WORD	n/a	wordpools/wordpool_categorized_EN.txt	DRUM	Instruments	6	5	[0, 0, 0]	n/a	catFR1	1	R1474T
767.731	0.917	871366	WORD_OFF	n/a	n/a	DRUM	Instruments	6	5	[0, 0, 0]	n/a	catFR1	1	R1474T
768.648	1.616	872288	WORD	n/a	wordpools/wordpool_categorized_EN.txt	DENIM	Fabric	7	5	[0, 0, 0]	n/a	catFR1	1	R1474T
770.264	0.849	873895	WORD_OFF	n/a	n/a	DENIM	Fabric	7	5	[0, 0, 0]	n/a	catFR1	1	R1474T
771.113	1.602	874747	WORD	n/a	wordpools/wordpool_categorized_EN.txt	FLEECE	Fabric	8	5	[0, 0, 0]	n/a	catFR1	1	R1474T
772.715	0.767	876354	WORD_OFF	n/a	n/a	FLEECE	Fabric	8	5	[0, 0, 0]	n/a	catFR1	1	R1474T
773.482	1.615	877122	WORD	n/a	wordpools/wordpool_categorized_EN.txt	CHERRY	Fruit	9	5	[0, 0, 0]	n/a	catFR1	1	R1474T
775.097	0.818	878729	WORD_OFF	n/a	n/a	CHERRY	Fruit	9	5	[0, 0, 0]	n/a	catFR1	1	R1474T
775.915	1.617	879553	WORD	n/a	wordpools/wordpool_categorized_EN.txt	GRAPE	Fruit	10	5	[0, 0, 0]	n/a	catFR1	1	R1474T
777.532	0.9	881160	WORD_OFF	n/a	n/a	GRAPE	Fruit	10	5	[0, 0, 0]	n/a	catFR1	1	R1474T
778.432	1.616	882068	WORD	n/a	wordpools/wordpool_categorized_EN.txt	BANJO	Instruments	11	5	[0, 0, 0]	n/a	catFR1	1	R1474T
780.048	0.799	883675	WORD_OFF	n/a	n/a	BANJO	Instruments	11	5	[0, 0, 0]	n/a	catFR1	1	R1474T
780.847	1.601	884485	WORD	n/a	wordpools/wordpool_categorized_EN.txt	TRUMPET	Instruments	12	5	[0, 0, 0]	n/a	catFR1	1	R1474T
782.448	0.002	886078	WORD_OFF	n/a	n/a	TRUMPET	Instruments	12	5	[0, 0, 0]	n/a	catFR1	1	R1474T
782.45	0.0	886078	ENCODING_END	n/a	n/a	n/a	n/a	-999	5	[0, 0, 0]	n/a	catFR1	1	R1474T
782.449	0.001	886081	PROB	0.001	n/a	n/a	n/a	-999	5	[6, 3, 6]	15	catFR1	1	R1474T
782.45	0.0	886082	START	n/a	n/a	n/a	n/a	-999	5	[-999, -999, -999]	n/a	catFR1	1	R1474T
782.45	5.366	886092	DISTRACT_START	n/a	n/a	n/a	n/a	-999	5	[0, 0, 0]	n/a	catFR1	1	R1474T
787.816	8.165	891448	PROB	8.165	n/a	n/a	n/a	-999	5	[8, 3, 6]	17	catFR1	1	R1474T
795.981	6.416	899613	PROB	6.416	n/a	n/a	n/a	-999	5	[4, 4, 8]	16	catFR1	1	R1474T
802.397	4.217	906028	PROB	4.217	n/a	n/a	n/a	-999	5	[8, 4, 2]	14	catFR1	1	R1474T
806.614	0.0	910245	STOP	n/a	n/a	n/a	n/a	-999	5	[-999, -999, -999]	n/a	catFR1	1	R1474T
806.614	2.35	910249	DISTRACT_END	n/a	n/a	n/a	n/a	-999	5	[0, 0, 0]	n/a	catFR1	1	R1474T
808.964	1.23	912591	REC_START	n/a	n/a	n/a	n/a	-999	5	[0, 0, 0]	n/a	catFR1	1	R1474T
810.194	1.17	913825	REC_WORD	1.17	n/a	PEACH	Fruit	1	5	[0, 0, 0]	n/a	catFR1	1	R1474T
811.364	1.0	914995	REC_WORD	1.0	n/a	STRAWBERRY	Fruit	2	5	[0, 0, 0]	n/a	catFR1	1	R1474T
812.364	2.271	915995	REC_WORD	2.271	n/a	STRAWBERRY	Fruit	2	5	[0, 0, 0]	n/a	catFR1	1	R1474T
814.635	1.0	918266	REC_WORD	1.0	n/a	TROMBONE	Instruments	5	5	[0, 0, 0]	n/a	catFR1	1	R1474T
815.635	3.13	919266	REC_WORD	3.13	n/a	TROMBONE	Instruments	5	5	[0, 0, 0]	n/a	catFR1	1	R1474T
818.765	20.388	922396	REC_WORD	20.388	n/a	CHERRY	Fruit	9	5	[0, 0, 0]	n/a	catFR1	1	R1474T
839.153	9.095	942790	REC_END	n/a	n/a	n/a	n/a	-999	5	[0, 0, 0]	n/a	catFR1	1	R1474T
848.248	10.349	951886	COUNTDOWN_START	n/a	n/a	n/a	n/a	-999	6	[0, 0, 0]	n/a	catFR1	1	R1474T
858.597	0.0	962225	COUNTDOWN_END	n/a	n/a	n/a	n/a	-999	6	[0, 0, 0]	n/a	catFR1	1	R1474T
858.597	2.202	962225	ENCODING_START	n/a	n/a	n/a	n/a	-999	6	[0, 0, 0]	n/a	catFR1	1	R1474T
860.799	1.615	964432	WORD	n/a	wordpools/wordpool_categorized_EN.txt	BASEBALL	Toys	1	6	[0, 0, 0]	n/a	catFR1	1	R1474T
862.414	0.818	966039	WORD_OFF	n/a	n/a	BASEBALL	Toys	1	6	[0, 0, 0]	n/a	catFR1	1	R1474T
863.232	1.616	966863	WORD	n/a	wordpools/wordpool_categorized_EN.txt	SLINKY	Toys	2	6	[0, 0, 0]	n/a	catFR1	1	R1474T
864.848	0.966	968470	WORD_OFF	n/a	n/a	SLINKY	Toys	2	6	[0, 0, 0]	n/a	catFR1	1	R1474T
865.814	1.601	969448	WORD	n/a	wordpools/wordpool_categorized_EN.txt	CHEESECAKE	Desserts	3	6	[0, 0, 0]	n/a	catFR1	1	R1474T
867.415	0.767	971041	WORD_OFF	n/a	n/a	CHEESECAKE	Desserts	3	6	[0, 0, 0]	n/a	catFR1	1	R1474T
868.182	1.616	971809	WORD	n/a	wordpools/wordpool_categorized_EN.txt	COBBLER	Desserts	4	6	[0, 0, 0]	n/a	catFR1	1	R1474T
869.798	0.867	973430	WORD_OFF	n/a	n/a	COBBLER	Desserts	4	6	[0, 0, 0]	n/a	catFR1	1	R1474T
870.665	1.6	974296	WORD	n/a	wordpools/wordpool_categorized_EN.txt	HUMIDITY	Weather	5	6	[0, 0, 0]	n/a	catFR1	1	R1474T
872.265	0.917	975889	WORD_OFF	n/a	n/a	HUMIDITY	Weather	5	6	[0, 0, 0]	n/a	catFR1	1	R1474T
873.182	1.6	976811	WORD	n/a	wordpools/wordpool_categorized_EN.txt	DRIZZLE	Weather	6	6	[0, 0, 0]	n/a	catFR1	1	R1474T
874.782	0.983	978404	WORD_OFF	n/a	n/a	DRIZZLE	Weather	6	6	[0, 0, 0]	n/a	catFR1	1	R1474T
875.765	1.617	979396	WORD	n/a	wordpools/wordpool_categorized_EN.txt	CUPCAKE	Desserts	7	6	[0, 0, 0]	n/a	catFR1	1	R1474T
877.382	0.799	981003	WORD_OFF	n/a	n/a	CUPCAKE	Desserts	7	6	[0, 0, 0]	n/a	catFR1	1	R1474T
878.181	1.601	981813	WORD	n/a	wordpools/wordpool_categorized_EN.txt	PASTRY	Desserts	8	6	[0, 0, 0]	n/a	catFR1	1	R1474T
879.782	0.833	983406	WORD_OFF	n/a	n/a	PASTRY	Desserts	8	6	[0, 0, 0]	n/a	catFR1	1	R1474T
880.615	1.6	984244	WORD	n/a	wordpools/wordpool_categorized_EN.txt	FOG	Weather	9	6	[0, 0, 0]	n/a	catFR1	1	R1474T
882.215	0.767	985837	WORD_OFF	n/a	n/a	FOG	Weather	9	6	[0, 0, 0]	n/a	catFR1	1	R1474T
882.982	1.6	986605	WORD	n/a	wordpools/wordpool_categorized_EN.txt	TORNADO	Weather	10	6	[0, 0, 0]	n/a	catFR1	1	R1474T
884.582	0.8	988212	WORD_OFF	n/a	n/a	TORNADO	Weather	10	6	[0, 0, 0]	n/a	catFR1	1	R1474T
885.382	1.6	989009	WORD	n/a	wordpools/wordpool_categorized_EN.txt	DOLLHOUSE	Toys	11	6	[0, 0, 0]	n/a	catFR1	1	R1474T
886.982	0.949	990615	WORD_OFF	n/a	n/a	DOLLHOUSE	Toys	11	6	[0, 0, 0]	n/a	catFR1	1	R1474T
887.931	1.601	991565	WORD	n/a	wordpools/wordpool_categorized_EN.txt	MARBLES	Toys	12	6	[0, 0, 0]	n/a	catFR1	1	R1474T
889.532	0.001	993158	WORD_OFF	n/a	n/a	MARBLES	Toys	12	6	[0, 0, 0]	n/a	catFR1	1	R1474T
889.533	0.0	993158	ENCODING_END	n/a	n/a	n/a	n/a	-999	6	[0, 0, 0]	n/a	catFR1	1	R1474T
889.533	0.0	993158	DISTRACT_START	n/a	n/a	n/a	n/a	-999	6	[0, 0, 0]	n/a	catFR1	1	R1474T
889.532	0.001	993159	PROB	0.001	n/a	n/a	n/a	-999	6	[3, 7, 6]	16	catFR1	1	R1474T
889.533	5.398	993160	START	n/a	n/a	n/a	n/a	-999	6	[-999, -999, -999]	n/a	catFR1	1	R1474T
894.931	4.317	998558	PROB	4.317	n/a	n/a	n/a	-999	6	[6, 4, 3]	13	catFR1	1	R1474T
899.248	4.8	1002875	PROB	4.8	n/a	n/a	n/a	-999	6	[8, 8, 3]	19	catFR1	1	R1474T
904.048	6.583	1007674	PROB	6.583	n/a	n/a	n/a	-999	6	[8, 3, 7]	18	catFR1	1	R1474T
910.631	0.0	1014256	DISTRACT_END	n/a	n/a	n/a	n/a	-999	6	[0, 0, 0]	n/a	catFR1	1	R1474T
910.631	2.067	1014257	STOP	n/a	n/a	n/a	n/a	-999	6	[-999, -999, -999]	n/a	catFR1	1	R1474T
912.698	1.386	1016318	REC_START	n/a	n/a	n/a	n/a	-999	6	[0, 0, 0]	n/a	catFR1	1	R1474T
914.084	2.238	1017710	REC_WORD	2.238	n/a	BASEBALL	Toys	1	6	[0, 0, 0]	n/a	catFR1	1	R1474T
916.322	1.0	1019948	REC_WORD	1.0	n/a	CUPCAKE	Desserts	7	6	[0, 0, 0]	n/a	catFR1	1	R1474T
917.322	1.635	1020948	REC_WORD	1.635	n/a	CUPCAKE	Desserts	7	6	[0, 0, 0]	n/a	catFR1	1	R1474T
918.957	1.0	1022583	REC_WORD	1.0	n/a	MARBLES	Toys	12	6	[0, 0, 0]	n/a	catFR1	1	R1474T
919.957	7.773	1023583	REC_WORD	7.773	n/a	MARBLES	Toys	12	6	[0, 0, 0]	n/a	catFR1	1	R1474T
927.73	2.415	1031355	REC_WORD	2.415	n/a	FOG	Weather	9	6	[0, 0, 0]	n/a	catFR1	1	R1474T
930.145	1.0	1033770	REC_WORD	1.0	n/a	HUMIDITY	Weather	5	6	[0, 0, 0]	n/a	catFR1	1	R1474T
931.145	11.782	1034770	REC_WORD	11.782	n/a	HUMIDITY	Weather	5	6	[0, 0, 0]	n/a	catFR1	1	R1474T
942.927	6.387	1046559	REC_END	n/a	n/a	n/a	n/a	-999	6	[0, 0, 0]	n/a	catFR1	1	R1474T
949.314	10.351	1052944	COUNTDOWN_START	n/a	n/a	n/a	n/a	-999	7	[0, 0, 0]	n/a	catFR1	1	R1474T
959.665	0.0	1063283	COUNTDOWN_END	n/a	n/a	n/a	n/a	-999	7	[0, 0, 0]	n/a	catFR1	1	R1474T
959.665	2.249	1063297	ENCODING_START	n/a	n/a	n/a	n/a	-999	7	[0, 0, 0]	n/a	catFR1	1	R1474T
961.914	1.6	1065532	WORD	n/a	wordpools/wordpool_categorized_EN.txt	PEAR	Fruit	1	7	[0, 0, 0]	n/a	catFR1	1	R1474T
963.514	0.984	1067139	WORD_OFF	n/a	n/a	PEAR	Fruit	1	7	[0, 0, 0]	n/a	catFR1	1	R1474T
964.498	1.6	1068117	WORD	n/a	wordpools/wordpool_categorized_EN.txt	BANANA	Fruit	2	7	[0, 0, 0]	n/a	catFR1	1	R1474T
966.098	0.783	1069724	WORD_OFF	n/a	n/a	BANANA	Fruit	2	7	[0, 0, 0]	n/a	catFR1	1	R1474T
966.881	1.601	1070506	WORD	n/a	wordpools/wordpool_categorized_EN.txt	SANDER	Tools	3	7	[0, 0, 0]	n/a	catFR1	1	R1474T
968.482	0.767	1072099	WORD_OFF	n/a	n/a	SANDER	Tools	3	7	[0, 0, 0]	n/a	catFR1	1	R1474T
969.249	1.616	1072868	WORD	n/a	wordpools/wordpool_categorized_EN.txt	HAMMER	Tools	4	7	[0, 0, 0]	n/a	catFR1	1	R1474T
970.865	0.9	1074488	WORD_OFF	n/a	n/a	HAMMER	Tools	4	7	[0, 0, 0]	n/a	catFR1	1	R1474T
971.765	1.6	1075382	WORD	n/a	wordpools/wordpool_categorized_EN.txt	DRYER	Appliances	5	7	[0, 0, 0]	n/a	catFR1	1	R1474T
973.365	0.783	1076989	WORD_OFF	n/a	n/a	DRYER	Appliances	5	7	[0, 0, 0]	n/a	catFR1	1	R1474T
974.148	1.616	1077772	WORD	n/a	wordpools/wordpool_categorized_EN.txt	STOVE	Appliances	6	7	[0, 0, 0]	n/a	catFR1	1	R1474T
975.764	0.816	1079392	WORD_OFF	n/a	n/a	STOVE	Appliances	6	7	[0, 0, 0]	n/a	catFR1	1	R1474T
976.58	1.602	1080203	WORD	n/a	wordpools/wordpool_categorized_EN.txt	BLUEBERRY	Fruit	7	7	[0, 0, 0]	n/a	catFR1	1	R1474T
978.182	0.816	1081809	WORD_OFF	n/a	n/a	BLUEBERRY	Fruit	7	7	[0, 0, 0]	n/a	catFR1	1	R1474T
978.998	1.6	1082620	WORD	n/a	wordpools/wordpool_categorized_EN.txt	PLUM	Fruit	8	7	[0, 0, 0]	n/a	catFR1	1	R1474T
980.598	0.766	1084227	WORD_OFF	n/a	n/a	PLUM	Fruit	8	7	[0, 0, 0]	n/a	catFR1	1	R1474T
981.364	1.617	1084981	WORD	n/a	wordpools/wordpool_categorized_EN.txt	AXE	Tools	9	7	[0, 0, 0]	n/a	catFR1	1	R1474T
982.981	0.817	1086602	WORD_OFF	n/a	n/a	AXE	Tools	9	7	[0, 0, 0]	n/a	catFR1	1	R1474T
983.798	1.6	1087426	WORD	n/a	wordpools/wordpool_categorized_EN.txt	LEVEL	Tools	10	7	[0, 0, 0]	n/a	catFR1	1	R1474T
985.398	1.0	1089019	WORD_OFF	n/a	n/a	LEVEL	Tools	10	7	[0, 0, 0]	n/a	catFR1	1	R1474T
986.398	1.617	1090025	WORD	n/a	wordpools/wordpool_categorized_EN.txt	VACUUM	Appliances	11	7	[0, 0, 0]	n/a	catFR1	1	R1474T
988.015	0.882	1091632	WORD_OFF	n/a	n/a	VACUUM	Appliances	11	7	[0, 0, 0]	n/a	catFR1	1	R1474T
988.897	1.6	1092526	WORD	n/a	wordpools/wordpool_categorized_EN.txt	DISHWASHER	Appliances	12	7	[0, 0, 0]	n/a	catFR1	1	R1474T
990.497	0.002	1094119	WORD_OFF	n/a	n/a	DISHWASHER	Appliances	12	7	[0, 0, 0]	n/a	catFR1	1	R1474T
990.499	0.0	1094119	ENCODING_END	n/a	n/a	n/a	n/a	-999	7	[0, 0, 0]	n/a	catFR1	1	R1474T
990.499	0.0	1094119	DISTRACT_START	n/a	n/a	n/a	n/a	-999	7	[0, 0, 0]	n/a	catFR1	1	R1474T
990.498	0.001	1094120	PROB	0.001	n/a	n/a	n/a	-999	7	[1, 1, 8]	10	catFR1	1	R1474T
990.499	5.532	1094121	START	n/a	n/a	n/a	n/a	-999	7	[-999, -999, -999]	n/a	catFR1	1	R1474T
996.031	6.65	1099653	PROB	6.65	n/a	n/a	n/a	-999	7	[7, 5, 2]	14	catFR1	1	R1474T
1002.681	9.551	1106302	PROB	9.551	n/a	n/a	n/a	-999	7	[5, 6, 8]	19	catFR1	1	R1474T
1012.232	0.0	1115853	STOP	n/a	n/a	n/a	n/a	-999	7	[-999, -999, -999]	n/a	catFR1	1	R1474T
1012.232	2.116	1115859	DISTRACT_END	n/a	n/a	n/a	n/a	-999	7	[0, 0, 0]	n/a	catFR1	1	R1474T
1014.348	1.198	1117963	REC_START	n/a	n/a	n/a	n/a	-999	7	[0, 0, 0]	n/a	catFR1	1	R1474T
1015.546	1.358	1119167	REC_WORD	1.358	n/a	PEAR	Fruit	1	7	[0, 0, 0]	n/a	catFR1	1	R1474T
1016.904	1.002	1120525	REC_WORD	1.002	n/a	BLUEBERRY	Fruit	7	7	[0, 0, 0]	n/a	catFR1	1	R1474T
1017.906	1.577	1121527	REC_WORD	1.577	n/a	BLUEBERRY	Fruit	7	7	[0, 0, 0]	n/a	catFR1	1	R1474T
1019.483	1.0	1123104	REC_WORD	1.0	n/a	DISHWASHER	Appliances	12	7	[0, 0, 0]	n/a	catFR1	1	R1474T
1020.483	16.116	1124104	REC_WORD	16.116	n/a	DISHWASHER	Appliances	12	7	[0, 0, 0]	n/a	catFR1	1	R1474T
1036.599	1.0	1140219	REC_WORD	1.0	n/a	BLUEBERRY	Fruit	7	7	[0, 0, 0]	n/a	catFR1	1	R1474T
1037.599	6.976	1141219	REC_WORD	6.976	n/a	BLUEBERRY	Fruit	7	7	[0, 0, 0]	n/a	catFR1	1	R1474T
1044.575	11.123	1148190	REC_END	n/a	n/a	n/a	n/a	-999	7	[0, 0, 0]	n/a	catFR1	1	R1474T
1055.698	10.35	1159325	COUNTDOWN_START	n/a	n/a	n/a	n/a	-999	8	[0, 0, 0]	n/a	catFR1	1	R1474T
1066.048	0.0	1169664	COUNTDOWN_END	n/a	n/a	n/a	n/a	-999	8	[0, 0, 0]	n/a	catFR1	1	R1474T
1066.048	2.134	1169664	ENCODING_START	n/a	n/a	n/a	n/a	-999	8	[0, 0, 0]	n/a	catFR1	1	R1474T
1068.182	1.6	1171802	WORD	n/a	wordpools/wordpool_categorized_EN.txt	WHALE	OceanAnimals	1	8	[0, 0, 0]	n/a	catFR1	1	R1474T
1069.782	0.799	1173395	WORD_OFF	n/a	n/a	WHALE	OceanAnimals	1	8	[0, 0, 0]	n/a	catFR1	1	R1474T
1070.581	1.601	1174205	WORD	n/a	wordpools/wordpool_categorized_EN.txt	DOLPHIN	OceanAnimals	2	8	[0, 0, 0]	n/a	catFR1	1	R1474T
1072.182	0.85	1175798	WORD_OFF	n/a	n/a	DOLPHIN	OceanAnimals	2	8	[0, 0, 0]	n/a	catFR1	1	R1474T
1073.032	1.616	1176650	WORD	n/a	wordpools/wordpool_categorized_EN.txt	DOOR	Building	3	8	[0, 0, 0]	n/a	catFR1	1	R1474T
1074.648	0.783	1178271	WORD_OFF	n/a	n/a	DOOR	Building	3	8	[0, 0, 0]	n/a	catFR1	1	R1474T
1075.431	1.601	1179053	WORD	n/a	wordpools/wordpool_categorized_EN.txt	CEILING	Building	4	8	[0, 0, 0]	n/a	catFR1	1	R1474T
1077.032	0.866	1180646	WORD_OFF	n/a	n/a	CEILING	Building	4	8	[0, 0, 0]	n/a	catFR1	1	R1474T
1077.898	1.616	1181512	WORD	n/a	wordpools/wordpool_categorized_EN.txt	CIDER	Beverages	5	8	[0, 0, 0]	n/a	catFR1	1	R1474T
1079.514	0.968	1183133	WORD_OFF	n/a	n/a	CIDER	Beverages	5	8	[0, 0, 0]	n/a	catFR1	1	R1474T
1080.482	1.616	1184097	WORD	n/a	wordpools/wordpool_categorized_EN.txt	COLA	Beverages	6	8	[0, 0, 0]	n/a	catFR1	1	R1474T
1082.098	0.9	1185718	WORD_OFF	n/a	n/a	COLA	Beverages	6	8	[0, 0, 0]	n/a	catFR1	1	R1474T
1082.998	1.601	1186612	WORD	n/a	wordpools/wordpool_categorized_EN.txt	ROOF	Building	7	8	[0, 0, 0]	n/a	catFR1	1	R1474T
1084.599	0.999	1188219	WORD_OFF	n/a	n/a	ROOF	Building	7	8	[0, 0, 0]	n/a	catFR1	1	R1474T
1085.598	1.6	1189211	WORD	n/a	wordpools/wordpool_categorized_EN.txt	WALL	Building	8	8	[0, 0, 0]	n/a	catFR1	1	R1474T
1087.198	0.867	1190818	WORD_OFF	n/a	n/a	WALL	Building	8	8	[0, 0, 0]	n/a	catFR1	1	R1474T
1088.065	1.617	1191684	WORD	n/a	wordpools/wordpool_categorized_EN.txt	SODA	Beverages	9	8	[0, 0, 0]	n/a	catFR1	1	R1474T
1089.682	0.765	1193305	WORD_OFF	n/a	n/a	SODA	Beverages	9	8	[0, 0, 0]	n/a	catFR1	1	R1474T
1090.447	1.601	1194059	WORD	n/a	wordpools/wordpool_categorized_EN.txt	WINE	Beverages	10	8	[0, 0, 0]	n/a	catFR1	1	R1474T
1092.048	0.784	1195666	WORD_OFF	n/a	n/a	WINE	Beverages	10	8	[0, 0, 0]	n/a	catFR1	1	R1474T
1092.832	1.6	1196448	WORD	n/a	wordpools/wordpool_categorized_EN.txt	TURTLE	OceanAnimals	11	8	[0, 0, 0]	n/a	catFR1	1	R1474T
1094.432	0.9	1198055	WORD_OFF	n/a	n/a	TURTLE	OceanAnimals	11	8	[0, 0, 0]	n/a	catFR1	1	R1474T
1095.332	1.6	1198949	WORD	n/a	wordpools/wordpool_categorized_EN.txt	OYSTER	OceanAnimals	12	8	[0, 0, 0]	n/a	catFR1	1	R1474T
1096.932	0.0	1200542	WORD_OFF	n/a	n/a	OYSTER	OceanAnimals	12	8	[0, 0, 0]	n/a	catFR1	1	R1474T
1096.932	0.001	1200549	PROB	0.001	n/a	n/a	n/a	-999	8	[7, 1, 8]	16	catFR1	1	R1474T
1096.933	0.0	1200550	START	n/a	n/a	n/a	n/a	-999	8	[-999, -999, -999]	n/a	catFR1	1	R1474T
1096.933	0.0	1200556	ENCODING_END	n/a	n/a	n/a	n/a	-999	8	[0, 0, 0]	n/a	catFR1	1	R1474T
1096.933	4.749	1200556	DISTRACT_START	n/a	n/a	n/a	n/a	-999	8	[0, 0, 0]	n/a	catFR1	1	R1474T
1101.682	4.785	1205298	PROB	4.785	n/a	n/a	n/a	-999	8	[5, 3, 4]	12	catFR1	1	R1474T
1106.467	10.932	1210083	PROB	10.932	n/a	n/a	n/a	-999	8	[5, 4, 7]	16	catFR1	1	R1474T
1117.399	0.0	1221011	DISTRACT_END	n/a	n/a	n/a	n/a	-999	8	[0, 0, 0]	n/a	catFR1	1	R1474T
1117.399	2.333	1221015	STOP	n/a	n/a	n/a	n/a	-999	8	[-999, -999, -999]	n/a	catFR1	1	R1474T
1119.732	1.17	1223352	REC_START	n/a	n/a	n/a	n/a	-999	8	[0, 0, 0]	n/a	catFR1	1	R1474T
1120.902	1.478	1224518	REC_WORD	1.478	n/a	WHALE	OceanAnimals	1	8	[0, 0, 0]	n/a	catFR1	1	R1474T
1122.38	3.492	1225996	REC_WORD	3.492	n/a	DOLPHIN	OceanAnimals	2	8	[0, 0, 0]	n/a	catFR1	1	R1474T
1125.872	1.0	1229487	REC_WORD	1.0	n/a	ROOF	Building	7	8	[0, 0, 0]	n/a	catFR1	1	R1474T
1126.872	2.13	1230487	REC_WORD	2.13	n/a	ROOF	Building	7	8	[0, 0, 0]	n/a	catFR1	1	R1474T
1129.002	1.0	1232617	REC_WORD	1.0	n/a	COLA	Beverages	6	8	[0, 0, 0]	n/a	catFR1	1	R1474T
1130.002	3.644	1233617	REC_WORD	3.644	n/a	COLA	Beverages	6	8	[0, 0, 0]	n/a	catFR1	1	R1474T
1133.646	16.292	1237261	REC_WORD	16.292	n/a	SODA	Beverages	9	8	[0, 0, 0]	n/a	catFR1	1	R1474T
1149.938	10.294	1253551	REC_END	n/a	n/a	n/a	n/a	-999	8	[0, 0, 0]	n/a	catFR1	1	R1474T
1160.232	10.349	1263848	COUNTDOWN_START	n/a	n/a	n/a	n/a	-999	9	[0, 0, 0]	n/a	catFR1	1	R1474T
1170.581	0.0	1274187	COUNTDOWN_END	n/a	n/a	n/a	n/a	-999	9	[0, 0, 0]	n/a	catFR1	1	R1474T
1170.581	2.366	1274201	ENCODING_START	n/a	n/a	n/a	n/a	-999	9	[0, 0, 0]	n/a	catFR1	1	R1474T
1172.947	1.6	1276563	WORD	n/a	wordpools/wordpool_categorized_EN.txt	VAN	Vehicles	1	9	[0, 0, 0]	n/a	catFR1	1	R1474T
1174.547	0.934	1278155	WORD_OFF	n/a	n/a	VAN	Vehicles	1	9	[0, 0, 0]	n/a	catFR1	1	R1474T
1175.481	1.601	1279092	WORD	n/a	wordpools/wordpool_categorized_EN.txt	SCOOTER	Vehicles	2	9	[0, 0, 0]	n/a	catFR1	1	R1474T
1177.082	0.917	1280698	WORD_OFF	n/a	n/a	SCOOTER	Vehicles	2	9	[0, 0, 0]	n/a	catFR1	1	R1474T
1177.999	1.615	1281606	WORD	n/a	wordpools/wordpool_categorized_EN.txt	FLOOR	Building	3	9	[0, 0, 0]	n/a	catFR1	1	R1474T
1179.614	1.0	1283227	WORD_OFF	n/a	n/a	FLOOR	Building	3	9	[0, 0, 0]	n/a	catFR1	1	R1474T
1180.614	1.617	1284233	WORD	n/a	wordpools/wordpool_categorized_EN.txt	ATTIC	Building	4	9	[0, 0, 0]	n/a	catFR1	1	R1474T
1182.231	1.0	1285840	WORD_OFF	n/a	n/a	ATTIC	Building	4	9	[0, 0, 0]	n/a	catFR1	1	R1474T
1183.231	1.601	1286846	WORD	n/a	wordpools/wordpool_categorized_EN.txt	OVEN	Appliances	5	9	[0, 0, 0]	n/a	catFR1	1	R1474T
1184.832	0.883	1288439	WORD_OFF	n/a	n/a	OVEN	Appliances	5	9	[0, 0, 0]	n/a	catFR1	1	R1474T
1185.715	1.6	1289333	WORD	n/a	wordpools/wordpool_categorized_EN.txt	BLENDER	Appliances	6	9	[0, 0, 0]	n/a	catFR1	1	R1474T
1187.315	0.85	1290926	WORD_OFF	n/a	n/a	BLENDER	Appliances	6	9	[0, 0, 0]	n/a	catFR1	1	R1474T
1188.165	1.6	1291778	WORD	n/a	wordpools/wordpool_categorized_EN.txt	WINDOW	Building	7	9	[0, 0, 0]	n/a	catFR1	1	R1474T
1189.765	0.85	1293371	WORD_OFF	n/a	n/a	WINDOW	Building	7	9	[0, 0, 0]	n/a	catFR1	1	R1474T
1190.615	1.6	1294223	WORD	n/a	wordpools/wordpool_categorized_EN.txt	STAIRS	Building	8	9	[0, 0, 0]	n/a	catFR1	1	R1474T
1192.215	0.934	1295830	WORD_OFF	n/a	n/a	STAIRS	Building	8	9	[0, 0, 0]	n/a	catFR1	1	R1474T
1193.149	1.616	1296766	WORD	n/a	wordpools/wordpool_categorized_EN.txt	MIXER	Appliances	9	9	[0, 0, 0]	n/a	catFR1	1	R1474T
1194.765	0.832	1298373	WORD_OFF	n/a	n/a	MIXER	Appliances	9	9	[0, 0, 0]	n/a	catFR1	1	R1474T
1195.597	1.602	1299211	WORD	n/a	wordpools/wordpool_categorized_EN.txt	IRON	Appliances	10	9	[0, 0, 0]	n/a	catFR1	1	R1474T
1197.199	0.999	1300804	WORD_OFF	n/a	n/a	IRON	Appliances	10	9	[0, 0, 0]	n/a	catFR1	1	R1474T
1198.198	1.617	1301810	WORD	n/a	wordpools/wordpool_categorized_EN.txt	MOPED	Vehicles	11	9	[0, 0, 0]	n/a	catFR1	1	R1474T
1199.815	0.95	1303430	WORD_OFF	n/a	n/a	MOPED	Vehicles	11	9	[0, 0, 0]	n/a	catFR1	1	R1474T
1200.765	1.616	1304381	WORD	n/a	wordpools/wordpool_categorized_EN.txt	BUS	Vehicles	12	9	[0, 0, 0]	n/a	catFR1	1	R1474T
1202.381	0.0	1305987	WORD_OFF	n/a	n/a	BUS	Vehicles	12	9	[0, 0, 0]	n/a	catFR1	1	R1474T
1202.381	0.001	1305992	PROB	0.001	n/a	n/a	n/a	-999	9	[2, 7, 3]	12	catFR1	1	R1474T
1202.382	0.0	1305993	START	n/a	n/a	n/a	n/a	-999	9	[-999, -999, -999]	n/a	catFR1	1	R1474T
1202.382	0.0	1306001	ENCODING_END	n/a	n/a	n/a	n/a	-999	9	[0, 0, 0]	n/a	catFR1	1	R1474T
1202.382	4.666	1306001	DISTRACT_START	n/a	n/a	n/a	n/a	-999	9	[0, 0, 0]	n/a	catFR1	1	R1474T
1207.048	3.85	1310659	PROB	3.85	n/a	n/a	n/a	-999	9	[3, 2, 4]	9	catFR1	1	R1474T
1210.898	3.151	1314509	PROB	3.151	n/a	n/a	n/a	-999	9	[1, 4, 4]	9	catFR1	1	R1474T
1214.049	4.95	1317660	PROB	4.95	n/a	n/a	n/a	-999	9	[7, 3, 1]	11	catFR1	1	R1474T
1218.999	4.75	1322610	PROB	4.75	n/a	n/a	n/a	-999	9	[2, 1, 6]	9	catFR1	1	R1474T
1223.749	0.0	1327359	STOP	n/a	n/a	n/a	n/a	-999	9	[-999, -999, -999]	n/a	catFR1	1	R1474T
1223.749	2.398	1327364	DISTRACT_END	n/a	n/a	n/a	n/a	-999	9	[0, 0, 0]	n/a	catFR1	1	R1474T
1226.147	2.04	1329761	REC_START	n/a	n/a	n/a	n/a	-999	9	[0, 0, 0]	n/a	catFR1	1	R1474T
1228.187	3.247	1331797	REC_WORD	3.247	n/a	MOPPED	n/a	-999	9	[0, 0, 0]	n/a	catFR1	1	R1474T
1231.434	1.0	1335044	REC_WORD	1.0	n/a	IRON	Appliances	10	9	[0, 0, 0]	n/a	catFR1	1	R1474T
1232.434	23.939	1336044	REC_WORD	23.939	n/a	IRON	Appliances	10	9	[0, 0, 0]	n/a	catFR1	1	R1474T
1256.373	5.325	1359988	REC_END	n/a	n/a	n/a	n/a	-999	9	[0, 0, 0]	n/a	catFR1	1	R1474T
1261.698	10.35	1365312	COUNTDOWN_START	n/a	n/a	n/a	n/a	-999	10	[0, 0, 0]	n/a	catFR1	1	R1474T
1272.048	0.0	1375651	COUNTDOWN_END	n/a	n/a	n/a	n/a	-999	10	[0, 0, 0]	n/a	catFR1	1	R1474T
1272.048	1.867	1375665	ENCODING_START	n/a	n/a	n/a	n/a	-999	10	[0, 0, 0]	n/a	catFR1	1	R1474T
1273.915	1.6	1377523	WORD	n/a	wordpools/wordpool_categorized_EN.txt	PHONE	Electronics	1	10	[0, 0, 0]	n/a	catFR1	1	R1474T
1275.515	0.782	1379116	WORD_OFF	n/a	n/a	PHONE	Electronics	1	10	[0, 0, 0]	n/a	catFR1	1	R1474T
1276.297	1.6	1379912	WORD	n/a	wordpools/wordpool_categorized_EN.txt	SCANNER	Electronics	2	10	[0, 0, 0]	n/a	catFR1	1	R1474T
1277.897	1.001	1381505	WORD_OFF	n/a	n/a	SCANNER	Electronics	2	10	[0, 0, 0]	n/a	catFR1	1	R1474T
1278.898	1.616	1382511	WORD	n/a	wordpools/wordpool_categorized_EN.txt	OCEAN	Landscapes	3	10	[0, 0, 0]	n/a	catFR1	1	R1474T
1280.514	0.968	1384118	WORD_OFF	n/a	n/a	OCEAN	Landscapes	3	10	[0, 0, 0]	n/a	catFR1	1	R1474T
1281.482	1.616	1385096	WORD	n/a	wordpools/wordpool_categorized_EN.txt	HILLS	Landscapes	4	10	[0, 0, 0]	n/a	catFR1	1	R1474T
1283.098	0.983	1386702	WORD_OFF	n/a	n/a	HILLS	Landscapes	4	10	[0, 0, 0]	n/a	catFR1	1	R1474T
1284.081	1.601	1387694	WORD	n/a	wordpools/wordpool_categorized_EN.txt	GLUE	OfficeSupplies	5	10	[0, 0, 0]	n/a	catFR1	1	R1474T
1285.682	0.799	1389287	WORD_OFF	n/a	n/a	GLUE	OfficeSupplies	5	10	[0, 0, 0]	n/a	catFR1	1	R1474T
1286.481	1.601	1390084	WORD	n/a	wordpools/wordpool_categorized_EN.txt	NOTEBOOK	OfficeSupplies	6	10	[0, 0, 0]	n/a	catFR1	1	R1474T
1288.082	0.916	1391690	WORD_OFF	n/a	n/a	NOTEBOOK	OfficeSupplies	6	10	[0, 0, 0]	n/a	catFR1	1	R1474T
1288.998	1.6	1392599	WORD	n/a	wordpools/wordpool_categorized_EN.txt	WOODS	Landscapes	7	10	[0, 0, 0]	n/a	catFR1	1	R1474T
1290.598	0.967	1394205	WORD_OFF	n/a	n/a	WOODS	Landscapes	7	10	[0, 0, 0]	n/a	catFR1	1	R1474T
1291.565	1.6	1395169	WORD	n/a	wordpools/wordpool_categorized_EN.txt	STREAM	Landscapes	8	10	[0, 0, 0]	n/a	catFR1	1	R1474T
1293.165	0.883	1396776	WORD_OFF	n/a	n/a	STREAM	Landscapes	8	10	[0, 0, 0]	n/a	catFR1	1	R1474T
1294.048	1.6	1397656	WORD	n/a	wordpools/wordpool_categorized_EN.txt	HEADPHONES	Electronics	9	10	[0, 0, 0]	n/a	catFR1	1	R1474T
1295.648	0.884	1399249	WORD_OFF	n/a	n/a	HEADPHONES	Electronics	9	10	[0, 0, 0]	n/a	catFR1	1	R1474T
1296.532	1.6	1400143	WORD	n/a	wordpools/wordpool_categorized_EN.txt	MICROWAVE	Electronics	10	10	[0, 0, 0]	n/a	catFR1	1	R1474T
1298.132	0.766	1401736	WORD_OFF	n/a	n/a	MICROWAVE	Electronics	10	10	[0, 0, 0]	n/a	catFR1	1	R1474T
1298.898	1.617	1402505	WORD	n/a	wordpools/wordpool_categorized_EN.txt	RULER	OfficeSupplies	11	10	[0, 0, 0]	n/a	catFR1	1	R1474T
1300.515	0.965	1404125	WORD_OFF	n/a	n/a	RULER	OfficeSupplies	11	10	[0, 0, 0]	n/a	catFR1	1	R1474T
1301.48	1.601	1405089	WORD	n/a	wordpools/wordpool_categorized_EN.txt	PENCIL	OfficeSupplies	12	10	[0, 0, 0]	n/a	catFR1	1	R1474T
1303.081	0.0	1406682	WORD_OFF	n/a	n/a	PENCIL	OfficeSupplies	12	10	[0, 0, 0]	n/a	catFR1	1	R1474T
1303.081	0.001	1406687	PROB	0.001	n/a	n/a	n/a	-999	10	[7, 4, 4]	14	catFR1	1	R1474T
1303.082	0.0	1406688	START	n/a	n/a	n/a	n/a	-999	10	[-999, -999, -999]	n/a	catFR1	1	R1474T
1303.082	0.0	1406696	ENCODING_END	n/a	n/a	n/a	n/a	-999	10	[0, 0, 0]	n/a	catFR1	1	R1474T
1303.082	8.834	1406696	DISTRACT_START	n/a	n/a	n/a	n/a	-999	10	[0, 0, 0]	n/a	catFR1	1	R1474T
1311.916	7.249	1415522	PROB	7.249	n/a	n/a	n/a	-999	10	[5, 3, 6]	14	catFR1	1	R1474T
1319.165	3.684	1422771	PROB	3.684	n/a	n/a	n/a	-999	10	[4, 5, 2]	11	catFR1	1	R1474T
1322.849	8.05	1426454	PROB	8.05	n/a	n/a	n/a	-999	10	[3, 8, 7]	18	catFR1	1	R1474T
1330.899	0.0	1434500	DISTRACT_END	n/a	n/a	n/a	n/a	-999	10	[0, 0, 0]	n/a	catFR1	1	R1474T
1330.899	2.249	1434504	STOP	n/a	n/a	n/a	n/a	-999	10	[-999, -999, -999]	n/a	catFR1	1	R1474T
1333.148	0.816	1436758	REC_START	n/a	n/a	n/a	n/a	-999	10	[0, 0, 0]	n/a	catFR1	1	R1474T
1333.964	1.123	1437569	REC_WORD	1.123	n/a	PHONE	Electronics	1	10	[0, 0, 0]	n/a	catFR1	1	R1474T
1335.087	3.613	1438692	REC_WORD	3.613	n/a	SCANNER	Electronics	2	10	[0, 0, 0]	n/a	catFR1	1	R1474T
1338.7	8.298	1442305	REC_WORD	8.298	n/a	PENCIL	OfficeSupplies	12	10	[0, 0, 0]	n/a	catFR1	1	R1474T
1346.998	16.35	1450602	REC_WORD	16.35	n/a	OCEAN	Landscapes	3	10	[0, 0, 0]	n/a	catFR1	1	R1474T
1363.348	4.7	1466957	REC_END	n/a	n/a	n/a	n/a	-999	10	[0, 0, 0]	n/a	catFR1	1	R1474T
1368.048	10.35	1471651	COUNTDOWN_START	n/a	n/a	n/a	n/a	-999	11	[0, 0, 0]	n/a	catFR1	1	R1474T
1378.398	0.0	1482004	COUNTDOWN_END	n/a	n/a	n/a	n/a	-999	11	[0, 0, 0]	n/a	catFR1	1	R1474T
1378.398	2.067	1482004	ENCODING_START	n/a	n/a	n/a	n/a	-999	11	[0, 0, 0]	n/a	catFR1	1	R1474T
1380.465	1.616	1484072	WORD	n/a	wordpools/wordpool_categorized_EN.txt	WHISK	KitchenTools	1	11	[0, 0, 0]	n/a	catFR1	1	R1474T
1382.081	0.966	1485679	WORD_OFF	n/a	n/a	WHISK	KitchenTools	1	11	[0, 0, 0]	n/a	catFR1	1	R1474T
1383.047	1.601	1486643	WORD	n/a	wordpools/wordpool_categorized_EN.txt	SPATULA	KitchenTools	2	11	[0, 0, 0]	n/a	catFR1	1	R1474T
1384.648	0.866	1488250	WORD_OFF	n/a	n/a	SPATULA	KitchenTools	2	11	[0, 0, 0]	n/a	catFR1	1	R1474T
1385.514	1.6	1489116	WORD	n/a	wordpools/wordpool_categorized_EN.txt	RADIO	Electronics	3	11	[0, 0, 0]	n/a	catFR1	1	R1474T
1387.114	0.784	1490723	WORD_OFF	n/a	n/a	RADIO	Electronics	3	11	[0, 0, 0]	n/a	catFR1	1	R1474T
1387.898	1.6	1491505	WORD	n/a	wordpools/wordpool_categorized_EN.txt	TELEVISION	Electronics	4	11	[0, 0, 0]	n/a	catFR1	1	R1474T
1389.498	0.934	1493098	WORD_OFF	n/a	n/a	TELEVISION	Electronics	4	11	[0, 0, 0]	n/a	catFR1	1	R1474T
1390.432	1.616	1494034	WORD	n/a	wordpools/wordpool_categorized_EN.txt	MOTORCYCLE	Vehicles	5	11	[0, 0, 0]	n/a	catFR1	1	R1474T
1392.048	0.817	1495655	WORD_OFF	n/a	n/a	MOTORCYCLE	Vehicles	5	11	[0, 0, 0]	n/a	catFR1	1	R1474T
1392.865	1.6	1496465	WORD	n/a	wordpools/wordpool_categorized_EN.txt	BOAT	Vehicles	6	11	[0, 0, 0]	n/a	catFR1	1	R1474T
1394.465	0.799	1498072	WORD_OFF	n/a	n/a	BOAT	Vehicles	6	11	[0, 0, 0]	n/a	catFR1	1	R1474T
1395.264	1.601	1498868	WORD	n/a	wordpools/wordpool_categorized_EN.txt	PEELER	KitchenTools	7	11	[0, 0, 0]	n/a	catFR1	1	R1474T
1396.865	0.884	1500461	WORD_OFF	n/a	n/a	PEELER	KitchenTools	7	11	[0, 0, 0]	n/a	catFR1	1	R1474T
1397.749	1.599	1501355	WORD	n/a	wordpools/wordpool_categorized_EN.txt	GRATER	KitchenTools	8	11	[0, 0, 0]	n/a	catFR1	1	R1474T
1399.348	1.001	1502948	WORD_OFF	n/a	n/a	GRATER	KitchenTools	8	11	[0, 0, 0]	n/a	catFR1	1	R1474T
1400.349	1.614	1503954	WORD	n/a	wordpools/wordpool_categorized_EN.txt	JEEP	Vehicles	9	11	[0, 0, 0]	n/a	catFR1	1	R1474T
1401.963	1.001	1505561	WORD_OFF	n/a	n/a	JEEP	Vehicles	9	11	[0, 0, 0]	n/a	catFR1	1	R1474T
1402.964	1.6	1506567	WORD	n/a	wordpools/wordpool_categorized_EN.txt	CAR	Vehicles	10	11	[0, 0, 0]	n/a	catFR1	1	R1474T
1404.564	0.883	1508159	WORD_OFF	n/a	n/a	CAR	Vehicles	10	11	[0, 0, 0]	n/a	catFR1	1	R1474T
1405.447	1.601	1509054	WORD	n/a	wordpools/wordpool_categorized_EN.txt	STEREO	Electronics	11	11	[0, 0, 0]	n/a	catFR1	1	R1474T
1407.048	0.983	1510646	WORD_OFF	n/a	n/a	STEREO	Electronics	11	11	[0, 0, 0]	n/a	catFR1	1	R1474T
1408.031	1.601	1511638	WORD	n/a	wordpools/wordpool_categorized_EN.txt	TABLET	Electronics	12	11	[0, 0, 0]	n/a	catFR1	1	R1474T
1409.632	0.001	1513231	WORD_OFF	n/a	n/a	TABLET	Electronics	12	11	[0, 0, 0]	n/a	catFR1	1	R1474T
1409.633	0.0	1513231	ENCODING_END	n/a	n/a	n/a	n/a	-999	11	[0, 0, 0]	n/a	catFR1	1	R1474T
1409.633	0.0	1513231	DISTRACT_START	n/a	n/a	n/a	n/a	-999	11	[0, 0, 0]	n/a	catFR1	1	R1474T
1409.632	0.001	1513233	PROB	0.001	n/a	n/a	n/a	-999	11	[2, 2, 7]	11	catFR1	1	R1474T
1409.633	5.049	1513234	START	n/a	n/a	n/a	n/a	-999	11	[-999, -999, -999]	n/a	catFR1	1	R1474T
1414.682	3.082	1518283	PROB	3.082	n/a	n/a	n/a	-999	11	[1, 1, 5]	7	catFR1	1	R1474T
1417.764	7.619	1521365	PROB	7.619	n/a	n/a	n/a	-999	11	[1, 4, 6]	11	catFR1	1	R1474T
1425.383	3.666	1528983	PROB	3.666	n/a	n/a	n/a	-999	11	[7, 7, 1]	15	catFR1	1	R1474T
1429.049	5.149	1532649	PROB	5.149	n/a	n/a	n/a	-999	11	[2, 8, 1]	11	catFR1	1	R1474T
1434.198	0.0	1537794	DISTRACT_END	n/a	n/a	n/a	n/a	-999	11	[0, 0, 0]	n/a	catFR1	1	R1474T
1434.198	2.15	1537798	STOP	n/a	n/a	n/a	n/a	-999	11	[-999, -999, -999]	n/a	catFR1	1	R1474T
1436.348	0.826	1539953	REC_START	n/a	n/a	n/a	n/a	-999	11	[0, 0, 0]	n/a	catFR1	1	R1474T
1437.174	1.001	1540774	REC_WORD	1.001	n/a	WHISK	KitchenTools	1	11	[0, 0, 0]	n/a	catFR1	1	R1474T
1438.175	0.696	1541775	REC_WORD	0.696	n/a	WHISK	KitchenTools	1	11	[0, 0, 0]	n/a	catFR1	1	R1474T
1438.871	1.0	1542471	REC_WORD	1.0	n/a	SPATULA	KitchenTools	2	11	[0, 0, 0]	n/a	catFR1	1	R1474T
1439.871	2.434	1543471	REC_WORD	2.434	n/a	SPATULA	KitchenTools	2	11	[0, 0, 0]	n/a	catFR1	1	R1474T
1442.305	0.998	1545904	REC_WORD	0.998	n/a	MOTORCYCLE	Vehicles	5	11	[0, 0, 0]	n/a	catFR1	1	R1474T
1443.303	0.97	1546902	REC_WORD	0.97	n/a	MOTORCYCLE	Vehicles	5	11	[0, 0, 0]	n/a	catFR1	1	R1474T
1444.273	22.271	1547872	REC_WORD	22.271	n/a	RADIO	Electronics	3	11	[0, 0, 0]	n/a	catFR1	1	R1474T
1466.544	7.921	1570138	REC_END	n/a	n/a	n/a	n/a	-999	11	[0, 0, 0]	n/a	catFR1	1	R1474T
1474.465	10.35	1578060	COUNTDOWN_START	n/a	n/a	n/a	n/a	-999	12	[0, 0, 0]	n/a	catFR1	1	R1474T
1484.815	0.0	1588414	COUNTDOWN_END	n/a	n/a	n/a	n/a	-999	12	[0, 0, 0]	n/a	catFR1	1	R1474T
1484.815	2.299	1588414	ENCODING_START	n/a	n/a	n/a	n/a	-999	12	[0, 0, 0]	n/a	catFR1	1	R1474T
1487.114	1.601	1590705	WORD	n/a	wordpools/wordpool_categorized_EN.txt	TABLE	Furniture	1	12	[0, 0, 0]	n/a	catFR1	1	R1474T
1488.715	0.816	1592312	WORD_OFF	n/a	n/a	TABLE	Furniture	1	12	[0, 0, 0]	n/a	catFR1	1	R1474T
1489.531	1.6	1593122	WORD	n/a	wordpools/wordpool_categorized_EN.txt	DRESSER	Furniture	2	12	[0, 0, 0]	n/a	catFR1	1	R1474T
1491.131	0.768	1594729	WORD_OFF	n/a	n/a	DRESSER	Furniture	2	12	[0, 0, 0]	n/a	catFR1	1	R1474T
1491.899	1.616	1595497	WORD	n/a	wordpools/wordpool_categorized_EN.txt	SCREWDRIVER	Tools	3	12	[0, 0, 0]	n/a	catFR1	1	R1474T
1493.515	1.0	1597118	WORD_OFF	n/a	n/a	SCREWDRIVER	Tools	3	12	[0, 0, 0]	n/a	catFR1	1	R1474T
1494.515	1.616	1598110	WORD	n/a	wordpools/wordpool_categorized_EN.txt	SHOVEL	Tools	4	12	[0, 0, 0]	n/a	catFR1	1	R1474T
1496.131	0.765	1599731	WORD_OFF	n/a	n/a	SHOVEL	Tools	4	12	[0, 0, 0]	n/a	catFR1	1	R1474T
1496.896	1.602	1600499	WORD	n/a	wordpools/wordpool_categorized_EN.txt	PANDA	Zoo	5	12	[0, 0, 0]	n/a	catFR1	1	R1474T
1498.498	0.933	1602092	WORD_OFF	n/a	n/a	PANDA	Zoo	5	12	[0, 0, 0]	n/a	catFR1	1	R1474T
1499.431	1.601	1603028	WORD	n/a	wordpools/wordpool_categorized_EN.txt	BEAR	Zoo	6	12	[0, 0, 0]	n/a	catFR1	1	R1474T
1501.032	0.85	1604635	WORD_OFF	n/a	n/a	BEAR	Zoo	6	12	[0, 0, 0]	n/a	catFR1	1	R1474T
1501.882	1.616	1605473	WORD	n/a	wordpools/wordpool_categorized_EN.txt	RATCHET	Tools	7	12	[0, 0, 0]	n/a	catFR1	1	R1474T
1503.498	0.85	1607094	WORD_OFF	n/a	n/a	RATCHET	Tools	7	12	[0, 0, 0]	n/a	catFR1	1	R1474T
1504.348	1.6	1607946	WORD	n/a	wordpools/wordpool_categorized_EN.txt	CROWBAR	Tools	8	12	[0, 0, 0]	n/a	catFR1	1	R1474T
1505.948	0.817	1609539	WORD_OFF	n/a	n/a	CROWBAR	Tools	8	12	[0, 0, 0]	n/a	catFR1	1	R1474T
1506.765	1.6	1610363	WORD	n/a	wordpools/wordpool_categorized_EN.txt	MONKEY	Zoo	9	12	[0, 0, 0]	n/a	catFR1	1	R1474T
1508.365	0.998	1611956	WORD_OFF	n/a	n/a	MONKEY	Zoo	9	12	[0, 0, 0]	n/a	catFR1	1	R1474T
1509.363	1.601	1612962	WORD	n/a	wordpools/wordpool_categorized_EN.txt	CHEETAH	Zoo	10	12	[0, 0, 0]	n/a	catFR1	1	R1474T
1510.964	0.918	1614555	WORD_OFF	n/a	n/a	CHEETAH	Zoo	10	12	[0, 0, 0]	n/a	catFR1	1	R1474T
1511.882	1.616	1615477	WORD	n/a	wordpools/wordpool_categorized_EN.txt	NIGHTSTAND	Furniture	11	12	[0, 0, 0]	n/a	catFR1	1	R1474T
1513.498	0.767	1617098	WORD_OFF	n/a	n/a	NIGHTSTAND	Furniture	11	12	[0, 0, 0]	n/a	catFR1	1	R1474T
1514.265	1.616	1617866	WORD	n/a	wordpools/wordpool_categorized_EN.txt	COUCH	Furniture	12	12	[0, 0, 0]	n/a	catFR1	1	R1474T
1515.881	0.001	1619473	WORD_OFF	n/a	n/a	COUCH	Furniture	12	12	[0, 0, 0]	n/a	catFR1	1	R1474T
1515.882	0.0	1619473	ENCODING_END	n/a	n/a	n/a	n/a	-999	12	[0, 0, 0]	n/a	catFR1	1	R1474T
1515.882	0.0	1619473	DISTRACT_START	n/a	n/a	n/a	n/a	-999	12	[0, 0, 0]	n/a	catFR1	1	R1474T
1515.881	0.001	1619477	PROB	0.001	n/a	n/a	n/a	-999	12	[6, 5, 6]	17	catFR1	1	R1474T
1515.882	6.65	1619478	START	n/a	n/a	n/a	n/a	-999	12	[-999, -999, -999]	n/a	catFR1	1	R1474T
1522.532	3.316	1626127	PROB	3.316	n/a	n/a	n/a	-999	12	[5, 7, 5]	17	catFR1	1	R1474T
1525.848	6.983	1629443	PROB	6.983	n/a	n/a	n/a	-999	12	[8, 7, 2]	17	catFR1	1	R1474T
1532.831	5.417	1636426	PROB	5.417	n/a	n/a	n/a	-999	12	[4, 4, 1]	9	catFR1	1	R1474T
1538.248	0.0	1641842	DISTRACT_END	n/a	n/a	n/a	n/a	-999	12	[0, 0, 0]	n/a	catFR1	1	R1474T
1538.248	2.382	1641843	STOP	n/a	n/a	n/a	n/a	-999	12	[-999, -999, -999]	n/a	catFR1	1	R1474T
1540.63	1.306	1644225	REC_START	n/a	n/a	n/a	n/a	-999	12	[0, 0, 0]	n/a	catFR1	1	R1474T
1541.936	1.829	1645531	REC_WORD	1.829	n/a	DRESSER	Furniture	2	12	[0, 0, 0]	n/a	catFR1	1	R1474T
1543.765	2.451	1647359	REC_WORD	2.451	n/a	PANDA	Zoo	5	12	[0, 0, 0]	n/a	catFR1	1	R1474T
1546.216	1.827	1649810	REC_WORD	1.827	n/a	BEAR	Zoo	6	12	[0, 0, 0]	n/a	catFR1	1	R1474T
1548.043	1.0	1651637	REC_WORD	1.0	n/a	COUCH	Furniture	12	12	[0, 0, 0]	n/a	catFR1	1	R1474T
1549.043	7.006	1652637	REC_WORD	7.006	n/a	COUCH	Furniture	12	12	[0, 0, 0]	n/a	catFR1	1	R1474T
1556.049	0.997	1659643	REC_WORD	0.997	n/a	SOFA	Furniture	-999	12	[0, 0, 0]	n/a	catFR1	1	R1474T
1557.046	9.294	1660640	REC_WORD	9.294	n/a	SOFA	Furniture	-999	12	[0, 0, 0]	n/a	catFR1	1	R1474T
1566.34	1.0	1669933	REC_WORD	1.0	n/a	SCREWDRIVER	Tools	3	12	[0, 0, 0]	n/a	catFR1	1	R1474T
1567.34	3.506	1670933	REC_WORD	3.506	n/a	SCREWDRIVER	Tools	3	12	[0, 0, 0]	n/a	catFR1	1	R1474T
1570.846	0.0	1674438	REC_END	n/a	n/a	n/a	n/a	-999	12	[0, 0, 0]	n/a	catFR1	1	R1474T
