onset	duration	sample	trial_type	response_time	stim_file	item_name	category	serialpos	list	test	answer	experiment	session	subject
0.0	48.917	2042	INSTRUCT_START	n/a	n/a	n/a	n/a	-999	-999	[0, 0, 0]	n/a	catFR1	2	R1456D
48.917	26.166	50961	INSTRUCT_END	n/a	n/a	n/a	n/a	-999	-999	[0, 0, 0]	n/a	catFR1	2	R1456D
75.083	10.349	77123	COUNTDOWN_START	n/a	n/a	n/a	n/a	-999	-999	[0, 0, 0]	n/a	catFR1	2	R1456D
85.432	0.0	87472	COUNTDOWN_END	n/a	n/a	n/a	n/a	-999	-999	[0, 0, 0]	n/a	catFR1	2	R1456D
85.432	2.168	87472	ENCODING_START	n/a	n/a	n/a	n/a	-999	-1	[0, 0, 0]	n/a	catFR1	2	R1456D
87.6	1.616	89641	WORD	n/a	n/a	CHIMPANZEE	Zoo	1	-1	[0, 0, 0]	n/a	catFR1	2	R1456D
89.216	0.981	91255	WORD_OFF	n/a	n/a	CHIMPANZEE	Zoo	1	-1	[0, 0, 0]	n/a	catFR1	2	R1456D
90.197	1.602	92239	WORD	n/a	n/a	ORANGUTAN	Zoo	2	-1	[0, 0, 0]	n/a	catFR1	2	R1456D
91.799	0.817	93836	WORD_OFF	n/a	n/a	ORANGUTAN	Zoo	2	-1	[0, 0, 0]	n/a	catFR1	2	R1456D
92.616	1.618	94651	WORD	n/a	n/a	KNEE	BodyParts	3	-1	[0, 0, 0]	n/a	catFR1	2	R1456D
94.234	0.999	96274	WORD_OFF	n/a	n/a	KNEE	BodyParts	3	-1	[0, 0, 0]	n/a	catFR1	2	R1456D
95.233	1.6	97274	WORD	n/a	n/a	HAND	BodyParts	4	-1	[0, 0, 0]	n/a	catFR1	2	R1456D
96.833	0.816	98872	WORD_OFF	n/a	n/a	HAND	BodyParts	4	-1	[0, 0, 0]	n/a	catFR1	2	R1456D
97.649	1.616	99687	WORD	n/a	n/a	WALNUT	Trees	5	-1	[0, 0, 0]	n/a	catFR1	2	R1456D
99.265	0.934	101301	WORD_OFF	n/a	n/a	WALNUT	Trees	5	-1	[0, 0, 0]	n/a	catFR1	2	R1456D
100.199	1.6	102234	WORD	n/a	n/a	BIRCH	Trees	6	-1	[0, 0, 0]	n/a	catFR1	2	R1456D
101.799	0.949	103840	WORD_OFF	n/a	n/a	BIRCH	Trees	6	-1	[0, 0, 0]	n/a	catFR1	2	R1456D
102.748	1.601	104790	WORD	n/a	n/a	PANDA	Zoo	7	-1	[0, 0, 0]	n/a	catFR1	2	R1456D
104.349	0.85	106387	WORD_OFF	n/a	n/a	PANDA	Zoo	7	-1	[0, 0, 0]	n/a	catFR1	2	R1456D
105.199	1.6	107236	WORD	n/a	n/a	LION	Zoo	8	-1	[0, 0, 0]	n/a	catFR1	2	R1456D
106.799	0.784	108834	WORD_OFF	n/a	n/a	LION	Zoo	8	-1	[0, 0, 0]	n/a	catFR1	2	R1456D
107.583	1.617	109624	WORD	n/a	n/a	TOE	BodyParts	9	-1	[0, 0, 0]	n/a	catFR1	2	R1456D
109.2	0.933	111238	WORD_OFF	n/a	n/a	TOE	BodyParts	9	-1	[0, 0, 0]	n/a	catFR1	2	R1456D
110.133	1.616	112171	WORD	n/a	n/a	ARM	BodyParts	10	-1	[0, 0, 0]	n/a	catFR1	2	R1456D
111.749	0.95	113785	WORD_OFF	n/a	n/a	ARM	BodyParts	10	-1	[0, 0, 0]	n/a	catFR1	2	R1456D
112.699	1.617	114735	WORD	n/a	n/a	OAK	Trees	11	-1	[0, 0, 0]	n/a	catFR1	2	R1456D
114.316	0.866	116349	WORD_OFF	n/a	n/a	OAK	Trees	11	-1	[0, 0, 0]	n/a	catFR1	2	R1456D
115.182	1.602	117215	WORD	n/a	n/a	WILLOW	Trees	12	-1	[0, 0, 0]	n/a	catFR1	2	R1456D
116.784	0.0	118817	START	n/a	n/a	n/a	n/a	-999	-1	[-999, -999, -999]	n/a	catFR1	2	R1456D
116.784	0.0	118817	PROB	0.0	n/a	n/a	n/a	-999	-1	[4, 2, 6]	12	catFR1	2	R1456D
116.783	0.001	118821	WORD_OFF	n/a	n/a	WILLOW	Trees	12	-1	[0, 0, 0]	n/a	catFR1	2	R1456D
116.784	0.0	118821	ENCODING_END	n/a	n/a	n/a	n/a	-999	-1	[0, 0, 0]	n/a	catFR1	2	R1456D
116.784	8.199	118821	DISTRACT_START	n/a	n/a	n/a	n/a	-999	-1	[0, 0, 0]	n/a	catFR1	2	R1456D
124.983	9.567	127016	PROB	9.567	n/a	n/a	n/a	-999	-1	[2, 6, 8]	16	catFR1	2	R1456D
134.55	6.199	136582	PROB	6.199	n/a	n/a	n/a	-999	-1	[6, 3, 6]	15	catFR1	2	R1456D
140.749	0.0	142780	DISTRACT_END	n/a	n/a	n/a	n/a	-999	-1	[0, 0, 0]	n/a	catFR1	2	R1456D
140.749	1.4	142781	STOP	n/a	n/a	n/a	n/a	-999	-1	[-999, -999, -999]	n/a	catFR1	2	R1456D
142.149	2.461	144184	REC_START	n/a	n/a	n/a	n/a	-999	-1	[0, 0, 0]	n/a	catFR1	2	R1456D
144.61	1.969	146642	REC_WORD_VV	1.969	n/a	<>	n/a	-999	-1	[0, 0, 0]	n/a	catFR1	2	R1456D
146.579	0.64	148610	REC_WORD_VV	0.64	n/a	<>	n/a	-999	-1	[0, 0, 0]	n/a	catFR1	2	R1456D
147.219	3.706	149250	REC_WORD	3.706	n/a	BUILD	n/a	-999	-1	[0, 0, 0]	n/a	catFR1	2	R1456D
150.925	8.323	152956	REC_WORD_VV	8.323	n/a	<>	n/a	-999	-1	[0, 0, 0]	n/a	catFR1	2	R1456D
159.248	14.125	161279	REC_WORD_VV	14.125	n/a	<>	n/a	-999	-1	[0, 0, 0]	n/a	catFR1	2	R1456D
173.373	14.326	175407	REC_END	n/a	n/a	n/a	n/a	-999	-1	[0, 0, 0]	n/a	catFR1	2	R1456D
187.699	10.351	189732	COUNTDOWN_START	n/a	n/a	n/a	n/a	-999	1	[0, 0, 0]	n/a	catFR1	2	R1456D
198.05	0.0	200081	COUNTDOWN_END	n/a	n/a	n/a	n/a	-999	1	[0, 0, 0]	n/a	catFR1	2	R1456D
198.05	1.933	200081	ENCODING_START	n/a	n/a	n/a	n/a	-999	1	[0, 0, 0]	n/a	catFR1	2	R1456D
199.983	1.617	202014	WORD	n/a	wordpools/wordpool_categorized_EN.txt	FOG	Weather	1	1	[0, 0, 0]	n/a	catFR1	2	R1456D
201.6	0.815	203628	WORD_OFF	n/a	n/a	FOG	Weather	1	1	[0, 0, 0]	n/a	catFR1	2	R1456D
202.415	1.601	204444	WORD	n/a	wordpools/wordpool_categorized_EN.txt	LIGHTNING	Weather	2	1	[0, 0, 0]	n/a	catFR1	2	R1456D
204.016	0.982	206050	WORD_OFF	n/a	n/a	LIGHTNING	Weather	2	1	[0, 0, 0]	n/a	catFR1	2	R1456D
204.998	1.601	207033	WORD	n/a	wordpools/wordpool_categorized_EN.txt	CALF	FarmAnimals	3	1	[0, 0, 0]	n/a	catFR1	2	R1456D
206.599	0.833	208630	WORD_OFF	n/a	n/a	CALF	FarmAnimals	3	1	[0, 0, 0]	n/a	catFR1	2	R1456D
207.432	1.6	209463	WORD	n/a	wordpools/wordpool_categorized_EN.txt	HEN	FarmAnimals	4	1	[0, 0, 0]	n/a	catFR1	2	R1456D
209.032	0.916	211060	WORD_OFF	n/a	n/a	HEN	FarmAnimals	4	1	[0, 0, 0]	n/a	catFR1	2	R1456D
209.948	1.601	211976	WORD	n/a	wordpools/wordpool_categorized_EN.txt	LADLE	KitchenTools	5	1	[0, 0, 0]	n/a	catFR1	2	R1456D
211.549	0.95	213582	WORD_OFF	n/a	n/a	LADLE	KitchenTools	5	1	[0, 0, 0]	n/a	catFR1	2	R1456D
212.499	1.616	214532	WORD	n/a	wordpools/wordpool_categorized_EN.txt	STRAINER	KitchenTools	6	1	[0, 0, 0]	n/a	catFR1	2	R1456D
214.115	0.818	216146	WORD_OFF	n/a	n/a	STRAINER	KitchenTools	6	1	[0, 0, 0]	n/a	catFR1	2	R1456D
214.933	1.615	216962	WORD	n/a	wordpools/wordpool_categorized_EN.txt	DRIZZLE	Weather	7	1	[0, 0, 0]	n/a	catFR1	2	R1456D
216.548	0.767	218584	WORD_OFF	n/a	n/a	DRIZZLE	Weather	7	1	[0, 0, 0]	n/a	catFR1	2	R1456D
217.315	1.601	219349	WORD	n/a	wordpools/wordpool_categorized_EN.txt	THUNDER	Weather	8	1	[0, 0, 0]	n/a	catFR1	2	R1456D
218.916	0.883	220946	WORD_OFF	n/a	n/a	THUNDER	Weather	8	1	[0, 0, 0]	n/a	catFR1	2	R1456D
219.799	1.617	221829	WORD	n/a	wordpools/wordpool_categorized_EN.txt	ROOSTER	FarmAnimals	9	1	[0, 0, 0]	n/a	catFR1	2	R1456D
221.416	0.867	223443	WORD_OFF	n/a	n/a	ROOSTER	FarmAnimals	9	1	[0, 0, 0]	n/a	catFR1	2	R1456D
222.283	1.616	224318	WORD	n/a	wordpools/wordpool_categorized_EN.txt	BULL	FarmAnimals	10	1	[0, 0, 0]	n/a	catFR1	2	R1456D
223.899	0.934	225932	WORD_OFF	n/a	n/a	BULL	FarmAnimals	10	1	[0, 0, 0]	n/a	catFR1	2	R1456D
224.833	1.616	226865	WORD	n/a	wordpools/wordpool_categorized_EN.txt	CORKSCREW	KitchenTools	11	1	[0, 0, 0]	n/a	catFR1	2	R1456D
226.449	0.784	228479	WORD_OFF	n/a	n/a	CORKSCREW	KitchenTools	11	1	[0, 0, 0]	n/a	catFR1	2	R1456D
227.233	1.617	229261	WORD	n/a	wordpools/wordpool_categorized_EN.txt	SPATULA	KitchenTools	12	1	[0, 0, 0]	n/a	catFR1	2	R1456D
228.85	0.001	230877	PROB	0.001	n/a	n/a	n/a	-999	1	[6, 6, 4]	16	catFR1	2	R1456D
228.851	0.0	230878	START	n/a	n/a	n/a	n/a	-999	1	[-999, -999, -999]	n/a	catFR1	2	R1456D
228.849	0.002	230883	WORD_OFF	n/a	n/a	SPATULA	KitchenTools	12	1	[0, 0, 0]	n/a	catFR1	2	R1456D
228.851	0.0	230883	ENCODING_END	n/a	n/a	n/a	n/a	-999	1	[0, 0, 0]	n/a	catFR1	2	R1456D
228.851	8.949	230883	DISTRACT_START	n/a	n/a	n/a	n/a	-999	1	[0, 0, 0]	n/a	catFR1	2	R1456D
237.8	7.05	239827	PROB	7.05	n/a	n/a	n/a	-999	1	[7, 4, 4]	15	catFR1	2	R1456D
244.85	6.068	246876	PROB	6.068	n/a	n/a	n/a	-999	1	[3, 5, 8]	16	catFR1	2	R1456D
250.918	0.0	252944	STOP	n/a	n/a	n/a	n/a	-999	1	[-999, -999, -999]	n/a	catFR1	2	R1456D
250.918	1.164	252951	DISTRACT_END	n/a	n/a	n/a	n/a	-999	1	[0, 0, 0]	n/a	catFR1	2	R1456D
252.082	3.448	254111	REC_START	n/a	n/a	n/a	n/a	-999	1	[0, 0, 0]	n/a	catFR1	2	R1456D
255.53	0.52	257556	REC_WORD_VV	0.52	n/a	<>	n/a	-999	1	[0, 0, 0]	n/a	catFR1	2	R1456D
256.05	3.632	258076	REC_WORD	3.632	n/a	LIGHTNING	Weather	2	1	[0, 0, 0]	n/a	catFR1	2	R1456D
259.682	4.721	261707	REC_WORD_VV	4.721	n/a	<>	n/a	-999	1	[0, 0, 0]	n/a	catFR1	2	R1456D
264.403	4.729	266428	REC_WORD	4.729	n/a	LIGHTNING	Weather	2	1	[0, 0, 0]	n/a	catFR1	2	R1456D
269.132	4.374	271157	REC_WORD_VV	4.374	n/a	<>	n/a	-999	1	[0, 0, 0]	n/a	catFR1	2	R1456D
273.506	6.346	275531	REC_WORD_VV	6.346	n/a	<>	n/a	-999	1	[0, 0, 0]	n/a	catFR1	2	R1456D
279.852	3.428	281876	REC_WORD_VV	3.428	n/a	<>	n/a	-999	1	[0, 0, 0]	n/a	catFR1	2	R1456D
283.28	15.585	285309	REC_END	n/a	n/a	n/a	n/a	-999	1	[0, 0, 0]	n/a	catFR1	2	R1456D
298.865	10.351	300895	COUNTDOWN_START	n/a	n/a	n/a	n/a	-999	1	[0, 0, 0]	n/a	catFR1	2	R1456D
309.216	0.0	311244	COUNTDOWN_END	n/a	n/a	n/a	n/a	-999	1	[0, 0, 0]	n/a	catFR1	2	R1456D
309.216	2.133	311244	ENCODING_START	n/a	n/a	n/a	n/a	-999	2	[0, 0, 0]	n/a	catFR1	2	R1456D
311.349	1.617	313379	WORD	n/a	wordpools/wordpool_categorized_EN.txt	RIVER	Landscapes	1	2	[0, 0, 0]	n/a	catFR1	2	R1456D
312.966	0.917	314993	WORD_OFF	n/a	n/a	RIVER	Landscapes	1	2	[0, 0, 0]	n/a	catFR1	2	R1456D
313.883	1.617	315909	WORD	n/a	wordpools/wordpool_categorized_EN.txt	LAKE	Landscapes	2	2	[0, 0, 0]	n/a	catFR1	2	R1456D
315.5	0.883	317523	WORD_OFF	n/a	n/a	LAKE	Landscapes	2	2	[0, 0, 0]	n/a	catFR1	2	R1456D
316.383	1.616	318406	WORD	n/a	wordpools/wordpool_categorized_EN.txt	BUTTERFLY	Insects	3	2	[0, 0, 0]	n/a	catFR1	2	R1456D
317.999	0.984	320029	WORD_OFF	n/a	n/a	BUTTERFLY	Insects	3	2	[0, 0, 0]	n/a	catFR1	2	R1456D
318.983	1.617	321012	WORD	n/a	wordpools/wordpool_categorized_EN.txt	CRICKET	Insects	4	2	[0, 0, 0]	n/a	catFR1	2	R1456D
320.6	0.815	322626	WORD_OFF	n/a	n/a	CRICKET	Insects	4	2	[0, 0, 0]	n/a	catFR1	2	R1456D
321.415	1.6	323442	WORD	n/a	wordpools/wordpool_categorized_EN.txt	HAMMER	Tools	5	2	[0, 0, 0]	n/a	catFR1	2	R1456D
323.015	0.834	325039	WORD_OFF	n/a	n/a	HAMMER	Tools	5	2	[0, 0, 0]	n/a	catFR1	2	R1456D
323.849	1.616	325871	WORD	n/a	wordpools/wordpool_categorized_EN.txt	AXE	Tools	6	2	[0, 0, 0]	n/a	catFR1	2	R1456D
325.465	0.9	327494	WORD_OFF	n/a	n/a	AXE	Tools	6	2	[0, 0, 0]	n/a	catFR1	2	R1456D
326.365	1.617	328393	WORD	n/a	wordpools/wordpool_categorized_EN.txt	BEETLE	Insects	7	2	[0, 0, 0]	n/a	catFR1	2	R1456D
327.982	0.817	330007	WORD_OFF	n/a	n/a	BEETLE	Insects	7	2	[0, 0, 0]	n/a	catFR1	2	R1456D
328.799	1.6	330823	WORD	n/a	wordpools/wordpool_categorized_EN.txt	SPIDER	Insects	8	2	[0, 0, 0]	n/a	catFR1	2	R1456D
330.399	0.766	332429	WORD_OFF	n/a	n/a	SPIDER	Insects	8	2	[0, 0, 0]	n/a	catFR1	2	R1456D
331.165	1.6	333194	WORD	n/a	wordpools/wordpool_categorized_EN.txt	ISLAND	Landscapes	9	2	[0, 0, 0]	n/a	catFR1	2	R1456D
332.765	0.934	334791	WORD_OFF	n/a	n/a	ISLAND	Landscapes	9	2	[0, 0, 0]	n/a	catFR1	2	R1456D
333.699	1.6	335724	WORD	n/a	wordpools/wordpool_categorized_EN.txt	VALLEY	Landscapes	10	2	[0, 0, 0]	n/a	catFR1	2	R1456D
335.299	0.767	337321	WORD_OFF	n/a	n/a	VALLEY	Landscapes	10	2	[0, 0, 0]	n/a	catFR1	2	R1456D
336.066	1.6	338086	WORD	n/a	wordpools/wordpool_categorized_EN.txt	RATCHET	Tools	11	2	[0, 0, 0]	n/a	catFR1	2	R1456D
337.666	0.883	339692	WORD_OFF	n/a	n/a	RATCHET	Tools	11	2	[0, 0, 0]	n/a	catFR1	2	R1456D
338.549	1.6	340575	WORD	n/a	wordpools/wordpool_categorized_EN.txt	SAW	Tools	12	2	[0, 0, 0]	n/a	catFR1	2	R1456D
340.149	0.002	342172	WORD_OFF	n/a	n/a	SAW	Tools	12	2	[0, 0, 0]	n/a	catFR1	2	R1456D
340.151	0.0	342172	START	n/a	n/a	n/a	n/a	-999	2	[-999, -999, -999]	n/a	catFR1	2	R1456D
340.151	0.0	342172	PROB	0.0	n/a	n/a	n/a	-999	2	[6, 3, 4]	11	catFR1	2	R1456D
340.151	0.0	342180	ENCODING_END	n/a	n/a	n/a	n/a	-999	2	[0, 0, 0]	n/a	catFR1	2	R1456D
340.151	13.965	342180	DISTRACT_START	n/a	n/a	n/a	n/a	-999	2	[0, 0, 0]	n/a	catFR1	2	R1456D
354.116	8.917	356136	PROB	8.917	n/a	n/a	n/a	-999	2	[2, 4, 6]	12	catFR1	2	R1456D
363.033	0.0	365053	STOP	n/a	n/a	n/a	n/a	-999	2	[-999, -999, -999]	n/a	catFR1	2	R1456D
363.033	1.4	365055	DISTRACT_END	n/a	n/a	n/a	n/a	-999	2	[0, 0, 0]	n/a	catFR1	2	R1456D
364.433	9.482	366459	REC_START	n/a	n/a	n/a	n/a	-999	2	[0, 0, 0]	n/a	catFR1	2	R1456D
373.915	3.573	375934	REC_WORD_VV	3.573	n/a	<>	n/a	-999	2	[0, 0, 0]	n/a	catFR1	2	R1456D
377.488	3.31	379507	REC_WORD	3.31	n/a	CRICKET	Insects	4	2	[0, 0, 0]	n/a	catFR1	2	R1456D
380.798	7.227	382817	REC_WORD_VV	7.227	n/a	<>	n/a	-999	2	[0, 0, 0]	n/a	catFR1	2	R1456D
388.025	3.449	390043	REC_WORD_VV	3.449	n/a	<>	n/a	-999	2	[0, 0, 0]	n/a	catFR1	2	R1456D
391.474	4.188	393492	REC_WORD	4.188	n/a	CRICKET	Insects	4	2	[0, 0, 0]	n/a	catFR1	2	R1456D
395.662	8.521	397682	REC_END	n/a	n/a	n/a	n/a	-999	2	[0, 0, 0]	n/a	catFR1	2	R1456D
404.183	10.349	406206	COUNTDOWN_START	n/a	n/a	n/a	n/a	-999	2	[0, 0, 0]	n/a	catFR1	2	R1456D
414.532	0.0	416555	COUNTDOWN_END	n/a	n/a	n/a	n/a	-999	2	[0, 0, 0]	n/a	catFR1	2	R1456D
414.532	1.917	416555	ENCODING_START	n/a	n/a	n/a	n/a	-999	3	[0, 0, 0]	n/a	catFR1	2	R1456D
416.449	1.617	418472	WORD	n/a	wordpools/wordpool_categorized_EN.txt	FISH	OceanAnimals	1	3	[0, 0, 0]	n/a	catFR1	2	R1456D
418.066	0.967	420086	WORD_OFF	n/a	n/a	FISH	OceanAnimals	1	3	[0, 0, 0]	n/a	catFR1	2	R1456D
419.033	1.6	421053	WORD	n/a	wordpools/wordpool_categorized_EN.txt	JELLYFISH	OceanAnimals	2	3	[0, 0, 0]	n/a	catFR1	2	R1456D
420.633	0.933	422650	WORD_OFF	n/a	n/a	JELLYFISH	OceanAnimals	2	3	[0, 0, 0]	n/a	catFR1	2	R1456D
421.566	1.6	423583	WORD	n/a	wordpools/wordpool_categorized_EN.txt	COAT	Clothing	3	3	[0, 0, 0]	n/a	catFR1	2	R1456D
423.166	0.85	425189	WORD_OFF	n/a	n/a	COAT	Clothing	3	3	[0, 0, 0]	n/a	catFR1	2	R1456D
424.016	1.617	426038	WORD	n/a	wordpools/wordpool_categorized_EN.txt	SOCKS	Clothing	4	3	[0, 0, 0]	n/a	catFR1	2	R1456D
425.633	0.883	427652	WORD_OFF	n/a	n/a	SOCKS	Clothing	4	3	[0, 0, 0]	n/a	catFR1	2	R1456D
426.516	1.617	428535	WORD	n/a	wordpools/wordpool_categorized_EN.txt	RUM	Beverages	5	3	[0, 0, 0]	n/a	catFR1	2	R1456D
428.133	0.916	430149	WORD_OFF	n/a	n/a	RUM	Beverages	5	3	[0, 0, 0]	n/a	catFR1	2	R1456D
429.049	1.6	431065	WORD	n/a	wordpools/wordpool_categorized_EN.txt	MILK	Beverages	6	3	[0, 0, 0]	n/a	catFR1	2	R1456D
430.649	0.967	432671	WORD_OFF	n/a	n/a	MILK	Beverages	6	3	[0, 0, 0]	n/a	catFR1	2	R1456D
431.616	1.616	433638	WORD	n/a	wordpools/wordpool_categorized_EN.txt	JACKET	Clothing	7	3	[0, 0, 0]	n/a	catFR1	2	R1456D
433.232	0.851	435252	WORD_OFF	n/a	n/a	JACKET	Clothing	7	3	[0, 0, 0]	n/a	catFR1	2	R1456D
434.083	1.616	436101	WORD	n/a	wordpools/wordpool_categorized_EN.txt	SHIRT	Clothing	8	3	[0, 0, 0]	n/a	catFR1	2	R1456D
435.699	1.0	437715	WORD_OFF	n/a	n/a	SHIRT	Clothing	8	3	[0, 0, 0]	n/a	catFR1	2	R1456D
436.699	1.601	438715	WORD	n/a	wordpools/wordpool_categorized_EN.txt	SHRIMP	OceanAnimals	9	3	[0, 0, 0]	n/a	catFR1	2	R1456D
438.3	0.899	440321	WORD_OFF	n/a	n/a	SHRIMP	OceanAnimals	9	3	[0, 0, 0]	n/a	catFR1	2	R1456D
439.199	1.617	441221	WORD	n/a	wordpools/wordpool_categorized_EN.txt	PLANKTON	OceanAnimals	10	3	[0, 0, 0]	n/a	catFR1	2	R1456D
440.816	0.834	442835	WORD_OFF	n/a	n/a	PLANKTON	OceanAnimals	10	3	[0, 0, 0]	n/a	catFR1	2	R1456D
441.65	1.616	443667	WORD	n/a	wordpools/wordpool_categorized_EN.txt	TEA	Beverages	11	3	[0, 0, 0]	n/a	catFR1	2	R1456D
443.266	0.967	445290	WORD_OFF	n/a	n/a	TEA	Beverages	11	3	[0, 0, 0]	n/a	catFR1	2	R1456D
444.233	1.6	446256	WORD	n/a	wordpools/wordpool_categorized_EN.txt	SODA	Beverages	12	3	[0, 0, 0]	n/a	catFR1	2	R1456D
445.833	0.001	447848	PROB	0.001	n/a	n/a	n/a	-999	3	[7, 3, 2]	12	catFR1	2	R1456D
445.834	0.0	447849	START	n/a	n/a	n/a	n/a	-999	3	[-999, -999, -999]	n/a	catFR1	2	R1456D
445.833	0.001	447854	WORD_OFF	n/a	n/a	SODA	Beverages	12	3	[0, 0, 0]	n/a	catFR1	2	R1456D
445.834	0.0	447854	ENCODING_END	n/a	n/a	n/a	n/a	-999	3	[0, 0, 0]	n/a	catFR1	2	R1456D
445.834	7.132	447854	DISTRACT_START	n/a	n/a	n/a	n/a	-999	3	[0, 0, 0]	n/a	catFR1	2	R1456D
452.966	6.268	454981	PROB	6.268	n/a	n/a	n/a	-999	3	[2, 2, 6]	12	catFR1	2	R1456D
459.234	4.082	461249	PROB	4.082	n/a	n/a	n/a	-999	3	[5, 1, 5]	11	catFR1	2	R1456D
463.316	7.484	465330	PROB	7.484	n/a	n/a	n/a	-999	3	[4, 6, 5]	15	catFR1	2	R1456D
470.8	0.0	472814	STOP	n/a	n/a	n/a	n/a	-999	3	[-999, -999, -999]	n/a	catFR1	2	R1456D
470.8	1.233	472822	DISTRACT_END	n/a	n/a	n/a	n/a	-999	3	[0, 0, 0]	n/a	catFR1	2	R1456D
472.033	1.798	474049	REC_START	n/a	n/a	n/a	n/a	-999	3	[0, 0, 0]	n/a	catFR1	2	R1456D
473.831	1.054	475845	REC_WORD_VV	1.054	n/a	<>	n/a	-999	3	[0, 0, 0]	n/a	catFR1	2	R1456D
474.885	5.161	476899	REC_WORD	5.161	n/a	FISH	OceanAnimals	1	3	[0, 0, 0]	n/a	catFR1	2	R1456D
480.046	5.159	482059	REC_WORD_VV	5.159	n/a	<>	n/a	-999	3	[0, 0, 0]	n/a	catFR1	2	R1456D
485.205	6.335	487218	REC_WORD	6.335	n/a	PLANKTON	OceanAnimals	10	3	[0, 0, 0]	n/a	catFR1	2	R1456D
491.54	11.692	493553	REC_WORD_VV	11.692	n/a	<>	n/a	-999	3	[0, 0, 0]	n/a	catFR1	2	R1456D
503.232	6.834	505247	REC_END	n/a	n/a	n/a	n/a	-999	3	[0, 0, 0]	n/a	catFR1	2	R1456D
510.066	10.349	512081	COUNTDOWN_START	n/a	n/a	n/a	n/a	-999	3	[0, 0, 0]	n/a	catFR1	2	R1456D
520.415	0.0	522430	COUNTDOWN_END	n/a	n/a	n/a	n/a	-999	3	[0, 0, 0]	n/a	catFR1	2	R1456D
520.415	1.884	522430	ENCODING_START	n/a	n/a	n/a	n/a	-999	4	[0, 0, 0]	n/a	catFR1	2	R1456D
522.299	1.6	524313	WORD	n/a	wordpools/wordpool_categorized_EN.txt	DAFFODIL	Flowers	1	4	[0, 0, 0]	n/a	catFR1	2	R1456D
523.899	0.85	525911	WORD_OFF	n/a	n/a	DAFFODIL	Flowers	1	4	[0, 0, 0]	n/a	catFR1	2	R1456D
524.749	1.601	526760	WORD	n/a	wordpools/wordpool_categorized_EN.txt	MARIGOLD	Flowers	2	4	[0, 0, 0]	n/a	catFR1	2	R1456D
526.35	0.966	528365	WORD_OFF	n/a	n/a	MARIGOLD	Flowers	2	4	[0, 0, 0]	n/a	catFR1	2	R1456D
527.316	1.6	529332	WORD	n/a	wordpools/wordpool_categorized_EN.txt	LEG	BodyParts	3	4	[0, 0, 0]	n/a	catFR1	2	R1456D
528.916	0.783	530929	WORD_OFF	n/a	n/a	LEG	BodyParts	3	4	[0, 0, 0]	n/a	catFR1	2	R1456D
529.699	1.616	531711	WORD	n/a	wordpools/wordpool_categorized_EN.txt	HEAD	BodyParts	4	4	[0, 0, 0]	n/a	catFR1	2	R1456D
531.315	0.785	533325	WORD_OFF	n/a	n/a	HEAD	BodyParts	4	4	[0, 0, 0]	n/a	catFR1	2	R1456D
532.1	1.6	534116	WORD	n/a	wordpools/wordpool_categorized_EN.txt	FRISBEE	Toys	5	4	[0, 0, 0]	n/a	catFR1	2	R1456D
533.7	0.882	535713	WORD_OFF	n/a	n/a	FRISBEE	Toys	5	4	[0, 0, 0]	n/a	catFR1	2	R1456D
534.582	1.618	536596	WORD	n/a	wordpools/wordpool_categorized_EN.txt	BLOCKS	Toys	6	4	[0, 0, 0]	n/a	catFR1	2	R1456D
536.2	0.766	538210	WORD_OFF	n/a	n/a	BLOCKS	Toys	6	4	[0, 0, 0]	n/a	catFR1	2	R1456D
536.966	1.6	538983	WORD	n/a	wordpools/wordpool_categorized_EN.txt	EAR	BodyParts	7	4	[0, 0, 0]	n/a	catFR1	2	R1456D
538.566	0.883	540580	WORD_OFF	n/a	n/a	EAR	BodyParts	7	4	[0, 0, 0]	n/a	catFR1	2	R1456D
539.449	1.601	541463	WORD	n/a	wordpools/wordpool_categorized_EN.txt	FOOT	BodyParts	8	4	[0, 0, 0]	n/a	catFR1	2	R1456D
541.05	0.866	543060	WORD_OFF	n/a	n/a	FOOT	BodyParts	8	4	[0, 0, 0]	n/a	catFR1	2	R1456D
541.916	1.617	543926	WORD	n/a	wordpools/wordpool_categorized_EN.txt	ORCHID	Flowers	9	4	[0, 0, 0]	n/a	catFR1	2	R1456D
543.533	0.95	545549	WORD_OFF	n/a	n/a	ORCHID	Flowers	9	4	[0, 0, 0]	n/a	catFR1	2	R1456D
544.483	1.616	546499	WORD	n/a	wordpools/wordpool_categorized_EN.txt	PETUNIA	Flowers	10	4	[0, 0, 0]	n/a	catFR1	2	R1456D
546.099	0.967	548113	WORD_OFF	n/a	n/a	PETUNIA	Flowers	10	4	[0, 0, 0]	n/a	catFR1	2	R1456D
547.066	1.6	549080	WORD	n/a	wordpools/wordpool_categorized_EN.txt	DOLL	Toys	11	4	[0, 0, 0]	n/a	catFR1	2	R1456D
548.666	0.783	550677	WORD_OFF	n/a	n/a	DOLL	Toys	11	4	[0, 0, 0]	n/a	catFR1	2	R1456D
549.449	1.601	551459	WORD	n/a	wordpools/wordpool_categorized_EN.txt	DOLLHOUSE	Toys	12	4	[0, 0, 0]	n/a	catFR1	2	R1456D
551.05	0.001	553060	PROB	0.001	n/a	n/a	n/a	-999	4	[7, 7, 8]	22	catFR1	2	R1456D
551.051	0.0	553061	START	n/a	n/a	n/a	n/a	-999	4	[-999, -999, -999]	n/a	catFR1	2	R1456D
551.05	0.001	553064	WORD_OFF	n/a	n/a	DOLLHOUSE	Toys	12	4	[0, 0, 0]	n/a	catFR1	2	R1456D
551.051	0.0	553064	ENCODING_END	n/a	n/a	n/a	n/a	-999	4	[0, 0, 0]	n/a	catFR1	2	R1456D
551.051	11.548	553064	DISTRACT_START	n/a	n/a	n/a	n/a	-999	4	[0, 0, 0]	n/a	catFR1	2	R1456D
562.599	8.35	564608	PROB	8.35	n/a	n/a	n/a	-999	4	[6, 6, 6]	18	catFR1	2	R1456D
570.949	4.817	572958	PROB	4.817	n/a	n/a	n/a	-999	4	[1, 1, 7]	9	catFR1	2	R1456D
575.766	0.0	577774	STOP	n/a	n/a	n/a	n/a	-999	4	[-999, -999, -999]	n/a	catFR1	2	R1456D
575.766	1.233	577780	DISTRACT_END	n/a	n/a	n/a	n/a	-999	4	[0, 0, 0]	n/a	catFR1	2	R1456D
576.999	1.768	579008	REC_START	n/a	n/a	n/a	n/a	-999	4	[0, 0, 0]	n/a	catFR1	2	R1456D
578.767	1.524	580775	REC_WORD_VV	1.524	n/a	<>	n/a	-999	4	[0, 0, 0]	n/a	catFR1	2	R1456D
580.291	3.136	582299	REC_WORD	3.136	n/a	FOOT	BodyParts	8	4	[0, 0, 0]	n/a	catFR1	2	R1456D
583.427	3.478	585435	REC_WORD_VV	3.478	n/a	<>	n/a	-999	4	[0, 0, 0]	n/a	catFR1	2	R1456D
586.905	8.576	588913	REC_WORD_VV	8.576	n/a	<>	n/a	-999	4	[0, 0, 0]	n/a	catFR1	2	R1456D
595.481	12.778	597488	REC_WORD_VV	12.778	n/a	<>	n/a	-999	4	[0, 0, 0]	n/a	catFR1	2	R1456D
608.259	8.673	610273	REC_END	n/a	n/a	n/a	n/a	-999	4	[0, 0, 0]	n/a	catFR1	2	R1456D
616.932	10.35	618940	COUNTDOWN_START	n/a	n/a	n/a	n/a	-999	4	[0, 0, 0]	n/a	catFR1	2	R1456D
627.282	0.0	629289	COUNTDOWN_END	n/a	n/a	n/a	n/a	-999	4	[0, 0, 0]	n/a	catFR1	2	R1456D
627.282	2.167	629297	ENCODING_START	n/a	n/a	n/a	n/a	-999	5	[0, 0, 0]	n/a	catFR1	2	R1456D
629.449	1.6	631458	WORD	n/a	wordpools/wordpool_categorized_EN.txt	SHOVEL	Tools	1	5	[0, 0, 0]	n/a	catFR1	2	R1456D
631.049	0.866	633055	WORD_OFF	n/a	n/a	SHOVEL	Tools	1	5	[0, 0, 0]	n/a	catFR1	2	R1456D
631.915	1.618	633921	WORD	n/a	wordpools/wordpool_categorized_EN.txt	LEVEL	Tools	2	5	[0, 0, 0]	n/a	catFR1	2	R1456D
633.533	0.949	635543	WORD_OFF	n/a	n/a	LEVEL	Tools	2	5	[0, 0, 0]	n/a	catFR1	2	R1456D
634.482	1.601	636493	WORD	n/a	wordpools/wordpool_categorized_EN.txt	MARBLES	Toys	3	5	[0, 0, 0]	n/a	catFR1	2	R1456D
636.083	0.849	638091	WORD_OFF	n/a	n/a	MARBLES	Toys	3	5	[0, 0, 0]	n/a	catFR1	2	R1456D
636.932	1.6	638940	WORD	n/a	wordpools/wordpool_categorized_EN.txt	BARBIE	Toys	4	5	[0, 0, 0]	n/a	catFR1	2	R1456D
638.532	0.934	640537	WORD_OFF	n/a	n/a	BARBIE	Toys	4	5	[0, 0, 0]	n/a	catFR1	2	R1456D
639.466	1.617	641478	WORD	n/a	wordpools/wordpool_categorized_EN.txt	WHISK	KitchenTools	5	5	[0, 0, 0]	n/a	catFR1	2	R1456D
641.083	0.799	643093	WORD_OFF	n/a	n/a	WHISK	KitchenTools	5	5	[0, 0, 0]	n/a	catFR1	2	R1456D
641.882	1.601	643891	WORD	n/a	wordpools/wordpool_categorized_EN.txt	KNIFE	KitchenTools	6	5	[0, 0, 0]	n/a	catFR1	2	R1456D
643.483	0.816	645489	WORD_OFF	n/a	n/a	KNIFE	KitchenTools	6	5	[0, 0, 0]	n/a	catFR1	2	R1456D
644.299	1.6	646304	WORD	n/a	wordpools/wordpool_categorized_EN.txt	PLIERS	Tools	7	5	[0, 0, 0]	n/a	catFR1	2	R1456D
645.899	0.8	647910	WORD_OFF	n/a	n/a	PLIERS	Tools	7	5	[0, 0, 0]	n/a	catFR1	2	R1456D
646.699	1.6	648708	WORD	n/a	wordpools/wordpool_categorized_EN.txt	WRENCH	Tools	8	5	[0, 0, 0]	n/a	catFR1	2	R1456D
648.299	0.984	650306	WORD_OFF	n/a	n/a	WRENCH	Tools	8	5	[0, 0, 0]	n/a	catFR1	2	R1456D
649.283	1.615	651289	WORD	n/a	wordpools/wordpool_categorized_EN.txt	BALL	Toys	9	5	[0, 0, 0]	n/a	catFR1	2	R1456D
650.898	0.817	652903	WORD_OFF	n/a	n/a	BALL	Toys	9	5	[0, 0, 0]	n/a	catFR1	2	R1456D
651.715	1.601	653727	WORD	n/a	wordpools/wordpool_categorized_EN.txt	BASKETBALL	Toys	10	5	[0, 0, 0]	n/a	catFR1	2	R1456D
653.316	0.816	655324	WORD_OFF	n/a	n/a	BASKETBALL	Toys	10	5	[0, 0, 0]	n/a	catFR1	2	R1456D
654.132	1.6	656140	WORD	n/a	wordpools/wordpool_categorized_EN.txt	GRATER	KitchenTools	11	5	[0, 0, 0]	n/a	catFR1	2	R1456D
655.732	0.9	657737	WORD_OFF	n/a	n/a	GRATER	KitchenTools	11	5	[0, 0, 0]	n/a	catFR1	2	R1456D
656.632	1.601	658637	WORD	n/a	wordpools/wordpool_categorized_EN.txt	PEELER	KitchenTools	12	5	[0, 0, 0]	n/a	catFR1	2	R1456D
658.233	0.001	660237	PROB	0.001	n/a	n/a	n/a	-999	5	[6, 1, 6]	13	catFR1	2	R1456D
658.234	0.0	660238	START	n/a	n/a	n/a	n/a	-999	5	[-999, -999, -999]	n/a	catFR1	2	R1456D
658.233	0.001	660242	WORD_OFF	n/a	n/a	PEELER	KitchenTools	12	5	[0, 0, 0]	n/a	catFR1	2	R1456D
658.234	0.0	660242	ENCODING_END	n/a	n/a	n/a	n/a	-999	5	[0, 0, 0]	n/a	catFR1	2	R1456D
658.234	7.583	660242	DISTRACT_START	n/a	n/a	n/a	n/a	-999	5	[0, 0, 0]	n/a	catFR1	2	R1456D
665.817	7.55	667820	PROB	7.55	n/a	n/a	n/a	-999	5	[7, 2, 1]	10	catFR1	2	R1456D
673.367	5.882	675370	PROB	5.882	n/a	n/a	n/a	-999	5	[5, 4, 2]	11	catFR1	2	R1456D
679.249	0.0	681252	STOP	n/a	n/a	n/a	n/a	-999	5	[-999, -999, -999]	n/a	catFR1	2	R1456D
679.249	1.217	681259	DISTRACT_END	n/a	n/a	n/a	n/a	-999	5	[0, 0, 0]	n/a	catFR1	2	R1456D
680.466	2.774	682470	REC_START	n/a	n/a	n/a	n/a	-999	5	[0, 0, 0]	n/a	catFR1	2	R1456D
683.24	1.656	685243	REC_WORD_VV	1.656	n/a	<>	n/a	-999	5	[0, 0, 0]	n/a	catFR1	2	R1456D
684.896	2.997	686898	REC_WORD	2.997	n/a	FISH	OceanAnimals	-999	5	[0, 0, 0]	n/a	catFR1	2	R1456D
687.893	4.989	689895	REC_WORD_VV	4.989	n/a	<>	n/a	-999	5	[0, 0, 0]	n/a	catFR1	2	R1456D
692.882	9.623	694884	REC_WORD_VV	9.623	n/a	<>	n/a	-999	5	[0, 0, 0]	n/a	catFR1	2	R1456D
702.505	9.202	704506	REC_WORD_VV	9.202	n/a	<>	n/a	-999	5	[0, 0, 0]	n/a	catFR1	2	R1456D
711.707	7.675	713710	REC_END	n/a	n/a	n/a	n/a	-999	5	[0, 0, 0]	n/a	catFR1	2	R1456D
719.382	10.35	721385	COUNTDOWN_START	n/a	n/a	n/a	n/a	-999	5	[0, 0, 0]	n/a	catFR1	2	R1456D
729.732	0.0	731734	COUNTDOWN_END	n/a	n/a	n/a	n/a	-999	5	[0, 0, 0]	n/a	catFR1	2	R1456D
729.732	2.051	731734	ENCODING_START	n/a	n/a	n/a	n/a	-999	6	[0, 0, 0]	n/a	catFR1	2	R1456D
731.783	1.6	733785	WORD	n/a	wordpools/wordpool_categorized_EN.txt	BROCCOLI	Vegetables	1	6	[0, 0, 0]	n/a	catFR1	2	R1456D
733.383	0.916	735391	WORD_OFF	n/a	n/a	BROCCOLI	Vegetables	1	6	[0, 0, 0]	n/a	catFR1	2	R1456D
734.299	1.6	736298	WORD	n/a	wordpools/wordpool_categorized_EN.txt	SPINACH	Vegetables	2	6	[0, 0, 0]	n/a	catFR1	2	R1456D
735.899	0.9	737904	WORD_OFF	n/a	n/a	SPINACH	Vegetables	2	6	[0, 0, 0]	n/a	catFR1	2	R1456D
736.799	1.6	738804	WORD	n/a	wordpools/wordpool_categorized_EN.txt	HAWK	Birds	3	6	[0, 0, 0]	n/a	catFR1	2	R1456D
738.399	0.884	740401	WORD_OFF	n/a	n/a	HAWK	Birds	3	6	[0, 0, 0]	n/a	catFR1	2	R1456D
739.283	1.616	741284	WORD	n/a	wordpools/wordpool_categorized_EN.txt	ROBIN	Birds	4	6	[0, 0, 0]	n/a	catFR1	2	R1456D
740.899	0.984	742898	WORD_OFF	n/a	n/a	ROBIN	Birds	4	6	[0, 0, 0]	n/a	catFR1	2	R1456D
741.883	1.616	743890	WORD	n/a	wordpools/wordpool_categorized_EN.txt	CREEK	Landscapes	5	6	[0, 0, 0]	n/a	catFR1	2	R1456D
743.499	0.883	745504	WORD_OFF	n/a	n/a	CREEK	Landscapes	5	6	[0, 0, 0]	n/a	catFR1	2	R1456D
744.382	1.601	746387	WORD	n/a	wordpools/wordpool_categorized_EN.txt	BEACH	Landscapes	6	6	[0, 0, 0]	n/a	catFR1	2	R1456D
745.983	0.983	747984	WORD_OFF	n/a	n/a	BEACH	Landscapes	6	6	[0, 0, 0]	n/a	catFR1	2	R1456D
746.966	1.614	748968	WORD	n/a	wordpools/wordpool_categorized_EN.txt	SPARROW	Birds	7	6	[0, 0, 0]	n/a	catFR1	2	R1456D
748.58	0.853	750582	WORD_OFF	n/a	n/a	SPARROW	Birds	7	6	[0, 0, 0]	n/a	catFR1	2	R1456D
749.433	1.6	751439	WORD	n/a	wordpools/wordpool_categorized_EN.txt	DOVE	Birds	8	6	[0, 0, 0]	n/a	catFR1	2	R1456D
751.033	0.866	753036	WORD_OFF	n/a	n/a	DOVE	Birds	8	6	[0, 0, 0]	n/a	catFR1	2	R1456D
751.899	1.6	753911	WORD	n/a	wordpools/wordpool_categorized_EN.txt	FOREST	Landscapes	9	6	[0, 0, 0]	n/a	catFR1	2	R1456D
753.499	0.949	755500	WORD_OFF	n/a	n/a	FOREST	Landscapes	9	6	[0, 0, 0]	n/a	catFR1	2	R1456D
754.448	1.601	756450	WORD	n/a	wordpools/wordpool_categorized_EN.txt	HILLS	Landscapes	10	6	[0, 0, 0]	n/a	catFR1	2	R1456D
756.049	0.933	758055	WORD_OFF	n/a	n/a	HILLS	Landscapes	10	6	[0, 0, 0]	n/a	catFR1	2	R1456D
756.982	1.601	758988	WORD	n/a	wordpools/wordpool_categorized_EN.txt	CARROT	Vegetables	11	6	[0, 0, 0]	n/a	catFR1	2	R1456D
758.583	0.866	760586	WORD_OFF	n/a	n/a	CARROT	Vegetables	11	6	[0, 0, 0]	n/a	catFR1	2	R1456D
759.449	1.601	761452	WORD	n/a	wordpools/wordpool_categorized_EN.txt	CAULIFLOWER	Vegetables	12	6	[0, 0, 0]	n/a	catFR1	2	R1456D
761.05	0.0	763048	PROB	0.0	n/a	n/a	n/a	-999	6	[8, 2, 4]	14	catFR1	2	R1456D
761.049	0.002	763049	WORD_OFF	n/a	n/a	CAULIFLOWER	Vegetables	12	6	[0, 0, 0]	n/a	catFR1	2	R1456D
761.051	0.0	763049	START	n/a	n/a	n/a	n/a	-999	6	[-999, -999, -999]	n/a	catFR1	2	R1456D
761.051	0.0	763057	ENCODING_END	n/a	n/a	n/a	n/a	-999	6	[0, 0, 0]	n/a	catFR1	2	R1456D
761.051	8.266	763057	DISTRACT_START	n/a	n/a	n/a	n/a	-999	6	[0, 0, 0]	n/a	catFR1	2	R1456D
769.317	6.65	771315	PROB	6.65	n/a	n/a	n/a	-999	6	[6, 1, 7]	14	catFR1	2	R1456D
775.967	12.166	777965	PROB	12.166	n/a	n/a	n/a	-999	6	[3, 4, 6]	13	catFR1	2	R1456D
788.133	0.0	790130	STOP	n/a	n/a	n/a	n/a	-999	6	[-999, -999, -999]	n/a	catFR1	2	R1456D
788.133	1.316	790135	DISTRACT_END	n/a	n/a	n/a	n/a	-999	6	[0, 0, 0]	n/a	catFR1	2	R1456D
789.449	2.406	791447	REC_START	n/a	n/a	n/a	n/a	-999	6	[0, 0, 0]	n/a	catFR1	2	R1456D
791.855	0.876	793852	REC_WORD_VV	0.876	n/a	<>	n/a	-999	6	[0, 0, 0]	n/a	catFR1	2	R1456D
792.731	4.716	794728	REC_WORD	4.716	n/a	CAULIFLOWER	Vegetables	12	6	[0, 0, 0]	n/a	catFR1	2	R1456D
797.447	10.03	799443	REC_WORD_VV	10.03	n/a	<>	n/a	-999	6	[0, 0, 0]	n/a	catFR1	2	R1456D
807.477	1.0	809473	REC_WORD_VV	1.0	n/a	<>	n/a	-999	6	[0, 0, 0]	n/a	catFR1	2	R1456D
808.477	1.0	810473	REC_WORD_VV	1.0	n/a	<>	n/a	-999	6	[0, 0, 0]	n/a	catFR1	2	R1456D
809.477	1.0	811473	REC_WORD_VV	1.0	n/a	<>	n/a	-999	6	[0, 0, 0]	n/a	catFR1	2	R1456D
810.477	2.901	812473	REC_WORD_VV	2.901	n/a	<>	n/a	-999	6	[0, 0, 0]	n/a	catFR1	2	R1456D
813.378	1.0	815373	REC_WORD_VV	1.0	n/a	<>	n/a	-999	6	[0, 0, 0]	n/a	catFR1	2	R1456D
814.378	6.317	816373	REC_WORD_VV	6.317	n/a	<>	n/a	-999	6	[0, 0, 0]	n/a	catFR1	2	R1456D
820.695	7.72	822695	REC_END	n/a	n/a	n/a	n/a	-999	6	[0, 0, 0]	n/a	catFR1	2	R1456D
828.415	10.351	830412	COUNTDOWN_START	n/a	n/a	n/a	n/a	-999	6	[0, 0, 0]	n/a	catFR1	2	R1456D
838.766	0.0	840761	COUNTDOWN_END	n/a	n/a	n/a	n/a	-999	6	[0, 0, 0]	n/a	catFR1	2	R1456D
838.766	1.883	840770	ENCODING_START	n/a	n/a	n/a	n/a	-999	7	[0, 0, 0]	n/a	catFR1	2	R1456D
840.649	1.617	842644	WORD	n/a	wordpools/wordpool_categorized_EN.txt	PIGEON	Birds	1	7	[0, 0, 0]	n/a	catFR1	2	R1456D
842.266	0.849	844267	WORD_OFF	n/a	n/a	PIGEON	Birds	1	7	[0, 0, 0]	n/a	catFR1	2	R1456D
843.115	1.6	845116	WORD	n/a	wordpools/wordpool_categorized_EN.txt	CROW	Birds	2	7	[0, 0, 0]	n/a	catFR1	2	R1456D
844.715	0.884	846713	WORD_OFF	n/a	n/a	CROW	Birds	2	7	[0, 0, 0]	n/a	catFR1	2	R1456D
845.599	1.6	847596	WORD	n/a	wordpools/wordpool_categorized_EN.txt	SUEDE	Fabric	3	7	[0, 0, 0]	n/a	catFR1	2	R1456D
847.199	0.883	849193	WORD_OFF	n/a	n/a	SUEDE	Fabric	3	7	[0, 0, 0]	n/a	catFR1	2	R1456D
848.082	1.617	850076	WORD	n/a	wordpools/wordpool_categorized_EN.txt	FLEECE	Fabric	4	7	[0, 0, 0]	n/a	catFR1	2	R1456D
849.699	0.916	851698	WORD_OFF	n/a	n/a	FLEECE	Fabric	4	7	[0, 0, 0]	n/a	catFR1	2	R1456D
850.615	1.601	852615	WORD	n/a	wordpools/wordpool_categorized_EN.txt	PAPER	OfficeSupplies	5	7	[0, 0, 0]	n/a	catFR1	2	R1456D
852.216	0.849	854212	WORD_OFF	n/a	n/a	PAPER	OfficeSupplies	5	7	[0, 0, 0]	n/a	catFR1	2	R1456D
853.065	1.601	855061	WORD	n/a	wordpools/wordpool_categorized_EN.txt	PEN	OfficeSupplies	6	7	[0, 0, 0]	n/a	catFR1	2	R1456D
854.666	0.967	856667	WORD_OFF	n/a	n/a	PEN	OfficeSupplies	6	7	[0, 0, 0]	n/a	catFR1	2	R1456D
855.633	1.616	857633	WORD	n/a	wordpools/wordpool_categorized_EN.txt	LINEN	Fabric	7	7	[0, 0, 0]	n/a	catFR1	2	R1456D
857.249	0.834	859248	WORD_OFF	n/a	n/a	LINEN	Fabric	7	7	[0, 0, 0]	n/a	catFR1	2	R1456D
858.083	1.6	860080	WORD	n/a	wordpools/wordpool_categorized_EN.txt	NYLON	Fabric	8	7	[0, 0, 0]	n/a	catFR1	2	R1456D
859.683	0.85	861677	WORD_OFF	n/a	n/a	NYLON	Fabric	8	7	[0, 0, 0]	n/a	catFR1	2	R1456D
860.533	1.6	862526	WORD	n/a	wordpools/wordpool_categorized_EN.txt	NOTEBOOK	OfficeSupplies	9	7	[0, 0, 0]	n/a	catFR1	2	R1456D
862.133	0.999	864132	WORD_OFF	n/a	n/a	NOTEBOOK	OfficeSupplies	9	7	[0, 0, 0]	n/a	catFR1	2	R1456D
863.132	1.6	865132	WORD	n/a	wordpools/wordpool_categorized_EN.txt	TAPE	OfficeSupplies	10	7	[0, 0, 0]	n/a	catFR1	2	R1456D
864.732	0.768	866730	WORD_OFF	n/a	n/a	TAPE	OfficeSupplies	10	7	[0, 0, 0]	n/a	catFR1	2	R1456D
865.5	1.616	867495	WORD	n/a	wordpools/wordpool_categorized_EN.txt	BLUEBIRD	Birds	11	7	[0, 0, 0]	n/a	catFR1	2	R1456D
867.116	0.95	869109	WORD_OFF	n/a	n/a	BLUEBIRD	Birds	11	7	[0, 0, 0]	n/a	catFR1	2	R1456D
868.066	1.618	870059	WORD	n/a	wordpools/wordpool_categorized_EN.txt	GOOSE	Birds	12	7	[0, 0, 0]	n/a	catFR1	2	R1456D
869.684	0.002	871676	PROB	0.002	n/a	n/a	n/a	-999	7	[2, 8, 6]	16	catFR1	2	R1456D
869.686	0.0	871678	START	n/a	n/a	n/a	n/a	-999	7	[-999, -999, -999]	n/a	catFR1	2	R1456D
869.683	0.003	871681	WORD_OFF	n/a	n/a	GOOSE	Birds	12	7	[0, 0, 0]	n/a	catFR1	2	R1456D
869.686	0.0	871681	ENCODING_END	n/a	n/a	n/a	n/a	-999	7	[0, 0, 0]	n/a	catFR1	2	R1456D
869.686	8.448	871681	DISTRACT_START	n/a	n/a	n/a	n/a	-999	7	[0, 0, 0]	n/a	catFR1	2	R1456D
878.134	9.316	880126	PROB	9.316	n/a	n/a	n/a	-999	7	[5, 8, 2]	15	catFR1	2	R1456D
887.45	8.182	889441	PROB	8.182	n/a	n/a	n/a	-999	7	[4, 6, 6]	16	catFR1	2	R1456D
895.632	0.0	897623	STOP	n/a	n/a	n/a	n/a	-999	7	[-999, -999, -999]	n/a	catFR1	2	R1456D
895.632	1.217	897625	DISTRACT_END	n/a	n/a	n/a	n/a	-999	7	[0, 0, 0]	n/a	catFR1	2	R1456D
896.849	2.086	898844	REC_START	n/a	n/a	n/a	n/a	-999	7	[0, 0, 0]	n/a	catFR1	2	R1456D
898.935	0.57	900926	REC_WORD_VV	0.57	n/a	<>	n/a	-999	7	[0, 0, 0]	n/a	catFR1	2	R1456D
899.505	6.962	901496	REC_WORD	6.962	n/a	PIGEON	Birds	1	7	[0, 0, 0]	n/a	catFR1	2	R1456D
906.467	5.534	908457	REC_WORD_VV	5.534	n/a	<>	n/a	-999	7	[0, 0, 0]	n/a	catFR1	2	R1456D
912.001	16.09	913991	REC_WORD_VV	16.09	n/a	<>	n/a	-999	7	[0, 0, 0]	n/a	catFR1	2	R1456D
928.091	5.524	930083	REC_END	n/a	n/a	n/a	n/a	-999	7	[0, 0, 0]	n/a	catFR1	2	R1456D
933.615	10.351	935615	COUNTDOWN_START	n/a	n/a	n/a	n/a	-999	7	[0, 0, 0]	n/a	catFR1	2	R1456D
943.966	0.0	945955	COUNTDOWN_END	n/a	n/a	n/a	n/a	-999	7	[0, 0, 0]	n/a	catFR1	2	R1456D
943.966	1.933	945963	ENCODING_START	n/a	n/a	n/a	n/a	-999	8	[0, 0, 0]	n/a	catFR1	2	R1456D
945.899	1.601	947889	WORD	n/a	wordpools/wordpool_categorized_EN.txt	BATHROOM	Building	1	8	[0, 0, 0]	n/a	catFR1	2	R1456D
947.5	0.933	949494	WORD_OFF	n/a	n/a	BATHROOM	Building	1	8	[0, 0, 0]	n/a	catFR1	2	R1456D
948.433	1.6	950427	WORD	n/a	wordpools/wordpool_categorized_EN.txt	ATTIC	Building	2	8	[0, 0, 0]	n/a	catFR1	2	R1456D
950.033	0.833	952025	WORD_OFF	n/a	n/a	ATTIC	Building	2	8	[0, 0, 0]	n/a	catFR1	2	R1456D
950.866	1.616	952857	WORD	n/a	wordpools/wordpool_categorized_EN.txt	SANDER	Tools	3	8	[0, 0, 0]	n/a	catFR1	2	R1456D
952.482	0.8	954471	WORD_OFF	n/a	n/a	SANDER	Tools	3	8	[0, 0, 0]	n/a	catFR1	2	R1456D
953.282	1.601	955270	WORD	n/a	wordpools/wordpool_categorized_EN.txt	DRILL	Tools	4	8	[0, 0, 0]	n/a	catFR1	2	R1456D
954.883	0.933	956875	WORD_OFF	n/a	n/a	DRILL	Tools	4	8	[0, 0, 0]	n/a	catFR1	2	R1456D
955.816	1.616	957809	WORD	n/a	wordpools/wordpool_categorized_EN.txt	BLOUSE	Clothing	5	8	[0, 0, 0]	n/a	catFR1	2	R1456D
957.432	0.784	959423	WORD_OFF	n/a	n/a	BLOUSE	Clothing	5	8	[0, 0, 0]	n/a	catFR1	2	R1456D
958.216	1.6	960205	WORD	n/a	wordpools/wordpool_categorized_EN.txt	UNDERWEAR	Clothing	6	8	[0, 0, 0]	n/a	catFR1	2	R1456D
959.816	0.983	961810	WORD_OFF	n/a	n/a	UNDERWEAR	Clothing	6	8	[0, 0, 0]	n/a	catFR1	2	R1456D
960.799	1.6	962794	WORD	n/a	wordpools/wordpool_categorized_EN.txt	STAIRS	Building	7	8	[0, 0, 0]	n/a	catFR1	2	R1456D
962.399	0.817	964391	WORD_OFF	n/a	n/a	STAIRS	Building	7	8	[0, 0, 0]	n/a	catFR1	2	R1456D
963.216	1.616	965207	WORD	n/a	wordpools/wordpool_categorized_EN.txt	FOUNDATION	Building	8	8	[0, 0, 0]	n/a	catFR1	2	R1456D
964.832	0.951	966821	WORD_OFF	n/a	n/a	FOUNDATION	Building	8	8	[0, 0, 0]	n/a	catFR1	2	R1456D
965.783	1.616	967771	WORD	n/a	wordpools/wordpool_categorized_EN.txt	CROWBAR	Tools	9	8	[0, 0, 0]	n/a	catFR1	2	R1456D
967.399	0.95	969393	WORD_OFF	n/a	n/a	CROWBAR	Tools	9	8	[0, 0, 0]	n/a	catFR1	2	R1456D
968.349	1.6	970343	WORD	n/a	wordpools/wordpool_categorized_EN.txt	SCREWDRIVER	Tools	10	8	[0, 0, 0]	n/a	catFR1	2	R1456D
969.949	0.85	971940	WORD_OFF	n/a	n/a	SCREWDRIVER	Tools	10	8	[0, 0, 0]	n/a	catFR1	2	R1456D
970.799	1.601	972789	WORD	n/a	wordpools/wordpool_categorized_EN.txt	SHOES	Clothing	11	8	[0, 0, 0]	n/a	catFR1	2	R1456D
972.4	1.0	974387	WORD_OFF	n/a	n/a	SHOES	Clothing	11	8	[0, 0, 0]	n/a	catFR1	2	R1456D
973.4	1.6	975387	WORD	n/a	wordpools/wordpool_categorized_EN.txt	SKIRT	Clothing	12	8	[0, 0, 0]	n/a	catFR1	2	R1456D
975.0	0.001	976987	PROB	0.001	n/a	n/a	n/a	-999	8	[3, 4, 1]	8	catFR1	2	R1456D
975.001	0.0	976988	START	n/a	n/a	n/a	n/a	-999	8	[-999, -999, -999]	n/a	catFR1	2	R1456D
974.999	0.002	976993	WORD_OFF	n/a	n/a	SKIRT	Clothing	12	8	[0, 0, 0]	n/a	catFR1	2	R1456D
975.001	0.0	976993	ENCODING_END	n/a	n/a	n/a	n/a	-999	8	[0, 0, 0]	n/a	catFR1	2	R1456D
975.001	7.649	976993	DISTRACT_START	n/a	n/a	n/a	n/a	-999	8	[0, 0, 0]	n/a	catFR1	2	R1456D
982.65	7.0	984636	PROB	7.0	n/a	n/a	n/a	-999	8	[8, 4, 8]	20	catFR1	2	R1456D
989.65	5.283	991636	PROB	5.283	n/a	n/a	n/a	-999	8	[5, 5, 3]	13	catFR1	2	R1456D
994.933	3.633	996919	PROB	3.633	n/a	n/a	n/a	-999	8	[3, 4, 4]	11	catFR1	2	R1456D
998.566	0.0	1000551	STOP	n/a	n/a	n/a	n/a	-999	8	[-999, -999, -999]	n/a	catFR1	2	R1456D
998.566	1.117	1000557	DISTRACT_END	n/a	n/a	n/a	n/a	-999	8	[0, 0, 0]	n/a	catFR1	2	R1456D
999.683	2.513	1001675	REC_START	n/a	n/a	n/a	n/a	-999	8	[0, 0, 0]	n/a	catFR1	2	R1456D
1002.196	7.592	1004181	REC_WORD_VV	7.592	n/a	<>	n/a	-999	8	[0, 0, 0]	n/a	catFR1	2	R1456D
1009.788	0.879	1011773	REC_WORD_VV	0.879	n/a	<>	n/a	-999	8	[0, 0, 0]	n/a	catFR1	2	R1456D
1010.667	3.651	1012652	REC_WORD	3.651	n/a	OUTSIDE	n/a	-999	8	[0, 0, 0]	n/a	catFR1	2	R1456D
1014.318	12.684	1016303	REC_WORD_VV	12.684	n/a	<>	n/a	-999	8	[0, 0, 0]	n/a	catFR1	2	R1456D
1027.002	3.918	1028986	REC_WORD_VV	3.918	n/a	<>	n/a	-999	8	[0, 0, 0]	n/a	catFR1	2	R1456D
1030.92	7.246	1032906	REC_END	n/a	n/a	n/a	n/a	-999	8	[0, 0, 0]	n/a	catFR1	2	R1456D
1038.166	10.349	1040153	COUNTDOWN_START	n/a	n/a	n/a	n/a	-999	8	[0, 0, 0]	n/a	catFR1	2	R1456D
1048.515	0.001	1050502	COUNTDOWN_END	n/a	n/a	n/a	n/a	-999	8	[0, 0, 0]	n/a	catFR1	2	R1456D
1048.516	1.933	1050502	ENCODING_START	n/a	n/a	n/a	n/a	-999	9	[0, 0, 0]	n/a	catFR1	2	R1456D
1050.449	1.6	1052435	WORD	n/a	wordpools/wordpool_categorized_EN.txt	ERASER	OfficeSupplies	1	9	[0, 0, 0]	n/a	catFR1	2	R1456D
1052.049	0.866	1054033	WORD_OFF	n/a	n/a	ERASER	OfficeSupplies	1	9	[0, 0, 0]	n/a	catFR1	2	R1456D
1052.915	1.601	1054898	WORD	n/a	wordpools/wordpool_categorized_EN.txt	RULER	OfficeSupplies	2	9	[0, 0, 0]	n/a	catFR1	2	R1456D
1054.516	0.8	1056504	WORD_OFF	n/a	n/a	RULER	OfficeSupplies	2	9	[0, 0, 0]	n/a	catFR1	2	R1456D
1055.316	1.616	1057303	WORD	n/a	wordpools/wordpool_categorized_EN.txt	BANANA	Fruit	3	9	[0, 0, 0]	n/a	catFR1	2	R1456D
1056.932	0.984	1058917	WORD_OFF	n/a	n/a	BANANA	Fruit	3	9	[0, 0, 0]	n/a	catFR1	2	R1456D
1057.916	1.6	1059900	WORD	n/a	wordpools/wordpool_categorized_EN.txt	PLUM	Fruit	4	9	[0, 0, 0]	n/a	catFR1	2	R1456D
1059.516	0.834	1061506	WORD_OFF	n/a	n/a	PLUM	Fruit	4	9	[0, 0, 0]	n/a	catFR1	2	R1456D
1060.35	1.616	1062338	WORD	n/a	wordpools/wordpool_categorized_EN.txt	SEAGULL	Birds	5	9	[0, 0, 0]	n/a	catFR1	2	R1456D
1061.966	0.934	1063953	WORD_OFF	n/a	n/a	SEAGULL	Birds	5	9	[0, 0, 0]	n/a	catFR1	2	R1456D
1062.9	1.615	1064886	WORD	n/a	wordpools/wordpool_categorized_EN.txt	FINCH	Birds	6	9	[0, 0, 0]	n/a	catFR1	2	R1456D
1064.515	0.818	1066500	WORD_OFF	n/a	n/a	FINCH	Birds	6	9	[0, 0, 0]	n/a	catFR1	2	R1456D
1065.333	1.6	1067315	WORD	n/a	wordpools/wordpool_categorized_EN.txt	PENCIL	OfficeSupplies	7	9	[0, 0, 0]	n/a	catFR1	2	R1456D
1066.933	0.883	1068921	WORD_OFF	n/a	n/a	PENCIL	OfficeSupplies	7	9	[0, 0, 0]	n/a	catFR1	2	R1456D
1067.816	1.617	1069804	WORD	n/a	wordpools/wordpool_categorized_EN.txt	GLUE	OfficeSupplies	8	9	[0, 0, 0]	n/a	catFR1	2	R1456D
1069.433	0.766	1071418	WORD_OFF	n/a	n/a	GLUE	OfficeSupplies	8	9	[0, 0, 0]	n/a	catFR1	2	R1456D
1070.199	1.6	1072183	WORD	n/a	wordpools/wordpool_categorized_EN.txt	GRAPE	Fruit	9	9	[0, 0, 0]	n/a	catFR1	2	R1456D
1071.799	0.934	1073788	WORD_OFF	n/a	n/a	GRAPE	Fruit	9	9	[0, 0, 0]	n/a	catFR1	2	R1456D
1072.733	1.616	1074722	WORD	n/a	wordpools/wordpool_categorized_EN.txt	CHERRY	Fruit	10	9	[0, 0, 0]	n/a	catFR1	2	R1456D
1074.349	0.883	1076336	WORD_OFF	n/a	n/a	CHERRY	Fruit	10	9	[0, 0, 0]	n/a	catFR1	2	R1456D
1075.232	1.618	1077218	WORD	n/a	wordpools/wordpool_categorized_EN.txt	CARDINAL	Birds	11	9	[0, 0, 0]	n/a	catFR1	2	R1456D
1076.85	0.95	1078833	WORD_OFF	n/a	n/a	CARDINAL	Birds	11	9	[0, 0, 0]	n/a	catFR1	2	R1456D
1077.8	1.617	1079783	WORD	n/a	wordpools/wordpool_categorized_EN.txt	DUCK	Birds	12	9	[0, 0, 0]	n/a	catFR1	2	R1456D
1079.417	0.0	1081398	START	n/a	n/a	n/a	n/a	-999	9	[-999, -999, -999]	n/a	catFR1	2	R1456D
1079.417	0.0	1081398	PROB	0.0	n/a	n/a	n/a	-999	9	[5, 6, 8]	19	catFR1	2	R1456D
1079.416	0.001	1081405	WORD_OFF	n/a	n/a	DUCK	Birds	12	9	[0, 0, 0]	n/a	catFR1	2	R1456D
1079.417	0.0	1081405	ENCODING_END	n/a	n/a	n/a	n/a	-999	9	[0, 0, 0]	n/a	catFR1	2	R1456D
1079.417	9.733	1081405	DISTRACT_START	n/a	n/a	n/a	n/a	-999	9	[0, 0, 0]	n/a	catFR1	2	R1456D
1089.15	5.216	1091131	PROB	5.216	n/a	n/a	n/a	-999	9	[2, 2, 2]	6	catFR1	2	R1456D
1094.366	7.317	1096346	PROB	7.317	n/a	n/a	n/a	-999	9	[2, 4, 6]	12	catFR1	2	R1456D
1101.683	0.0	1103663	STOP	n/a	n/a	n/a	n/a	-999	9	[-999, -999, -999]	n/a	catFR1	2	R1456D
1101.683	1.016	1103666	DISTRACT_END	n/a	n/a	n/a	n/a	-999	9	[0, 0, 0]	n/a	catFR1	2	R1456D
1102.699	2.557	1104683	REC_START	n/a	n/a	n/a	n/a	-999	9	[0, 0, 0]	n/a	catFR1	2	R1456D
1105.256	0.556	1107236	REC_WORD_VV	0.556	n/a	<>	n/a	-999	9	[0, 0, 0]	n/a	catFR1	2	R1456D
1105.812	2.789	1107792	REC_WORD	2.789	n/a	OUTSIDE	n/a	-999	9	[0, 0, 0]	n/a	catFR1	2	R1456D
1108.601	1.987	1110581	REC_WORD_VV	1.987	n/a	<>	n/a	-999	9	[0, 0, 0]	n/a	catFR1	2	R1456D
1110.588	3.601	1112567	REC_WORD	3.601	n/a	PLUM	Fruit	4	9	[0, 0, 0]	n/a	catFR1	2	R1456D
1114.189	6.169	1116168	REC_WORD_VV	6.169	n/a	<>	n/a	-999	9	[0, 0, 0]	n/a	catFR1	2	R1456D
1120.358	4.628	1122337	REC_WORD_VV	4.628	n/a	<>	n/a	-999	9	[0, 0, 0]	n/a	catFR1	2	R1456D
1124.986	6.928	1126965	REC_WORD_VV	6.928	n/a	<>	n/a	-999	9	[0, 0, 0]	n/a	catFR1	2	R1456D
1131.914	2.032	1133892	REC_WORD_VV	2.032	n/a	<>	n/a	-999	9	[0, 0, 0]	n/a	catFR1	2	R1456D
1133.946	6.537	1135931	REC_END	n/a	n/a	n/a	n/a	-999	9	[0, 0, 0]	n/a	catFR1	2	R1456D
1140.483	10.349	1142463	COUNTDOWN_START	n/a	n/a	n/a	n/a	-999	9	[0, 0, 0]	n/a	catFR1	2	R1456D
1150.832	0.0	1152812	COUNTDOWN_END	n/a	n/a	n/a	n/a	-999	9	[0, 0, 0]	n/a	catFR1	2	R1456D
1150.832	2.067	1152812	ENCODING_START	n/a	n/a	n/a	n/a	-999	10	[0, 0, 0]	n/a	catFR1	2	R1456D
1152.899	1.6	1154880	WORD	n/a	wordpools/wordpool_categorized_EN.txt	FOLDER	OfficeSupplies	1	10	[0, 0, 0]	n/a	catFR1	2	R1456D
1154.499	0.816	1156478	WORD_OFF	n/a	n/a	FOLDER	OfficeSupplies	1	10	[0, 0, 0]	n/a	catFR1	2	R1456D
1155.315	1.601	1157293	WORD	n/a	wordpools/wordpool_categorized_EN.txt	STAPLER	OfficeSupplies	2	10	[0, 0, 0]	n/a	catFR1	2	R1456D
1156.916	1.0	1158899	WORD_OFF	n/a	n/a	STAPLER	OfficeSupplies	2	10	[0, 0, 0]	n/a	catFR1	2	R1456D
1157.916	1.6	1159899	WORD	n/a	wordpools/wordpool_categorized_EN.txt	DOOR	Building	3	10	[0, 0, 0]	n/a	catFR1	2	R1456D
1159.516	0.899	1161496	WORD_OFF	n/a	n/a	DOOR	Building	3	10	[0, 0, 0]	n/a	catFR1	2	R1456D
1160.415	1.601	1162396	WORD	n/a	wordpools/wordpool_categorized_EN.txt	WALL	Building	4	10	[0, 0, 0]	n/a	catFR1	2	R1456D
1162.016	0.882	1163993	WORD_OFF	n/a	n/a	WALL	Building	4	10	[0, 0, 0]	n/a	catFR1	2	R1456D
1162.898	1.601	1164876	WORD	n/a	wordpools/wordpool_categorized_EN.txt	THUNDERSTORM	Weather	5	10	[0, 0, 0]	n/a	catFR1	2	R1456D
1164.499	0.817	1166482	WORD_OFF	n/a	n/a	THUNDERSTORM	Weather	5	10	[0, 0, 0]	n/a	catFR1	2	R1456D
1165.316	1.616	1167297	WORD	n/a	wordpools/wordpool_categorized_EN.txt	HURRICANE	Weather	6	10	[0, 0, 0]	n/a	catFR1	2	R1456D
1166.932	0.834	1168911	WORD_OFF	n/a	n/a	HURRICANE	Weather	6	10	[0, 0, 0]	n/a	catFR1	2	R1456D
1167.766	1.6	1169743	WORD	n/a	wordpools/wordpool_categorized_EN.txt	BINDER	OfficeSupplies	7	10	[0, 0, 0]	n/a	catFR1	2	R1456D
1169.366	0.867	1171349	WORD_OFF	n/a	n/a	BINDER	OfficeSupplies	7	10	[0, 0, 0]	n/a	catFR1	2	R1456D
1170.233	1.6	1172215	WORD	n/a	wordpools/wordpool_categorized_EN.txt	MARKER	OfficeSupplies	8	10	[0, 0, 0]	n/a	catFR1	2	R1456D
1171.833	0.917	1173812	WORD_OFF	n/a	n/a	MARKER	OfficeSupplies	8	10	[0, 0, 0]	n/a	catFR1	2	R1456D
1172.75	1.616	1174729	WORD	n/a	wordpools/wordpool_categorized_EN.txt	CEILING	Building	9	10	[0, 0, 0]	n/a	catFR1	2	R1456D
1174.366	0.767	1176343	WORD_OFF	n/a	n/a	CEILING	Building	9	10	[0, 0, 0]	n/a	catFR1	2	R1456D
1175.133	1.6	1177116	WORD	n/a	wordpools/wordpool_categorized_EN.txt	WINDOW	Building	10	10	[0, 0, 0]	n/a	catFR1	2	R1456D
1176.733	0.883	1178713	WORD_OFF	n/a	n/a	WINDOW	Building	10	10	[0, 0, 0]	n/a	catFR1	2	R1456D
1177.616	1.599	1179596	WORD	n/a	wordpools/wordpool_categorized_EN.txt	SNOW	Weather	11	10	[0, 0, 0]	n/a	catFR1	2	R1456D
1179.215	0.834	1181193	WORD_OFF	n/a	n/a	SNOW	Weather	11	10	[0, 0, 0]	n/a	catFR1	2	R1456D
1180.049	1.6	1182026	WORD	n/a	wordpools/wordpool_categorized_EN.txt	TORNADO	Weather	12	10	[0, 0, 0]	n/a	catFR1	2	R1456D
1181.649	0.004	1183625	PROB	0.004	n/a	n/a	n/a	-999	10	[7, 2, 5]	14	catFR1	2	R1456D
1181.653	0.0	1183629	START	n/a	n/a	n/a	n/a	-999	10	[-999, -999, -999]	n/a	catFR1	2	R1456D
1181.649	0.004	1183631	WORD_OFF	n/a	n/a	TORNADO	Weather	12	10	[0, 0, 0]	n/a	catFR1	2	R1456D
1181.653	0.0	1183631	ENCODING_END	n/a	n/a	n/a	n/a	-999	10	[0, 0, 0]	n/a	catFR1	2	R1456D
1181.653	9.063	1183631	DISTRACT_START	n/a	n/a	n/a	n/a	-999	10	[0, 0, 0]	n/a	catFR1	2	R1456D
1190.716	4.367	1192691	PROB	4.367	n/a	n/a	n/a	-999	10	[3, 3, 3]	9	catFR1	2	R1456D
1195.083	11.116	1197058	PROB	11.116	n/a	n/a	n/a	-999	10	[5, 7, 8]	19	catFR1	2	R1456D
1206.199	0.0	1208173	STOP	n/a	n/a	n/a	n/a	-999	10	[-999, -999, -999]	n/a	catFR1	2	R1456D
1206.199	1.084	1208179	DISTRACT_END	n/a	n/a	n/a	n/a	-999	10	[0, 0, 0]	n/a	catFR1	2	R1456D
1207.283	2.192	1209264	REC_START	n/a	n/a	n/a	n/a	-999	10	[0, 0, 0]	n/a	catFR1	2	R1456D
1209.475	5.708	1211449	REC_WORD_VV	5.708	n/a	<>	n/a	-999	10	[0, 0, 0]	n/a	catFR1	2	R1456D
1215.183	4.478	1217157	REC_WORD_VV	4.478	n/a	<>	n/a	-999	10	[0, 0, 0]	n/a	catFR1	2	R1456D
1219.661	4.785	1221635	REC_WORD	4.785	n/a	THUNDERSTORM	Weather	5	10	[0, 0, 0]	n/a	catFR1	2	R1456D
1224.446	4.466	1226419	REC_WORD_VV	4.466	n/a	<>	n/a	-999	10	[0, 0, 0]	n/a	catFR1	2	R1456D
1228.912	7.571	1230885	REC_WORD	7.571	n/a	COASTAL	n/a	-999	10	[0, 0, 0]	n/a	catFR1	2	R1456D
1236.483	2.044	1238456	REC_WORD_VV	2.044	n/a	<>	n/a	-999	10	[0, 0, 0]	n/a	catFR1	2	R1456D
1238.527	6.289	1240503	REC_END	n/a	n/a	n/a	n/a	-999	10	[0, 0, 0]	n/a	catFR1	2	R1456D
1244.816	10.35	1246792	COUNTDOWN_START	n/a	n/a	n/a	n/a	-999	10	[0, 0, 0]	n/a	catFR1	2	R1456D
1255.166	0.0	1257140	COUNTDOWN_END	n/a	n/a	n/a	n/a	-999	10	[0, 0, 0]	n/a	catFR1	2	R1456D
1255.166	2.033	1257140	ENCODING_START	n/a	n/a	n/a	n/a	-999	11	[0, 0, 0]	n/a	catFR1	2	R1456D
1257.199	1.6	1259175	WORD	n/a	wordpools/wordpool_categorized_EN.txt	PEAR	Fruit	1	11	[0, 0, 0]	n/a	catFR1	2	R1456D
1258.799	0.967	1260772	WORD_OFF	n/a	n/a	PEAR	Fruit	1	11	[0, 0, 0]	n/a	catFR1	2	R1456D
1259.766	1.6	1261739	WORD	n/a	wordpools/wordpool_categorized_EN.txt	BLUEBERRY	Fruit	2	11	[0, 0, 0]	n/a	catFR1	2	R1456D
1261.366	0.95	1263344	WORD_OFF	n/a	n/a	BLUEBERRY	Fruit	2	11	[0, 0, 0]	n/a	catFR1	2	R1456D
1262.316	1.6	1264294	WORD	n/a	wordpools/wordpool_categorized_EN.txt	RAIN	Weather	3	11	[0, 0, 0]	n/a	catFR1	2	R1456D
1263.916	0.95	1265892	WORD_OFF	n/a	n/a	RAIN	Weather	3	11	[0, 0, 0]	n/a	catFR1	2	R1456D
1264.866	1.616	1266842	WORD	n/a	wordpools/wordpool_categorized_EN.txt	CLOUD	Weather	4	11	[0, 0, 0]	n/a	catFR1	2	R1456D
1266.482	0.901	1268456	WORD_OFF	n/a	n/a	CLOUD	Weather	4	11	[0, 0, 0]	n/a	catFR1	2	R1456D
1267.383	1.617	1269355	WORD	n/a	wordpools/wordpool_categorized_EN.txt	FREEZER	Appliances	5	11	[0, 0, 0]	n/a	catFR1	2	R1456D
1269.0	0.816	1270978	WORD_OFF	n/a	n/a	FREEZER	Appliances	5	11	[0, 0, 0]	n/a	catFR1	2	R1456D
1269.816	1.614	1271793	WORD	n/a	wordpools/wordpool_categorized_EN.txt	IRON	Appliances	6	11	[0, 0, 0]	n/a	catFR1	2	R1456D
1271.43	0.936	1273407	WORD_OFF	n/a	n/a	IRON	Appliances	6	11	[0, 0, 0]	n/a	catFR1	2	R1456D
1272.366	1.616	1274340	WORD	n/a	wordpools/wordpool_categorized_EN.txt	HUMIDITY	Weather	7	11	[0, 0, 0]	n/a	catFR1	2	R1456D
1273.982	0.967	1275955	WORD_OFF	n/a	n/a	HUMIDITY	Weather	7	11	[0, 0, 0]	n/a	catFR1	2	R1456D
1274.949	1.6	1276921	WORD	n/a	wordpools/wordpool_categorized_EN.txt	WIND	Weather	8	11	[0, 0, 0]	n/a	catFR1	2	R1456D
1276.549	0.784	1278527	WORD_OFF	n/a	n/a	WIND	Weather	8	11	[0, 0, 0]	n/a	catFR1	2	R1456D
1277.333	1.6	1279309	WORD	n/a	wordpools/wordpool_categorized_EN.txt	ORANGE	Fruit	9	11	[0, 0, 0]	n/a	catFR1	2	R1456D
1278.933	0.883	1280906	WORD_OFF	n/a	n/a	ORANGE	Fruit	9	11	[0, 0, 0]	n/a	catFR1	2	R1456D
1279.816	1.617	1281789	WORD	n/a	wordpools/wordpool_categorized_EN.txt	LEMON	Fruit	10	11	[0, 0, 0]	n/a	catFR1	2	R1456D
1281.433	0.849	1283403	WORD_OFF	n/a	n/a	LEMON	Fruit	10	11	[0, 0, 0]	n/a	catFR1	2	R1456D
1282.282	1.601	1284252	WORD	n/a	wordpools/wordpool_categorized_EN.txt	STOVE	Appliances	11	11	[0, 0, 0]	n/a	catFR1	2	R1456D
1283.883	0.849	1285858	WORD_OFF	n/a	n/a	STOVE	Appliances	11	11	[0, 0, 0]	n/a	catFR1	2	R1456D
1284.732	1.617	1286707	WORD	n/a	wordpools/wordpool_categorized_EN.txt	OVEN	Appliances	12	11	[0, 0, 0]	n/a	catFR1	2	R1456D
1286.349	0.0	1288319	PROB	0.0	n/a	n/a	n/a	-999	11	[6, 3, 3]	12	catFR1	2	R1456D
1286.348	0.004	1288321	WORD_OFF	n/a	n/a	OVEN	Appliances	12	11	[0, 0, 0]	n/a	catFR1	2	R1456D
1286.352	0.0	1288322	START	n/a	n/a	n/a	n/a	-999	11	[-999, -999, -999]	n/a	catFR1	2	R1456D
1286.352	0.0	1288329	ENCODING_END	n/a	n/a	n/a	n/a	-999	11	[0, 0, 0]	n/a	catFR1	2	R1456D
1286.352	7.214	1288329	DISTRACT_START	n/a	n/a	n/a	n/a	-999	11	[0, 0, 0]	n/a	catFR1	2	R1456D
1293.566	8.683	1295536	PROB	8.683	n/a	n/a	n/a	-999	11	[6, 7, 6]	19	catFR1	2	R1456D
1302.249	7.716	1304218	PROB	7.716	n/a	n/a	n/a	-999	11	[3, 8, 8]	19	catFR1	2	R1456D
1309.965	0.0	1311934	STOP	n/a	n/a	n/a	n/a	-999	11	[-999, -999, -999]	n/a	catFR1	2	R1456D
1309.965	1.334	1311936	DISTRACT_END	n/a	n/a	n/a	n/a	-999	11	[0, 0, 0]	n/a	catFR1	2	R1456D
1311.299	2.167	1313272	REC_START	n/a	n/a	n/a	n/a	-999	11	[0, 0, 0]	n/a	catFR1	2	R1456D
1313.466	2.027	1315434	REC_WORD_VV	2.027	n/a	<>	n/a	-999	11	[0, 0, 0]	n/a	catFR1	2	R1456D
1315.493	2.328	1317461	REC_WORD	2.328	n/a	STORM	n/a	-999	11	[0, 0, 0]	n/a	catFR1	2	R1456D
1317.821	9.463	1319789	REC_WORD	9.463	n/a	WARM	n/a	-999	11	[0, 0, 0]	n/a	catFR1	2	R1456D
1327.284	15.258	1329252	REC_WORD_VV	15.258	n/a	<>	n/a	-999	11	[0, 0, 0]	n/a	catFR1	2	R1456D
1342.542	8.807	1344512	REC_END	n/a	n/a	n/a	n/a	-999	11	[0, 0, 0]	n/a	catFR1	2	R1456D
1351.349	10.35	1353322	COUNTDOWN_START	n/a	n/a	n/a	n/a	-999	11	[0, 0, 0]	n/a	catFR1	2	R1456D
1361.699	0.0	1363671	COUNTDOWN_END	n/a	n/a	n/a	n/a	-999	11	[0, 0, 0]	n/a	catFR1	2	R1456D
1361.699	2.35	1363671	ENCODING_START	n/a	n/a	n/a	n/a	-999	12	[0, 0, 0]	n/a	catFR1	2	R1456D
1364.049	1.601	1366016	WORD	n/a	wordpools/wordpool_categorized_EN.txt	LILAC	Flowers	1	12	[0, 0, 0]	n/a	catFR1	2	R1456D
1365.65	0.95	1367622	WORD_OFF	n/a	n/a	LILAC	Flowers	1	12	[0, 0, 0]	n/a	catFR1	2	R1456D
1366.6	1.615	1368572	WORD	n/a	wordpools/wordpool_categorized_EN.txt	ROSE	Flowers	2	12	[0, 0, 0]	n/a	catFR1	2	R1456D
1368.215	0.834	1370186	WORD_OFF	n/a	n/a	ROSE	Flowers	2	12	[0, 0, 0]	n/a	catFR1	2	R1456D
1369.049	1.617	1371018	WORD	n/a	wordpools/wordpool_categorized_EN.txt	FLOOR	Building	3	12	[0, 0, 0]	n/a	catFR1	2	R1456D
1370.666	0.767	1372633	WORD_OFF	n/a	n/a	FLOOR	Building	3	12	[0, 0, 0]	n/a	catFR1	2	R1456D
1371.433	1.616	1373398	WORD	n/a	wordpools/wordpool_categorized_EN.txt	ROOF	Building	4	12	[0, 0, 0]	n/a	catFR1	2	R1456D
1373.049	0.883	1375020	WORD_OFF	n/a	n/a	ROOF	Building	4	12	[0, 0, 0]	n/a	catFR1	2	R1456D
1373.932	1.601	1375903	WORD	n/a	wordpools/wordpool_categorized_EN.txt	VAN	Vehicles	5	12	[0, 0, 0]	n/a	catFR1	2	R1456D
1375.533	0.783	1377500	WORD_OFF	n/a	n/a	VAN	Vehicles	5	12	[0, 0, 0]	n/a	catFR1	2	R1456D
1376.316	1.616	1378282	WORD	n/a	wordpools/wordpool_categorized_EN.txt	SCOOTER	Vehicles	6	12	[0, 0, 0]	n/a	catFR1	2	R1456D
1377.932	0.851	1379904	WORD_OFF	n/a	n/a	SCOOTER	Vehicles	6	12	[0, 0, 0]	n/a	catFR1	2	R1456D
1378.783	1.616	1380753	WORD	n/a	wordpools/wordpool_categorized_EN.txt	HALLWAY	Building	7	12	[0, 0, 0]	n/a	catFR1	2	R1456D
1380.399	0.766	1382368	WORD_OFF	n/a	n/a	HALLWAY	Building	7	12	[0, 0, 0]	n/a	catFR1	2	R1456D
1381.165	1.6	1383133	WORD	n/a	wordpools/wordpool_categorized_EN.txt	ROOM	Building	8	12	[0, 0, 0]	n/a	catFR1	2	R1456D
1382.765	0.934	1384730	WORD_OFF	n/a	n/a	ROOM	Building	8	12	[0, 0, 0]	n/a	catFR1	2	R1456D
1383.699	1.617	1385671	WORD	n/a	wordpools/wordpool_categorized_EN.txt	SUNFLOWER	Flowers	9	12	[0, 0, 0]	n/a	catFR1	2	R1456D
1385.316	0.833	1387286	WORD_OFF	n/a	n/a	SUNFLOWER	Flowers	9	12	[0, 0, 0]	n/a	catFR1	2	R1456D
1386.149	1.6	1388118	WORD	n/a	wordpools/wordpool_categorized_EN.txt	TULIP	Flowers	10	12	[0, 0, 0]	n/a	catFR1	2	R1456D
1387.749	0.867	1389715	WORD_OFF	n/a	n/a	TULIP	Flowers	10	12	[0, 0, 0]	n/a	catFR1	2	R1456D
1388.616	1.6	1390581	WORD	n/a	wordpools/wordpool_categorized_EN.txt	BOAT	Vehicles	11	12	[0, 0, 0]	n/a	catFR1	2	R1456D
1390.216	0.934	1392187	WORD_OFF	n/a	n/a	BOAT	Vehicles	11	12	[0, 0, 0]	n/a	catFR1	2	R1456D
1391.15	1.617	1393120	WORD	n/a	wordpools/wordpool_categorized_EN.txt	MOTORCYCLE	Vehicles	12	12	[0, 0, 0]	n/a	catFR1	2	R1456D
1392.767	0.0	1394731	PROB	0.0	n/a	n/a	n/a	-999	12	[2, 6, 6]	14	catFR1	2	R1456D
1392.766	0.004	1394734	WORD_OFF	n/a	n/a	MOTORCYCLE	Vehicles	12	12	[0, 0, 0]	n/a	catFR1	2	R1456D
1392.77	0.0	1394734	ENCODING_END	n/a	n/a	n/a	n/a	-999	12	[0, 0, 0]	n/a	catFR1	2	R1456D
1392.77	0.0	1394734	START	n/a	n/a	n/a	n/a	-999	12	[-999, -999, -999]	n/a	catFR1	2	R1456D
1392.77	8.412	1394742	DISTRACT_START	n/a	n/a	n/a	n/a	-999	12	[0, 0, 0]	n/a	catFR1	2	R1456D
1401.182	8.118	1403146	PROB	8.118	n/a	n/a	n/a	-999	12	[3, 7, 3]	13	catFR1	2	R1456D
1409.3	11.716	1411263	PROB	11.716	n/a	n/a	n/a	-999	12	[6, 5, 8]	19	catFR1	2	R1456D
1421.016	0.0	1422979	STOP	n/a	n/a	n/a	n/a	-999	12	[-999, -999, -999]	n/a	catFR1	2	R1456D
1421.016	1.033	1422981	DISTRACT_END	n/a	n/a	n/a	n/a	-999	12	[0, 0, 0]	n/a	catFR1	2	R1456D
1422.049	1.843	1424015	REC_START	n/a	n/a	n/a	n/a	-999	12	[0, 0, 0]	n/a	catFR1	2	R1456D
1423.892	1.961	1425855	REC_WORD_VV	1.961	n/a	<>	n/a	-999	12	[0, 0, 0]	n/a	catFR1	2	R1456D
1425.853	1.0	1427815	REC_WORD	1.0	n/a	STORM	n/a	-999	12	[0, 0, 0]	n/a	catFR1	2	R1456D
1426.853	3.251	1428815	REC_WORD_VV	3.251	n/a	<>	n/a	-999	12	[0, 0, 0]	n/a	catFR1	2	R1456D
1430.104	3.193	1432066	REC_WORD_VV	3.193	n/a	<>	n/a	-999	12	[0, 0, 0]	n/a	catFR1	2	R1456D
1433.297	0.43	1435259	REC_WORD_VV	0.43	n/a	<>	n/a	-999	12	[0, 0, 0]	n/a	catFR1	2	R1456D
1433.727	6.551	1435689	REC_WORD	6.551	n/a	TULIP	Flowers	10	12	[0, 0, 0]	n/a	catFR1	2	R1456D
1440.278	0.511	1442240	REC_WORD_VV	0.511	n/a	<>	n/a	-999	12	[0, 0, 0]	n/a	catFR1	2	R1456D
1440.789	7.877	1442751	REC_WORD	7.877	n/a	COUNTER	n/a	-999	12	[0, 0, 0]	n/a	catFR1	2	R1456D
1448.666	4.62	1450627	REC_WORD_VV	4.62	n/a	<>	n/a	-999	12	[0, 0, 0]	n/a	catFR1	2	R1456D
1453.286	0.0	1455254	REC_END	n/a	n/a	n/a	n/a	-999	12	[0, 0, 0]	n/a	catFR1	2	R1456D
