onset	duration	sample	trial_type	response_time	stim_file	item_name	category	serialpos	list	test	answer	experiment	session	subject
0.0	3.725	623096	INSTRUCT_START	n/a	n/a	n/a	n/a	-999	-999	[0, 0, 0]	n/a	catFR1	2	R1530J
3.725	27.267	626809	INSTRUCT_END	n/a	n/a	n/a	n/a	-999	-999	[0, 0, 0]	n/a	catFR1	2	R1530J
30.992	10.35	654076	COUNTDOWN_START	n/a	n/a	n/a	n/a	-999	-999	[0, 0, 0]	n/a	catFR1	2	R1530J
41.342	0.0	664424	COUNTDOWN_END	n/a	n/a	n/a	n/a	-999	-999	[0, 0, 0]	n/a	catFR1	2	R1530J
41.342	2.184	664424	ENCODING_START	n/a	n/a	n/a	n/a	-999	-1	[0, 0, 0]	n/a	catFR1	2	R1530J
43.526	1.615	666610	WORD	n/a	n/a	COAT	Clothing	1	-1	[0, 0, 0]	n/a	catFR1	2	R1530J
45.141	0.951	668232	WORD_OFF	n/a	n/a	COAT	Clothing	1	-1	[0, 0, 0]	n/a	catFR1	2	R1530J
46.092	1.615	669170	WORD	n/a	n/a	DRESS	Clothing	2	-1	[0, 0, 0]	n/a	catFR1	2	R1530J
47.707	0.951	670792	WORD_OFF	n/a	n/a	DRESS	Clothing	2	-1	[0, 0, 0]	n/a	catFR1	2	R1530J
48.658	1.6	671744	WORD	n/a	n/a	BANANA	Fruit	3	-1	[0, 0, 0]	n/a	catFR1	2	R1530J
50.258	0.984	673339	WORD_OFF	n/a	n/a	BANANA	Fruit	3	-1	[0, 0, 0]	n/a	catFR1	2	R1530J
51.242	1.6	674331	WORD	n/a	n/a	PEAR	Fruit	4	-1	[0, 0, 0]	n/a	catFR1	2	R1530J
52.842	0.966	675926	WORD_OFF	n/a	n/a	PEAR	Fruit	4	-1	[0, 0, 0]	n/a	catFR1	2	R1530J
53.808	1.616	676891	WORD	n/a	n/a	DESK	Furniture	5	-1	[0, 0, 0]	n/a	catFR1	2	R1530J
55.424	0.867	678514	WORD_OFF	n/a	n/a	DESK	Furniture	5	-1	[0, 0, 0]	n/a	catFR1	2	R1530J
56.291	1.601	679371	WORD	n/a	n/a	TABLE	Furniture	6	-1	[0, 0, 0]	n/a	catFR1	2	R1530J
57.892	0.948	680980	WORD_OFF	n/a	n/a	TABLE	Furniture	6	-1	[0, 0, 0]	n/a	catFR1	2	R1530J
58.84	1.601	681918	WORD	n/a	n/a	SHORTS	Clothing	7	-1	[0, 0, 0]	n/a	catFR1	2	R1530J
60.441	0.9	683527	WORD_OFF	n/a	n/a	SHORTS	Clothing	7	-1	[0, 0, 0]	n/a	catFR1	2	R1530J
61.341	1.6	684425	WORD	n/a	n/a	JEANS	Clothing	8	-1	[0, 0, 0]	n/a	catFR1	2	R1530J
62.941	0.867	686021	WORD_OFF	n/a	n/a	JEANS	Clothing	8	-1	[0, 0, 0]	n/a	catFR1	2	R1530J
63.808	1.6	686892	WORD	n/a	n/a	LIME	Fruit	9	-1	[0, 0, 0]	n/a	catFR1	2	R1530J
65.408	0.767	688487	WORD_OFF	n/a	n/a	LIME	Fruit	9	-1	[0, 0, 0]	n/a	catFR1	2	R1530J
66.175	1.616	689251	WORD	n/a	n/a	PLUM	Fruit	10	-1	[0, 0, 0]	n/a	catFR1	2	R1530J
67.791	0.867	690873	WORD_OFF	n/a	n/a	PLUM	Fruit	10	-1	[0, 0, 0]	n/a	catFR1	2	R1530J
68.658	1.616	691745	WORD	n/a	n/a	SOFA	Furniture	11	-1	[0, 0, 0]	n/a	catFR1	2	R1530J
70.274	0.984	693353	WORD_OFF	n/a	n/a	SOFA	Furniture	11	-1	[0, 0, 0]	n/a	catFR1	2	R1530J
71.258	1.615	694345	WORD	n/a	n/a	CHAIR	Furniture	12	-1	[0, 0, 0]	n/a	catFR1	2	R1530J
72.873	0.001	695954	WORD_OFF	n/a	n/a	CHAIR	Furniture	12	-1	[0, 0, 0]	n/a	catFR1	2	R1530J
72.874	0.0	695954	ENCODING_END	n/a	n/a	n/a	n/a	-999	-1	[0, 0, 0]	n/a	catFR1	2	R1530J
72.874	0.0	695954	DISTRACT_START	n/a	n/a	n/a	n/a	-999	-1	[0, 0, 0]	n/a	catFR1	2	R1530J
72.874	0.0	695958	START	n/a	n/a	n/a	n/a	-999	-1	[-999, -999, -999]	n/a	catFR1	2	R1530J
72.874	4.888	695958	PROB	4.888	n/a	n/a	n/a	-999	-1	[1, 5, 7]	13	catFR1	2	R1530J
77.762	2.78	700846	PROB	2.78	n/a	n/a	n/a	-999	-1	[4, 6, 1]	11	catFR1	2	R1530J
80.542	3.033	703625	PROB	3.033	n/a	n/a	n/a	-999	-1	[2, 8, 3]	13	catFR1	2	R1530J
83.575	3.35	706658	PROB	3.35	n/a	n/a	n/a	-999	-1	[4, 7, 1]	12	catFR1	2	R1530J
86.925	2.784	710008	PROB	2.784	n/a	n/a	n/a	-999	-1	[2, 6, 6]	14	catFR1	2	R1530J
89.709	3.832	712792	PROB	3.832	n/a	n/a	n/a	-999	-1	[7, 2, 2]	11	catFR1	2	R1530J
93.541	0.0	716624	STOP	n/a	n/a	n/a	n/a	-999	-1	[-999, -999, -999]	n/a	catFR1	2	R1530J
93.541	1.9	716625	DISTRACT_END	n/a	n/a	n/a	n/a	-999	-1	[0, 0, 0]	n/a	catFR1	2	R1530J
95.441	1.217	718529	REC_START	n/a	n/a	n/a	n/a	-999	-1	[0, 0, 0]	n/a	catFR1	2	R1530J
96.658	0.458	719741	REC_WORD	0.458	n/a	COAT	Clothing	1	-1	[0, 0, 0]	n/a	catFR1	2	R1530J
97.116	0.557	720199	REC_WORD	0.557	n/a	CHAIR	Furniture	12	-1	[0, 0, 0]	n/a	catFR1	2	R1530J
97.673	1.459	720756	REC_WORD	1.459	n/a	BANANA	Fruit	3	-1	[0, 0, 0]	n/a	catFR1	2	R1530J
99.132	1.574	722215	REC_WORD	1.574	n/a	LIME	Fruit	9	-1	[0, 0, 0]	n/a	catFR1	2	R1530J
100.706	2.903	723788	REC_WORD	2.903	n/a	DRESS	Clothing	2	-1	[0, 0, 0]	n/a	catFR1	2	R1530J
103.609	1.456	726691	REC_WORD	1.456	n/a	TABLE	Furniture	6	-1	[0, 0, 0]	n/a	catFR1	2	R1530J
105.065	0.507	728147	REC_WORD_VV	0.507	n/a	<>	n/a	-999	-1	[0, 0, 0]	n/a	catFR1	2	R1530J
105.572	0.508	728654	REC_WORD	0.508	n/a	COAT	Clothing	1	-1	[0, 0, 0]	n/a	catFR1	2	R1530J
106.08	1.793	729162	REC_WORD	1.793	n/a	CHAIR	Furniture	12	-1	[0, 0, 0]	n/a	catFR1	2	R1530J
107.873	0.569	730955	REC_WORD	0.569	n/a	LIME	Fruit	9	-1	[0, 0, 0]	n/a	catFR1	2	R1530J
108.442	1.97	731524	REC_WORD	1.97	n/a	BANANA	Fruit	3	-1	[0, 0, 0]	n/a	catFR1	2	R1530J
110.412	1.77	733494	REC_WORD_VV	1.77	n/a	<>	n/a	-999	-1	[0, 0, 0]	n/a	catFR1	2	R1530J
112.182	0.368	735264	REC_WORD	0.368	n/a	COAT	Clothing	1	-1	[0, 0, 0]	n/a	catFR1	2	R1530J
112.55	2.922	735632	REC_WORD	2.922	n/a	CHAIR	Furniture	12	-1	[0, 0, 0]	n/a	catFR1	2	R1530J
115.472	3.914	738554	REC_WORD	3.914	n/a	DRESS	Clothing	2	-1	[0, 0, 0]	n/a	catFR1	2	R1530J
119.386	0.628	742467	REC_WORD_VV	0.628	n/a	<>	n/a	-999	-1	[0, 0, 0]	n/a	catFR1	2	R1530J
120.014	5.633	743095	REC_WORD	5.633	n/a	PLUM	Fruit	10	-1	[0, 0, 0]	n/a	catFR1	2	R1530J
125.647	15.178	748731	REC_END	n/a	n/a	n/a	n/a	-999	-1	[0, 0, 0]	n/a	catFR1	2	R1530J
140.825	10.35	763906	COUNTDOWN_START	n/a	n/a	n/a	n/a	-999	1	[0, 0, 0]	n/a	catFR1	2	R1530J
151.175	0.0	774255	COUNTDOWN_END	n/a	n/a	n/a	n/a	-999	1	[0, 0, 0]	n/a	catFR1	2	R1530J
151.175	2.199	774255	ENCODING_START	n/a	n/a	n/a	n/a	-999	1	[0, 0, 0]	n/a	catFR1	2	R1530J
153.374	1.601	776453	WORD	n/a	wordpools/wordpool_categorized_EN.txt	TORNADO	Weather	1	1	[0, 0, 0]	n/a	catFR1	2	R1530J
154.975	0.883	778049	WORD_OFF	n/a	n/a	TORNADO	Weather	1	1	[0, 0, 0]	n/a	catFR1	2	R1530J
155.858	1.601	778933	WORD	n/a	wordpools/wordpool_categorized_EN.txt	FOG	Weather	2	1	[0, 0, 0]	n/a	catFR1	2	R1530J
157.459	0.9	780542	WORD_OFF	n/a	n/a	FOG	Weather	2	1	[0, 0, 0]	n/a	catFR1	2	R1530J
158.359	1.615	781440	WORD	n/a	wordpools/wordpool_categorized_EN.txt	COLANDER	KitchenTools	3	1	[0, 0, 0]	n/a	catFR1	2	R1530J
159.974	0.867	783049	WORD_OFF	n/a	n/a	COLANDER	KitchenTools	3	1	[0, 0, 0]	n/a	catFR1	2	R1530J
160.841	1.6	783920	WORD	n/a	wordpools/wordpool_categorized_EN.txt	CORKSCREW	KitchenTools	4	1	[0, 0, 0]	n/a	catFR1	2	R1530J
162.441	0.916	785515	WORD_OFF	n/a	n/a	CORKSCREW	KitchenTools	4	1	[0, 0, 0]	n/a	catFR1	2	R1530J
163.357	1.601	786440	WORD	n/a	wordpools/wordpool_categorized_EN.txt	BASS	Instruments	5	1	[0, 0, 0]	n/a	catFR1	2	R1530J
164.958	0.966	788036	WORD_OFF	n/a	n/a	BASS	Instruments	5	1	[0, 0, 0]	n/a	catFR1	2	R1530J
165.924	1.601	789001	WORD	n/a	wordpools/wordpool_categorized_EN.txt	CELLO	Instruments	6	1	[0, 0, 0]	n/a	catFR1	2	R1530J
167.525	0.983	790609	WORD_OFF	n/a	n/a	CELLO	Instruments	6	1	[0, 0, 0]	n/a	catFR1	2	R1530J
168.508	1.6	791588	WORD	n/a	wordpools/wordpool_categorized_EN.txt	WHISK	KitchenTools	7	1	[0, 0, 0]	n/a	catFR1	2	R1530J
170.108	0.832	793183	WORD_OFF	n/a	n/a	WHISK	KitchenTools	7	1	[0, 0, 0]	n/a	catFR1	2	R1530J
170.94	1.601	794014	WORD	n/a	wordpools/wordpool_categorized_EN.txt	TONGS	KitchenTools	8	1	[0, 0, 0]	n/a	catFR1	2	R1530J
172.541	0.883	795623	WORD_OFF	n/a	n/a	TONGS	KitchenTools	8	1	[0, 0, 0]	n/a	catFR1	2	R1530J
173.424	1.617	796508	WORD	n/a	wordpools/wordpool_categorized_EN.txt	PIANO	Instruments	9	1	[0, 0, 0]	n/a	catFR1	2	R1530J
175.041	0.784	798116	WORD_OFF	n/a	n/a	PIANO	Instruments	9	1	[0, 0, 0]	n/a	catFR1	2	R1530J
175.825	1.615	798907	WORD	n/a	wordpools/wordpool_categorized_EN.txt	ORGAN	Instruments	10	1	[0, 0, 0]	n/a	catFR1	2	R1530J
177.44	0.951	800516	WORD_OFF	n/a	n/a	ORGAN	Instruments	10	1	[0, 0, 0]	n/a	catFR1	2	R1530J
178.391	1.617	801468	WORD	n/a	wordpools/wordpool_categorized_EN.txt	LIGHTNING	Weather	11	1	[0, 0, 0]	n/a	catFR1	2	R1530J
180.008	0.999	803090	WORD_OFF	n/a	n/a	LIGHTNING	Weather	11	1	[0, 0, 0]	n/a	catFR1	2	R1530J
181.007	1.602	804082	WORD	n/a	wordpools/wordpool_categorized_EN.txt	SNOW	Weather	12	1	[0, 0, 0]	n/a	catFR1	2	R1530J
182.609	0.0	805687	START	n/a	n/a	n/a	n/a	-999	1	[-999, -999, -999]	n/a	catFR1	2	R1530J
182.609	0.0	805687	PROB	0.0	n/a	n/a	n/a	-999	1	[3, 4, 7]	14	catFR1	2	R1530J
182.608	0.001	805690	WORD_OFF	n/a	n/a	SNOW	Weather	12	1	[0, 0, 0]	n/a	catFR1	2	R1530J
182.609	0.0	805690	ENCODING_END	n/a	n/a	n/a	n/a	-999	1	[0, 0, 0]	n/a	catFR1	2	R1530J
182.609	3.001	805690	DISTRACT_START	n/a	n/a	n/a	n/a	-999	1	[0, 0, 0]	n/a	catFR1	2	R1530J
185.61	3.967	808688	PROB	3.967	n/a	n/a	n/a	-999	1	[6, 7, 4]	17	catFR1	2	R1530J
189.577	2.867	812655	PROB	2.867	n/a	n/a	n/a	-999	1	[8, 6, 5]	19	catFR1	2	R1530J
192.444	2.616	815522	PROB	2.616	n/a	n/a	n/a	-999	1	[4, 1, 5]	10	catFR1	2	R1530J
195.06	2.717	818137	PROB	2.717	n/a	n/a	n/a	-999	1	[2, 1, 6]	9	catFR1	2	R1530J
197.777	3.166	820854	PROB	3.166	n/a	n/a	n/a	-999	1	[8, 2, 3]	13	catFR1	2	R1530J
200.943	2.899	824020	PROB	2.899	n/a	n/a	n/a	-999	1	[3, 6, 5]	14	catFR1	2	R1530J
203.842	0.0	826919	STOP	n/a	n/a	n/a	n/a	-999	1	[-999, -999, -999]	n/a	catFR1	2	R1530J
203.842	1.917	826925	DISTRACT_END	n/a	n/a	n/a	n/a	-999	1	[0, 0, 0]	n/a	catFR1	2	R1530J
205.759	1.122	828842	REC_START	n/a	n/a	n/a	n/a	-999	1	[0, 0, 0]	n/a	catFR1	2	R1530J
206.881	0.982	829958	REC_WORD	0.982	n/a	TORNADO	Weather	1	1	[0, 0, 0]	n/a	catFR1	2	R1530J
207.863	1.785	830940	REC_WORD	1.785	n/a	FOG	Weather	2	1	[0, 0, 0]	n/a	catFR1	2	R1530J
209.648	6.648	832725	REC_WORD	6.648	n/a	SNOW	Weather	12	1	[0, 0, 0]	n/a	catFR1	2	R1530J
216.296	1.353	839372	REC_WORD	1.353	n/a	COLANDER	KitchenTools	3	1	[0, 0, 0]	n/a	catFR1	2	R1530J
217.649	10.489	840725	REC_WORD	10.489	n/a	WHISK	KitchenTools	7	1	[0, 0, 0]	n/a	catFR1	2	R1530J
228.138	3.355	851214	REC_WORD	3.355	n/a	TORNADO	Weather	1	1	[0, 0, 0]	n/a	catFR1	2	R1530J
231.493	0.608	854569	REC_WORD	0.608	n/a	FOG	Weather	2	1	[0, 0, 0]	n/a	catFR1	2	R1530J
232.101	1.139	855177	REC_WORD	1.139	n/a	SNOW	Weather	12	1	[0, 0, 0]	n/a	catFR1	2	R1530J
233.24	2.716	856315	REC_WORD	2.716	n/a	WHISK	KitchenTools	7	1	[0, 0, 0]	n/a	catFR1	2	R1530J
235.956	2.052	859031	REC_END	n/a	n/a	n/a	n/a	-999	1	[0, 0, 0]	n/a	catFR1	2	R1530J
238.008	10.351	861082	COUNTDOWN_START	n/a	n/a	n/a	n/a	-999	1	[0, 0, 0]	n/a	catFR1	2	R1530J
248.359	0.0	871431	COUNTDOWN_END	n/a	n/a	n/a	n/a	-999	1	[0, 0, 0]	n/a	catFR1	2	R1530J
248.359	1.965	871431	ENCODING_START	n/a	n/a	n/a	n/a	-999	2	[0, 0, 0]	n/a	catFR1	2	R1530J
250.324	1.6	873401	WORD	n/a	wordpools/wordpool_categorized_EN.txt	SQUID	OceanAnimals	1	2	[0, 0, 0]	n/a	catFR1	2	R1530J
251.924	0.867	874996	WORD_OFF	n/a	n/a	SQUID	OceanAnimals	1	2	[0, 0, 0]	n/a	catFR1	2	R1530J
252.791	1.617	875868	WORD	n/a	wordpools/wordpool_categorized_EN.txt	DOLPHIN	OceanAnimals	2	2	[0, 0, 0]	n/a	catFR1	2	R1530J
254.408	0.965	877476	WORD_OFF	n/a	n/a	DOLPHIN	OceanAnimals	2	2	[0, 0, 0]	n/a	catFR1	2	R1530J
255.373	1.602	878442	WORD	n/a	wordpools/wordpool_categorized_EN.txt	MOUSSE	Desserts	3	2	[0, 0, 0]	n/a	catFR1	2	R1530J
256.975	0.833	880050	WORD_OFF	n/a	n/a	MOUSSE	Desserts	3	2	[0, 0, 0]	n/a	catFR1	2	R1530J
257.808	1.6	880881	WORD	n/a	wordpools/wordpool_categorized_EN.txt	CUPCAKE	Desserts	4	2	[0, 0, 0]	n/a	catFR1	2	R1530J
259.408	0.966	882477	WORD_OFF	n/a	n/a	CUPCAKE	Desserts	4	2	[0, 0, 0]	n/a	catFR1	2	R1530J
260.374	1.601	883442	WORD	n/a	wordpools/wordpool_categorized_EN.txt	WOODS	Landscapes	5	2	[0, 0, 0]	n/a	catFR1	2	R1530J
261.975	1.0	885050	WORD_OFF	n/a	n/a	WOODS	Landscapes	5	2	[0, 0, 0]	n/a	catFR1	2	R1530J
262.975	1.617	886042	WORD	n/a	wordpools/wordpool_categorized_EN.txt	MOUNTAIN	Landscapes	6	2	[0, 0, 0]	n/a	catFR1	2	R1530J
264.592	0.766	887664	WORD_OFF	n/a	n/a	MOUNTAIN	Landscapes	6	2	[0, 0, 0]	n/a	catFR1	2	R1530J
265.358	1.616	888429	WORD	n/a	wordpools/wordpool_categorized_EN.txt	COOKIE	Desserts	7	2	[0, 0, 0]	n/a	catFR1	2	R1530J
266.974	1.0	890051	WORD_OFF	n/a	n/a	COOKIE	Desserts	7	2	[0, 0, 0]	n/a	catFR1	2	R1530J
267.974	1.601	891043	WORD	n/a	wordpools/wordpool_categorized_EN.txt	PIE	Desserts	8	2	[0, 0, 0]	n/a	catFR1	2	R1530J
269.575	0.832	892651	WORD_OFF	n/a	n/a	PIE	Desserts	8	2	[0, 0, 0]	n/a	catFR1	2	R1530J
270.407	1.601	893482	WORD	n/a	wordpools/wordpool_categorized_EN.txt	RIVER	Landscapes	9	2	[0, 0, 0]	n/a	catFR1	2	R1530J
272.008	1.0	895078	WORD_OFF	n/a	n/a	RIVER	Landscapes	9	2	[0, 0, 0]	n/a	catFR1	2	R1530J
273.008	1.6	896083	WORD	n/a	wordpools/wordpool_categorized_EN.txt	LAKE	Landscapes	10	2	[0, 0, 0]	n/a	catFR1	2	R1530J
274.608	0.849	897678	WORD_OFF	n/a	n/a	LAKE	Landscapes	10	2	[0, 0, 0]	n/a	catFR1	2	R1530J
275.457	1.601	898523	WORD	n/a	wordpools/wordpool_categorized_EN.txt	FISH	OceanAnimals	11	2	[0, 0, 0]	n/a	catFR1	2	R1530J
277.058	0.8	900132	WORD_OFF	n/a	n/a	FISH	OceanAnimals	11	2	[0, 0, 0]	n/a	catFR1	2	R1530J
277.858	1.616	900936	WORD	n/a	wordpools/wordpool_categorized_EN.txt	SHRIMP	OceanAnimals	12	2	[0, 0, 0]	n/a	catFR1	2	R1530J
279.474	0.001	902544	WORD_OFF	n/a	n/a	SHRIMP	OceanAnimals	12	2	[0, 0, 0]	n/a	catFR1	2	R1530J
279.475	0.0	902544	ENCODING_END	n/a	n/a	n/a	n/a	-999	2	[0, 0, 0]	n/a	catFR1	2	R1530J
279.475	0.0	902544	DISTRACT_START	n/a	n/a	n/a	n/a	-999	2	[0, 0, 0]	n/a	catFR1	2	R1530J
279.474	0.001	902547	PROB	0.001	n/a	n/a	n/a	-999	2	[2, 2, 3]	7	catFR1	2	R1530J
279.475	3.667	902548	START	n/a	n/a	n/a	n/a	-999	2	[-999, -999, -999]	n/a	catFR1	2	R1530J
283.142	3.265	906215	PROB	3.265	n/a	n/a	n/a	-999	2	[5, 4, 8]	17	catFR1	2	R1530J
286.407	2.335	909480	PROB	2.335	n/a	n/a	n/a	-999	2	[1, 4, 4]	9	catFR1	2	R1530J
288.742	3.383	911815	PROB	3.383	n/a	n/a	n/a	-999	2	[6, 1, 4]	11	catFR1	2	R1530J
292.125	3.016	915197	PROB	3.016	n/a	n/a	n/a	-999	2	[5, 5, 4]	14	catFR1	2	R1530J
295.141	3.3	918213	PROB	3.3	n/a	n/a	n/a	-999	2	[7, 5, 4]	16	catFR1	2	R1530J
298.441	2.599	921513	PROB	2.599	n/a	n/a	n/a	-999	2	[1, 5, 4]	10	catFR1	2	R1530J
301.04	0.0	924112	STOP	n/a	n/a	n/a	n/a	-999	2	[-999, -999, -999]	n/a	catFR1	2	R1530J
301.04	1.701	924114	DISTRACT_END	n/a	n/a	n/a	n/a	-999	2	[0, 0, 0]	n/a	catFR1	2	R1530J
302.741	1.831	925816	REC_START	n/a	n/a	n/a	n/a	-999	2	[0, 0, 0]	n/a	catFR1	2	R1530J
304.572	1.0	927644	REC_WORD_VV	1.0	n/a	<>	n/a	-999	2	[0, 0, 0]	n/a	catFR1	2	R1530J
305.572	1.61	928644	REC_WORD_VV	1.61	n/a	<>	n/a	-999	2	[0, 0, 0]	n/a	catFR1	2	R1530J
307.182	1.785	930254	REC_WORD	1.785	n/a	COOKIE	Desserts	7	2	[0, 0, 0]	n/a	catFR1	2	R1530J
308.967	3.196	932039	REC_WORD	3.196	n/a	PIE	Desserts	8	2	[0, 0, 0]	n/a	catFR1	2	R1530J
312.163	1.407	935234	REC_WORD_VV	1.407	n/a	<>	n/a	-999	2	[0, 0, 0]	n/a	catFR1	2	R1530J
313.57	2.829	936641	REC_WORD	2.829	n/a	SQUID	OceanAnimals	1	2	[0, 0, 0]	n/a	catFR1	2	R1530J
316.399	1.611	939470	REC_WORD	1.611	n/a	DOLPHIN	OceanAnimals	2	2	[0, 0, 0]	n/a	catFR1	2	R1530J
318.01	1.489	941081	REC_WORD	1.489	n/a	RIVER	Landscapes	9	2	[0, 0, 0]	n/a	catFR1	2	R1530J
319.499	13.433	942570	REC_WORD	13.433	n/a	MOUNTAIN	Landscapes	6	2	[0, 0, 0]	n/a	catFR1	2	R1530J
332.932	7.025	956005	REC_END	n/a	n/a	n/a	n/a	-999	2	[0, 0, 0]	n/a	catFR1	2	R1530J
339.957	10.35	963030	COUNTDOWN_START	n/a	n/a	n/a	n/a	-999	2	[0, 0, 0]	n/a	catFR1	2	R1530J
350.307	0.0	973379	COUNTDOWN_END	n/a	n/a	n/a	n/a	-999	2	[0, 0, 0]	n/a	catFR1	2	R1530J
350.307	2.319	973379	ENCODING_START	n/a	n/a	n/a	n/a	-999	3	[0, 0, 0]	n/a	catFR1	2	R1530J
352.626	1.616	975698	WORD	n/a	wordpools/wordpool_categorized_EN.txt	SHIRT	Clothing	1	3	[0, 0, 0]	n/a	catFR1	2	R1530J
354.242	0.998	977306	WORD_OFF	n/a	n/a	SHIRT	Clothing	1	3	[0, 0, 0]	n/a	catFR1	2	R1530J
355.24	1.601	978312	WORD	n/a	wordpools/wordpool_categorized_EN.txt	SOCKS	Clothing	2	3	[0, 0, 0]	n/a	catFR1	2	R1530J
356.841	0.817	979907	WORD_OFF	n/a	n/a	SOCKS	Clothing	2	3	[0, 0, 0]	n/a	catFR1	2	R1530J
357.658	1.6	980725	WORD	n/a	wordpools/wordpool_categorized_EN.txt	PHONE	Electronics	3	3	[0, 0, 0]	n/a	catFR1	2	R1530J
359.258	0.867	982320	WORD_OFF	n/a	n/a	PHONE	Electronics	3	3	[0, 0, 0]	n/a	catFR1	2	R1530J
360.125	1.616	983191	WORD	n/a	wordpools/wordpool_categorized_EN.txt	CALCULATOR	Electronics	4	3	[0, 0, 0]	n/a	catFR1	2	R1530J
361.741	0.767	984813	WORD_OFF	n/a	n/a	CALCULATOR	Electronics	4	3	[0, 0, 0]	n/a	catFR1	2	R1530J
362.508	1.6	985577	WORD	n/a	wordpools/wordpool_categorized_EN.txt	LOBSTER	OceanAnimals	5	3	[0, 0, 0]	n/a	catFR1	2	R1530J
364.108	0.882	987173	WORD_OFF	n/a	n/a	LOBSTER	OceanAnimals	5	3	[0, 0, 0]	n/a	catFR1	2	R1530J
364.99	1.601	988057	WORD	n/a	wordpools/wordpool_categorized_EN.txt	JELLYFISH	OceanAnimals	6	3	[0, 0, 0]	n/a	catFR1	2	R1530J
366.591	0.883	989653	WORD_OFF	n/a	n/a	JELLYFISH	OceanAnimals	6	3	[0, 0, 0]	n/a	catFR1	2	R1530J
367.474	1.6	990537	WORD	n/a	wordpools/wordpool_categorized_EN.txt	SCANNER	Electronics	7	3	[0, 0, 0]	n/a	catFR1	2	R1530J
369.074	0.833	992146	WORD_OFF	n/a	n/a	SCANNER	Electronics	7	3	[0, 0, 0]	n/a	catFR1	2	R1530J
369.907	1.6	992977	WORD	n/a	wordpools/wordpool_categorized_EN.txt	PRINTER	Electronics	8	3	[0, 0, 0]	n/a	catFR1	2	R1530J
371.507	0.984	994572	WORD_OFF	n/a	n/a	PRINTER	Electronics	8	3	[0, 0, 0]	n/a	catFR1	2	R1530J
372.491	1.6	995564	WORD	n/a	wordpools/wordpool_categorized_EN.txt	PANTS	Clothing	9	3	[0, 0, 0]	n/a	catFR1	2	R1530J
374.091	0.833	997160	WORD_OFF	n/a	n/a	PANTS	Clothing	9	3	[0, 0, 0]	n/a	catFR1	2	R1530J
374.924	1.6	997991	WORD	n/a	wordpools/wordpool_categorized_EN.txt	JACKET	Clothing	10	3	[0, 0, 0]	n/a	catFR1	2	R1530J
376.524	0.768	999586	WORD_OFF	n/a	n/a	JACKET	Clothing	10	3	[0, 0, 0]	n/a	catFR1	2	R1530J
377.292	1.615	1000364	WORD	n/a	wordpools/wordpool_categorized_EN.txt	OYSTER	OceanAnimals	11	3	[0, 0, 0]	n/a	catFR1	2	R1530J
378.907	0.868	1001972	WORD_OFF	n/a	n/a	OYSTER	OceanAnimals	11	3	[0, 0, 0]	n/a	catFR1	2	R1530J
379.775	1.6	1002844	WORD	n/a	wordpools/wordpool_categorized_EN.txt	TURTLE	OceanAnimals	12	3	[0, 0, 0]	n/a	catFR1	2	R1530J
381.375	0.001	1004439	WORD_OFF	n/a	n/a	TURTLE	OceanAnimals	12	3	[0, 0, 0]	n/a	catFR1	2	R1530J
381.376	0.0	1004439	ENCODING_END	n/a	n/a	n/a	n/a	-999	3	[0, 0, 0]	n/a	catFR1	2	R1530J
381.376	0.0	1004439	DISTRACT_START	n/a	n/a	n/a	n/a	-999	3	[0, 0, 0]	n/a	catFR1	2	R1530J
381.375	0.001	1004443	PROB	0.001	n/a	n/a	n/a	-999	3	[1, 6, 8]	15	catFR1	2	R1530J
381.376	3.882	1004444	START	n/a	n/a	n/a	n/a	-999	3	[-999, -999, -999]	n/a	catFR1	2	R1530J
385.258	3.499	1008326	PROB	3.499	n/a	n/a	n/a	-999	3	[7, 1, 4]	12	catFR1	2	R1530J
388.757	2.802	1011824	PROB	2.802	n/a	n/a	n/a	-999	3	[6, 6, 6]	18	catFR1	2	R1530J
391.559	3.517	1014626	PROB	3.517	n/a	n/a	n/a	-999	3	[8, 2, 4]	14	catFR1	2	R1530J
395.076	3.816	1018143	PROB	3.816	n/a	n/a	n/a	-999	3	[6, 3, 2]	11	catFR1	2	R1530J
398.892	3.75	1021959	PROB	3.75	n/a	n/a	n/a	-999	3	[6, 3, 6]	15	catFR1	2	R1530J
402.642	0.0	1025709	STOP	n/a	n/a	n/a	n/a	-999	3	[-999, -999, -999]	n/a	catFR1	2	R1530J
402.642	1.582	1025713	DISTRACT_END	n/a	n/a	n/a	n/a	-999	3	[0, 0, 0]	n/a	catFR1	2	R1530J
404.224	2.325	1027295	REC_START	n/a	n/a	n/a	n/a	-999	3	[0, 0, 0]	n/a	catFR1	2	R1530J
406.549	1.516	1029615	REC_WORD	1.516	n/a	SHIRT	Clothing	1	3	[0, 0, 0]	n/a	catFR1	2	R1530J
408.065	3.864	1031131	REC_WORD	3.864	n/a	PANTS	Clothing	9	3	[0, 0, 0]	n/a	catFR1	2	R1530J
411.929	5.724	1034995	REC_WORD_VV	5.724	n/a	<>	n/a	-999	3	[0, 0, 0]	n/a	catFR1	2	R1530J
417.653	0.967	1040719	REC_WORD	0.967	n/a	CALCULATOR	Electronics	4	3	[0, 0, 0]	n/a	catFR1	2	R1530J
418.62	1.794	1041686	REC_WORD	1.794	n/a	PHONE	Electronics	3	3	[0, 0, 0]	n/a	catFR1	2	R1530J
420.414	13.978	1043480	REC_WORD	13.978	n/a	DRESS	Clothing	-999	3	[0, 0, 0]	n/a	catFR1	2	R1530J
434.392	1.751	1057457	REC_END	n/a	n/a	n/a	n/a	-999	3	[0, 0, 0]	n/a	catFR1	2	R1530J
436.143	10.349	1059213	COUNTDOWN_START	n/a	n/a	n/a	n/a	-999	3	[0, 0, 0]	n/a	catFR1	2	R1530J
446.492	0.0	1069549	COUNTDOWN_END	n/a	n/a	n/a	n/a	-999	3	[0, 0, 0]	n/a	catFR1	2	R1530J
446.492	2.316	1069562	ENCODING_START	n/a	n/a	n/a	n/a	-999	4	[0, 0, 0]	n/a	catFR1	2	R1530J
448.808	1.601	1071868	WORD	n/a	wordpools/wordpool_categorized_EN.txt	NYLON	Fabric	1	4	[0, 0, 0]	n/a	catFR1	2	R1530J
450.409	0.8	1073477	WORD_OFF	n/a	n/a	NYLON	Fabric	1	4	[0, 0, 0]	n/a	catFR1	2	R1530J
451.209	1.6	1074268	WORD	n/a	wordpools/wordpool_categorized_EN.txt	SPANDEX	Fabric	2	4	[0, 0, 0]	n/a	catFR1	2	R1530J
452.809	0.932	1075876	WORD_OFF	n/a	n/a	SPANDEX	Fabric	2	4	[0, 0, 0]	n/a	catFR1	2	R1530J
453.741	1.601	1076801	WORD	n/a	wordpools/wordpool_categorized_EN.txt	DRUM	Instruments	3	4	[0, 0, 0]	n/a	catFR1	2	R1530J
455.342	0.985	1078410	WORD_OFF	n/a	n/a	DRUM	Instruments	3	4	[0, 0, 0]	n/a	catFR1	2	R1530J
456.327	1.599	1079388	WORD	n/a	wordpools/wordpool_categorized_EN.txt	TRUMPET	Instruments	4	4	[0, 0, 0]	n/a	catFR1	2	R1530J
457.926	0.799	1080984	WORD_OFF	n/a	n/a	TRUMPET	Instruments	4	4	[0, 0, 0]	n/a	catFR1	2	R1530J
458.725	1.602	1081788	WORD	n/a	wordpools/wordpool_categorized_EN.txt	FRISBEE	Toys	5	4	[0, 0, 0]	n/a	catFR1	2	R1530J
460.327	0.882	1083383	WORD_OFF	n/a	n/a	FRISBEE	Toys	5	4	[0, 0, 0]	n/a	catFR1	2	R1530J
461.209	1.616	1084268	WORD	n/a	wordpools/wordpool_categorized_EN.txt	DOLLHOUSE	Toys	6	4	[0, 0, 0]	n/a	catFR1	2	R1530J
462.825	0.8	1085890	WORD_OFF	n/a	n/a	DOLLHOUSE	Toys	6	4	[0, 0, 0]	n/a	catFR1	2	R1530J
463.625	1.601	1086694	WORD	n/a	wordpools/wordpool_categorized_EN.txt	TROMBONE	Instruments	7	4	[0, 0, 0]	n/a	catFR1	2	R1530J
465.226	1.0	1088290	WORD_OFF	n/a	n/a	TROMBONE	Instruments	7	4	[0, 0, 0]	n/a	catFR1	2	R1530J
466.226	1.6	1089295	WORD	n/a	wordpools/wordpool_categorized_EN.txt	BANJO	Instruments	8	4	[0, 0, 0]	n/a	catFR1	2	R1530J
467.826	0.816	1090890	WORD_OFF	n/a	n/a	BANJO	Instruments	8	4	[0, 0, 0]	n/a	catFR1	2	R1530J
468.642	1.601	1091708	WORD	n/a	wordpools/wordpool_categorized_EN.txt	LEATHER	Fabric	9	4	[0, 0, 0]	n/a	catFR1	2	R1530J
470.243	0.966	1093303	WORD_OFF	n/a	n/a	LEATHER	Fabric	9	4	[0, 0, 0]	n/a	catFR1	2	R1530J
471.209	1.6	1094268	WORD	n/a	wordpools/wordpool_categorized_EN.txt	VELVET	Fabric	10	4	[0, 0, 0]	n/a	catFR1	2	R1530J
472.809	0.934	1095877	WORD_OFF	n/a	n/a	VELVET	Fabric	10	4	[0, 0, 0]	n/a	catFR1	2	R1530J
473.743	1.615	1096802	WORD	n/a	wordpools/wordpool_categorized_EN.txt	FOOTBALL	Toys	11	4	[0, 0, 0]	n/a	catFR1	2	R1530J
475.358	0.835	1098424	WORD_OFF	n/a	n/a	FOOTBALL	Toys	11	4	[0, 0, 0]	n/a	catFR1	2	R1530J
476.193	1.617	1099255	WORD	n/a	wordpools/wordpool_categorized_EN.txt	MARBLES	Toys	12	4	[0, 0, 0]	n/a	catFR1	2	R1530J
477.81	0.001	1100873	PROB	0.001	n/a	n/a	n/a	-999	4	[6, 6, 6]	18	catFR1	2	R1530J
477.811	0.0	1100874	START	n/a	n/a	n/a	n/a	-999	4	[-999, -999, -999]	n/a	catFR1	2	R1530J
477.809	0.002	1100877	WORD_OFF	n/a	n/a	MARBLES	Toys	12	4	[0, 0, 0]	n/a	catFR1	2	R1530J
477.811	0.0	1100877	ENCODING_END	n/a	n/a	n/a	n/a	-999	4	[0, 0, 0]	n/a	catFR1	2	R1530J
477.811	4.398	1100877	DISTRACT_START	n/a	n/a	n/a	n/a	-999	4	[0, 0, 0]	n/a	catFR1	2	R1530J
482.209	4.434	1105271	PROB	4.434	n/a	n/a	n/a	-999	4	[4, 8, 7]	19	catFR1	2	R1530J
486.643	2.817	1109705	PROB	2.817	n/a	n/a	n/a	-999	4	[3, 1, 5]	9	catFR1	2	R1530J
489.46	5.283	1112522	PROB	5.283	n/a	n/a	n/a	-999	4	[7, 3, 6]	16	catFR1	2	R1530J
494.743	3.866	1117805	PROB	3.866	n/a	n/a	n/a	-999	4	[4, 3, 2]	9	catFR1	2	R1530J
498.609	0.0	1121669	DISTRACT_END	n/a	n/a	n/a	n/a	-999	4	[0, 0, 0]	n/a	catFR1	2	R1530J
498.609	1.817	1121671	STOP	n/a	n/a	n/a	n/a	-999	4	[-999, -999, -999]	n/a	catFR1	2	R1530J
500.426	1.258	1123492	REC_START	n/a	n/a	n/a	n/a	-999	4	[0, 0, 0]	n/a	catFR1	2	R1530J
501.684	1.607	1124745	REC_WORD	1.607	n/a	FOOTBALL	Toys	11	4	[0, 0, 0]	n/a	catFR1	2	R1530J
503.291	1.0	1126352	REC_WORD	1.0	n/a	MARBLES	Toys	12	4	[0, 0, 0]	n/a	catFR1	2	R1530J
504.291	2.67	1127352	REC_WORD_VV	2.67	n/a	<>	n/a	-999	4	[0, 0, 0]	n/a	catFR1	2	R1530J
506.961	1.395	1130022	REC_WORD_VV	1.395	n/a	<>	n/a	-999	4	[0, 0, 0]	n/a	catFR1	2	R1530J
508.356	1.0	1131417	REC_WORD	1.0	n/a	SPANDEX	Fabric	2	4	[0, 0, 0]	n/a	catFR1	2	R1530J
509.356	2.592	1132417	REC_WORD_VV	2.592	n/a	<>	n/a	-999	4	[0, 0, 0]	n/a	catFR1	2	R1530J
511.948	11.348	1135009	REC_WORD	11.348	n/a	VELVET	Fabric	10	4	[0, 0, 0]	n/a	catFR1	2	R1530J
523.296	1.89	1146356	REC_WORD	1.89	n/a	BANJO	Instruments	8	4	[0, 0, 0]	n/a	catFR1	2	R1530J
525.186	3.002	1148246	REC_WORD	3.002	n/a	DRUM	Instruments	3	4	[0, 0, 0]	n/a	catFR1	2	R1530J
528.188	2.42	1151248	REC_WORD	2.42	n/a	TRUMPET	Instruments	4	4	[0, 0, 0]	n/a	catFR1	2	R1530J
530.608	1.768	1153668	REC_END	n/a	n/a	n/a	n/a	-999	4	[0, 0, 0]	n/a	catFR1	2	R1530J
532.376	10.349	1155437	COUNTDOWN_START	n/a	n/a	n/a	n/a	-999	4	[0, 0, 0]	n/a	catFR1	2	R1530J
542.725	0.0	1165786	COUNTDOWN_END	n/a	n/a	n/a	n/a	-999	4	[0, 0, 0]	n/a	catFR1	2	R1530J
542.725	2.318	1165786	ENCODING_START	n/a	n/a	n/a	n/a	-999	5	[0, 0, 0]	n/a	catFR1	2	R1530J
545.043	1.616	1168105	WORD	n/a	wordpools/wordpool_categorized_EN.txt	ANT	Insects	1	5	[0, 0, 0]	n/a	catFR1	2	R1530J
546.659	0.866	1169714	WORD_OFF	n/a	n/a	ANT	Insects	1	5	[0, 0, 0]	n/a	catFR1	2	R1530J
547.525	1.601	1170585	WORD	n/a	wordpools/wordpool_categorized_EN.txt	MOTH	Insects	2	5	[0, 0, 0]	n/a	catFR1	2	R1530J
549.126	0.966	1172181	WORD_OFF	n/a	n/a	MOTH	Insects	2	5	[0, 0, 0]	n/a	catFR1	2	R1530J
550.092	1.6	1173146	WORD	n/a	wordpools/wordpool_categorized_EN.txt	AXE	Tools	3	5	[0, 0, 0]	n/a	catFR1	2	R1530J
551.692	0.784	1174754	WORD_OFF	n/a	n/a	AXE	Tools	3	5	[0, 0, 0]	n/a	catFR1	2	R1530J
552.476	1.6	1175532	WORD	n/a	wordpools/wordpool_categorized_EN.txt	PLIERS	Tools	4	5	[0, 0, 0]	n/a	catFR1	2	R1530J
554.076	0.867	1177141	WORD_OFF	n/a	n/a	PLIERS	Tools	4	5	[0, 0, 0]	n/a	catFR1	2	R1530J
554.943	1.615	1177998	WORD	n/a	wordpools/wordpool_categorized_EN.txt	MILK	Beverages	5	5	[0, 0, 0]	n/a	catFR1	2	R1530J
556.558	0.817	1179621	WORD_OFF	n/a	n/a	MILK	Beverages	5	5	[0, 0, 0]	n/a	catFR1	2	R1530J
557.375	1.6	1180438	WORD	n/a	wordpools/wordpool_categorized_EN.txt	LEMONADE	Beverages	6	5	[0, 0, 0]	n/a	catFR1	2	R1530J
558.975	0.817	1182034	WORD_OFF	n/a	n/a	LEMONADE	Beverages	6	5	[0, 0, 0]	n/a	catFR1	2	R1530J
559.792	1.617	1182851	WORD	n/a	wordpools/wordpool_categorized_EN.txt	SPIDER	Insects	7	5	[0, 0, 0]	n/a	catFR1	2	R1530J
561.409	1.0	1184473	WORD_OFF	n/a	n/a	SPIDER	Insects	7	5	[0, 0, 0]	n/a	catFR1	2	R1530J
562.409	1.6	1185465	WORD	n/a	wordpools/wordpool_categorized_EN.txt	FLY	Insects	8	5	[0, 0, 0]	n/a	catFR1	2	R1530J
564.009	0.767	1187061	WORD_OFF	n/a	n/a	FLY	Insects	8	5	[0, 0, 0]	n/a	catFR1	2	R1530J
564.776	1.616	1187838	WORD	n/a	wordpools/wordpool_categorized_EN.txt	SAW	Tools	9	5	[0, 0, 0]	n/a	catFR1	2	R1530J
566.392	0.834	1189447	WORD_OFF	n/a	n/a	SAW	Tools	9	5	[0, 0, 0]	n/a	catFR1	2	R1530J
567.226	1.6	1190278	WORD	n/a	wordpools/wordpool_categorized_EN.txt	RATCHET	Tools	10	5	[0, 0, 0]	n/a	catFR1	2	R1530J
568.826	0.967	1191886	WORD_OFF	n/a	n/a	RATCHET	Tools	10	5	[0, 0, 0]	n/a	catFR1	2	R1530J
569.793	1.616	1192852	WORD	n/a	wordpools/wordpool_categorized_EN.txt	BEER	Beverages	11	5	[0, 0, 0]	n/a	catFR1	2	R1530J
571.409	0.867	1194460	WORD_OFF	n/a	n/a	BEER	Beverages	11	5	[0, 0, 0]	n/a	catFR1	2	R1530J
572.276	1.617	1195332	WORD	n/a	wordpools/wordpool_categorized_EN.txt	CIDER	Beverages	12	5	[0, 0, 0]	n/a	catFR1	2	R1530J
573.893	0.001	1196951	PROB	0.001	n/a	n/a	n/a	-999	5	[5, 1, 3]	9	catFR1	2	R1530J
573.894	0.0	1196952	START	n/a	n/a	n/a	n/a	-999	5	[-999, -999, -999]	n/a	catFR1	2	R1530J
573.893	0.001	1196954	WORD_OFF	n/a	n/a	CIDER	Beverages	12	5	[0, 0, 0]	n/a	catFR1	2	R1530J
573.894	0.0	1196954	ENCODING_END	n/a	n/a	n/a	n/a	-999	5	[0, 0, 0]	n/a	catFR1	2	R1530J
573.894	2.781	1196954	DISTRACT_START	n/a	n/a	n/a	n/a	-999	5	[0, 0, 0]	n/a	catFR1	2	R1530J
576.675	4.917	1199732	PROB	4.917	n/a	n/a	n/a	-999	5	[2, 8, 4]	14	catFR1	2	R1530J
581.592	3.618	1204649	PROB	3.618	n/a	n/a	n/a	-999	5	[8, 3, 6]	17	catFR1	2	R1530J
585.21	3.783	1208267	PROB	3.783	n/a	n/a	n/a	-999	5	[1, 1, 1]	3	catFR1	2	R1530J
588.993	2.933	1212050	PROB	2.933	n/a	n/a	n/a	-999	5	[2, 7, 2]	11	catFR1	2	R1530J
591.926	4.0	1214983	PROB	4.0	n/a	n/a	n/a	-999	5	[7, 4, 1]	12	catFR1	2	R1530J
595.926	0.0	1218979	DISTRACT_END	n/a	n/a	n/a	n/a	-999	5	[0, 0, 0]	n/a	catFR1	2	R1530J
595.926	1.883	1218982	STOP	n/a	n/a	n/a	n/a	-999	5	[-999, -999, -999]	n/a	catFR1	2	R1530J
597.809	1.012	1220869	REC_START	n/a	n/a	n/a	n/a	-999	5	[0, 0, 0]	n/a	catFR1	2	R1530J
598.821	0.76	1221877	REC_WORD	0.76	n/a	BEER	Beverages	11	5	[0, 0, 0]	n/a	catFR1	2	R1530J
599.581	1.471	1222637	REC_WORD	1.471	n/a	CIDER	Beverages	12	5	[0, 0, 0]	n/a	catFR1	2	R1530J
601.052	3.013	1224108	REC_WORD	3.013	n/a	LEMONADE	Beverages	6	5	[0, 0, 0]	n/a	catFR1	2	R1530J
604.065	9.993	1227121	REC_WORD	9.993	n/a	MILK	Beverages	5	5	[0, 0, 0]	n/a	catFR1	2	R1530J
614.058	0.423	1237114	REC_WORD	0.423	n/a	AXE	Tools	3	5	[0, 0, 0]	n/a	catFR1	2	R1530J
614.481	1.0	1237537	REC_WORD	1.0	n/a	SAW	Tools	9	5	[0, 0, 0]	n/a	catFR1	2	R1530J
615.481	6.553	1238536	REC_WORD_VV	6.553	n/a	<>	n/a	-999	5	[0, 0, 0]	n/a	catFR1	2	R1530J
622.034	5.96	1245089	REC_WORD	5.96	n/a	PLIERS	Tools	4	5	[0, 0, 0]	n/a	catFR1	2	R1530J
627.994	1.349	1251044	REC_END	n/a	n/a	n/a	n/a	-999	5	[0, 0, 0]	n/a	catFR1	2	R1530J
629.343	10.35	1252398	COUNTDOWN_START	n/a	n/a	n/a	n/a	-999	5	[0, 0, 0]	n/a	catFR1	2	R1530J
639.693	0.0	1262747	COUNTDOWN_END	n/a	n/a	n/a	n/a	-999	5	[0, 0, 0]	n/a	catFR1	2	R1530J
639.693	2.033	1262747	ENCODING_START	n/a	n/a	n/a	n/a	-999	6	[0, 0, 0]	n/a	catFR1	2	R1530J
641.726	1.617	1264785	WORD	n/a	wordpools/wordpool_categorized_EN.txt	ELEPHANT	Zoo	1	6	[0, 0, 0]	n/a	catFR1	2	R1530J
643.343	0.818	1266394	WORD_OFF	n/a	n/a	ELEPHANT	Zoo	1	6	[0, 0, 0]	n/a	catFR1	2	R1530J
644.161	1.598	1267211	WORD	n/a	wordpools/wordpool_categorized_EN.txt	BEAR	Zoo	2	6	[0, 0, 0]	n/a	catFR1	2	R1530J
645.759	0.784	1268807	WORD_OFF	n/a	n/a	BEAR	Zoo	2	6	[0, 0, 0]	n/a	catFR1	2	R1530J
646.543	1.6	1269598	WORD	n/a	wordpools/wordpool_categorized_EN.txt	TRUCK	Vehicles	3	6	[0, 0, 0]	n/a	catFR1	2	R1530J
648.143	0.948	1271193	WORD_OFF	n/a	n/a	TRUCK	Vehicles	3	6	[0, 0, 0]	n/a	catFR1	2	R1530J
649.091	1.6	1272145	WORD	n/a	wordpools/wordpool_categorized_EN.txt	MOTORCYCLE	Vehicles	4	6	[0, 0, 0]	n/a	catFR1	2	R1530J
650.691	0.852	1273740	WORD_OFF	n/a	n/a	MOTORCYCLE	Vehicles	4	6	[0, 0, 0]	n/a	catFR1	2	R1530J
651.543	1.616	1274598	WORD	n/a	wordpools/wordpool_categorized_EN.txt	STRAINER	KitchenTools	5	6	[0, 0, 0]	n/a	catFR1	2	R1530J
653.159	1.001	1276206	WORD_OFF	n/a	n/a	STRAINER	KitchenTools	5	6	[0, 0, 0]	n/a	catFR1	2	R1530J
654.16	1.615	1277212	WORD	n/a	wordpools/wordpool_categorized_EN.txt	KNIFE	KitchenTools	6	6	[0, 0, 0]	n/a	catFR1	2	R1530J
655.775	1.001	1278820	WORD_OFF	n/a	n/a	KNIFE	KitchenTools	6	6	[0, 0, 0]	n/a	catFR1	2	R1530J
656.776	1.616	1279826	WORD	n/a	wordpools/wordpool_categorized_EN.txt	MOPED	Vehicles	7	6	[0, 0, 0]	n/a	catFR1	2	R1530J
658.392	0.8	1281448	WORD_OFF	n/a	n/a	MOPED	Vehicles	7	6	[0, 0, 0]	n/a	catFR1	2	R1530J
659.192	1.601	1282239	WORD	n/a	wordpools/wordpool_categorized_EN.txt	TRAIN	Vehicles	8	6	[0, 0, 0]	n/a	catFR1	2	R1530J
660.793	0.766	1283847	WORD_OFF	n/a	n/a	TRAIN	Vehicles	8	6	[0, 0, 0]	n/a	catFR1	2	R1530J
661.559	1.6	1284612	WORD	n/a	wordpools/wordpool_categorized_EN.txt	SPOON	KitchenTools	9	6	[0, 0, 0]	n/a	catFR1	2	R1530J
663.159	0.931	1286207	WORD_OFF	n/a	n/a	SPOON	KitchenTools	9	6	[0, 0, 0]	n/a	catFR1	2	R1530J
664.09	1.602	1287145	WORD	n/a	wordpools/wordpool_categorized_EN.txt	LADLE	KitchenTools	10	6	[0, 0, 0]	n/a	catFR1	2	R1530J
665.692	0.8	1288740	WORD_OFF	n/a	n/a	LADLE	KitchenTools	10	6	[0, 0, 0]	n/a	catFR1	2	R1530J
666.492	1.601	1289545	WORD	n/a	wordpools/wordpool_categorized_EN.txt	ZEBRA	Zoo	11	6	[0, 0, 0]	n/a	catFR1	2	R1530J
668.093	0.933	1291140	WORD_OFF	n/a	n/a	ZEBRA	Zoo	11	6	[0, 0, 0]	n/a	catFR1	2	R1530J
669.026	1.6	1292078	WORD	n/a	wordpools/wordpool_categorized_EN.txt	MONKEY	Zoo	12	6	[0, 0, 0]	n/a	catFR1	2	R1530J
670.626	0.002	1293674	WORD_OFF	n/a	n/a	MONKEY	Zoo	12	6	[0, 0, 0]	n/a	catFR1	2	R1530J
670.628	0.0	1293674	ENCODING_END	n/a	n/a	n/a	n/a	-999	6	[0, 0, 0]	n/a	catFR1	2	R1530J
670.627	0.001	1293680	PROB	0.001	n/a	n/a	n/a	-999	6	[1, 4, 6]	11	catFR1	2	R1530J
670.628	0.0	1293681	START	n/a	n/a	n/a	n/a	-999	6	[-999, -999, -999]	n/a	catFR1	2	R1530J
670.628	2.282	1293687	DISTRACT_START	n/a	n/a	n/a	n/a	-999	6	[0, 0, 0]	n/a	catFR1	2	R1530J
672.91	3.884	1295962	PROB	3.884	n/a	n/a	n/a	-999	6	[6, 7, 3]	17	catFR1	2	R1530J
676.794	4.366	1299846	PROB	4.366	n/a	n/a	n/a	-999	6	[8, 8, 2]	18	catFR1	2	R1530J
681.16	4.583	1304212	PROB	4.583	n/a	n/a	n/a	-999	6	[3, 8, 7]	18	catFR1	2	R1530J
685.743	2.966	1308795	PROB	2.966	n/a	n/a	n/a	-999	6	[8, 4, 5]	17	catFR1	2	R1530J
688.709	2.584	1311761	PROB	2.584	n/a	n/a	n/a	-999	6	[7, 8, 2]	17	catFR1	2	R1530J
691.293	0.0	1314344	STOP	n/a	n/a	n/a	n/a	-999	6	[-999, -999, -999]	n/a	catFR1	2	R1530J
691.293	1.65	1314345	DISTRACT_END	n/a	n/a	n/a	n/a	-999	6	[0, 0, 0]	n/a	catFR1	2	R1530J
692.943	1.148	1315994	REC_START	n/a	n/a	n/a	n/a	-999	6	[0, 0, 0]	n/a	catFR1	2	R1530J
694.091	0.779	1317142	REC_WORD	0.779	n/a	ELEPHANT	Zoo	1	6	[0, 0, 0]	n/a	catFR1	2	R1530J
694.87	1.211	1317921	REC_WORD	1.211	n/a	BEAR	Zoo	2	6	[0, 0, 0]	n/a	catFR1	2	R1530J
696.081	1.289	1319132	REC_WORD	1.289	n/a	ZEBRA	Zoo	11	6	[0, 0, 0]	n/a	catFR1	2	R1530J
697.37	1.232	1320421	REC_WORD	1.232	n/a	MONKEY	Zoo	12	6	[0, 0, 0]	n/a	catFR1	2	R1530J
698.602	1.194	1321653	REC_WORD	1.194	n/a	TRUCK	Vehicles	3	6	[0, 0, 0]	n/a	catFR1	2	R1530J
699.796	3.83	1322847	REC_WORD	3.83	n/a	MOTORCYCLE	Vehicles	4	6	[0, 0, 0]	n/a	catFR1	2	R1530J
703.626	0.85	1326677	REC_WORD	0.85	n/a	ANT	Insects	-999	6	[0, 0, 0]	n/a	catFR1	2	R1530J
704.476	3.017	1327527	REC_WORD	3.017	n/a	MOTH	Insects	-999	6	[0, 0, 0]	n/a	catFR1	2	R1530J
707.493	15.635	1330544	REC_WORD	15.635	n/a	FLY	Insects	-999	6	[0, 0, 0]	n/a	catFR1	2	R1530J
723.128	1.23	1346183	REC_END	n/a	n/a	n/a	n/a	-999	6	[0, 0, 0]	n/a	catFR1	2	R1530J
724.358	10.351	1347402	COUNTDOWN_START	n/a	n/a	n/a	n/a	-999	6	[0, 0, 0]	n/a	catFR1	2	R1530J
734.709	0.0	1357751	COUNTDOWN_END	n/a	n/a	n/a	n/a	-999	6	[0, 0, 0]	n/a	catFR1	2	R1530J
734.709	1.867	1357765	ENCODING_START	n/a	n/a	n/a	n/a	-999	7	[0, 0, 0]	n/a	catFR1	2	R1530J
736.576	1.615	1359628	WORD	n/a	wordpools/wordpool_categorized_EN.txt	SEAGULL	Birds	1	7	[0, 0, 0]	n/a	catFR1	2	R1530J
738.191	0.801	1361237	WORD_OFF	n/a	n/a	SEAGULL	Birds	1	7	[0, 0, 0]	n/a	catFR1	2	R1530J
738.992	1.616	1362041	WORD	n/a	wordpools/wordpool_categorized_EN.txt	SPARROW	Birds	2	7	[0, 0, 0]	n/a	catFR1	2	R1530J
740.608	0.835	1363650	WORD_OFF	n/a	n/a	SPARROW	Birds	2	7	[0, 0, 0]	n/a	catFR1	2	R1530J
741.443	1.599	1364494	WORD	n/a	wordpools/wordpool_categorized_EN.txt	ERASER	OfficeSupplies	3	7	[0, 0, 0]	n/a	catFR1	2	R1530J
743.042	0.951	1366090	WORD_OFF	n/a	n/a	ERASER	OfficeSupplies	3	7	[0, 0, 0]	n/a	catFR1	2	R1530J
743.993	1.616	1367041	WORD	n/a	wordpools/wordpool_categorized_EN.txt	PEN	OfficeSupplies	4	7	[0, 0, 0]	n/a	catFR1	2	R1530J
745.609	0.883	1368663	WORD_OFF	n/a	n/a	PEN	OfficeSupplies	4	7	[0, 0, 0]	n/a	catFR1	2	R1530J
746.492	1.601	1369535	WORD	n/a	wordpools/wordpool_categorized_EN.txt	SPATULA	KitchenTools	5	7	[0, 0, 0]	n/a	catFR1	2	R1530J
748.093	0.799	1371143	WORD_OFF	n/a	n/a	SPATULA	KitchenTools	5	7	[0, 0, 0]	n/a	catFR1	2	R1530J
748.892	1.6	1371934	WORD	n/a	wordpools/wordpool_categorized_EN.txt	PEELER	KitchenTools	6	7	[0, 0, 0]	n/a	catFR1	2	R1530J
750.492	0.95	1373543	WORD_OFF	n/a	n/a	PEELER	KitchenTools	6	7	[0, 0, 0]	n/a	catFR1	2	R1530J
751.442	1.6	1374495	WORD	n/a	wordpools/wordpool_categorized_EN.txt	STAPLER	OfficeSupplies	7	7	[0, 0, 0]	n/a	catFR1	2	R1530J
753.042	0.917	1376090	WORD_OFF	n/a	n/a	STAPLER	OfficeSupplies	7	7	[0, 0, 0]	n/a	catFR1	2	R1530J
753.959	1.6	1377002	WORD	n/a	wordpools/wordpool_categorized_EN.txt	NOTEBOOK	OfficeSupplies	8	7	[0, 0, 0]	n/a	catFR1	2	R1530J
755.559	0.8	1378610	WORD_OFF	n/a	n/a	NOTEBOOK	OfficeSupplies	8	7	[0, 0, 0]	n/a	catFR1	2	R1530J
756.359	1.617	1379401	WORD	n/a	wordpools/wordpool_categorized_EN.txt	FORK	KitchenTools	9	7	[0, 0, 0]	n/a	catFR1	2	R1530J
757.976	0.867	1381023	WORD_OFF	n/a	n/a	FORK	KitchenTools	9	7	[0, 0, 0]	n/a	catFR1	2	R1530J
758.843	1.6	1381894	WORD	n/a	wordpools/wordpool_categorized_EN.txt	GRATER	KitchenTools	10	7	[0, 0, 0]	n/a	catFR1	2	R1530J
760.443	0.933	1383490	WORD_OFF	n/a	n/a	GRATER	KitchenTools	10	7	[0, 0, 0]	n/a	catFR1	2	R1530J
761.376	1.616	1384428	WORD	n/a	wordpools/wordpool_categorized_EN.txt	CROW	Birds	11	7	[0, 0, 0]	n/a	catFR1	2	R1530J
762.992	0.967	1386037	WORD_OFF	n/a	n/a	CROW	Birds	11	7	[0, 0, 0]	n/a	catFR1	2	R1530J
763.959	1.601	1387002	WORD	n/a	wordpools/wordpool_categorized_EN.txt	ROBIN	Birds	12	7	[0, 0, 0]	n/a	catFR1	2	R1530J
765.56	0.001	1388608	PROB	0.001	n/a	n/a	n/a	-999	7	[8, 5, 5]	18	catFR1	2	R1530J
765.561	0.0	1388609	START	n/a	n/a	n/a	n/a	-999	7	[-999, -999, -999]	n/a	catFR1	2	R1530J
765.559	0.002	1388611	WORD_OFF	n/a	n/a	ROBIN	Birds	12	7	[0, 0, 0]	n/a	catFR1	2	R1530J
765.561	0.0	1388611	ENCODING_END	n/a	n/a	n/a	n/a	-999	7	[0, 0, 0]	n/a	catFR1	2	R1530J
765.561	2.998	1388611	DISTRACT_START	n/a	n/a	n/a	n/a	-999	7	[0, 0, 0]	n/a	catFR1	2	R1530J
768.559	4.282	1391606	PROB	4.282	n/a	n/a	n/a	-999	7	[8, 6, 1]	15	catFR1	2	R1530J
772.841	2.684	1395888	PROB	2.684	n/a	n/a	n/a	-999	7	[7, 7, 1]	15	catFR1	2	R1530J
775.525	2.485	1398572	PROB	2.485	n/a	n/a	n/a	-999	7	[4, 8, 2]	14	catFR1	2	R1530J
778.01	3.1	1401057	PROB	3.1	n/a	n/a	n/a	-999	7	[1, 1, 2]	4	catFR1	2	R1530J
781.11	3.783	1404157	PROB	3.783	n/a	n/a	n/a	-999	7	[6, 6, 3]	15	catFR1	2	R1530J
784.893	3.9	1407940	PROB	3.9	n/a	n/a	n/a	-999	7	[7, 8, 6]	21	catFR1	2	R1530J
788.793	0.0	1411839	STOP	n/a	n/a	n/a	n/a	-999	7	[-999, -999, -999]	n/a	catFR1	2	R1530J
788.793	1.766	1411842	DISTRACT_END	n/a	n/a	n/a	n/a	-999	7	[0, 0, 0]	n/a	catFR1	2	R1530J
790.559	0.85	1413598	REC_START	n/a	n/a	n/a	n/a	-999	7	[0, 0, 0]	n/a	catFR1	2	R1530J
791.409	0.96	1414455	REC_WORD	0.96	n/a	SPARROW	Birds	2	7	[0, 0, 0]	n/a	catFR1	2	R1530J
792.369	2.241	1415415	REC_WORD	2.241	n/a	ROBIN	Birds	12	7	[0, 0, 0]	n/a	catFR1	2	R1530J
794.61	1.221	1417656	REC_WORD	1.221	n/a	ERASER	OfficeSupplies	3	7	[0, 0, 0]	n/a	catFR1	2	R1530J
795.831	0.937	1418877	REC_WORD	0.937	n/a	PEN	OfficeSupplies	4	7	[0, 0, 0]	n/a	catFR1	2	R1530J
796.768	1.555	1419814	REC_WORD	1.555	n/a	SPATULA	KitchenTools	5	7	[0, 0, 0]	n/a	catFR1	2	R1530J
798.323	6.701	1421369	REC_WORD	6.701	n/a	NOTEBOOK	OfficeSupplies	8	7	[0, 0, 0]	n/a	catFR1	2	R1530J
805.024	0.884	1428070	REC_WORD	0.884	n/a	SPARROW	Birds	2	7	[0, 0, 0]	n/a	catFR1	2	R1530J
805.908	2.14	1428953	REC_WORD	2.14	n/a	ROBIN	Birds	12	7	[0, 0, 0]	n/a	catFR1	2	R1530J
808.048	1.996	1431093	REC_WORD	1.996	n/a	SPATULA	KitchenTools	5	7	[0, 0, 0]	n/a	catFR1	2	R1530J
810.044	10.705	1433089	REC_WORD	10.705	n/a	SEAGULL	Birds	1	7	[0, 0, 0]	n/a	catFR1	2	R1530J
820.749	1.244	1443787	REC_END	n/a	n/a	n/a	n/a	-999	7	[0, 0, 0]	n/a	catFR1	2	R1530J
821.993	10.348	1445034	COUNTDOWN_START	n/a	n/a	n/a	n/a	-999	7	[0, 0, 0]	n/a	catFR1	2	R1530J
832.341	0.0	1455383	COUNTDOWN_END	n/a	n/a	n/a	n/a	-999	7	[0, 0, 0]	n/a	catFR1	2	R1530J
832.341	2.2	1455383	ENCODING_START	n/a	n/a	n/a	n/a	-999	8	[0, 0, 0]	n/a	catFR1	2	R1530J
834.541	1.616	1457581	WORD	n/a	wordpools/wordpool_categorized_EN.txt	BOAT	Vehicles	1	8	[0, 0, 0]	n/a	catFR1	2	R1530J
836.157	0.933	1459203	WORD_OFF	n/a	n/a	BOAT	Vehicles	1	8	[0, 0, 0]	n/a	catFR1	2	R1530J
837.09	1.6	1460128	WORD	n/a	wordpools/wordpool_categorized_EN.txt	PLANE	Vehicles	2	8	[0, 0, 0]	n/a	catFR1	2	R1530J
838.69	0.9	1461737	WORD_OFF	n/a	n/a	PLANE	Vehicles	2	8	[0, 0, 0]	n/a	catFR1	2	R1530J
839.59	1.602	1462635	WORD	n/a	wordpools/wordpool_categorized_EN.txt	CRICKET	Insects	3	8	[0, 0, 0]	n/a	catFR1	2	R1530J
841.192	0.982	1464230	WORD_OFF	n/a	n/a	CRICKET	Insects	3	8	[0, 0, 0]	n/a	catFR1	2	R1530J
842.174	1.601	1465222	WORD	n/a	wordpools/wordpool_categorized_EN.txt	LADYBUG	Insects	4	8	[0, 0, 0]	n/a	catFR1	2	R1530J
843.775	0.982	1466818	WORD_OFF	n/a	n/a	LADYBUG	Insects	4	8	[0, 0, 0]	n/a	catFR1	2	R1530J
844.757	1.619	1467796	WORD	n/a	wordpools/wordpool_categorized_EN.txt	DRESSER	Furniture	5	8	[0, 0, 0]	n/a	catFR1	2	R1530J
846.376	0.897	1469418	WORD_OFF	n/a	n/a	DRESSER	Furniture	5	8	[0, 0, 0]	n/a	catFR1	2	R1530J
847.273	1.601	1470316	WORD	n/a	wordpools/wordpool_categorized_EN.txt	CABINET	Furniture	6	8	[0, 0, 0]	n/a	catFR1	2	R1530J
848.874	0.768	1471912	WORD_OFF	n/a	n/a	CABINET	Furniture	6	8	[0, 0, 0]	n/a	catFR1	2	R1530J
849.642	1.616	1472689	WORD	n/a	wordpools/wordpool_categorized_EN.txt	ROACH	Insects	7	8	[0, 0, 0]	n/a	catFR1	2	R1530J
851.258	0.851	1474298	WORD_OFF	n/a	n/a	ROACH	Insects	7	8	[0, 0, 0]	n/a	catFR1	2	R1530J
852.109	1.615	1475156	WORD	n/a	wordpools/wordpool_categorized_EN.txt	BUTTERFLY	Insects	8	8	[0, 0, 0]	n/a	catFR1	2	R1530J
853.724	0.967	1476764	WORD_OFF	n/a	n/a	BUTTERFLY	Insects	8	8	[0, 0, 0]	n/a	catFR1	2	R1530J
854.691	1.617	1477730	WORD	n/a	wordpools/wordpool_categorized_EN.txt	BED	Furniture	9	8	[0, 0, 0]	n/a	catFR1	2	R1530J
856.308	0.95	1479352	WORD_OFF	n/a	n/a	BED	Furniture	9	8	[0, 0, 0]	n/a	catFR1	2	R1530J
857.258	1.616	1480304	WORD	n/a	wordpools/wordpool_categorized_EN.txt	NIGHTSTAND	Furniture	10	8	[0, 0, 0]	n/a	catFR1	2	R1530J
858.874	0.8	1481912	WORD_OFF	n/a	n/a	NIGHTSTAND	Furniture	10	8	[0, 0, 0]	n/a	catFR1	2	R1530J
859.674	1.6	1482716	WORD	n/a	wordpools/wordpool_categorized_EN.txt	BUS	Vehicles	11	8	[0, 0, 0]	n/a	catFR1	2	R1530J
861.274	0.9	1484312	WORD_OFF	n/a	n/a	BUS	Vehicles	11	8	[0, 0, 0]	n/a	catFR1	2	R1530J
862.174	1.601	1485210	WORD	n/a	wordpools/wordpool_categorized_EN.txt	SCOOTER	Vehicles	12	8	[0, 0, 0]	n/a	catFR1	2	R1530J
863.775	0.0	1486817	PROB	0.0	n/a	n/a	n/a	-999	8	[4, 6, 2]	12	catFR1	2	R1530J
863.775	0.0	1486817	START	n/a	n/a	n/a	n/a	-999	8	[-999, -999, -999]	n/a	catFR1	2	R1530J
863.774	0.001	1486819	WORD_OFF	n/a	n/a	SCOOTER	Vehicles	12	8	[0, 0, 0]	n/a	catFR1	2	R1530J
863.775	0.0	1486819	ENCODING_END	n/a	n/a	n/a	n/a	-999	8	[0, 0, 0]	n/a	catFR1	2	R1530J
863.775	3.383	1486819	DISTRACT_START	n/a	n/a	n/a	n/a	-999	8	[0, 0, 0]	n/a	catFR1	2	R1530J
867.158	2.75	1490200	PROB	2.75	n/a	n/a	n/a	-999	8	[5, 3, 1]	9	catFR1	2	R1530J
869.908	2.45	1492950	PROB	2.45	n/a	n/a	n/a	-999	8	[5, 5, 2]	12	catFR1	2	R1530J
872.358	5.55	1495400	PROB	5.55	n/a	n/a	n/a	-999	8	[5, 8, 6]	19	catFR1	2	R1530J
877.908	2.817	1500950	PROB	2.817	n/a	n/a	n/a	-999	8	[1, 5, 3]	9	catFR1	2	R1530J
880.725	2.416	1503767	PROB	2.416	n/a	n/a	n/a	-999	8	[3, 3, 3]	9	catFR1	2	R1530J
883.141	2.466	1506182	PROB	2.466	n/a	n/a	n/a	-999	8	[7, 1, 1]	9	catFR1	2	R1530J
885.607	0.0	1508642	DISTRACT_END	n/a	n/a	n/a	n/a	-999	8	[0, 0, 0]	n/a	catFR1	2	R1530J
885.607	1.716	1508648	STOP	n/a	n/a	n/a	n/a	-999	8	[-999, -999, -999]	n/a	catFR1	2	R1530J
887.323	0.959	1510358	REC_START	n/a	n/a	n/a	n/a	-999	8	[0, 0, 0]	n/a	catFR1	2	R1530J
888.282	0.762	1511323	REC_WORD	0.762	n/a	BUS	Vehicles	11	8	[0, 0, 0]	n/a	catFR1	2	R1530J
889.044	2.811	1512085	REC_WORD	2.811	n/a	SCOOTER	Vehicles	12	8	[0, 0, 0]	n/a	catFR1	2	R1530J
891.855	1.431	1514896	REC_WORD	1.431	n/a	BED	Furniture	9	8	[0, 0, 0]	n/a	catFR1	2	R1530J
893.286	24.218	1516327	REC_WORD	24.218	n/a	NIGHTSTAND	Furniture	10	8	[0, 0, 0]	n/a	catFR1	2	R1530J
917.504	1.954	1540547	REC_END	n/a	n/a	n/a	n/a	-999	8	[0, 0, 0]	n/a	catFR1	2	R1530J
919.458	10.35	1542505	COUNTDOWN_START	n/a	n/a	n/a	n/a	-999	8	[0, 0, 0]	n/a	catFR1	2	R1530J
929.808	0.0	1552840	COUNTDOWN_END	n/a	n/a	n/a	n/a	-999	8	[0, 0, 0]	n/a	catFR1	2	R1530J
929.808	2.133	1552854	ENCODING_START	n/a	n/a	n/a	n/a	-999	9	[0, 0, 0]	n/a	catFR1	2	R1530J
931.941	1.617	1554985	WORD	n/a	wordpools/wordpool_categorized_EN.txt	FOLDER	OfficeSupplies	1	9	[0, 0, 0]	n/a	catFR1	2	R1530J
933.558	0.833	1556594	WORD_OFF	n/a	n/a	FOLDER	OfficeSupplies	1	9	[0, 0, 0]	n/a	catFR1	2	R1530J
934.391	1.6	1557425	WORD	n/a	wordpools/wordpool_categorized_EN.txt	BINDER	OfficeSupplies	2	9	[0, 0, 0]	n/a	catFR1	2	R1530J
935.991	0.816	1559033	WORD_OFF	n/a	n/a	BINDER	OfficeSupplies	2	9	[0, 0, 0]	n/a	catFR1	2	R1530J
936.807	1.601	1559851	WORD	n/a	wordpools/wordpool_categorized_EN.txt	GIRAFFE	Zoo	3	9	[0, 0, 0]	n/a	catFR1	2	R1530J
938.408	0.984	1561446	WORD_OFF	n/a	n/a	GIRAFFE	Zoo	3	9	[0, 0, 0]	n/a	catFR1	2	R1530J
939.392	1.615	1562425	WORD	n/a	wordpools/wordpool_categorized_EN.txt	PANDA	Zoo	4	9	[0, 0, 0]	n/a	catFR1	2	R1530J
941.007	0.967	1564047	WORD_OFF	n/a	n/a	PANDA	Zoo	4	9	[0, 0, 0]	n/a	catFR1	2	R1530J
941.974	1.617	1565012	WORD	n/a	wordpools/wordpool_categorized_EN.txt	FOREST	Landscapes	5	9	[0, 0, 0]	n/a	catFR1	2	R1530J
943.591	0.966	1566634	WORD_OFF	n/a	n/a	FOREST	Landscapes	5	9	[0, 0, 0]	n/a	catFR1	2	R1530J
944.557	1.601	1567599	WORD	n/a	wordpools/wordpool_categorized_EN.txt	BEACH	Landscapes	6	9	[0, 0, 0]	n/a	catFR1	2	R1530J
946.158	0.866	1569195	WORD_OFF	n/a	n/a	BEACH	Landscapes	6	9	[0, 0, 0]	n/a	catFR1	2	R1530J
947.024	1.617	1570066	WORD	n/a	wordpools/wordpool_categorized_EN.txt	LION	Zoo	7	9	[0, 0, 0]	n/a	catFR1	2	R1530J
948.641	0.834	1571675	WORD_OFF	n/a	n/a	LION	Zoo	7	9	[0, 0, 0]	n/a	catFR1	2	R1530J
949.475	1.615	1572506	WORD	n/a	wordpools/wordpool_categorized_EN.txt	ORANGUTAN	Zoo	8	9	[0, 0, 0]	n/a	catFR1	2	R1530J
951.09	0.935	1574128	WORD_OFF	n/a	n/a	ORANGUTAN	Zoo	8	9	[0, 0, 0]	n/a	catFR1	2	R1530J
952.025	1.615	1575066	WORD	n/a	wordpools/wordpool_categorized_EN.txt	VALLEY	Landscapes	9	9	[0, 0, 0]	n/a	catFR1	2	R1530J
953.64	0.8	1576675	WORD_OFF	n/a	n/a	VALLEY	Landscapes	9	9	[0, 0, 0]	n/a	catFR1	2	R1530J
954.44	1.601	1577479	WORD	n/a	wordpools/wordpool_categorized_EN.txt	OCEAN	Landscapes	10	9	[0, 0, 0]	n/a	catFR1	2	R1530J
956.041	1.0	1579074	WORD_OFF	n/a	n/a	OCEAN	Landscapes	10	9	[0, 0, 0]	n/a	catFR1	2	R1530J
957.041	1.6	1580080	WORD	n/a	wordpools/wordpool_categorized_EN.txt	PAPER	OfficeSupplies	11	9	[0, 0, 0]	n/a	catFR1	2	R1530J
958.641	0.883	1581675	WORD_OFF	n/a	n/a	PAPER	OfficeSupplies	11	9	[0, 0, 0]	n/a	catFR1	2	R1530J
959.524	1.618	1582560	WORD	n/a	wordpools/wordpool_categorized_EN.txt	MARKER	OfficeSupplies	12	9	[0, 0, 0]	n/a	catFR1	2	R1530J
961.142	0.001	1584179	PROB	0.001	n/a	n/a	n/a	-999	9	[6, 6, 2]	14	catFR1	2	R1530J
961.143	0.0	1584180	START	n/a	n/a	n/a	n/a	-999	9	[-999, -999, -999]	n/a	catFR1	2	R1530J
961.141	0.002	1584182	WORD_OFF	n/a	n/a	MARKER	OfficeSupplies	12	9	[0, 0, 0]	n/a	catFR1	2	R1530J
961.143	0.0	1584182	ENCODING_END	n/a	n/a	n/a	n/a	-999	9	[0, 0, 0]	n/a	catFR1	2	R1530J
961.143	2.999	1584182	DISTRACT_START	n/a	n/a	n/a	n/a	-999	9	[0, 0, 0]	n/a	catFR1	2	R1530J
964.142	2.483	1587179	PROB	2.483	n/a	n/a	n/a	-999	9	[1, 7, 2]	10	catFR1	2	R1530J
966.625	3.1	1589662	PROB	3.1	n/a	n/a	n/a	-999	9	[3, 4, 5]	12	catFR1	2	R1530J
969.725	3.4	1592762	PROB	3.4	n/a	n/a	n/a	-999	9	[6, 3, 5]	14	catFR1	2	R1530J
973.125	5.549	1596162	PROB	5.549	n/a	n/a	n/a	-999	9	[8, 1, 6]	15	catFR1	2	R1530J
978.674	3.183	1601710	PROB	3.183	n/a	n/a	n/a	-999	9	[6, 3, 3]	12	catFR1	2	R1530J
981.857	0.0	1604893	DISTRACT_END	n/a	n/a	n/a	n/a	-999	9	[0, 0, 0]	n/a	catFR1	2	R1530J
981.857	1.784	1604893	STOP	n/a	n/a	n/a	n/a	-999	9	[-999, -999, -999]	n/a	catFR1	2	R1530J
983.641	0.927	1606676	REC_START	n/a	n/a	n/a	n/a	-999	9	[0, 0, 0]	n/a	catFR1	2	R1530J
984.568	0.54	1607604	REC_WORD	0.54	n/a	PAPER	OfficeSupplies	11	9	[0, 0, 0]	n/a	catFR1	2	R1530J
985.108	1.547	1608144	REC_WORD	1.547	n/a	FOLDER	OfficeSupplies	1	9	[0, 0, 0]	n/a	catFR1	2	R1530J
986.655	1.756	1609691	REC_WORD	1.756	n/a	BINDER	OfficeSupplies	2	9	[0, 0, 0]	n/a	catFR1	2	R1530J
988.411	1.0	1611447	REC_WORD	1.0	n/a	BEACH	Landscapes	6	9	[0, 0, 0]	n/a	catFR1	2	R1530J
989.411	2.574	1612447	REC_WORD_VV	2.574	n/a	<>	n/a	-999	9	[0, 0, 0]	n/a	catFR1	2	R1530J
991.985	5.747	1615021	REC_WORD	5.747	n/a	OCEAN	Landscapes	10	9	[0, 0, 0]	n/a	catFR1	2	R1530J
997.732	0.468	1620767	REC_WORD	0.468	n/a	PAPER	OfficeSupplies	11	9	[0, 0, 0]	n/a	catFR1	2	R1530J
998.2	0.779	1621235	REC_WORD	0.779	n/a	FOLDER	OfficeSupplies	1	9	[0, 0, 0]	n/a	catFR1	2	R1530J
998.979	0.818	1622014	REC_WORD	0.818	n/a	BINDER	OfficeSupplies	2	9	[0, 0, 0]	n/a	catFR1	2	R1530J
999.797	0.769	1622832	REC_WORD	0.769	n/a	BEACH	Landscapes	6	9	[0, 0, 0]	n/a	catFR1	2	R1530J
1000.566	2.184	1623601	REC_WORD	2.184	n/a	OCEAN	Landscapes	10	9	[0, 0, 0]	n/a	catFR1	2	R1530J
1002.75	8.119	1625785	REC_WORD	8.119	n/a	GIRAFFE	Zoo	3	9	[0, 0, 0]	n/a	catFR1	2	R1530J
1010.869	2.948	1633904	REC_WORD	2.948	n/a	LION	Zoo	7	9	[0, 0, 0]	n/a	catFR1	2	R1530J
1013.817	1.408	1636852	REC_END	n/a	n/a	n/a	n/a	-999	9	[0, 0, 0]	n/a	catFR1	2	R1530J
1015.225	10.349	1638259	COUNTDOWN_START	n/a	n/a	n/a	n/a	-999	9	[0, 0, 0]	n/a	catFR1	2	R1530J
1025.574	0.0	1648608	COUNTDOWN_END	n/a	n/a	n/a	n/a	-999	9	[0, 0, 0]	n/a	catFR1	2	R1530J
1025.574	2.035	1648608	ENCODING_START	n/a	n/a	n/a	n/a	-999	10	[0, 0, 0]	n/a	catFR1	2	R1530J
1027.609	1.599	1650646	WORD	n/a	wordpools/wordpool_categorized_EN.txt	BOOKCASE	Furniture	1	10	[0, 0, 0]	n/a	catFR1	2	R1530J
1029.208	0.883	1652241	WORD_OFF	n/a	n/a	BOOKCASE	Furniture	1	10	[0, 0, 0]	n/a	catFR1	2	R1530J
1030.091	1.616	1653126	WORD	n/a	wordpools/wordpool_categorized_EN.txt	SHELF	Furniture	2	10	[0, 0, 0]	n/a	catFR1	2	R1530J
1031.707	0.967	1654734	WORD_OFF	n/a	n/a	SHELF	Furniture	2	10	[0, 0, 0]	n/a	catFR1	2	R1530J
1032.674	1.601	1655700	WORD	n/a	wordpools/wordpool_categorized_EN.txt	TELEVISION	Electronics	3	10	[0, 0, 0]	n/a	catFR1	2	R1530J
1034.275	0.784	1657308	WORD_OFF	n/a	n/a	TELEVISION	Electronics	3	10	[0, 0, 0]	n/a	catFR1	2	R1530J
1035.059	1.615	1658086	WORD	n/a	wordpools/wordpool_categorized_EN.txt	COMPUTER	Electronics	4	10	[0, 0, 0]	n/a	catFR1	2	R1530J
1036.674	0.801	1659708	WORD_OFF	n/a	n/a	COMPUTER	Electronics	4	10	[0, 0, 0]	n/a	catFR1	2	R1530J
1037.475	1.615	1660512	WORD	n/a	wordpools/wordpool_categorized_EN.txt	HAWK	Birds	5	10	[0, 0, 0]	n/a	catFR1	2	R1530J
1039.09	0.934	1662121	WORD_OFF	n/a	n/a	HAWK	Birds	5	10	[0, 0, 0]	n/a	catFR1	2	R1530J
1040.024	1.601	1663059	WORD	n/a	wordpools/wordpool_categorized_EN.txt	BLUEBIRD	Birds	6	10	[0, 0, 0]	n/a	catFR1	2	R1530J
1041.625	0.816	1664654	WORD_OFF	n/a	n/a	BLUEBIRD	Birds	6	10	[0, 0, 0]	n/a	catFR1	2	R1530J
1042.441	1.616	1665472	WORD	n/a	wordpools/wordpool_categorized_EN.txt	RECLINER	Furniture	7	10	[0, 0, 0]	n/a	catFR1	2	R1530J
1044.057	0.918	1667094	WORD_OFF	n/a	n/a	RECLINER	Furniture	7	10	[0, 0, 0]	n/a	catFR1	2	R1530J
1044.975	1.617	1668006	WORD	n/a	wordpools/wordpool_categorized_EN.txt	COUCH	Furniture	8	10	[0, 0, 0]	n/a	catFR1	2	R1530J
1046.592	0.948	1669628	WORD_OFF	n/a	n/a	COUCH	Furniture	8	10	[0, 0, 0]	n/a	catFR1	2	R1530J
1047.54	1.601	1670566	WORD	n/a	wordpools/wordpool_categorized_EN.txt	HEADPHONES	Electronics	9	10	[0, 0, 0]	n/a	catFR1	2	R1530J
1049.141	0.916	1672175	WORD_OFF	n/a	n/a	HEADPHONES	Electronics	9	10	[0, 0, 0]	n/a	catFR1	2	R1530J
1050.057	1.601	1673086	WORD	n/a	wordpools/wordpool_categorized_EN.txt	TABLET	Electronics	10	10	[0, 0, 0]	n/a	catFR1	2	R1530J
1051.658	0.884	1674695	WORD_OFF	n/a	n/a	TABLET	Electronics	10	10	[0, 0, 0]	n/a	catFR1	2	R1530J
1052.542	1.616	1675566	WORD	n/a	wordpools/wordpool_categorized_EN.txt	CARDINAL	Birds	11	10	[0, 0, 0]	n/a	catFR1	2	R1530J
1054.158	0.934	1677189	WORD_OFF	n/a	n/a	CARDINAL	Birds	11	10	[0, 0, 0]	n/a	catFR1	2	R1530J
1055.092	1.616	1678127	WORD	n/a	wordpools/wordpool_categorized_EN.txt	DOVE	Birds	12	10	[0, 0, 0]	n/a	catFR1	2	R1530J
1056.708	0.001	1679736	WORD_OFF	n/a	n/a	DOVE	Birds	12	10	[0, 0, 0]	n/a	catFR1	2	R1530J
1056.709	0.0	1679736	ENCODING_END	n/a	n/a	n/a	n/a	-999	10	[0, 0, 0]	n/a	catFR1	2	R1530J
1056.709	0.0	1679741	START	n/a	n/a	n/a	n/a	-999	10	[-999, -999, -999]	n/a	catFR1	2	R1530J
1056.709	0.0	1679741	PROB	0.0	n/a	n/a	n/a	-999	10	[3, 2, 5]	10	catFR1	2	R1530J
1056.709	4.366	1679749	DISTRACT_START	n/a	n/a	n/a	n/a	-999	10	[0, 0, 0]	n/a	catFR1	2	R1530J
1061.075	3.983	1684107	PROB	3.983	n/a	n/a	n/a	-999	10	[2, 4, 4]	10	catFR1	2	R1530J
1065.058	4.599	1688090	PROB	4.599	n/a	n/a	n/a	-999	10	[6, 7, 8]	21	catFR1	2	R1530J
1069.657	3.101	1692689	PROB	3.101	n/a	n/a	n/a	-999	10	[5, 4, 7]	16	catFR1	2	R1530J
1072.758	3.634	1695789	PROB	3.634	n/a	n/a	n/a	-999	10	[6, 5, 6]	17	catFR1	2	R1530J
1076.392	2.849	1699423	PROB	2.849	n/a	n/a	n/a	-999	10	[7, 6, 5]	18	catFR1	2	R1530J
1079.241	0.0	1702270	DISTRACT_END	n/a	n/a	n/a	n/a	-999	10	[0, 0, 0]	n/a	catFR1	2	R1530J
1079.241	1.534	1702272	STOP	n/a	n/a	n/a	n/a	-999	10	[-999, -999, -999]	n/a	catFR1	2	R1530J
1080.775	1.709	1703798	REC_START	n/a	n/a	n/a	n/a	-999	10	[0, 0, 0]	n/a	catFR1	2	R1530J
1082.484	1.697	1705515	REC_WORD	1.697	n/a	RECLINER	Furniture	7	10	[0, 0, 0]	n/a	catFR1	2	R1530J
1084.181	4.06	1707212	REC_WORD	4.06	n/a	COUCH	Furniture	8	10	[0, 0, 0]	n/a	catFR1	2	R1530J
1088.241	0.484	1711272	REC_WORD_VV	0.484	n/a	<>	n/a	-999	10	[0, 0, 0]	n/a	catFR1	2	R1530J
1088.725	0.544	1711756	REC_WORD	0.544	n/a	RECLINER	Furniture	7	10	[0, 0, 0]	n/a	catFR1	2	R1530J
1089.269	0.409	1712300	REC_WORD	0.409	n/a	COUCH	Furniture	8	10	[0, 0, 0]	n/a	catFR1	2	R1530J
1089.678	2.854	1712709	REC_WORD	2.854	n/a	CHAIR	Furniture	-999	10	[0, 0, 0]	n/a	catFR1	2	R1530J
1092.532	0.695	1715562	REC_WORD_VV	0.695	n/a	<>	n/a	-999	10	[0, 0, 0]	n/a	catFR1	2	R1530J
1093.227	0.368	1716257	REC_WORD	0.368	n/a	COUCH	Furniture	8	10	[0, 0, 0]	n/a	catFR1	2	R1530J
1093.595	0.571	1716625	REC_WORD	0.571	n/a	CHAIR	Furniture	-999	10	[0, 0, 0]	n/a	catFR1	2	R1530J
1094.166	2.046	1717196	REC_WORD	2.046	n/a	RECLINER	Furniture	7	10	[0, 0, 0]	n/a	catFR1	2	R1530J
1096.212	1.914	1719242	REC_WORD	1.914	n/a	BEACH	Landscapes	-999	10	[0, 0, 0]	n/a	catFR1	2	R1530J
1098.126	2.588	1721156	REC_WORD	2.588	n/a	OCEAN	Landscapes	-999	10	[0, 0, 0]	n/a	catFR1	2	R1530J
1100.714	3.967	1723744	REC_WORD	3.967	n/a	MOUNTAIN	Landscapes	-999	10	[0, 0, 0]	n/a	catFR1	2	R1530J
1104.681	0.944	1727711	REC_WORD_VV	0.944	n/a	<>	n/a	-999	10	[0, 0, 0]	n/a	catFR1	2	R1530J
1105.625	5.336	1728655	REC_WORD	5.336	n/a	BLUEBIRD	Birds	6	10	[0, 0, 0]	n/a	catFR1	2	R1530J
1110.961	1.6	1733987	REC_END	n/a	n/a	n/a	n/a	-999	10	[0, 0, 0]	n/a	catFR1	2	R1530J
1112.561	10.349	1735596	COUNTDOWN_START	n/a	n/a	n/a	n/a	-999	10	[0, 0, 0]	n/a	catFR1	2	R1530J
1122.91	0.0	1745931	COUNTDOWN_END	n/a	n/a	n/a	n/a	-999	10	[0, 0, 0]	n/a	catFR1	2	R1530J
1122.91	1.866	1745945	ENCODING_START	n/a	n/a	n/a	n/a	-999	11	[0, 0, 0]	n/a	catFR1	2	R1530J
1124.776	1.616	1747808	WORD	n/a	wordpools/wordpool_categorized_EN.txt	CELERY	Vegetables	1	11	[0, 0, 0]	n/a	catFR1	2	R1530J
1126.392	0.834	1749417	WORD_OFF	n/a	n/a	CELERY	Vegetables	1	11	[0, 0, 0]	n/a	catFR1	2	R1530J
1127.226	1.614	1750248	WORD	n/a	wordpools/wordpool_categorized_EN.txt	SPINACH	Vegetables	2	11	[0, 0, 0]	n/a	catFR1	2	R1530J
1128.84	1.003	1751870	WORD_OFF	n/a	n/a	SPINACH	Vegetables	2	11	[0, 0, 0]	n/a	catFR1	2	R1530J
1129.843	1.599	1752875	WORD	n/a	wordpools/wordpool_categorized_EN.txt	DRILL	Tools	3	11	[0, 0, 0]	n/a	catFR1	2	R1530J
1131.442	0.999	1754471	WORD_OFF	n/a	n/a	DRILL	Tools	3	11	[0, 0, 0]	n/a	catFR1	2	R1530J
1132.441	1.601	1755463	WORD	n/a	wordpools/wordpool_categorized_EN.txt	WRENCH	Tools	4	11	[0, 0, 0]	n/a	catFR1	2	R1530J
1134.042	0.984	1757071	WORD_OFF	n/a	n/a	WRENCH	Tools	4	11	[0, 0, 0]	n/a	catFR1	2	R1530J
1135.026	1.6	1758050	WORD	n/a	wordpools/wordpool_categorized_EN.txt	TIGER	Zoo	5	11	[0, 0, 0]	n/a	catFR1	2	R1530J
1136.626	0.764	1759658	WORD_OFF	n/a	n/a	TIGER	Zoo	5	11	[0, 0, 0]	n/a	catFR1	2	R1530J
1137.39	1.602	1760423	WORD	n/a	wordpools/wordpool_categorized_EN.txt	CHEETAH	Zoo	6	11	[0, 0, 0]	n/a	catFR1	2	R1530J
1138.992	1.0	1762018	WORD_OFF	n/a	n/a	CHEETAH	Zoo	6	11	[0, 0, 0]	n/a	catFR1	2	R1530J
1139.992	1.6	1763023	WORD	n/a	wordpools/wordpool_categorized_EN.txt	SHOVEL	Tools	7	11	[0, 0, 0]	n/a	catFR1	2	R1530J
1141.592	0.783	1764618	WORD_OFF	n/a	n/a	SHOVEL	Tools	7	11	[0, 0, 0]	n/a	catFR1	2	R1530J
1142.375	1.601	1765396	WORD	n/a	wordpools/wordpool_categorized_EN.txt	LEVEL	Tools	8	11	[0, 0, 0]	n/a	catFR1	2	R1530J
1143.976	0.766	1767005	WORD_OFF	n/a	n/a	LEVEL	Tools	8	11	[0, 0, 0]	n/a	catFR1	2	R1530J
1144.742	1.617	1767769	WORD	n/a	wordpools/wordpool_categorized_EN.txt	GORILLA	Zoo	9	11	[0, 0, 0]	n/a	catFR1	2	R1530J
1146.359	0.917	1769391	WORD_OFF	n/a	n/a	GORILLA	Zoo	9	11	[0, 0, 0]	n/a	catFR1	2	R1530J
1147.276	1.617	1770302	WORD	n/a	wordpools/wordpool_categorized_EN.txt	CHIMPANZEE	Zoo	10	11	[0, 0, 0]	n/a	catFR1	2	R1530J
1148.893	0.898	1771924	WORD_OFF	n/a	n/a	CHIMPANZEE	Zoo	10	11	[0, 0, 0]	n/a	catFR1	2	R1530J
1149.791	1.601	1772823	WORD	n/a	wordpools/wordpool_categorized_EN.txt	LETTUCE	Vegetables	11	11	[0, 0, 0]	n/a	catFR1	2	R1530J
1151.392	0.884	1774418	WORD_OFF	n/a	n/a	LETTUCE	Vegetables	11	11	[0, 0, 0]	n/a	catFR1	2	R1530J
1152.276	1.616	1775303	WORD	n/a	wordpools/wordpool_categorized_EN.txt	CABBAGE	Vegetables	12	11	[0, 0, 0]	n/a	catFR1	2	R1530J
1153.892	0.0	1776911	WORD_OFF	n/a	n/a	CABBAGE	Vegetables	12	11	[0, 0, 0]	n/a	catFR1	2	R1530J
1153.892	0.001	1776919	PROB	0.001	n/a	n/a	n/a	-999	11	[3, 6, 8]	17	catFR1	2	R1530J
1153.893	0.0	1776920	START	n/a	n/a	n/a	n/a	-999	11	[-999, -999, -999]	n/a	catFR1	2	R1530J
1153.893	0.0	1776925	ENCODING_END	n/a	n/a	n/a	n/a	-999	11	[0, 0, 0]	n/a	catFR1	2	R1530J
1153.893	3.833	1776925	DISTRACT_START	n/a	n/a	n/a	n/a	-999	11	[0, 0, 0]	n/a	catFR1	2	R1530J
1157.726	4.151	1780753	PROB	4.151	n/a	n/a	n/a	-999	11	[5, 8, 1]	14	catFR1	2	R1530J
1161.877	2.617	1784904	PROB	2.617	n/a	n/a	n/a	-999	11	[1, 5, 2]	8	catFR1	2	R1530J
1164.494	2.582	1787521	PROB	2.582	n/a	n/a	n/a	-999	11	[1, 6, 6]	13	catFR1	2	R1530J
1167.076	2.349	1790103	PROB	2.349	n/a	n/a	n/a	-999	11	[2, 1, 1]	4	catFR1	2	R1530J
1169.425	3.501	1792451	PROB	3.501	n/a	n/a	n/a	-999	11	[5, 7, 6]	18	catFR1	2	R1530J
1172.926	3.7	1795952	PROB	3.7	n/a	n/a	n/a	-999	11	[5, 3, 6]	14	catFR1	2	R1530J
1176.626	0.0	1799647	DISTRACT_END	n/a	n/a	n/a	n/a	-999	11	[0, 0, 0]	n/a	catFR1	2	R1530J
1176.626	1.75	1799652	STOP	n/a	n/a	n/a	n/a	-999	11	[-999, -999, -999]	n/a	catFR1	2	R1530J
1178.376	0.729	1801403	REC_START	n/a	n/a	n/a	n/a	-999	11	[0, 0, 0]	n/a	catFR1	2	R1530J
1179.105	0.783	1802131	REC_WORD	0.783	n/a	LETTUCE	Vegetables	11	11	[0, 0, 0]	n/a	catFR1	2	R1530J
1179.888	0.961	1802914	REC_WORD	0.961	n/a	CABBAGE	Vegetables	12	11	[0, 0, 0]	n/a	catFR1	2	R1530J
1180.849	2.167	1803875	REC_WORD	2.167	n/a	CELERY	Vegetables	1	11	[0, 0, 0]	n/a	catFR1	2	R1530J
1183.016	1.801	1806042	REC_WORD	1.801	n/a	TIGER	Zoo	5	11	[0, 0, 0]	n/a	catFR1	2	R1530J
1184.817	0.545	1807843	REC_WORD	0.545	n/a	LETTUCE	Vegetables	11	11	[0, 0, 0]	n/a	catFR1	2	R1530J
1185.362	0.581	1808388	REC_WORD	0.581	n/a	CELERY	Vegetables	1	11	[0, 0, 0]	n/a	catFR1	2	R1530J
1185.943	2.0	1808969	REC_WORD	2.0	n/a	TIGER	Zoo	5	11	[0, 0, 0]	n/a	catFR1	2	R1530J
1187.943	4.727	1810968	REC_WORD_VV	4.727	n/a	<>	n/a	-999	11	[0, 0, 0]	n/a	catFR1	2	R1530J
1192.67	8.956	1815695	REC_WORD	8.956	n/a	TIGER	Zoo	5	11	[0, 0, 0]	n/a	catFR1	2	R1530J
1201.626	1.051	1824651	REC_WORD	1.051	n/a	CHIMPANZEE	Zoo	10	11	[0, 0, 0]	n/a	catFR1	2	R1530J
1202.677	5.89	1825702	REC_WORD	5.89	n/a	GORILLA	Zoo	9	11	[0, 0, 0]	n/a	catFR1	2	R1530J
1208.567	2.824	1831592	REC_END	n/a	n/a	n/a	n/a	-999	11	[0, 0, 0]	n/a	catFR1	2	R1530J
1211.391	10.349	1834420	COUNTDOWN_START	n/a	n/a	n/a	n/a	-999	11	[0, 0, 0]	n/a	catFR1	2	R1530J
1221.74	0.0	1844769	COUNTDOWN_END	n/a	n/a	n/a	n/a	-999	11	[0, 0, 0]	n/a	catFR1	2	R1530J
1221.74	2.185	1844769	ENCODING_START	n/a	n/a	n/a	n/a	-999	12	[0, 0, 0]	n/a	catFR1	2	R1530J
1223.925	1.616	1846941	WORD	n/a	wordpools/wordpool_categorized_EN.txt	FREEZER	Appliances	1	12	[0, 0, 0]	n/a	catFR1	2	R1530J
1225.541	0.817	1848563	WORD_OFF	n/a	n/a	FREEZER	Appliances	1	12	[0, 0, 0]	n/a	catFR1	2	R1530J
1226.358	1.616	1849381	WORD	n/a	wordpools/wordpool_categorized_EN.txt	TOASTER	Appliances	2	12	[0, 0, 0]	n/a	catFR1	2	R1530J
1227.974	0.851	1851003	WORD_OFF	n/a	n/a	TOASTER	Appliances	2	12	[0, 0, 0]	n/a	catFR1	2	R1530J
1228.825	1.615	1851847	WORD	n/a	wordpools/wordpool_categorized_EN.txt	CREEK	Landscapes	3	12	[0, 0, 0]	n/a	catFR1	2	R1530J
1230.44	1.001	1853469	WORD_OFF	n/a	n/a	CREEK	Landscapes	3	12	[0, 0, 0]	n/a	catFR1	2	R1530J
1231.441	1.6	1854461	WORD	n/a	wordpools/wordpool_categorized_EN.txt	STREAM	Landscapes	4	12	[0, 0, 0]	n/a	catFR1	2	R1530J
1233.041	0.782	1856057	WORD_OFF	n/a	n/a	STREAM	Landscapes	4	12	[0, 0, 0]	n/a	catFR1	2	R1530J
1233.823	1.601	1856848	WORD	n/a	wordpools/wordpool_categorized_EN.txt	PIGEON	Birds	5	12	[0, 0, 0]	n/a	catFR1	2	R1530J
1235.424	0.95	1858443	WORD_OFF	n/a	n/a	PIGEON	Birds	5	12	[0, 0, 0]	n/a	catFR1	2	R1530J
1236.374	1.616	1859395	WORD	n/a	wordpools/wordpool_categorized_EN.txt	FINCH	Birds	6	12	[0, 0, 0]	n/a	catFR1	2	R1530J
1237.99	0.785	1861017	WORD_OFF	n/a	n/a	FINCH	Birds	6	12	[0, 0, 0]	n/a	catFR1	2	R1530J
1238.775	1.6	1861794	WORD	n/a	wordpools/wordpool_categorized_EN.txt	REFRIGERATOR	Appliances	7	12	[0, 0, 0]	n/a	catFR1	2	R1530J
1240.375	0.782	1863403	WORD_OFF	n/a	n/a	REFRIGERATOR	Appliances	7	12	[0, 0, 0]	n/a	catFR1	2	R1530J
1241.157	1.618	1864180	WORD	n/a	wordpools/wordpool_categorized_EN.txt	VACUUM	Appliances	8	12	[0, 0, 0]	n/a	catFR1	2	R1530J
1242.775	0.815	1865802	WORD_OFF	n/a	n/a	VACUUM	Appliances	8	12	[0, 0, 0]	n/a	catFR1	2	R1530J
1243.59	1.602	1866607	WORD	n/a	wordpools/wordpool_categorized_EN.txt	DUCK	Birds	9	12	[0, 0, 0]	n/a	catFR1	2	R1530J
1245.192	1.0	1868215	WORD_OFF	n/a	n/a	DUCK	Birds	9	12	[0, 0, 0]	n/a	catFR1	2	R1530J
1246.192	1.616	1869207	WORD	n/a	wordpools/wordpool_categorized_EN.txt	GOOSE	Birds	10	12	[0, 0, 0]	n/a	catFR1	2	R1530J
1247.808	0.95	1870829	WORD_OFF	n/a	n/a	GOOSE	Birds	10	12	[0, 0, 0]	n/a	catFR1	2	R1530J
1248.758	1.616	1871781	WORD	n/a	wordpools/wordpool_categorized_EN.txt	HILLS	Landscapes	11	12	[0, 0, 0]	n/a	catFR1	2	R1530J
1250.374	0.802	1873390	WORD_OFF	n/a	n/a	HILLS	Landscapes	11	12	[0, 0, 0]	n/a	catFR1	2	R1530J
1251.176	1.614	1874194	WORD	n/a	wordpools/wordpool_categorized_EN.txt	ISLAND	Landscapes	12	12	[0, 0, 0]	n/a	catFR1	2	R1530J
1252.79	0.001	1875812	PROB	0.001	n/a	n/a	n/a	-999	12	[5, 5, 1]	11	catFR1	2	R1530J
1252.791	0.0	1875813	START	n/a	n/a	n/a	n/a	-999	12	[-999, -999, -999]	n/a	catFR1	2	R1530J
1252.79	0.001	1875816	WORD_OFF	n/a	n/a	ISLAND	Landscapes	12	12	[0, 0, 0]	n/a	catFR1	2	R1530J
1252.791	0.0	1875816	ENCODING_END	n/a	n/a	n/a	n/a	-999	12	[0, 0, 0]	n/a	catFR1	2	R1530J
1252.791	4.15	1875816	DISTRACT_START	n/a	n/a	n/a	n/a	-999	12	[0, 0, 0]	n/a	catFR1	2	R1530J
1256.941	4.45	1879963	PROB	4.45	n/a	n/a	n/a	-999	12	[4, 3, 3]	10	catFR1	2	R1530J
1261.391	4.701	1884413	PROB	4.701	n/a	n/a	n/a	-999	12	[8, 6, 5]	19	catFR1	2	R1530J
1266.092	5.299	1889113	PROB	5.299	n/a	n/a	n/a	-999	12	[7, 8, 7]	24	catFR1	2	R1530J
1271.391	3.45	1894412	PROB	3.45	n/a	n/a	n/a	-999	12	[7, 1, 7]	15	catFR1	2	R1530J
1274.841	0.0	1897855	DISTRACT_END	n/a	n/a	n/a	n/a	-999	12	[0, 0, 0]	n/a	catFR1	2	R1530J
1274.841	1.633	1897862	STOP	n/a	n/a	n/a	n/a	-999	12	[-999, -999, -999]	n/a	catFR1	2	R1530J
1276.474	6.557	1899490	REC_START	n/a	n/a	n/a	n/a	-999	12	[0, 0, 0]	n/a	catFR1	2	R1530J
1283.031	4.306	1906051	REC_WORD	4.306	n/a	HILLS	Landscapes	11	12	[0, 0, 0]	n/a	catFR1	2	R1530J
1287.337	1.211	1910357	REC_WORD_VV	1.211	n/a	<>	n/a	-999	12	[0, 0, 0]	n/a	catFR1	2	R1530J
1288.548	1.0	1911568	REC_WORD	1.0	n/a	HILLS	Landscapes	11	12	[0, 0, 0]	n/a	catFR1	2	R1530J
1289.548	5.021	1912568	REC_WORD_VV	5.021	n/a	<>	n/a	-999	12	[0, 0, 0]	n/a	catFR1	2	R1530J
1294.569	5.73	1917589	REC_WORD	5.73	n/a	DUCK	Birds	9	12	[0, 0, 0]	n/a	catFR1	2	R1530J
1300.299	3.298	1923319	REC_WORD_VV	3.298	n/a	<>	n/a	-999	12	[0, 0, 0]	n/a	catFR1	2	R1530J
1303.597	1.086	1926616	REC_WORD	1.086	n/a	HILLS	Landscapes	11	12	[0, 0, 0]	n/a	catFR1	2	R1530J
1304.683	1.965	1927702	REC_WORD	1.965	n/a	DUCK	Birds	9	12	[0, 0, 0]	n/a	catFR1	2	R1530J
1306.648	0.0	1929666	REC_END	n/a	n/a	n/a	n/a	-999	12	[0, 0, 0]	n/a	catFR1	2	R1530J
