onset	duration	sample	trial_type	response_time	stim_file	item_name	category	serialpos	list	test	answer	experiment	session	subject
0.0	164.915	10008	INSTRUCT_START	n/a	n/a	n/a	n/a	-999	-999	[0, 0, 0]	n/a	catFR1	0	R1487T
164.915	80.017	174910	INSTRUCT_END	n/a	n/a	n/a	n/a	-999	-999	[0, 0, 0]	n/a	catFR1	0	R1487T
244.932	10.35	254926	COUNTDOWN_START	n/a	n/a	n/a	n/a	-999	-999	[0, 0, 0]	n/a	catFR1	0	R1487T
255.282	0.0	265271	COUNTDOWN_END	n/a	n/a	n/a	n/a	-999	-999	[0, 0, 0]	n/a	catFR1	0	R1487T
255.282	2.033	265271	ENCODING_START	n/a	n/a	n/a	n/a	-999	-1	[0, 0, 0]	n/a	catFR1	0	R1487T
257.315	1.601	267308	WORD	n/a	n/a	KNEE	BodyParts	1	-1	[0, 0, 0]	n/a	catFR1	0	R1487T
258.916	0.949	268902	WORD_OFF	n/a	n/a	KNEE	BodyParts	1	-1	[0, 0, 0]	n/a	catFR1	0	R1487T
259.865	1.6	269859	WORD	n/a	n/a	LEG	BodyParts	2	-1	[0, 0, 0]	n/a	catFR1	0	R1487T
261.465	0.833	271453	WORD_OFF	n/a	n/a	LEG	BodyParts	2	-1	[0, 0, 0]	n/a	catFR1	0	R1487T
262.298	1.601	272286	WORD	n/a	n/a	BASS	Instruments	3	-1	[0, 0, 0]	n/a	catFR1	0	R1487T
263.899	0.783	273889	WORD_OFF	n/a	n/a	BASS	Instruments	3	-1	[0, 0, 0]	n/a	catFR1	0	R1487T
264.682	1.6	274668	WORD	n/a	n/a	ORGAN	Instruments	4	-1	[0, 0, 0]	n/a	catFR1	0	R1487T
266.282	0.799	276271	WORD_OFF	n/a	n/a	ORGAN	Instruments	4	-1	[0, 0, 0]	n/a	catFR1	0	R1487T
267.081	1.618	277069	WORD	n/a	n/a	PAPER	OfficeSupplies	5	-1	[0, 0, 0]	n/a	catFR1	0	R1487T
268.699	0.866	278689	WORD_OFF	n/a	n/a	PAPER	OfficeSupplies	5	-1	[0, 0, 0]	n/a	catFR1	0	R1487T
269.565	1.602	279557	WORD	n/a	n/a	ERASER	OfficeSupplies	6	-1	[0, 0, 0]	n/a	catFR1	0	R1487T
271.167	0.999	281161	WORD_OFF	n/a	n/a	ERASER	OfficeSupplies	6	-1	[0, 0, 0]	n/a	catFR1	0	R1487T
272.166	1.599	282153	WORD	n/a	n/a	FLUTE	Instruments	7	-1	[0, 0, 0]	n/a	catFR1	0	R1487T
273.765	0.833	283756	WORD_OFF	n/a	n/a	FLUTE	Instruments	7	-1	[0, 0, 0]	n/a	catFR1	0	R1487T
274.598	1.617	284588	WORD	n/a	n/a	DRUM	Instruments	8	-1	[0, 0, 0]	n/a	catFR1	0	R1487T
276.215	0.85	286209	WORD_OFF	n/a	n/a	DRUM	Instruments	8	-1	[0, 0, 0]	n/a	catFR1	0	R1487T
277.065	1.601	287051	WORD	n/a	n/a	FOOT	BodyParts	9	-1	[0, 0, 0]	n/a	catFR1	0	R1487T
278.666	0.766	288654	WORD_OFF	n/a	n/a	FOOT	BodyParts	9	-1	[0, 0, 0]	n/a	catFR1	0	R1487T
279.432	1.617	289424	WORD	n/a	n/a	HEAD	BodyParts	10	-1	[0, 0, 0]	n/a	catFR1	0	R1487T
281.049	0.999	291036	WORD_OFF	n/a	n/a	HEAD	BodyParts	10	-1	[0, 0, 0]	n/a	catFR1	0	R1487T
282.048	1.601	292037	WORD	n/a	n/a	STAPLER	OfficeSupplies	11	-1	[0, 0, 0]	n/a	catFR1	0	R1487T
283.649	0.817	293640	WORD_OFF	n/a	n/a	STAPLER	OfficeSupplies	11	-1	[0, 0, 0]	n/a	catFR1	0	R1487T
284.466	1.6	294455	WORD	n/a	n/a	NOTEBOOK	OfficeSupplies	12	-1	[0, 0, 0]	n/a	catFR1	0	R1487T
286.066	0.001	296058	WORD_OFF	n/a	n/a	NOTEBOOK	OfficeSupplies	12	-1	[0, 0, 0]	n/a	catFR1	0	R1487T
286.067	0.0	296058	ENCODING_END	n/a	n/a	n/a	n/a	-999	-1	[0, 0, 0]	n/a	catFR1	0	R1487T
286.067	0.0	296058	DISTRACT_START	n/a	n/a	n/a	n/a	-999	-1	[0, 0, 0]	n/a	catFR1	0	R1487T
286.067	0.0	296062	START	n/a	n/a	n/a	n/a	-999	-1	[-999, -999, -999]	n/a	catFR1	0	R1487T
286.067	9.733	296062	PROB	9.733	n/a	n/a	n/a	-999	-1	[4, 1, 7]	12	catFR1	0	R1487T
295.8	6.832	305795	PROB	6.832	n/a	n/a	n/a	-999	-1	[8, 4, 8]	20	catFR1	0	R1487T
302.632	4.884	312627	PROB	4.884	n/a	n/a	n/a	-999	-1	[8, 4, 6]	18	catFR1	0	R1487T
307.516	0.0	317501	DISTRACT_END	n/a	n/a	n/a	n/a	-999	-1	[0, 0, 0]	n/a	catFR1	0	R1487T
307.516	1.299	317510	STOP	n/a	n/a	n/a	n/a	-999	-1	[-999, -999, -999]	n/a	catFR1	0	R1487T
308.815	2.28	318803	REC_START	n/a	n/a	n/a	n/a	-999	-1	[0, 0, 0]	n/a	catFR1	0	R1487T
311.095	3.353	321089	REC_WORD_VV	3.353	n/a	<>	n/a	-999	-1	[0, 0, 0]	n/a	catFR1	0	R1487T
314.448	1.155	324442	REC_WORD_VV	1.155	n/a	<>	n/a	-999	-1	[0, 0, 0]	n/a	catFR1	0	R1487T
315.603	0.398	325597	REC_WORD	0.398	n/a	LOOP	n/a	-999	-1	[0, 0, 0]	n/a	catFR1	0	R1487T
316.001	0.47	325995	REC_WORD	0.47	n/a	HEAD	BodyParts	10	-1	[0, 0, 0]	n/a	catFR1	0	R1487T
316.471	0.579	326465	REC_WORD	0.579	n/a	FOOT	BodyParts	9	-1	[0, 0, 0]	n/a	catFR1	0	R1487T
317.05	2.837	327044	REC_WORD	2.837	n/a	KNEE	BodyParts	1	-1	[0, 0, 0]	n/a	catFR1	0	R1487T
319.887	1.0	329881	REC_WORD_VV	1.0	n/a	<>	n/a	-999	-1	[0, 0, 0]	n/a	catFR1	0	R1487T
320.887	1.102	330881	REC_WORD_VV	1.102	n/a	<>	n/a	-999	-1	[0, 0, 0]	n/a	catFR1	0	R1487T
321.989	1.0	331983	REC_WORD	1.0	n/a	STAPLER	OfficeSupplies	11	-1	[0, 0, 0]	n/a	catFR1	0	R1487T
322.989	2.925	332983	REC_WORD	2.925	n/a	STAPLER	OfficeSupplies	11	-1	[0, 0, 0]	n/a	catFR1	0	R1487T
325.914	1.0	335907	REC_WORD_VV	1.0	n/a	<>	n/a	-999	-1	[0, 0, 0]	n/a	catFR1	0	R1487T
326.914	1.0	336907	REC_WORD_VV	1.0	n/a	<>	n/a	-999	-1	[0, 0, 0]	n/a	catFR1	0	R1487T
327.914	1.0	337907	REC_WORD_VV	1.0	n/a	<>	n/a	-999	-1	[0, 0, 0]	n/a	catFR1	0	R1487T
328.914	1.0	338907	REC_WORD_VV	1.0	n/a	<>	n/a	-999	-1	[0, 0, 0]	n/a	catFR1	0	R1487T
329.914	1.0	339907	REC_WORD_VV	1.0	n/a	<>	n/a	-999	-1	[0, 0, 0]	n/a	catFR1	0	R1487T
330.914	4.878	340907	REC_WORD_VV	4.878	n/a	<>	n/a	-999	-1	[0, 0, 0]	n/a	catFR1	0	R1487T
335.792	1.0	345785	REC_WORD_VV	1.0	n/a	<>	n/a	-999	-1	[0, 0, 0]	n/a	catFR1	0	R1487T
336.792	0.633	346785	REC_WORD_VV	0.633	n/a	<>	n/a	-999	-1	[0, 0, 0]	n/a	catFR1	0	R1487T
337.425	2.599	347418	REC_WORD	2.599	n/a	HEAD	BodyParts	10	-1	[0, 0, 0]	n/a	catFR1	0	R1487T
340.024	62.808	350007	REC_END	n/a	n/a	n/a	n/a	-999	-1	[0, 0, 0]	n/a	catFR1	0	R1487T
402.832	10.349	412813	COUNTDOWN_START	n/a	n/a	n/a	n/a	-999	1	[0, 0, 0]	n/a	catFR1	0	R1487T
413.181	0.0	423167	COUNTDOWN_END	n/a	n/a	n/a	n/a	-999	1	[0, 0, 0]	n/a	catFR1	0	R1487T
413.181	2.3	423167	ENCODING_START	n/a	n/a	n/a	n/a	-999	1	[0, 0, 0]	n/a	catFR1	0	R1487T
415.481	1.601	425461	WORD	n/a	wordpools/wordpool_categorized_EN.txt	WASHER	Appliances	1	1	[0, 0, 0]	n/a	catFR1	0	R1487T
417.082	0.85	427064	WORD_OFF	n/a	n/a	WASHER	Appliances	1	1	[0, 0, 0]	n/a	catFR1	0	R1487T
417.932	1.617	427914	WORD	n/a	wordpools/wordpool_categorized_EN.txt	DRYER	Appliances	2	1	[0, 0, 0]	n/a	catFR1	0	R1487T
419.549	0.95	429526	WORD_OFF	n/a	n/a	DRYER	Appliances	2	1	[0, 0, 0]	n/a	catFR1	0	R1487T
420.499	1.617	430483	WORD	n/a	wordpools/wordpool_categorized_EN.txt	STEREO	Electronics	3	1	[0, 0, 0]	n/a	catFR1	0	R1487T
422.116	0.783	432095	WORD_OFF	n/a	n/a	STEREO	Electronics	3	1	[0, 0, 0]	n/a	catFR1	0	R1487T
422.899	1.616	432883	WORD	n/a	wordpools/wordpool_categorized_EN.txt	RADIO	Electronics	4	1	[0, 0, 0]	n/a	catFR1	0	R1487T
424.515	0.917	434495	WORD_OFF	n/a	n/a	RADIO	Electronics	4	1	[0, 0, 0]	n/a	catFR1	0	R1487T
425.432	1.617	435416	WORD	n/a	wordpools/wordpool_categorized_EN.txt	MOSQUITO	Insects	5	1	[0, 0, 0]	n/a	catFR1	0	R1487T
427.049	0.983	437028	WORD_OFF	n/a	n/a	MOSQUITO	Insects	5	1	[0, 0, 0]	n/a	catFR1	0	R1487T
428.032	1.6	438012	WORD	n/a	wordpools/wordpool_categorized_EN.txt	SPIDER	Insects	6	1	[0, 0, 0]	n/a	catFR1	0	R1487T
429.632	0.967	439615	WORD_OFF	n/a	n/a	SPIDER	Insects	6	1	[0, 0, 0]	n/a	catFR1	0	R1487T
430.599	1.616	440580	WORD	n/a	wordpools/wordpool_categorized_EN.txt	FREEZER	Appliances	7	1	[0, 0, 0]	n/a	catFR1	0	R1487T
432.215	0.767	442201	WORD_OFF	n/a	n/a	FREEZER	Appliances	7	1	[0, 0, 0]	n/a	catFR1	0	R1487T
432.982	1.616	442963	WORD	n/a	wordpools/wordpool_categorized_EN.txt	REFRIGERATOR	Appliances	8	1	[0, 0, 0]	n/a	catFR1	0	R1487T
434.598	1.0	444575	WORD_OFF	n/a	n/a	REFRIGERATOR	Appliances	8	1	[0, 0, 0]	n/a	catFR1	0	R1487T
435.598	1.601	445576	WORD	n/a	wordpools/wordpool_categorized_EN.txt	BEE	Insects	9	1	[0, 0, 0]	n/a	catFR1	0	R1487T
437.199	0.8	447179	WORD_OFF	n/a	n/a	BEE	Insects	9	1	[0, 0, 0]	n/a	catFR1	0	R1487T
437.999	1.615	447976	WORD	n/a	wordpools/wordpool_categorized_EN.txt	MOTH	Insects	10	1	[0, 0, 0]	n/a	catFR1	0	R1487T
439.614	0.952	449597	WORD_OFF	n/a	n/a	MOTH	Insects	10	1	[0, 0, 0]	n/a	catFR1	0	R1487T
440.566	1.616	450544	WORD	n/a	wordpools/wordpool_categorized_EN.txt	TABLET	Electronics	11	1	[0, 0, 0]	n/a	catFR1	0	R1487T
442.182	0.833	452165	WORD_OFF	n/a	n/a	TABLET	Electronics	11	1	[0, 0, 0]	n/a	catFR1	0	R1487T
443.015	1.617	452998	WORD	n/a	wordpools/wordpool_categorized_EN.txt	PHONE	Electronics	12	1	[0, 0, 0]	n/a	catFR1	0	R1487T
444.632	0.001	454610	WORD_OFF	n/a	n/a	PHONE	Electronics	12	1	[0, 0, 0]	n/a	catFR1	0	R1487T
444.633	0.0	454619	ENCODING_END	n/a	n/a	n/a	n/a	-999	1	[0, 0, 0]	n/a	catFR1	0	R1487T
444.633	0.0	454619	DISTRACT_START	n/a	n/a	n/a	n/a	-999	1	[0, 0, 0]	n/a	catFR1	0	R1487T
444.632	0.001	454619	PROB	0.001	n/a	n/a	n/a	-999	1	[8, 2, 7]	17	catFR1	0	R1487T
444.633	5.199	454620	START	n/a	n/a	n/a	n/a	-999	1	[-999, -999, -999]	n/a	catFR1	0	R1487T
449.832	5.65	459819	PROB	5.65	n/a	n/a	n/a	-999	1	[1, 6, 2]	9	catFR1	0	R1487T
455.482	3.55	465469	PROB	3.55	n/a	n/a	n/a	-999	1	[1, 5, 6]	12	catFR1	0	R1487T
459.032	5.099	469019	PROB	5.099	n/a	n/a	n/a	-999	1	[1, 3, 6]	10	catFR1	0	R1487T
464.131	5.168	474117	PROB	5.168	n/a	n/a	n/a	-999	1	[4, 7, 8]	19	catFR1	0	R1487T
469.299	0.0	479277	DISTRACT_END	n/a	n/a	n/a	n/a	-999	1	[0, 0, 0]	n/a	catFR1	0	R1487T
469.299	1.233	479285	STOP	n/a	n/a	n/a	n/a	-999	1	[-999, -999, -999]	n/a	catFR1	0	R1487T
470.532	0.472	480508	REC_START	n/a	n/a	n/a	n/a	-999	1	[0, 0, 0]	n/a	catFR1	0	R1487T
471.004	1.0	480990	REC_WORD	1.0	n/a	REFRIGERATOR	Appliances	8	1	[0, 0, 0]	n/a	catFR1	0	R1487T
472.004	0.424	481990	REC_WORD	0.424	n/a	REFRIGERATOR	Appliances	8	1	[0, 0, 0]	n/a	catFR1	0	R1487T
472.428	0.622	482414	REC_WORD	0.622	n/a	WASHER	Appliances	1	1	[0, 0, 0]	n/a	catFR1	0	R1487T
473.05	1.696	483036	REC_WORD	1.696	n/a	DRYER	Appliances	2	1	[0, 0, 0]	n/a	catFR1	0	R1487T
474.746	0.375	484732	REC_WORD_VV	0.375	n/a	<>	n/a	-999	1	[0, 0, 0]	n/a	catFR1	0	R1487T
475.121	0.709	485107	REC_WORD	0.709	n/a	RADIO	Electronics	4	1	[0, 0, 0]	n/a	catFR1	0	R1487T
475.83	1.0	485816	REC_WORD	1.0	n/a	STEREO	Electronics	3	1	[0, 0, 0]	n/a	catFR1	0	R1487T
476.83	1.356	486816	REC_WORD	1.356	n/a	STEREO	Electronics	3	1	[0, 0, 0]	n/a	catFR1	0	R1487T
478.186	1.0	488172	REC_WORD_VV	1.0	n/a	<>	n/a	-999	1	[0, 0, 0]	n/a	catFR1	0	R1487T
479.186	1.849	489172	REC_WORD_VV	1.849	n/a	<>	n/a	-999	1	[0, 0, 0]	n/a	catFR1	0	R1487T
481.035	1.0	491020	REC_WORD_VV	1.0	n/a	<>	n/a	-999	1	[0, 0, 0]	n/a	catFR1	0	R1487T
482.035	1.367	492020	REC_WORD_VV	1.367	n/a	<>	n/a	-999	1	[0, 0, 0]	n/a	catFR1	0	R1487T
483.402	4.243	493387	REC_WORD	4.243	n/a	FREEZER	Appliances	7	1	[0, 0, 0]	n/a	catFR1	0	R1487T
487.645	1.0	497630	REC_WORD_VV	1.0	n/a	<>	n/a	-999	1	[0, 0, 0]	n/a	catFR1	0	R1487T
488.645	1.0	498630	REC_WORD_VV	1.0	n/a	<>	n/a	-999	1	[0, 0, 0]	n/a	catFR1	0	R1487T
489.645	1.0	499630	REC_WORD_VV	1.0	n/a	<>	n/a	-999	1	[0, 0, 0]	n/a	catFR1	0	R1487T
490.645	5.214	500630	REC_WORD_VV	5.214	n/a	<>	n/a	-999	1	[0, 0, 0]	n/a	catFR1	0	R1487T
495.859	1.0	505844	REC_WORD_VV	1.0	n/a	<>	n/a	-999	1	[0, 0, 0]	n/a	catFR1	0	R1487T
496.859	1.0	506844	REC_WORD_VV	1.0	n/a	<>	n/a	-999	1	[0, 0, 0]	n/a	catFR1	0	R1487T
497.859	1.964	507844	REC_WORD_VV	1.964	n/a	<>	n/a	-999	1	[0, 0, 0]	n/a	catFR1	0	R1487T
499.823	1.922	509807	REC_WORD_VV	1.922	n/a	<>	n/a	-999	1	[0, 0, 0]	n/a	catFR1	0	R1487T
501.745	15.971	511721	REC_END	n/a	n/a	n/a	n/a	-999	1	[0, 0, 0]	n/a	catFR1	0	R1487T
517.716	10.35	527690	COUNTDOWN_START	n/a	n/a	n/a	n/a	-999	1	[0, 0, 0]	n/a	catFR1	0	R1487T
528.066	0.0	538044	COUNTDOWN_END	n/a	n/a	n/a	n/a	-999	1	[0, 0, 0]	n/a	catFR1	0	R1487T
528.066	2.066	538044	ENCODING_START	n/a	n/a	n/a	n/a	-999	2	[0, 0, 0]	n/a	catFR1	0	R1487T
530.132	1.6	540108	WORD	n/a	wordpools/wordpool_categorized_EN.txt	MOTORCYCLE	Vehicles	1	2	[0, 0, 0]	n/a	catFR1	0	R1487T
531.732	0.965	541711	WORD_OFF	n/a	n/a	MOTORCYCLE	Vehicles	1	2	[0, 0, 0]	n/a	catFR1	0	R1487T
532.697	1.602	542676	WORD	n/a	wordpools/wordpool_categorized_EN.txt	BOAT	Vehicles	2	2	[0, 0, 0]	n/a	catFR1	0	R1487T
534.299	0.999	544271	WORD_OFF	n/a	n/a	BOAT	Vehicles	2	2	[0, 0, 0]	n/a	catFR1	0	R1487T
535.298	1.6	545271	WORD	n/a	wordpools/wordpool_categorized_EN.txt	EVERGREEN	Trees	3	2	[0, 0, 0]	n/a	catFR1	0	R1487T
536.898	0.918	546875	WORD_OFF	n/a	n/a	EVERGREEN	Trees	3	2	[0, 0, 0]	n/a	catFR1	0	R1487T
537.816	1.615	547796	WORD	n/a	wordpools/wordpool_categorized_EN.txt	PINE	Trees	4	2	[0, 0, 0]	n/a	catFR1	0	R1487T
539.431	0.984	549408	WORD_OFF	n/a	n/a	PINE	Trees	4	2	[0, 0, 0]	n/a	catFR1	0	R1487T
540.415	1.617	550391	WORD	n/a	wordpools/wordpool_categorized_EN.txt	PEAS	Vegetables	5	2	[0, 0, 0]	n/a	catFR1	0	R1487T
542.032	0.833	552012	WORD_OFF	n/a	n/a	PEAS	Vegetables	5	2	[0, 0, 0]	n/a	catFR1	0	R1487T
542.865	1.6	552844	WORD	n/a	wordpools/wordpool_categorized_EN.txt	SPINACH	Vegetables	6	2	[0, 0, 0]	n/a	catFR1	0	R1487T
544.465	0.933	554439	WORD_OFF	n/a	n/a	SPINACH	Vegetables	6	2	[0, 0, 0]	n/a	catFR1	0	R1487T
545.398	1.6	555377	WORD	n/a	wordpools/wordpool_categorized_EN.txt	WILLOW	Trees	7	2	[0, 0, 0]	n/a	catFR1	0	R1487T
546.998	0.784	556972	WORD_OFF	n/a	n/a	WILLOW	Trees	7	2	[0, 0, 0]	n/a	catFR1	0	R1487T
547.782	1.6	557760	WORD	n/a	wordpools/wordpool_categorized_EN.txt	ELM	Trees	8	2	[0, 0, 0]	n/a	catFR1	0	R1487T
549.382	0.849	559354	WORD_OFF	n/a	n/a	ELM	Trees	8	2	[0, 0, 0]	n/a	catFR1	0	R1487T
550.231	1.601	560205	WORD	n/a	wordpools/wordpool_categorized_EN.txt	CUCUMBER	Vegetables	9	2	[0, 0, 0]	n/a	catFR1	0	R1487T
551.832	0.883	561808	WORD_OFF	n/a	n/a	CUCUMBER	Vegetables	9	2	[0, 0, 0]	n/a	catFR1	0	R1487T
552.715	1.617	562693	WORD	n/a	wordpools/wordpool_categorized_EN.txt	POTATO	Vegetables	10	2	[0, 0, 0]	n/a	catFR1	0	R1487T
554.332	0.8	564305	WORD_OFF	n/a	n/a	POTATO	Vegetables	10	2	[0, 0, 0]	n/a	catFR1	0	R1487T
555.132	1.6	565111	WORD	n/a	wordpools/wordpool_categorized_EN.txt	BUS	Vehicles	11	2	[0, 0, 0]	n/a	catFR1	0	R1487T
556.732	0.867	566706	WORD_OFF	n/a	n/a	BUS	Vehicles	11	2	[0, 0, 0]	n/a	catFR1	0	R1487T
557.599	1.617	567574	WORD	n/a	wordpools/wordpool_categorized_EN.txt	VAN	Vehicles	12	2	[0, 0, 0]	n/a	catFR1	0	R1487T
559.216	0.001	569186	WORD_OFF	n/a	n/a	VAN	Vehicles	12	2	[0, 0, 0]	n/a	catFR1	0	R1487T
559.217	0.0	569195	ENCODING_END	n/a	n/a	n/a	n/a	-999	2	[0, 0, 0]	n/a	catFR1	0	R1487T
559.217	0.0	569195	DISTRACT_START	n/a	n/a	n/a	n/a	-999	2	[0, 0, 0]	n/a	catFR1	0	R1487T
559.216	0.001	569197	PROB	0.001	n/a	n/a	n/a	-999	2	[5, 4, 3]	12	catFR1	0	R1487T
559.217	4.199	569198	START	n/a	n/a	n/a	n/a	-999	2	[-999, -999, -999]	n/a	catFR1	0	R1487T
563.416	3.233	573397	PROB	3.233	n/a	n/a	n/a	-999	2	[3, 6, 3]	12	catFR1	0	R1487T
566.649	3.3	576630	PROB	3.3	n/a	n/a	n/a	-999	2	[4, 6, 2]	12	catFR1	0	R1487T
569.949	4.9	579930	PROB	4.9	n/a	n/a	n/a	-999	2	[7, 1, 3]	11	catFR1	0	R1487T
574.849	5.75	584830	PROB	5.75	n/a	n/a	n/a	-999	2	[6, 7, 6]	19	catFR1	0	R1487T
580.599	0.0	590576	DISTRACT_END	n/a	n/a	n/a	n/a	-999	2	[0, 0, 0]	n/a	catFR1	0	R1487T
580.599	1.166	590579	STOP	n/a	n/a	n/a	n/a	-999	2	[-999, -999, -999]	n/a	catFR1	0	R1487T
581.765	0.949	591736	REC_START	n/a	n/a	n/a	n/a	-999	2	[0, 0, 0]	n/a	catFR1	0	R1487T
582.714	0.997	592694	REC_WORD	0.997	n/a	MOTORCYCLE	Vehicles	1	2	[0, 0, 0]	n/a	catFR1	0	R1487T
583.711	1.197	593691	REC_WORD	1.197	n/a	BOAT	Vehicles	2	2	[0, 0, 0]	n/a	catFR1	0	R1487T
584.908	1.0	594888	REC_WORD_VV	1.0	n/a	<>	n/a	-999	2	[0, 0, 0]	n/a	catFR1	0	R1487T
585.908	1.0	595888	REC_WORD_VV	1.0	n/a	<>	n/a	-999	2	[0, 0, 0]	n/a	catFR1	0	R1487T
586.908	5.235	596888	REC_WORD_VV	5.235	n/a	<>	n/a	-999	2	[0, 0, 0]	n/a	catFR1	0	R1487T
592.143	0.633	602123	REC_WORD	0.633	n/a	WASHER	Appliances	-999	2	[0, 0, 0]	n/a	catFR1	0	R1487T
592.776	1.0	602756	REC_WORD	1.0	n/a	DRYER	Appliances	-999	2	[0, 0, 0]	n/a	catFR1	0	R1487T
593.776	2.116	603756	REC_WORD	2.116	n/a	DRYER	Appliances	-999	2	[0, 0, 0]	n/a	catFR1	0	R1487T
595.892	2.404	605872	REC_WORD_VV	2.404	n/a	<>	n/a	-999	2	[0, 0, 0]	n/a	catFR1	0	R1487T
598.296	1.0	608275	REC_WORD_VV	1.0	n/a	<>	n/a	-999	2	[0, 0, 0]	n/a	catFR1	0	R1487T
599.296	4.243	609275	REC_WORD_VV	4.243	n/a	<>	n/a	-999	2	[0, 0, 0]	n/a	catFR1	0	R1487T
603.539	1.0	613518	REC_WORD_VV	1.0	n/a	<>	n/a	-999	2	[0, 0, 0]	n/a	catFR1	0	R1487T
604.539	8.442	614518	REC_WORD_VV	8.442	n/a	<>	n/a	-999	2	[0, 0, 0]	n/a	catFR1	0	R1487T
612.981	4.001	622949	REC_END	n/a	n/a	n/a	n/a	-999	2	[0, 0, 0]	n/a	catFR1	0	R1487T
616.982	10.35	626952	COUNTDOWN_START	n/a	n/a	n/a	n/a	-999	2	[0, 0, 0]	n/a	catFR1	0	R1487T
627.332	0.0	637306	COUNTDOWN_END	n/a	n/a	n/a	n/a	-999	2	[0, 0, 0]	n/a	catFR1	0	R1487T
627.332	2.167	637306	ENCODING_START	n/a	n/a	n/a	n/a	-999	3	[0, 0, 0]	n/a	catFR1	0	R1487T
629.499	1.616	639467	WORD	n/a	wordpools/wordpool_categorized_EN.txt	BANANA	Fruit	1	3	[0, 0, 0]	n/a	catFR1	0	R1487T
631.115	0.984	641088	WORD_OFF	n/a	n/a	BANANA	Fruit	1	3	[0, 0, 0]	n/a	catFR1	0	R1487T
632.099	1.616	642071	WORD	n/a	wordpools/wordpool_categorized_EN.txt	LIME	Fruit	2	3	[0, 0, 0]	n/a	catFR1	0	R1487T
633.715	0.8	643683	WORD_OFF	n/a	n/a	LIME	Fruit	2	3	[0, 0, 0]	n/a	catFR1	0	R1487T
634.515	1.617	644489	WORD	n/a	wordpools/wordpool_categorized_EN.txt	TULIP	Flowers	3	3	[0, 0, 0]	n/a	catFR1	0	R1487T
636.132	1.0	646101	WORD_OFF	n/a	n/a	TULIP	Flowers	3	3	[0, 0, 0]	n/a	catFR1	0	R1487T
637.132	1.6	647102	WORD	n/a	wordpools/wordpool_categorized_EN.txt	DAFFODIL	Flowers	4	3	[0, 0, 0]	n/a	catFR1	0	R1487T
638.732	0.933	648705	WORD_OFF	n/a	n/a	DAFFODIL	Flowers	4	3	[0, 0, 0]	n/a	catFR1	0	R1487T
639.665	1.601	649635	WORD	n/a	wordpools/wordpool_categorized_EN.txt	CHAIR	Furniture	5	3	[0, 0, 0]	n/a	catFR1	0	R1487T
641.266	0.916	651238	WORD_OFF	n/a	n/a	CHAIR	Furniture	5	3	[0, 0, 0]	n/a	catFR1	0	R1487T
642.182	1.617	652151	WORD	n/a	wordpools/wordpool_categorized_EN.txt	BED	Furniture	6	3	[0, 0, 0]	n/a	catFR1	0	R1487T
643.799	0.767	653771	WORD_OFF	n/a	n/a	BED	Furniture	6	3	[0, 0, 0]	n/a	catFR1	0	R1487T
644.566	1.599	654533	WORD	n/a	wordpools/wordpool_categorized_EN.txt	LILAC	Flowers	7	3	[0, 0, 0]	n/a	catFR1	0	R1487T
646.165	0.866	656136	WORD_OFF	n/a	n/a	LILAC	Flowers	7	3	[0, 0, 0]	n/a	catFR1	0	R1487T
647.031	1.601	657004	WORD	n/a	wordpools/wordpool_categorized_EN.txt	ORCHID	Flowers	8	3	[0, 0, 0]	n/a	catFR1	0	R1487T
648.632	0.899	658599	WORD_OFF	n/a	n/a	ORCHID	Flowers	8	3	[0, 0, 0]	n/a	catFR1	0	R1487T
649.531	1.601	659502	WORD	n/a	wordpools/wordpool_categorized_EN.txt	LEMON	Fruit	9	3	[0, 0, 0]	n/a	catFR1	0	R1487T
651.132	0.834	661105	WORD_OFF	n/a	n/a	LEMON	Fruit	9	3	[0, 0, 0]	n/a	catFR1	0	R1487T
651.966	1.616	661938	WORD	n/a	wordpools/wordpool_categorized_EN.txt	PEACH	Fruit	10	3	[0, 0, 0]	n/a	catFR1	0	R1487T
653.582	0.917	663550	WORD_OFF	n/a	n/a	PEACH	Fruit	10	3	[0, 0, 0]	n/a	catFR1	0	R1487T
654.499	1.617	664471	WORD	n/a	wordpools/wordpool_categorized_EN.txt	NIGHTSTAND	Furniture	11	3	[0, 0, 0]	n/a	catFR1	0	R1487T
656.116	0.899	666083	WORD_OFF	n/a	n/a	NIGHTSTAND	Furniture	11	3	[0, 0, 0]	n/a	catFR1	0	R1487T
657.015	1.601	666986	WORD	n/a	wordpools/wordpool_categorized_EN.txt	DESK	Furniture	12	3	[0, 0, 0]	n/a	catFR1	0	R1487T
658.616	0.001	668589	WORD_OFF	n/a	n/a	DESK	Furniture	12	3	[0, 0, 0]	n/a	catFR1	0	R1487T
658.617	0.0	668589	ENCODING_END	n/a	n/a	n/a	n/a	-999	3	[0, 0, 0]	n/a	catFR1	0	R1487T
658.617	0.0	668589	DISTRACT_START	n/a	n/a	n/a	n/a	-999	3	[0, 0, 0]	n/a	catFR1	0	R1487T
658.616	0.001	668592	PROB	0.001	n/a	n/a	n/a	-999	3	[4, 3, 6]	13	catFR1	0	R1487T
658.617	5.015	668593	START	n/a	n/a	n/a	n/a	-999	3	[-999, -999, -999]	n/a	catFR1	0	R1487T
663.632	4.667	673608	PROB	4.667	n/a	n/a	n/a	-999	3	[2, 3, 5]	10	catFR1	0	R1487T
668.299	4.249	678275	PROB	4.249	n/a	n/a	n/a	-999	3	[2, 1, 4]	7	catFR1	0	R1487T
672.548	5.035	682524	PROB	5.035	n/a	n/a	n/a	-999	3	[3, 6, 7]	16	catFR1	0	R1487T
677.583	3.899	687558	PROB	3.899	n/a	n/a	n/a	-999	3	[3, 2, 1]	6	catFR1	0	R1487T
681.482	0.0	691450	DISTRACT_END	n/a	n/a	n/a	n/a	-999	3	[0, 0, 0]	n/a	catFR1	0	R1487T
681.482	1.166	691457	STOP	n/a	n/a	n/a	n/a	-999	3	[-999, -999, -999]	n/a	catFR1	0	R1487T
682.648	0.16	692619	REC_START	n/a	n/a	n/a	n/a	-999	3	[0, 0, 0]	n/a	catFR1	0	R1487T
682.808	2.034	692783	REC_WORD_VV	2.034	n/a	<>	n/a	-999	3	[0, 0, 0]	n/a	catFR1	0	R1487T
684.842	1.0	694817	REC_WORD_VV	1.0	n/a	<>	n/a	-999	3	[0, 0, 0]	n/a	catFR1	0	R1487T
685.842	1.834	695817	REC_WORD_VV	1.834	n/a	<>	n/a	-999	3	[0, 0, 0]	n/a	catFR1	0	R1487T
687.676	1.0	697651	REC_WORD_VV	1.0	n/a	<>	n/a	-999	3	[0, 0, 0]	n/a	catFR1	0	R1487T
688.676	1.0	698651	REC_WORD_VV	1.0	n/a	<>	n/a	-999	3	[0, 0, 0]	n/a	catFR1	0	R1487T
689.676	1.0	699651	REC_WORD_VV	1.0	n/a	<>	n/a	-999	3	[0, 0, 0]	n/a	catFR1	0	R1487T
690.676	9.065	700651	REC_WORD_VV	9.065	n/a	<>	n/a	-999	3	[0, 0, 0]	n/a	catFR1	0	R1487T
699.741	1.0	709715	REC_WORD_VV	1.0	n/a	<>	n/a	-999	3	[0, 0, 0]	n/a	catFR1	0	R1487T
700.741	4.053	710715	REC_WORD_VV	4.053	n/a	<>	n/a	-999	3	[0, 0, 0]	n/a	catFR1	0	R1487T
704.794	9.071	714768	REC_WORD_VV	9.071	n/a	<>	n/a	-999	3	[0, 0, 0]	n/a	catFR1	0	R1487T
713.865	3.666	723831	REC_END	n/a	n/a	n/a	n/a	-999	3	[0, 0, 0]	n/a	catFR1	0	R1487T
717.531	10.351	727498	COUNTDOWN_START	n/a	n/a	n/a	n/a	-999	3	[0, 0, 0]	n/a	catFR1	0	R1487T
727.882	0.0	737852	COUNTDOWN_END	n/a	n/a	n/a	n/a	-999	3	[0, 0, 0]	n/a	catFR1	0	R1487T
727.882	2.033	737852	ENCODING_START	n/a	n/a	n/a	n/a	-999	4	[0, 0, 0]	n/a	catFR1	0	R1487T
729.915	1.6	739881	WORD	n/a	wordpools/wordpool_categorized_EN.txt	TELEVISION	Electronics	1	4	[0, 0, 0]	n/a	catFR1	0	R1487T
731.515	0.95	741484	WORD_OFF	n/a	n/a	TELEVISION	Electronics	1	4	[0, 0, 0]	n/a	catFR1	0	R1487T
732.465	1.601	742431	WORD	n/a	wordpools/wordpool_categorized_EN.txt	HEADPHONES	Electronics	2	4	[0, 0, 0]	n/a	catFR1	0	R1487T
734.066	0.899	744035	WORD_OFF	n/a	n/a	HEADPHONES	Electronics	2	4	[0, 0, 0]	n/a	catFR1	0	R1487T
734.965	1.617	744929	WORD	n/a	wordpools/wordpool_categorized_EN.txt	TROMBONE	Instruments	3	4	[0, 0, 0]	n/a	catFR1	0	R1487T
736.582	0.816	746550	WORD_OFF	n/a	n/a	TROMBONE	Instruments	3	4	[0, 0, 0]	n/a	catFR1	0	R1487T
737.398	1.601	747365	WORD	n/a	wordpools/wordpool_categorized_EN.txt	TUBA	Instruments	4	4	[0, 0, 0]	n/a	catFR1	0	R1487T
738.999	0.8	748968	WORD_OFF	n/a	n/a	TUBA	Instruments	4	4	[0, 0, 0]	n/a	catFR1	0	R1487T
739.799	1.6	749765	WORD	n/a	wordpools/wordpool_categorized_EN.txt	SHOVEL	Tools	5	4	[0, 0, 0]	n/a	catFR1	0	R1487T
741.399	0.8	751368	WORD_OFF	n/a	n/a	SHOVEL	Tools	5	4	[0, 0, 0]	n/a	catFR1	0	R1487T
742.199	1.6	752165	WORD	n/a	wordpools/wordpool_categorized_EN.txt	SAW	Tools	6	4	[0, 0, 0]	n/a	catFR1	0	R1487T
743.799	0.9	753769	WORD_OFF	n/a	n/a	SAW	Tools	6	4	[0, 0, 0]	n/a	catFR1	0	R1487T
744.699	1.617	754663	WORD	n/a	wordpools/wordpool_categorized_EN.txt	BANJO	Instruments	7	4	[0, 0, 0]	n/a	catFR1	0	R1487T
746.316	1.0	756284	WORD_OFF	n/a	n/a	BANJO	Instruments	7	4	[0, 0, 0]	n/a	catFR1	0	R1487T
747.316	1.6	757285	WORD	n/a	wordpools/wordpool_categorized_EN.txt	GUITAR	Instruments	8	4	[0, 0, 0]	n/a	catFR1	0	R1487T
748.916	1.0	758879	WORD_OFF	n/a	n/a	GUITAR	Instruments	8	4	[0, 0, 0]	n/a	catFR1	0	R1487T
749.916	1.615	759880	WORD	n/a	wordpools/wordpool_categorized_EN.txt	RATCHET	Tools	9	4	[0, 0, 0]	n/a	catFR1	0	R1487T
751.531	0.933	761492	WORD_OFF	n/a	n/a	RATCHET	Tools	9	4	[0, 0, 0]	n/a	catFR1	0	R1487T
752.464	1.601	762431	WORD	n/a	wordpools/wordpool_categorized_EN.txt	WRENCH	Tools	10	4	[0, 0, 0]	n/a	catFR1	0	R1487T
754.065	0.951	764034	WORD_OFF	n/a	n/a	WRENCH	Tools	10	4	[0, 0, 0]	n/a	catFR1	0	R1487T
755.016	1.6	764982	WORD	n/a	wordpools/wordpool_categorized_EN.txt	COMPUTER	Electronics	11	4	[0, 0, 0]	n/a	catFR1	0	R1487T
756.616	0.816	766585	WORD_OFF	n/a	n/a	COMPUTER	Electronics	11	4	[0, 0, 0]	n/a	catFR1	0	R1487T
757.432	1.617	767400	WORD	n/a	wordpools/wordpool_categorized_EN.txt	MICROWAVE	Electronics	12	4	[0, 0, 0]	n/a	catFR1	0	R1487T
759.049	0.001	769012	WORD_OFF	n/a	n/a	MICROWAVE	Electronics	12	4	[0, 0, 0]	n/a	catFR1	0	R1487T
759.05	0.0	769012	ENCODING_END	n/a	n/a	n/a	n/a	-999	4	[0, 0, 0]	n/a	catFR1	0	R1487T
759.049	0.001	769020	PROB	0.001	n/a	n/a	n/a	-999	4	[6, 5, 3]	14	catFR1	0	R1487T
759.05	0.0	769021	DISTRACT_START	n/a	n/a	n/a	n/a	-999	4	[0, 0, 0]	n/a	catFR1	0	R1487T
759.05	4.65	769021	START	n/a	n/a	n/a	n/a	-999	4	[-999, -999, -999]	n/a	catFR1	0	R1487T
763.7	5.632	773671	PROB	5.632	n/a	n/a	n/a	-999	4	[6, 6, 5]	17	catFR1	0	R1487T
769.332	4.068	779303	PROB	4.068	n/a	n/a	n/a	-999	4	[8, 1, 2]	11	catFR1	0	R1487T
773.4	3.433	783370	PROB	3.433	n/a	n/a	n/a	-999	4	[4, 3, 1]	8	catFR1	0	R1487T
776.833	4.733	786803	PROB	4.733	n/a	n/a	n/a	-999	4	[4, 8, 5]	17	catFR1	0	R1487T
781.566	0.0	791526	DISTRACT_END	n/a	n/a	n/a	n/a	-999	4	[0, 0, 0]	n/a	catFR1	0	R1487T
781.566	1.099	791536	STOP	n/a	n/a	n/a	n/a	-999	4	[-999, -999, -999]	n/a	catFR1	0	R1487T
782.665	1.365	792625	REC_START	n/a	n/a	n/a	n/a	-999	4	[0, 0, 0]	n/a	catFR1	0	R1487T
784.03	0.727	794000	REC_WORD	0.727	n/a	RADIO	Electronics	-999	4	[0, 0, 0]	n/a	catFR1	0	R1487T
784.757	1.0	794727	REC_WORD	1.0	n/a	STEREO	Electronics	-999	4	[0, 0, 0]	n/a	catFR1	0	R1487T
785.757	0.232	795727	REC_WORD	0.232	n/a	STEREO	Electronics	-999	4	[0, 0, 0]	n/a	catFR1	0	R1487T
785.989	3.258	795959	REC_WORD_VV	3.258	n/a	<>	n/a	-999	4	[0, 0, 0]	n/a	catFR1	0	R1487T
789.247	1.0	799217	REC_WORD_VV	1.0	n/a	<>	n/a	-999	4	[0, 0, 0]	n/a	catFR1	0	R1487T
790.247	7.729	800217	REC_WORD_VV	7.729	n/a	<>	n/a	-999	4	[0, 0, 0]	n/a	catFR1	0	R1487T
797.976	1.0	807945	REC_WORD_VV	1.0	n/a	<>	n/a	-999	4	[0, 0, 0]	n/a	catFR1	0	R1487T
798.976	1.0	808945	REC_WORD_VV	1.0	n/a	<>	n/a	-999	4	[0, 0, 0]	n/a	catFR1	0	R1487T
799.976	1.0	809945	REC_WORD_VV	1.0	n/a	<>	n/a	-999	4	[0, 0, 0]	n/a	catFR1	0	R1487T
800.976	1.0	810945	REC_WORD_VV	1.0	n/a	<>	n/a	-999	4	[0, 0, 0]	n/a	catFR1	0	R1487T
801.976	2.208	811945	REC_WORD_VV	2.208	n/a	<>	n/a	-999	4	[0, 0, 0]	n/a	catFR1	0	R1487T
804.184	1.0	814153	REC_WORD	1.0	n/a	MICROPHONE	n/a	-999	4	[0, 0, 0]	n/a	catFR1	0	R1487T
805.184	3.809	815153	REC_WORD	3.809	n/a	MICROPHONE	n/a	-999	4	[0, 0, 0]	n/a	catFR1	0	R1487T
808.993	1.0	818962	REC_WORD_VV	1.0	n/a	<>	n/a	-999	4	[0, 0, 0]	n/a	catFR1	0	R1487T
809.993	3.903	819962	REC_WORD_VV	3.903	n/a	<>	n/a	-999	4	[0, 0, 0]	n/a	catFR1	0	R1487T
813.896	26.136	823855	REC_END	n/a	n/a	n/a	n/a	-999	4	[0, 0, 0]	n/a	catFR1	0	R1487T
840.032	10.35	849992	COUNTDOWN_START	n/a	n/a	n/a	n/a	-999	4	[0, 0, 0]	n/a	catFR1	0	R1487T
850.382	0.0	860346	COUNTDOWN_END	n/a	n/a	n/a	n/a	-999	4	[0, 0, 0]	n/a	catFR1	0	R1487T
850.382	1.883	860346	ENCODING_START	n/a	n/a	n/a	n/a	-999	5	[0, 0, 0]	n/a	catFR1	0	R1487T
852.265	1.6	862224	WORD	n/a	wordpools/wordpool_categorized_EN.txt	MONKEY	Zoo	1	5	[0, 0, 0]	n/a	catFR1	0	R1487T
853.865	0.85	863827	WORD_OFF	n/a	n/a	MONKEY	Zoo	1	5	[0, 0, 0]	n/a	catFR1	0	R1487T
854.715	1.6	864678	WORD	n/a	wordpools/wordpool_categorized_EN.txt	PANDA	Zoo	2	5	[0, 0, 0]	n/a	catFR1	0	R1487T
856.315	0.917	866272	WORD_OFF	n/a	n/a	PANDA	Zoo	2	5	[0, 0, 0]	n/a	catFR1	0	R1487T
857.232	1.6	867193	WORD	n/a	wordpools/wordpool_categorized_EN.txt	WINE	Beverages	3	5	[0, 0, 0]	n/a	catFR1	0	R1487T
858.832	0.9	868787	WORD_OFF	n/a	n/a	WINE	Beverages	3	5	[0, 0, 0]	n/a	catFR1	0	R1487T
859.732	1.617	869691	WORD	n/a	wordpools/wordpool_categorized_EN.txt	WATER	Beverages	4	5	[0, 0, 0]	n/a	catFR1	0	R1487T
861.349	0.967	871312	WORD_OFF	n/a	n/a	WATER	Beverages	4	5	[0, 0, 0]	n/a	catFR1	0	R1487T
862.316	1.616	872277	WORD	n/a	wordpools/wordpool_categorized_EN.txt	FOLDER	OfficeSupplies	5	5	[0, 0, 0]	n/a	catFR1	0	R1487T
863.932	0.85	873889	WORD_OFF	n/a	n/a	FOLDER	OfficeSupplies	5	5	[0, 0, 0]	n/a	catFR1	0	R1487T
864.782	1.6	874739	WORD	n/a	wordpools/wordpool_categorized_EN.txt	GLUE	OfficeSupplies	6	5	[0, 0, 0]	n/a	catFR1	0	R1487T
866.382	0.983	876342	WORD_OFF	n/a	n/a	GLUE	OfficeSupplies	6	5	[0, 0, 0]	n/a	catFR1	0	R1487T
867.365	1.6	877326	WORD	n/a	wordpools/wordpool_categorized_EN.txt	TIGER	Zoo	7	5	[0, 0, 0]	n/a	catFR1	0	R1487T
868.965	0.817	878920	WORD_OFF	n/a	n/a	TIGER	Zoo	7	5	[0, 0, 0]	n/a	catFR1	0	R1487T
869.782	1.616	879744	WORD	n/a	wordpools/wordpool_categorized_EN.txt	GIRAFFE	Zoo	8	5	[0, 0, 0]	n/a	catFR1	0	R1487T
871.398	0.984	881356	WORD_OFF	n/a	n/a	GIRAFFE	Zoo	8	5	[0, 0, 0]	n/a	catFR1	0	R1487T
872.382	1.617	882339	WORD	n/a	wordpools/wordpool_categorized_EN.txt	PEN	OfficeSupplies	9	5	[0, 0, 0]	n/a	catFR1	0	R1487T
873.999	0.966	883960	WORD_OFF	n/a	n/a	PEN	OfficeSupplies	9	5	[0, 0, 0]	n/a	catFR1	0	R1487T
874.965	1.601	884925	WORD	n/a	wordpools/wordpool_categorized_EN.txt	RULER	OfficeSupplies	10	5	[0, 0, 0]	n/a	catFR1	0	R1487T
876.566	0.883	886528	WORD_OFF	n/a	n/a	RULER	OfficeSupplies	10	5	[0, 0, 0]	n/a	catFR1	0	R1487T
877.449	1.617	887405	WORD	n/a	wordpools/wordpool_categorized_EN.txt	MILK	Beverages	11	5	[0, 0, 0]	n/a	catFR1	0	R1487T
879.066	0.899	889026	WORD_OFF	n/a	n/a	MILK	Beverages	11	5	[0, 0, 0]	n/a	catFR1	0	R1487T
879.965	1.6	889920	WORD	n/a	wordpools/wordpool_categorized_EN.txt	BEER	Beverages	12	5	[0, 0, 0]	n/a	catFR1	0	R1487T
881.565	0.002	891524	WORD_OFF	n/a	n/a	BEER	Beverages	12	5	[0, 0, 0]	n/a	catFR1	0	R1487T
881.567	0.0	891524	ENCODING_END	n/a	n/a	n/a	n/a	-999	5	[0, 0, 0]	n/a	catFR1	0	R1487T
881.566	0.001	891531	PROB	0.001	n/a	n/a	n/a	-999	5	[4, 8, 1]	13	catFR1	0	R1487T
881.567	0.0	891532	DISTRACT_START	n/a	n/a	n/a	n/a	-999	5	[0, 0, 0]	n/a	catFR1	0	R1487T
881.567	6.183	891532	START	n/a	n/a	n/a	n/a	-999	5	[-999, -999, -999]	n/a	catFR1	0	R1487T
887.75	3.116	897715	PROB	3.116	n/a	n/a	n/a	-999	5	[5, 4, 2]	11	catFR1	0	R1487T
890.866	6.433	900830	PROB	6.433	n/a	n/a	n/a	-999	5	[3, 8, 8]	19	catFR1	0	R1487T
897.299	4.65	907263	PROB	4.65	n/a	n/a	n/a	-999	5	[6, 2, 4]	12	catFR1	0	R1487T
901.949	0.0	911904	DISTRACT_END	n/a	n/a	n/a	n/a	-999	5	[0, 0, 0]	n/a	catFR1	0	R1487T
901.949	1.099	911913	STOP	n/a	n/a	n/a	n/a	-999	5	[-999, -999, -999]	n/a	catFR1	0	R1487T
903.048	2.399	913002	REC_START	n/a	n/a	n/a	n/a	-999	5	[0, 0, 0]	n/a	catFR1	0	R1487T
905.447	2.722	915411	REC_WORD_VV	2.722	n/a	<>	n/a	-999	5	[0, 0, 0]	n/a	catFR1	0	R1487T
908.169	1.0	918133	REC_WORD_VV	1.0	n/a	<>	n/a	-999	5	[0, 0, 0]	n/a	catFR1	0	R1487T
909.169	1.756	919132	REC_WORD_VV	1.756	n/a	<>	n/a	-999	5	[0, 0, 0]	n/a	catFR1	0	R1487T
910.925	0.845	920888	REC_WORD	0.845	n/a	GIRAFFE	Zoo	8	5	[0, 0, 0]	n/a	catFR1	0	R1487T
911.77	2.086	921733	REC_WORD	2.086	n/a	LION	n/a	-999	5	[0, 0, 0]	n/a	catFR1	0	R1487T
913.856	1.0	923819	REC_WORD_VV	1.0	n/a	<>	n/a	-999	5	[0, 0, 0]	n/a	catFR1	0	R1487T
914.856	1.244	924819	REC_WORD_VV	1.244	n/a	<>	n/a	-999	5	[0, 0, 0]	n/a	catFR1	0	R1487T
916.1	1.263	926063	REC_WORD	1.263	n/a	BEER	Beverages	12	5	[0, 0, 0]	n/a	catFR1	0	R1487T
917.363	1.279	927326	REC_WORD	1.279	n/a	WINE	Beverages	3	5	[0, 0, 0]	n/a	catFR1	0	R1487T
918.642	2.412	928605	REC_WORD	2.412	n/a	VINE	n/a	-999	5	[0, 0, 0]	n/a	catFR1	0	R1487T
921.054	1.0	931017	REC_WORD_VV	1.0	n/a	<>	n/a	-999	5	[0, 0, 0]	n/a	catFR1	0	R1487T
922.054	1.0	932017	REC_WORD_VV	1.0	n/a	<>	n/a	-999	5	[0, 0, 0]	n/a	catFR1	0	R1487T
923.054	2.129	933017	REC_WORD_VV	2.129	n/a	<>	n/a	-999	5	[0, 0, 0]	n/a	catFR1	0	R1487T
925.183	3.303	935146	REC_WORD_VV	3.303	n/a	<>	n/a	-999	5	[0, 0, 0]	n/a	catFR1	0	R1487T
928.486	0.348	938448	REC_WORD	0.348	n/a	BEER	Beverages	12	5	[0, 0, 0]	n/a	catFR1	0	R1487T
928.834	1.0	938796	REC_WORD_VV	1.0	n/a	<>	n/a	-999	5	[0, 0, 0]	n/a	catFR1	0	R1487T
929.834	1.0	939796	REC_WORD_VV	1.0	n/a	<>	n/a	-999	5	[0, 0, 0]	n/a	catFR1	0	R1487T
930.834	1.0	940796	REC_WORD_VV	1.0	n/a	<>	n/a	-999	5	[0, 0, 0]	n/a	catFR1	0	R1487T
931.834	2.449	941796	REC_WORD_VV	2.449	n/a	<>	n/a	-999	5	[0, 0, 0]	n/a	catFR1	0	R1487T
934.283	7.632	944241	REC_END	n/a	n/a	n/a	n/a	-999	5	[0, 0, 0]	n/a	catFR1	0	R1487T
941.915	10.35	951876	COUNTDOWN_START	n/a	n/a	n/a	n/a	-999	5	[0, 0, 0]	n/a	catFR1	0	R1487T
952.265	0.0	962221	COUNTDOWN_END	n/a	n/a	n/a	n/a	-999	5	[0, 0, 0]	n/a	catFR1	0	R1487T
952.265	1.817	962221	ENCODING_START	n/a	n/a	n/a	n/a	-999	6	[0, 0, 0]	n/a	catFR1	0	R1487T
954.082	1.617	964037	WORD	n/a	wordpools/wordpool_categorized_EN.txt	SCREWDRIVER	Tools	1	6	[0, 0, 0]	n/a	catFR1	0	R1487T
955.699	0.967	965658	WORD_OFF	n/a	n/a	SCREWDRIVER	Tools	1	6	[0, 0, 0]	n/a	catFR1	0	R1487T
956.666	1.616	966623	WORD	n/a	wordpools/wordpool_categorized_EN.txt	PLIERS	Tools	2	6	[0, 0, 0]	n/a	catFR1	0	R1487T
958.282	0.883	968244	WORD_OFF	n/a	n/a	PLIERS	Tools	2	6	[0, 0, 0]	n/a	catFR1	0	R1487T
959.165	1.601	969121	WORD	n/a	wordpools/wordpool_categorized_EN.txt	MOUNTAIN	Landscapes	3	6	[0, 0, 0]	n/a	catFR1	0	R1487T
960.766	0.933	970724	WORD_OFF	n/a	n/a	MOUNTAIN	Landscapes	3	6	[0, 0, 0]	n/a	catFR1	0	R1487T
961.699	1.6	971654	WORD	n/a	wordpools/wordpool_categorized_EN.txt	BEACH	Landscapes	4	6	[0, 0, 0]	n/a	catFR1	0	R1487T
963.299	0.866	973257	WORD_OFF	n/a	n/a	BEACH	Landscapes	4	6	[0, 0, 0]	n/a	catFR1	0	R1487T
964.165	1.6	974116	WORD	n/a	wordpools/wordpool_categorized_EN.txt	ORANGUTAN	Zoo	5	6	[0, 0, 0]	n/a	catFR1	0	R1487T
965.765	0.9	975720	WORD_OFF	n/a	n/a	ORANGUTAN	Zoo	5	6	[0, 0, 0]	n/a	catFR1	0	R1487T
966.665	1.6	976623	WORD	n/a	wordpools/wordpool_categorized_EN.txt	LION	Zoo	6	6	[0, 0, 0]	n/a	catFR1	0	R1487T
968.265	0.9	978226	WORD_OFF	n/a	n/a	LION	Zoo	6	6	[0, 0, 0]	n/a	catFR1	0	R1487T
969.165	1.6	979121	WORD	n/a	wordpools/wordpool_categorized_EN.txt	WOODS	Landscapes	7	6	[0, 0, 0]	n/a	catFR1	0	R1487T
970.765	0.901	980715	WORD_OFF	n/a	n/a	WOODS	Landscapes	7	6	[0, 0, 0]	n/a	catFR1	0	R1487T
971.666	1.599	981618	WORD	n/a	wordpools/wordpool_categorized_EN.txt	STREAM	Landscapes	8	6	[0, 0, 0]	n/a	catFR1	0	R1487T
973.265	0.984	983222	WORD_OFF	n/a	n/a	STREAM	Landscapes	8	6	[0, 0, 0]	n/a	catFR1	0	R1487T
974.249	1.616	984205	WORD	n/a	wordpools/wordpool_categorized_EN.txt	ZEBRA	Zoo	9	6	[0, 0, 0]	n/a	catFR1	0	R1487T
975.865	1.001	985817	WORD_OFF	n/a	n/a	ZEBRA	Zoo	9	6	[0, 0, 0]	n/a	catFR1	0	R1487T
976.866	1.599	986818	WORD	n/a	wordpools/wordpool_categorized_EN.txt	CHIMPANZEE	Zoo	10	6	[0, 0, 0]	n/a	catFR1	0	R1487T
978.465	0.834	988421	WORD_OFF	n/a	n/a	CHIMPANZEE	Zoo	10	6	[0, 0, 0]	n/a	catFR1	0	R1487T
979.299	1.616	989253	WORD	n/a	wordpools/wordpool_categorized_EN.txt	HAMMER	Tools	11	6	[0, 0, 0]	n/a	catFR1	0	R1487T
980.915	0.967	990865	WORD_OFF	n/a	n/a	HAMMER	Tools	11	6	[0, 0, 0]	n/a	catFR1	0	R1487T
981.882	1.617	991840	WORD	n/a	wordpools/wordpool_categorized_EN.txt	DRILL	Tools	12	6	[0, 0, 0]	n/a	catFR1	0	R1487T
983.499	0.001	993452	WORD_OFF	n/a	n/a	DRILL	Tools	12	6	[0, 0, 0]	n/a	catFR1	0	R1487T
983.5	0.0	993452	ENCODING_END	n/a	n/a	n/a	n/a	-999	6	[0, 0, 0]	n/a	catFR1	0	R1487T
983.5	0.0	993460	DISTRACT_START	n/a	n/a	n/a	n/a	-999	6	[0, 0, 0]	n/a	catFR1	0	R1487T
983.5	0.0	993460	PROB	0.0	n/a	n/a	n/a	-999	6	[2, 8, 1]	11	catFR1	0	R1487T
983.5	7.865	993460	START	n/a	n/a	n/a	n/a	-999	6	[-999, -999, -999]	n/a	catFR1	0	R1487T
991.365	4.117	1001324	PROB	4.117	n/a	n/a	n/a	-999	6	[3, 3, 7]	13	catFR1	0	R1487T
995.482	5.017	1005441	PROB	5.017	n/a	n/a	n/a	-999	6	[3, 7, 7]	17	catFR1	0	R1487T
1000.499	4.85	1010458	PROB	4.85	n/a	n/a	n/a	-999	6	[4, 6, 6]	16	catFR1	0	R1487T
1005.349	0.0	1015302	DISTRACT_END	n/a	n/a	n/a	n/a	-999	6	[0, 0, 0]	n/a	catFR1	0	R1487T
1005.349	1.3	1015308	STOP	n/a	n/a	n/a	n/a	-999	6	[-999, -999, -999]	n/a	catFR1	0	R1487T
1006.649	0.367	1016604	REC_START	n/a	n/a	n/a	n/a	-999	6	[0, 0, 0]	n/a	catFR1	0	R1487T
1007.016	1.0	1016974	REC_WORD	1.0	n/a	CHIMPANZEE	Zoo	10	6	[0, 0, 0]	n/a	catFR1	0	R1487T
1008.016	0.382	1017974	REC_WORD	0.382	n/a	CHIMPANZEE	Zoo	10	6	[0, 0, 0]	n/a	catFR1	0	R1487T
1008.398	1.0	1018356	REC_WORD	1.0	n/a	GIRAFFE	Zoo	-999	6	[0, 0, 0]	n/a	catFR1	0	R1487T
1009.398	0.228	1019356	REC_WORD	0.228	n/a	GIRAFFE	Zoo	-999	6	[0, 0, 0]	n/a	catFR1	0	R1487T
1009.626	2.571	1019584	REC_WORD_VV	2.571	n/a	<>	n/a	-999	6	[0, 0, 0]	n/a	catFR1	0	R1487T
1012.197	1.0	1022155	REC_WORD_VV	1.0	n/a	<>	n/a	-999	6	[0, 0, 0]	n/a	catFR1	0	R1487T
1013.197	2.318	1023155	REC_WORD_VV	2.318	n/a	<>	n/a	-999	6	[0, 0, 0]	n/a	catFR1	0	R1487T
1015.515	2.542	1025473	REC_WORD_VV	2.542	n/a	<>	n/a	-999	6	[0, 0, 0]	n/a	catFR1	0	R1487T
1018.057	0.926	1028015	REC_WORD	0.926	n/a	TIGER	Zoo	-999	6	[0, 0, 0]	n/a	catFR1	0	R1487T
1018.983	1.0	1028941	REC_WORD	1.0	n/a	ZEBRA	Zoo	9	6	[0, 0, 0]	n/a	catFR1	0	R1487T
1019.983	4.311	1029941	REC_WORD	4.311	n/a	ZEBRA	Zoo	9	6	[0, 0, 0]	n/a	catFR1	0	R1487T
1024.294	0.593	1034252	REC_WORD_VV	0.593	n/a	<>	n/a	-999	6	[0, 0, 0]	n/a	catFR1	0	R1487T
1024.887	0.939	1034845	REC_WORD	0.939	n/a	CHIMPANZEE	Zoo	10	6	[0, 0, 0]	n/a	catFR1	0	R1487T
1025.826	1.0	1035783	REC_WORD_VV	1.0	n/a	<>	n/a	-999	6	[0, 0, 0]	n/a	catFR1	0	R1487T
1026.826	11.062	1036783	REC_WORD_VV	11.062	n/a	<>	n/a	-999	6	[0, 0, 0]	n/a	catFR1	0	R1487T
1037.888	10.493	1047843	REC_END	n/a	n/a	n/a	n/a	-999	6	[0, 0, 0]	n/a	catFR1	0	R1487T
1048.381	10.35	1058330	COUNTDOWN_START	n/a	n/a	n/a	n/a	-999	6	[0, 0, 0]	n/a	catFR1	0	R1487T
1058.731	0.001	1068684	COUNTDOWN_END	n/a	n/a	n/a	n/a	-999	6	[0, 0, 0]	n/a	catFR1	0	R1487T
1058.732	1.95	1068684	ENCODING_START	n/a	n/a	n/a	n/a	-999	7	[0, 0, 0]	n/a	catFR1	0	R1487T
1060.682	1.617	1070633	WORD	n/a	wordpools/wordpool_categorized_EN.txt	TORNADO	Weather	1	7	[0, 0, 0]	n/a	catFR1	0	R1487T
1062.299	0.967	1072245	WORD_OFF	n/a	n/a	TORNADO	Weather	1	7	[0, 0, 0]	n/a	catFR1	0	R1487T
1063.266	1.615	1073219	WORD	n/a	wordpools/wordpool_categorized_EN.txt	FOG	Weather	2	7	[0, 0, 0]	n/a	catFR1	0	R1487T
1064.881	0.784	1074831	WORD_OFF	n/a	n/a	FOG	Weather	2	7	[0, 0, 0]	n/a	catFR1	0	R1487T
1065.665	1.6	1075619	WORD	n/a	wordpools/wordpool_categorized_EN.txt	CELERY	Vegetables	3	7	[0, 0, 0]	n/a	catFR1	0	R1487T
1067.265	0.801	1077213	WORD_OFF	n/a	n/a	CELERY	Vegetables	3	7	[0, 0, 0]	n/a	catFR1	0	R1487T
1068.066	1.615	1078019	WORD	n/a	wordpools/wordpool_categorized_EN.txt	CORN	Vegetables	4	7	[0, 0, 0]	n/a	catFR1	0	R1487T
1069.681	0.785	1079631	WORD_OFF	n/a	n/a	CORN	Vegetables	4	7	[0, 0, 0]	n/a	catFR1	0	R1487T
1070.466	1.616	1080411	WORD	n/a	wordpools/wordpool_categorized_EN.txt	STRAINER	KitchenTools	5	7	[0, 0, 0]	n/a	catFR1	0	R1487T
1072.082	0.95	1082032	WORD_OFF	n/a	n/a	STRAINER	KitchenTools	5	7	[0, 0, 0]	n/a	catFR1	0	R1487T
1073.032	1.6	1082979	WORD	n/a	wordpools/wordpool_categorized_EN.txt	COLANDER	KitchenTools	6	7	[0, 0, 0]	n/a	catFR1	0	R1487T
1074.632	0.9	1084583	WORD_OFF	n/a	n/a	COLANDER	KitchenTools	6	7	[0, 0, 0]	n/a	catFR1	0	R1487T
1075.532	1.6	1085477	WORD	n/a	wordpools/wordpool_categorized_EN.txt	BROCCOLI	Vegetables	7	7	[0, 0, 0]	n/a	catFR1	0	R1487T
1077.132	0.9	1087080	WORD_OFF	n/a	n/a	BROCCOLI	Vegetables	7	7	[0, 0, 0]	n/a	catFR1	0	R1487T
1078.032	1.6	1087984	WORD	n/a	wordpools/wordpool_categorized_EN.txt	ONION	Vegetables	8	7	[0, 0, 0]	n/a	catFR1	0	R1487T
1079.632	0.8	1089578	WORD_OFF	n/a	n/a	ONION	Vegetables	8	7	[0, 0, 0]	n/a	catFR1	0	R1487T
1080.432	1.6	1090384	WORD	n/a	wordpools/wordpool_categorized_EN.txt	WHISK	KitchenTools	9	7	[0, 0, 0]	n/a	catFR1	0	R1487T
1082.032	0.816	1091978	WORD_OFF	n/a	n/a	WHISK	KitchenTools	9	7	[0, 0, 0]	n/a	catFR1	0	R1487T
1082.848	1.6	1092793	WORD	n/a	wordpools/wordpool_categorized_EN.txt	SPATULA	KitchenTools	10	7	[0, 0, 0]	n/a	catFR1	0	R1487T
1084.448	0.95	1094396	WORD_OFF	n/a	n/a	SPATULA	KitchenTools	10	7	[0, 0, 0]	n/a	catFR1	0	R1487T
1085.398	1.6	1095344	WORD	n/a	wordpools/wordpool_categorized_EN.txt	THUNDER	Weather	11	7	[0, 0, 0]	n/a	catFR1	0	R1487T
1086.998	0.783	1096947	WORD_OFF	n/a	n/a	THUNDER	Weather	11	7	[0, 0, 0]	n/a	catFR1	0	R1487T
1087.781	1.601	1097727	WORD	n/a	wordpools/wordpool_categorized_EN.txt	WIND	Weather	12	7	[0, 0, 0]	n/a	catFR1	0	R1487T
1089.382	0.001	1099330	WORD_OFF	n/a	n/a	WIND	Weather	12	7	[0, 0, 0]	n/a	catFR1	0	R1487T
1089.383	0.0	1099330	ENCODING_END	n/a	n/a	n/a	n/a	-999	7	[0, 0, 0]	n/a	catFR1	0	R1487T
1089.383	0.0	1099330	DISTRACT_START	n/a	n/a	n/a	n/a	-999	7	[0, 0, 0]	n/a	catFR1	0	R1487T
1089.382	0.001	1099336	PROB	0.001	n/a	n/a	n/a	-999	7	[5, 5, 3]	13	catFR1	0	R1487T
1089.383	4.333	1099337	START	n/a	n/a	n/a	n/a	-999	7	[-999, -999, -999]	n/a	catFR1	0	R1487T
1093.716	3.0	1103670	PROB	3.0	n/a	n/a	n/a	-999	7	[3, 7, 1]	11	catFR1	0	R1487T
1096.716	7.05	1106670	PROB	7.05	n/a	n/a	n/a	-999	7	[8, 6, 7]	21	catFR1	0	R1487T
1103.766	4.734	1113719	PROB	4.734	n/a	n/a	n/a	-999	7	[8, 1, 4]	13	catFR1	0	R1487T
1108.5	4.732	1118453	PROB	4.732	n/a	n/a	n/a	-999	7	[4, 7, 6]	17	catFR1	0	R1487T
1113.232	0.0	1123182	DISTRACT_END	n/a	n/a	n/a	n/a	-999	7	[0, 0, 0]	n/a	catFR1	0	R1487T
1113.232	1.3	1123185	STOP	n/a	n/a	n/a	n/a	-999	7	[-999, -999, -999]	n/a	catFR1	0	R1487T
1114.532	0.075	1124475	REC_START	n/a	n/a	n/a	n/a	-999	7	[0, 0, 0]	n/a	catFR1	0	R1487T
1114.607	1.0	1124560	REC_WORD_VV	1.0	n/a	<>	n/a	-999	7	[0, 0, 0]	n/a	catFR1	0	R1487T
1115.607	1.0	1125560	REC_WORD_VV	1.0	n/a	<>	n/a	-999	7	[0, 0, 0]	n/a	catFR1	0	R1487T
1116.607	1.0	1126560	REC_WORD_VV	1.0	n/a	<>	n/a	-999	7	[0, 0, 0]	n/a	catFR1	0	R1487T
1117.607	1.0	1127560	REC_WORD_VV	1.0	n/a	<>	n/a	-999	7	[0, 0, 0]	n/a	catFR1	0	R1487T
1118.607	1.0	1128560	REC_WORD_VV	1.0	n/a	<>	n/a	-999	7	[0, 0, 0]	n/a	catFR1	0	R1487T
1119.607	1.0	1129560	REC_WORD_VV	1.0	n/a	<>	n/a	-999	7	[0, 0, 0]	n/a	catFR1	0	R1487T
1120.607	1.0	1130560	REC_WORD_VV	1.0	n/a	<>	n/a	-999	7	[0, 0, 0]	n/a	catFR1	0	R1487T
1121.607	5.443	1131560	REC_WORD_VV	5.443	n/a	<>	n/a	-999	7	[0, 0, 0]	n/a	catFR1	0	R1487T
1127.05	1.0	1137002	REC_WORD_VV	1.0	n/a	<>	n/a	-999	7	[0, 0, 0]	n/a	catFR1	0	R1487T
1128.05	17.71	1138002	REC_WORD_VV	17.71	n/a	<>	n/a	-999	7	[0, 0, 0]	n/a	catFR1	0	R1487T
1145.76	3.189	1155705	REC_END	n/a	n/a	n/a	n/a	-999	7	[0, 0, 0]	n/a	catFR1	0	R1487T
1148.949	10.349	1158894	COUNTDOWN_START	n/a	n/a	n/a	n/a	-999	7	[0, 0, 0]	n/a	catFR1	0	R1487T
1159.298	0.0	1169239	COUNTDOWN_END	n/a	n/a	n/a	n/a	-999	7	[0, 0, 0]	n/a	catFR1	0	R1487T
1159.298	2.167	1169248	ENCODING_START	n/a	n/a	n/a	n/a	-999	8	[0, 0, 0]	n/a	catFR1	0	R1487T
1161.465	1.6	1171409	WORD	n/a	wordpools/wordpool_categorized_EN.txt	COUCH	Furniture	1	8	[0, 0, 0]	n/a	catFR1	0	R1487T
1163.065	0.815	1173012	WORD_OFF	n/a	n/a	COUCH	Furniture	1	8	[0, 0, 0]	n/a	catFR1	0	R1487T
1163.88	1.601	1173827	WORD	n/a	wordpools/wordpool_categorized_EN.txt	CABINET	Furniture	2	8	[0, 0, 0]	n/a	catFR1	0	R1487T
1165.481	0.835	1175421	WORD_OFF	n/a	n/a	CABINET	Furniture	2	8	[0, 0, 0]	n/a	catFR1	0	R1487T
1166.316	1.599	1176263	WORD	n/a	wordpools/wordpool_categorized_EN.txt	COAT	Clothing	3	8	[0, 0, 0]	n/a	catFR1	0	R1487T
1167.915	0.867	1177857	WORD_OFF	n/a	n/a	COAT	Clothing	3	8	[0, 0, 0]	n/a	catFR1	0	R1487T
1168.782	1.6	1178725	WORD	n/a	wordpools/wordpool_categorized_EN.txt	UNDERWEAR	Clothing	4	8	[0, 0, 0]	n/a	catFR1	0	R1487T
1170.382	0.8	1180328	WORD_OFF	n/a	n/a	UNDERWEAR	Clothing	4	8	[0, 0, 0]	n/a	catFR1	0	R1487T
1171.182	1.616	1181125	WORD	n/a	wordpools/wordpool_categorized_EN.txt	LETTUCE	Vegetables	5	8	[0, 0, 0]	n/a	catFR1	0	R1487T
1172.798	0.918	1182737	WORD_OFF	n/a	n/a	LETTUCE	Vegetables	5	8	[0, 0, 0]	n/a	catFR1	0	R1487T
1173.716	1.616	1183659	WORD	n/a	wordpools/wordpool_categorized_EN.txt	CARROT	Vegetables	6	8	[0, 0, 0]	n/a	catFR1	0	R1487T
1175.332	0.884	1185279	WORD_OFF	n/a	n/a	CARROT	Vegetables	6	8	[0, 0, 0]	n/a	catFR1	0	R1487T
1176.216	1.616	1186156	WORD	n/a	wordpools/wordpool_categorized_EN.txt	TABLE	Furniture	7	8	[0, 0, 0]	n/a	catFR1	0	R1487T
1177.832	0.95	1187777	WORD_OFF	n/a	n/a	TABLE	Furniture	7	8	[0, 0, 0]	n/a	catFR1	0	R1487T
1178.782	1.617	1188725	WORD	n/a	wordpools/wordpool_categorized_EN.txt	SOFA	Furniture	8	8	[0, 0, 0]	n/a	catFR1	0	R1487T
1180.399	0.782	1190346	WORD_OFF	n/a	n/a	SOFA	Furniture	8	8	[0, 0, 0]	n/a	catFR1	0	R1487T
1181.181	1.6	1191125	WORD	n/a	wordpools/wordpool_categorized_EN.txt	CABBAGE	Vegetables	9	8	[0, 0, 0]	n/a	catFR1	0	R1487T
1182.781	0.801	1192728	WORD_OFF	n/a	n/a	CABBAGE	Vegetables	9	8	[0, 0, 0]	n/a	catFR1	0	R1487T
1183.582	1.6	1193525	WORD	n/a	wordpools/wordpool_categorized_EN.txt	CAULIFLOWER	Vegetables	10	8	[0, 0, 0]	n/a	catFR1	0	R1487T
1185.182	0.85	1195129	WORD_OFF	n/a	n/a	CAULIFLOWER	Vegetables	10	8	[0, 0, 0]	n/a	catFR1	0	R1487T
1186.032	1.617	1195979	WORD	n/a	wordpools/wordpool_categorized_EN.txt	SHIRT	Clothing	11	8	[0, 0, 0]	n/a	catFR1	0	R1487T
1187.649	0.949	1197591	WORD_OFF	n/a	n/a	SHIRT	Clothing	11	8	[0, 0, 0]	n/a	catFR1	0	R1487T
1188.598	1.601	1198539	WORD	n/a	wordpools/wordpool_categorized_EN.txt	PANTS	Clothing	12	8	[0, 0, 0]	n/a	catFR1	0	R1487T
1190.199	0.002	1200142	WORD_OFF	n/a	n/a	PANTS	Clothing	12	8	[0, 0, 0]	n/a	catFR1	0	R1487T
1190.201	0.0	1200142	ENCODING_END	n/a	n/a	n/a	n/a	-999	8	[0, 0, 0]	n/a	catFR1	0	R1487T
1190.201	0.0	1200142	DISTRACT_START	n/a	n/a	n/a	n/a	-999	8	[0, 0, 0]	n/a	catFR1	0	R1487T
1190.199	0.002	1200148	PROB	0.002	n/a	n/a	n/a	-999	8	[4, 2, 1]	8	catFR1	0	R1487T
1190.201	5.247	1200150	START	n/a	n/a	n/a	n/a	-999	8	[-999, -999, -999]	n/a	catFR1	0	R1487T
1195.448	3.401	1205397	PROB	3.401	n/a	n/a	n/a	-999	8	[1, 1, 4]	6	catFR1	0	R1487T
1198.849	4.517	1208798	PROB	4.517	n/a	n/a	n/a	-999	8	[2, 7, 1]	10	catFR1	0	R1487T
1203.366	2.432	1213314	PROB	2.432	n/a	n/a	n/a	-999	8	[5, 5, 1]	11	catFR1	0	R1487T
1205.798	2.818	1215746	PROB	2.818	n/a	n/a	n/a	-999	8	[4, 6, 2]	12	catFR1	0	R1487T
1208.616	4.432	1218564	PROB	4.432	n/a	n/a	n/a	-999	8	[5, 6, 3]	14	catFR1	0	R1487T
1213.048	0.0	1222993	DISTRACT_END	n/a	n/a	n/a	n/a	-999	8	[0, 0, 0]	n/a	catFR1	0	R1487T
1213.048	1.034	1222996	STOP	n/a	n/a	n/a	n/a	-999	8	[-999, -999, -999]	n/a	catFR1	0	R1487T
1214.082	1.751	1224021	REC_START	n/a	n/a	n/a	n/a	-999	8	[0, 0, 0]	n/a	catFR1	0	R1487T
1215.833	1.0	1225781	REC_WORD_VV	1.0	n/a	<>	n/a	-999	8	[0, 0, 0]	n/a	catFR1	0	R1487T
1216.833	2.208	1226781	REC_WORD_VV	2.208	n/a	<>	n/a	-999	8	[0, 0, 0]	n/a	catFR1	0	R1487T
1219.041	0.599	1228989	REC_WORD	0.599	n/a	CABINET	Furniture	2	8	[0, 0, 0]	n/a	catFR1	0	R1487T
1219.64	1.626	1229588	REC_WORD	1.626	n/a	COUCH	Furniture	1	8	[0, 0, 0]	n/a	catFR1	0	R1487T
1221.266	1.07	1231213	REC_WORD	1.07	n/a	PANTS	Clothing	12	8	[0, 0, 0]	n/a	catFR1	0	R1487T
1222.336	2.543	1232283	REC_WORD	2.543	n/a	SHIRT	Clothing	11	8	[0, 0, 0]	n/a	catFR1	0	R1487T
1224.879	1.0	1234826	REC_WORD_VV	1.0	n/a	<>	n/a	-999	8	[0, 0, 0]	n/a	catFR1	0	R1487T
1225.879	3.263	1235826	REC_WORD_VV	3.263	n/a	<>	n/a	-999	8	[0, 0, 0]	n/a	catFR1	0	R1487T
1229.142	1.0	1239089	REC_WORD_VV	1.0	n/a	<>	n/a	-999	8	[0, 0, 0]	n/a	catFR1	0	R1487T
1230.142	0.576	1240089	REC_WORD_VV	0.576	n/a	<>	n/a	-999	8	[0, 0, 0]	n/a	catFR1	0	R1487T
1230.718	1.0	1240665	REC_WORD	1.0	n/a	CAULIFLOWER	Vegetables	10	8	[0, 0, 0]	n/a	catFR1	0	R1487T
1231.718	0.119	1241665	REC_WORD	0.119	n/a	CAULIFLOWER	Vegetables	10	8	[0, 0, 0]	n/a	catFR1	0	R1487T
1231.837	6.42	1241784	REC_WORD	6.42	n/a	BROCCOLI	Vegetables	-999	8	[0, 0, 0]	n/a	catFR1	0	R1487T
1238.257	1.0	1248204	REC_WORD_VV	1.0	n/a	<>	n/a	-999	8	[0, 0, 0]	n/a	catFR1	0	R1487T
1239.257	6.056	1249204	REC_WORD_VV	6.056	n/a	<>	n/a	-999	8	[0, 0, 0]	n/a	catFR1	0	R1487T
1245.313	3.236	1255251	REC_END	n/a	n/a	n/a	n/a	-999	8	[0, 0, 0]	n/a	catFR1	0	R1487T
1248.549	10.35	1258493	COUNTDOWN_START	n/a	n/a	n/a	n/a	-999	8	[0, 0, 0]	n/a	catFR1	0	R1487T
1258.899	0.0	1268838	COUNTDOWN_END	n/a	n/a	n/a	n/a	-999	8	[0, 0, 0]	n/a	catFR1	0	R1487T
1258.899	1.916	1268838	ENCODING_START	n/a	n/a	n/a	n/a	-999	9	[0, 0, 0]	n/a	catFR1	0	R1487T
1260.815	1.616	1270751	WORD	n/a	wordpools/wordpool_categorized_EN.txt	SODA	Beverages	1	9	[0, 0, 0]	n/a	catFR1	0	R1487T
1262.431	0.934	1272372	WORD_OFF	n/a	n/a	SODA	Beverages	1	9	[0, 0, 0]	n/a	catFR1	0	R1487T
1263.365	1.601	1273302	WORD	n/a	wordpools/wordpool_categorized_EN.txt	LEMONADE	Beverages	2	9	[0, 0, 0]	n/a	catFR1	0	R1487T
1264.966	0.782	1274905	WORD_OFF	n/a	n/a	LEMONADE	Beverages	2	9	[0, 0, 0]	n/a	catFR1	0	R1487T
1265.748	1.601	1275693	WORD	n/a	wordpools/wordpool_categorized_EN.txt	CROWBAR	Tools	3	9	[0, 0, 0]	n/a	catFR1	0	R1487T
1267.349	0.832	1277287	WORD_OFF	n/a	n/a	CROWBAR	Tools	3	9	[0, 0, 0]	n/a	catFR1	0	R1487T
1268.181	1.6	1278120	WORD	n/a	wordpools/wordpool_categorized_EN.txt	LEVEL	Tools	4	9	[0, 0, 0]	n/a	catFR1	0	R1487T
1269.781	0.784	1279723	WORD_OFF	n/a	n/a	LEVEL	Tools	4	9	[0, 0, 0]	n/a	catFR1	0	R1487T
1270.565	1.617	1280502	WORD	n/a	wordpools/wordpool_categorized_EN.txt	JELLYFISH	OceanAnimals	5	9	[0, 0, 0]	n/a	catFR1	0	R1487T
1272.182	0.934	1282123	WORD_OFF	n/a	n/a	JELLYFISH	OceanAnimals	5	9	[0, 0, 0]	n/a	catFR1	0	R1487T
1273.116	1.616	1283053	WORD	n/a	wordpools/wordpool_categorized_EN.txt	SQUID	OceanAnimals	6	9	[0, 0, 0]	n/a	catFR1	0	R1487T
1274.732	0.917	1284674	WORD_OFF	n/a	n/a	SQUID	OceanAnimals	6	9	[0, 0, 0]	n/a	catFR1	0	R1487T
1275.649	1.616	1285586	WORD	n/a	wordpools/wordpool_categorized_EN.txt	SANDER	Tools	7	9	[0, 0, 0]	n/a	catFR1	0	R1487T
1277.265	0.768	1287207	WORD_OFF	n/a	n/a	SANDER	Tools	7	9	[0, 0, 0]	n/a	catFR1	0	R1487T
1278.033	1.616	1287969	WORD	n/a	wordpools/wordpool_categorized_EN.txt	AXE	Tools	8	9	[0, 0, 0]	n/a	catFR1	0	R1487T
1279.649	0.85	1289590	WORD_OFF	n/a	n/a	AXE	Tools	8	9	[0, 0, 0]	n/a	catFR1	0	R1487T
1280.499	1.617	1290440	WORD	n/a	wordpools/wordpool_categorized_EN.txt	WHALE	OceanAnimals	9	9	[0, 0, 0]	n/a	catFR1	0	R1487T
1282.116	1.0	1292052	WORD_OFF	n/a	n/a	WHALE	OceanAnimals	9	9	[0, 0, 0]	n/a	catFR1	0	R1487T
1283.116	1.616	1293053	WORD	n/a	wordpools/wordpool_categorized_EN.txt	DOLPHIN	OceanAnimals	10	9	[0, 0, 0]	n/a	catFR1	0	R1487T
1284.732	0.867	1294674	WORD_OFF	n/a	n/a	DOLPHIN	OceanAnimals	10	9	[0, 0, 0]	n/a	catFR1	0	R1487T
1285.599	1.6	1295533	WORD	n/a	wordpools/wordpool_categorized_EN.txt	TEA	Beverages	11	9	[0, 0, 0]	n/a	catFR1	0	R1487T
1287.199	0.965	1297136	WORD_OFF	n/a	n/a	TEA	Beverages	11	9	[0, 0, 0]	n/a	catFR1	0	R1487T
1288.164	1.602	1298102	WORD	n/a	wordpools/wordpool_categorized_EN.txt	COFFEE	Beverages	12	9	[0, 0, 0]	n/a	catFR1	0	R1487T
1289.766	0.001	1299705	WORD_OFF	n/a	n/a	COFFEE	Beverages	12	9	[0, 0, 0]	n/a	catFR1	0	R1487T
1289.767	0.0	1299705	ENCODING_END	n/a	n/a	n/a	n/a	-999	9	[0, 0, 0]	n/a	catFR1	0	R1487T
1289.767	0.0	1299705	DISTRACT_START	n/a	n/a	n/a	n/a	-999	9	[0, 0, 0]	n/a	catFR1	0	R1487T
1289.766	0.001	1299710	PROB	0.001	n/a	n/a	n/a	-999	9	[4, 3, 8]	15	catFR1	0	R1487T
1289.767	7.649	1299711	START	n/a	n/a	n/a	n/a	-999	9	[-999, -999, -999]	n/a	catFR1	0	R1487T
1297.416	4.85	1307360	PROB	4.85	n/a	n/a	n/a	-999	9	[5, 4, 3]	12	catFR1	0	R1487T
1302.266	3.399	1312209	PROB	3.399	n/a	n/a	n/a	-999	9	[2, 1, 8]	11	catFR1	0	R1487T
1305.665	5.234	1315608	PROB	5.234	n/a	n/a	n/a	-999	9	[8, 4, 3]	15	catFR1	0	R1487T
1310.899	0.0	1320838	DISTRACT_END	n/a	n/a	n/a	n/a	-999	9	[0, 0, 0]	n/a	catFR1	0	R1487T
1310.899	1.134	1320842	STOP	n/a	n/a	n/a	n/a	-999	9	[-999, -999, -999]	n/a	catFR1	0	R1487T
1312.033	1.226	1321972	REC_START	n/a	n/a	n/a	n/a	-999	9	[0, 0, 0]	n/a	catFR1	0	R1487T
1313.259	1.0	1323202	REC_WORD_VV	1.0	n/a	<>	n/a	-999	9	[0, 0, 0]	n/a	catFR1	0	R1487T
1314.259	2.088	1324202	REC_WORD_VV	2.088	n/a	<>	n/a	-999	9	[0, 0, 0]	n/a	catFR1	0	R1487T
1316.347	1.0	1326290	REC_WORD_VV	1.0	n/a	<>	n/a	-999	9	[0, 0, 0]	n/a	catFR1	0	R1487T
1317.347	3.608	1327290	REC_WORD_VV	3.608	n/a	<>	n/a	-999	9	[0, 0, 0]	n/a	catFR1	0	R1487T
1320.955	10.308	1330897	REC_WORD_VV	10.308	n/a	<>	n/a	-999	9	[0, 0, 0]	n/a	catFR1	0	R1487T
1331.263	3.0	1341205	REC_WORD_VV	3.0	n/a	<>	n/a	-999	9	[0, 0, 0]	n/a	catFR1	0	R1487T
1334.263	5.236	1344205	REC_WORD_VV	5.236	n/a	<>	n/a	-999	9	[0, 0, 0]	n/a	catFR1	0	R1487T
1339.499	1.0	1349440	REC_WORD_VV	1.0	n/a	<>	n/a	-999	9	[0, 0, 0]	n/a	catFR1	0	R1487T
1340.499	1.0	1350440	REC_WORD_VV	1.0	n/a	<>	n/a	-999	9	[0, 0, 0]	n/a	catFR1	0	R1487T
1341.499	1.758	1351440	REC_WORD_VV	1.758	n/a	<>	n/a	-999	9	[0, 0, 0]	n/a	catFR1	0	R1487T
1343.257	6.041	1353193	REC_END	n/a	n/a	n/a	n/a	-999	9	[0, 0, 0]	n/a	catFR1	0	R1487T
1349.298	10.35	1359234	COUNTDOWN_START	n/a	n/a	n/a	n/a	-999	9	[0, 0, 0]	n/a	catFR1	0	R1487T
1359.648	0.0	1369579	COUNTDOWN_END	n/a	n/a	n/a	n/a	-999	9	[0, 0, 0]	n/a	catFR1	0	R1487T
1359.648	1.984	1369588	ENCODING_START	n/a	n/a	n/a	n/a	-999	10	[0, 0, 0]	n/a	catFR1	0	R1487T
1361.632	1.6	1371563	WORD	n/a	wordpools/wordpool_categorized_EN.txt	STRAWBERRY	Fruit	1	10	[0, 0, 0]	n/a	catFR1	0	R1487T
1363.232	0.85	1373166	WORD_OFF	n/a	n/a	STRAWBERRY	Fruit	1	10	[0, 0, 0]	n/a	catFR1	0	R1487T
1364.082	1.6	1374016	WORD	n/a	wordpools/wordpool_categorized_EN.txt	ORANGE	Fruit	2	10	[0, 0, 0]	n/a	catFR1	0	R1487T
1365.682	0.933	1375619	WORD_OFF	n/a	n/a	ORANGE	Fruit	2	10	[0, 0, 0]	n/a	catFR1	0	R1487T
1366.615	1.601	1376549	WORD	n/a	wordpools/wordpool_categorized_EN.txt	KNIFE	KitchenTools	3	10	[0, 0, 0]	n/a	catFR1	0	R1487T
1368.216	0.783	1378152	WORD_OFF	n/a	n/a	KNIFE	KitchenTools	3	10	[0, 0, 0]	n/a	catFR1	0	R1487T
1368.999	1.6	1378932	WORD	n/a	wordpools/wordpool_categorized_EN.txt	PEELER	KitchenTools	4	10	[0, 0, 0]	n/a	catFR1	0	R1487T
1370.599	0.767	1380535	WORD_OFF	n/a	n/a	PEELER	KitchenTools	4	10	[0, 0, 0]	n/a	catFR1	0	R1487T
1371.366	1.615	1381297	WORD	n/a	wordpools/wordpool_categorized_EN.txt	OYSTER	OceanAnimals	5	10	[0, 0, 0]	n/a	catFR1	0	R1487T
1372.981	0.851	1382918	WORD_OFF	n/a	n/a	OYSTER	OceanAnimals	5	10	[0, 0, 0]	n/a	catFR1	0	R1487T
1373.832	1.616	1383768	WORD	n/a	wordpools/wordpool_categorized_EN.txt	SHRIMP	OceanAnimals	6	10	[0, 0, 0]	n/a	catFR1	0	R1487T
1375.448	0.834	1385380	WORD_OFF	n/a	n/a	SHRIMP	OceanAnimals	6	10	[0, 0, 0]	n/a	catFR1	0	R1487T
1376.282	1.6	1386212	WORD	n/a	wordpools/wordpool_categorized_EN.txt	SPOON	KitchenTools	7	10	[0, 0, 0]	n/a	catFR1	0	R1487T
1377.882	0.8	1387816	WORD_OFF	n/a	n/a	SPOON	KitchenTools	7	10	[0, 0, 0]	n/a	catFR1	0	R1487T
1378.682	1.6	1388613	WORD	n/a	wordpools/wordpool_categorized_EN.txt	TONGS	KitchenTools	8	10	[0, 0, 0]	n/a	catFR1	0	R1487T
1380.282	0.833	1390216	WORD_OFF	n/a	n/a	TONGS	KitchenTools	8	10	[0, 0, 0]	n/a	catFR1	0	R1487T
1381.115	1.601	1391048	WORD	n/a	wordpools/wordpool_categorized_EN.txt	PLUM	Fruit	9	10	[0, 0, 0]	n/a	catFR1	0	R1487T
1382.716	0.883	1392652	WORD_OFF	n/a	n/a	PLUM	Fruit	9	10	[0, 0, 0]	n/a	catFR1	0	R1487T
1383.599	1.6	1393528	WORD	n/a	wordpools/wordpool_categorized_EN.txt	CHERRY	Fruit	10	10	[0, 0, 0]	n/a	catFR1	0	R1487T
1385.199	0.9	1395132	WORD_OFF	n/a	n/a	CHERRY	Fruit	10	10	[0, 0, 0]	n/a	catFR1	0	R1487T
1386.099	1.6	1396035	WORD	n/a	wordpools/wordpool_categorized_EN.txt	PLANKTON	OceanAnimals	11	10	[0, 0, 0]	n/a	catFR1	0	R1487T
1387.699	0.85	1397629	WORD_OFF	n/a	n/a	PLANKTON	OceanAnimals	11	10	[0, 0, 0]	n/a	catFR1	0	R1487T
1388.549	1.616	1398480	WORD	n/a	wordpools/wordpool_categorized_EN.txt	CRAB	OceanAnimals	12	10	[0, 0, 0]	n/a	catFR1	0	R1487T
1390.165	0.002	1400100	WORD_OFF	n/a	n/a	CRAB	OceanAnimals	12	10	[0, 0, 0]	n/a	catFR1	0	R1487T
1390.167	0.0	1400100	ENCODING_END	n/a	n/a	n/a	n/a	-999	10	[0, 0, 0]	n/a	catFR1	0	R1487T
1390.167	0.0	1400100	DISTRACT_START	n/a	n/a	n/a	n/a	-999	10	[0, 0, 0]	n/a	catFR1	0	R1487T
1390.166	0.001	1400105	PROB	0.001	n/a	n/a	n/a	-999	10	[5, 1, 2]	8	catFR1	0	R1487T
1390.167	6.333	1400106	START	n/a	n/a	n/a	n/a	-999	10	[-999, -999, -999]	n/a	catFR1	0	R1487T
1396.5	4.0	1406438	PROB	4.0	n/a	n/a	n/a	-999	10	[3, 7, 4]	14	catFR1	0	R1487T
1400.5	3.232	1410438	PROB	3.232	n/a	n/a	n/a	-999	10	[5, 2, 5]	12	catFR1	0	R1487T
1403.732	5.617	1413670	PROB	5.617	n/a	n/a	n/a	-999	10	[3, 2, 8]	13	catFR1	0	R1487T
1409.349	4.566	1419287	PROB	4.566	n/a	n/a	n/a	-999	10	[6, 1, 5]	12	catFR1	0	R1487T
1413.915	0.0	1423846	DISTRACT_END	n/a	n/a	n/a	n/a	-999	10	[0, 0, 0]	n/a	catFR1	0	R1487T
1413.915	1.084	1423853	STOP	n/a	n/a	n/a	n/a	-999	10	[-999, -999, -999]	n/a	catFR1	0	R1487T
1414.999	4.955	1424927	REC_START	n/a	n/a	n/a	n/a	-999	10	[0, 0, 0]	n/a	catFR1	0	R1487T
1419.954	2.321	1429891	REC_WORD	2.321	n/a	TOOK	n/a	-999	10	[0, 0, 0]	n/a	catFR1	0	R1487T
1422.275	1.0	1432212	REC_WORD_VV	1.0	n/a	<>	n/a	-999	10	[0, 0, 0]	n/a	catFR1	0	R1487T
1423.275	1.0	1433212	REC_WORD_VV	1.0	n/a	<>	n/a	-999	10	[0, 0, 0]	n/a	catFR1	0	R1487T
1424.275	0.237	1434212	REC_WORD_VV	0.237	n/a	<>	n/a	-999	10	[0, 0, 0]	n/a	catFR1	0	R1487T
1424.512	2.591	1434449	REC_WORD	2.591	n/a	GIRAFFE	Zoo	-999	10	[0, 0, 0]	n/a	catFR1	0	R1487T
1427.103	6.799	1437040	REC_WORD	6.799	n/a	ZEBRA	Zoo	-999	10	[0, 0, 0]	n/a	catFR1	0	R1487T
1433.902	1.263	1443839	REC_WORD	1.263	n/a	COFFEE	Beverages	-999	10	[0, 0, 0]	n/a	catFR1	0	R1487T
1435.165	0.396	1445102	REC_WORD	0.396	n/a	ORANGE	Fruit	2	10	[0, 0, 0]	n/a	catFR1	0	R1487T
1435.561	8.228	1445497	REC_WORD	8.228	n/a	JUICE	n/a	-999	10	[0, 0, 0]	n/a	catFR1	0	R1487T
1443.789	1.0	1453725	REC_WORD_VV	1.0	n/a	<>	n/a	-999	10	[0, 0, 0]	n/a	catFR1	0	R1487T
1444.789	1.45	1454725	REC_WORD_VV	1.45	n/a	<>	n/a	-999	10	[0, 0, 0]	n/a	catFR1	0	R1487T
1446.239	3.276	1456166	REC_END	n/a	n/a	n/a	n/a	-999	10	[0, 0, 0]	n/a	catFR1	0	R1487T
1449.515	10.351	1459443	COUNTDOWN_START	n/a	n/a	n/a	n/a	-999	10	[0, 0, 0]	n/a	catFR1	0	R1487T
1459.866	0.0	1469797	COUNTDOWN_END	n/a	n/a	n/a	n/a	-999	10	[0, 0, 0]	n/a	catFR1	0	R1487T
1459.866	1.833	1469797	ENCODING_START	n/a	n/a	n/a	n/a	-999	11	[0, 0, 0]	n/a	catFR1	0	R1487T
1461.699	1.6	1471631	WORD	n/a	wordpools/wordpool_categorized_EN.txt	THUNDERSTORM	Weather	1	11	[0, 0, 0]	n/a	catFR1	0	R1487T
1463.299	0.983	1473225	WORD_OFF	n/a	n/a	THUNDERSTORM	Weather	1	11	[0, 0, 0]	n/a	catFR1	0	R1487T
1464.282	1.617	1474208	WORD	n/a	wordpools/wordpool_categorized_EN.txt	HUMIDITY	Weather	2	11	[0, 0, 0]	n/a	catFR1	0	R1487T
1465.899	0.85	1475829	WORD_OFF	n/a	n/a	HUMIDITY	Weather	2	11	[0, 0, 0]	n/a	catFR1	0	R1487T
1466.749	1.6	1476679	WORD	n/a	wordpools/wordpool_categorized_EN.txt	COLA	Beverages	3	11	[0, 0, 0]	n/a	catFR1	0	R1487T
1468.349	0.8	1478274	WORD_OFF	n/a	n/a	COLA	Beverages	3	11	[0, 0, 0]	n/a	catFR1	0	R1487T
1469.149	1.6	1479080	WORD	n/a	wordpools/wordpool_categorized_EN.txt	RUM	Beverages	4	11	[0, 0, 0]	n/a	catFR1	0	R1487T
1470.749	1.0	1480674	WORD_OFF	n/a	n/a	RUM	Beverages	4	11	[0, 0, 0]	n/a	catFR1	0	R1487T
1471.749	1.6	1481675	WORD	n/a	wordpools/wordpool_categorized_EN.txt	SHELF	Furniture	5	11	[0, 0, 0]	n/a	catFR1	0	R1487T
1473.349	0.916	1483278	WORD_OFF	n/a	n/a	SHELF	Furniture	5	11	[0, 0, 0]	n/a	catFR1	0	R1487T
1474.265	1.617	1484190	WORD	n/a	wordpools/wordpool_categorized_EN.txt	DRESSER	Furniture	6	11	[0, 0, 0]	n/a	catFR1	0	R1487T
1475.882	0.833	1485811	WORD_OFF	n/a	n/a	DRESSER	Furniture	6	11	[0, 0, 0]	n/a	catFR1	0	R1487T
1476.715	1.6	1486644	WORD	n/a	wordpools/wordpool_categorized_EN.txt	CIDER	Beverages	7	11	[0, 0, 0]	n/a	catFR1	0	R1487T
1478.315	0.884	1488247	WORD_OFF	n/a	n/a	CIDER	Beverages	7	11	[0, 0, 0]	n/a	catFR1	0	R1487T
1479.199	1.616	1489124	WORD	n/a	wordpools/wordpool_categorized_EN.txt	JUICE	Beverages	8	11	[0, 0, 0]	n/a	catFR1	0	R1487T
1480.815	1.001	1490744	WORD_OFF	n/a	n/a	JUICE	Beverages	8	11	[0, 0, 0]	n/a	catFR1	0	R1487T
1481.816	1.616	1491745	WORD	n/a	wordpools/wordpool_categorized_EN.txt	RECLINER	Furniture	9	11	[0, 0, 0]	n/a	catFR1	0	R1487T
1483.432	0.949	1493357	WORD_OFF	n/a	n/a	RECLINER	Furniture	9	11	[0, 0, 0]	n/a	catFR1	0	R1487T
1484.381	1.601	1494305	WORD	n/a	wordpools/wordpool_categorized_EN.txt	BOOKCASE	Furniture	10	11	[0, 0, 0]	n/a	catFR1	0	R1487T
1485.982	0.867	1495908	WORD_OFF	n/a	n/a	BOOKCASE	Furniture	10	11	[0, 0, 0]	n/a	catFR1	0	R1487T
1486.849	1.6	1496776	WORD	n/a	wordpools/wordpool_categorized_EN.txt	SNOW	Weather	11	11	[0, 0, 0]	n/a	catFR1	0	R1487T
1488.449	0.849	1498379	WORD_OFF	n/a	n/a	SNOW	Weather	11	11	[0, 0, 0]	n/a	catFR1	0	R1487T
1489.298	1.617	1499228	WORD	n/a	wordpools/wordpool_categorized_EN.txt	HURRICANE	Weather	12	11	[0, 0, 0]	n/a	catFR1	0	R1487T
1490.915	0.002	1500842	WORD_OFF	n/a	n/a	HURRICANE	Weather	12	11	[0, 0, 0]	n/a	catFR1	0	R1487T
1490.917	0.0	1500842	ENCODING_END	n/a	n/a	n/a	n/a	-999	11	[0, 0, 0]	n/a	catFR1	0	R1487T
1490.917	0.0	1500850	DISTRACT_START	n/a	n/a	n/a	n/a	-999	11	[0, 0, 0]	n/a	catFR1	0	R1487T
1490.916	0.001	1500850	PROB	0.001	n/a	n/a	n/a	-999	11	[6, 1, 7]	14	catFR1	0	R1487T
1490.917	5.916	1500851	START	n/a	n/a	n/a	n/a	-999	11	[-999, -999, -999]	n/a	catFR1	0	R1487T
1496.833	3.466	1506766	PROB	3.466	n/a	n/a	n/a	-999	11	[7, 5, 5]	17	catFR1	0	R1487T
1500.299	3.867	1510232	PROB	3.867	n/a	n/a	n/a	-999	11	[4, 7, 4]	15	catFR1	0	R1487T
1504.166	6.284	1514099	PROB	6.284	n/a	n/a	n/a	-999	11	[4, 5, 7]	16	catFR1	0	R1487T
1510.45	6.166	1520383	PROB	6.166	n/a	n/a	n/a	-999	11	[8, 6, 7]	21	catFR1	0	R1487T
1516.616	0.0	1526545	DISTRACT_END	n/a	n/a	n/a	n/a	-999	11	[0, 0, 0]	n/a	catFR1	0	R1487T
1516.616	1.249	1526548	STOP	n/a	n/a	n/a	n/a	-999	11	[-999, -999, -999]	n/a	catFR1	0	R1487T
1517.865	0.042	1527794	REC_START	n/a	n/a	n/a	n/a	-999	11	[0, 0, 0]	n/a	catFR1	0	R1487T
1517.907	1.0	1527839	REC_WORD	1.0	n/a	THUNDERSTORM	Weather	1	11	[0, 0, 0]	n/a	catFR1	0	R1487T
1518.907	0.687	1528839	REC_WORD	0.687	n/a	THUNDERSTORM	Weather	1	11	[0, 0, 0]	n/a	catFR1	0	R1487T
1519.594	0.409	1529526	REC_WORD_VV	0.409	n/a	<>	n/a	-999	11	[0, 0, 0]	n/a	catFR1	0	R1487T
1520.003	1.566	1529935	REC_WORD	1.566	n/a	HOOK	n/a	-999	11	[0, 0, 0]	n/a	catFR1	0	R1487T
1521.569	3.735	1531501	REC_WORD_VV	3.735	n/a	<>	n/a	-999	11	[0, 0, 0]	n/a	catFR1	0	R1487T
1525.304	1.0	1535236	REC_WORD_VV	1.0	n/a	<>	n/a	-999	11	[0, 0, 0]	n/a	catFR1	0	R1487T
1526.304	9.809	1536236	REC_WORD_VV	9.809	n/a	<>	n/a	-999	11	[0, 0, 0]	n/a	catFR1	0	R1487T
1536.113	1.0	1546044	REC_WORD_VV	1.0	n/a	<>	n/a	-999	11	[0, 0, 0]	n/a	catFR1	0	R1487T
1537.113	1.0	1547044	REC_WORD_VV	1.0	n/a	<>	n/a	-999	11	[0, 0, 0]	n/a	catFR1	0	R1487T
1538.113	1.917	1548044	REC_WORD_VV	1.917	n/a	<>	n/a	-999	11	[0, 0, 0]	n/a	catFR1	0	R1487T
1540.03	2.201	1549961	REC_WORD_VV	2.201	n/a	<>	n/a	-999	11	[0, 0, 0]	n/a	catFR1	0	R1487T
1542.231	1.0	1552162	REC_WORD	1.0	n/a	GIRAFFE	Zoo	-999	11	[0, 0, 0]	n/a	catFR1	0	R1487T
1543.231	5.848	1553162	REC_WORD	5.848	n/a	GIRAFFE	Zoo	-999	11	[0, 0, 0]	n/a	catFR1	0	R1487T
1549.079	7.587	1559006	REC_END	n/a	n/a	n/a	n/a	-999	11	[0, 0, 0]	n/a	catFR1	0	R1487T
1556.666	10.35	1566588	COUNTDOWN_START	n/a	n/a	n/a	n/a	-999	11	[0, 0, 0]	n/a	catFR1	0	R1487T
1567.016	0.0	1576942	COUNTDOWN_END	n/a	n/a	n/a	n/a	-999	11	[0, 0, 0]	n/a	catFR1	0	R1487T
1567.016	2.233	1576942	ENCODING_START	n/a	n/a	n/a	n/a	-999	12	[0, 0, 0]	n/a	catFR1	0	R1487T
1569.249	1.6	1579174	WORD	n/a	wordpools/wordpool_categorized_EN.txt	JACKET	Clothing	1	12	[0, 0, 0]	n/a	catFR1	0	R1487T
1570.849	0.866	1580768	WORD_OFF	n/a	n/a	JACKET	Clothing	1	12	[0, 0, 0]	n/a	catFR1	0	R1487T
1571.715	1.6	1581636	WORD	n/a	wordpools/wordpool_categorized_EN.txt	SOCKS	Clothing	2	12	[0, 0, 0]	n/a	catFR1	0	R1487T
1573.315	0.817	1583239	WORD_OFF	n/a	n/a	SOCKS	Clothing	2	12	[0, 0, 0]	n/a	catFR1	0	R1487T
1574.132	1.616	1584063	WORD	n/a	wordpools/wordpool_categorized_EN.txt	FORK	KitchenTools	3	12	[0, 0, 0]	n/a	catFR1	0	R1487T
1575.748	0.818	1585675	WORD_OFF	n/a	n/a	FORK	KitchenTools	3	12	[0, 0, 0]	n/a	catFR1	0	R1487T
1576.566	1.599	1586490	WORD	n/a	wordpools/wordpool_categorized_EN.txt	LADLE	KitchenTools	4	12	[0, 0, 0]	n/a	catFR1	0	R1487T
1578.165	0.834	1588084	WORD_OFF	n/a	n/a	LADLE	KitchenTools	4	12	[0, 0, 0]	n/a	catFR1	0	R1487T
1578.999	1.6	1588917	WORD	n/a	wordpools/wordpool_categorized_EN.txt	RAIN	Weather	5	12	[0, 0, 0]	n/a	catFR1	0	R1487T
1580.599	0.966	1590520	WORD_OFF	n/a	n/a	RAIN	Weather	5	12	[0, 0, 0]	n/a	catFR1	0	R1487T
1581.565	1.617	1591485	WORD	n/a	wordpools/wordpool_categorized_EN.txt	DRIZZLE	Weather	6	12	[0, 0, 0]	n/a	catFR1	0	R1487T
1583.182	0.967	1593106	WORD_OFF	n/a	n/a	DRIZZLE	Weather	6	12	[0, 0, 0]	n/a	catFR1	0	R1487T
1584.149	1.6	1594072	WORD	n/a	wordpools/wordpool_categorized_EN.txt	GRATER	KitchenTools	7	12	[0, 0, 0]	n/a	catFR1	0	R1487T
1585.749	0.967	1595675	WORD_OFF	n/a	n/a	GRATER	KitchenTools	7	12	[0, 0, 0]	n/a	catFR1	0	R1487T
1586.716	1.616	1596640	WORD	n/a	wordpools/wordpool_categorized_EN.txt	CORKSCREW	KitchenTools	8	12	[0, 0, 0]	n/a	catFR1	0	R1487T
1588.332	0.917	1598252	WORD_OFF	n/a	n/a	CORKSCREW	KitchenTools	8	12	[0, 0, 0]	n/a	catFR1	0	R1487T
1589.249	1.617	1599173	WORD	n/a	wordpools/wordpool_categorized_EN.txt	LIGHTNING	Weather	9	12	[0, 0, 0]	n/a	catFR1	0	R1487T
1590.866	0.966	1600785	WORD_OFF	n/a	n/a	LIGHTNING	Weather	9	12	[0, 0, 0]	n/a	catFR1	0	R1487T
1591.832	1.616	1601751	WORD	n/a	wordpools/wordpool_categorized_EN.txt	CLOUD	Weather	10	12	[0, 0, 0]	n/a	catFR1	0	R1487T
1593.448	0.901	1603372	WORD_OFF	n/a	n/a	CLOUD	Weather	10	12	[0, 0, 0]	n/a	catFR1	0	R1487T
1594.349	1.616	1604275	WORD	n/a	wordpools/wordpool_categorized_EN.txt	SHOES	Clothing	11	12	[0, 0, 0]	n/a	catFR1	0	R1487T
1595.965	0.8	1605887	WORD_OFF	n/a	n/a	SHOES	Clothing	11	12	[0, 0, 0]	n/a	catFR1	0	R1487T
1596.765	1.601	1606684	WORD	n/a	wordpools/wordpool_categorized_EN.txt	SKIRT	Clothing	12	12	[0, 0, 0]	n/a	catFR1	0	R1487T
1598.366	0.001	1608287	WORD_OFF	n/a	n/a	SKIRT	Clothing	12	12	[0, 0, 0]	n/a	catFR1	0	R1487T
1598.367	0.0	1608287	ENCODING_END	n/a	n/a	n/a	n/a	-999	12	[0, 0, 0]	n/a	catFR1	0	R1487T
1598.367	0.0	1608287	DISTRACT_START	n/a	n/a	n/a	n/a	-999	12	[0, 0, 0]	n/a	catFR1	0	R1487T
1598.366	0.001	1608294	PROB	0.001	n/a	n/a	n/a	-999	12	[2, 8, 7]	17	catFR1	0	R1487T
1598.367	10.565	1608295	START	n/a	n/a	n/a	n/a	-999	12	[-999, -999, -999]	n/a	catFR1	0	R1487T
1608.932	5.101	1618860	PROB	5.101	n/a	n/a	n/a	-999	12	[8, 8, 1]	17	catFR1	0	R1487T
1614.033	6.116	1623960	PROB	6.116	n/a	n/a	n/a	-999	12	[4, 2, 5]	13	catFR1	0	R1487T
1620.149	0.0	1630067	DISTRACT_END	n/a	n/a	n/a	n/a	-999	12	[0, 0, 0]	n/a	catFR1	0	R1487T
1620.149	1.116	1630076	STOP	n/a	n/a	n/a	n/a	-999	12	[-999, -999, -999]	n/a	catFR1	0	R1487T
1621.265	2.989	1631183	REC_START	n/a	n/a	n/a	n/a	-999	12	[0, 0, 0]	n/a	catFR1	0	R1487T
1624.254	1.0	1634181	REC_WORD_VV	1.0	n/a	<>	n/a	-999	12	[0, 0, 0]	n/a	catFR1	0	R1487T
1625.254	1.0	1635181	REC_WORD_VV	1.0	n/a	<>	n/a	-999	12	[0, 0, 0]	n/a	catFR1	0	R1487T
1626.254	1.0	1636181	REC_WORD_VV	1.0	n/a	<>	n/a	-999	12	[0, 0, 0]	n/a	catFR1	0	R1487T
1627.254	2.146	1637181	REC_WORD_VV	2.146	n/a	<>	n/a	-999	12	[0, 0, 0]	n/a	catFR1	0	R1487T
1629.4	1.815	1639327	REC_WORD_VV	1.815	n/a	<>	n/a	-999	12	[0, 0, 0]	n/a	catFR1	0	R1487T
1631.215	6.341	1641141	REC_WORD_VV	6.341	n/a	<>	n/a	-999	12	[0, 0, 0]	n/a	catFR1	0	R1487T
1637.556	5.06	1647482	REC_WORD_VV	5.06	n/a	<>	n/a	-999	12	[0, 0, 0]	n/a	catFR1	0	R1487T
1642.616	1.0	1652542	REC_WORD_VV	1.0	n/a	<>	n/a	-999	12	[0, 0, 0]	n/a	catFR1	0	R1487T
1643.616	5.445	1653542	REC_WORD_VV	5.445	n/a	<>	n/a	-999	12	[0, 0, 0]	n/a	catFR1	0	R1487T
1649.061	1.0	1658987	REC_WORD_VV	1.0	n/a	<>	n/a	-999	12	[0, 0, 0]	n/a	catFR1	0	R1487T
1650.061	1.0	1659986	REC_WORD_VV	1.0	n/a	<>	n/a	-999	12	[0, 0, 0]	n/a	catFR1	0	R1487T
1651.061	1.437	1660986	REC_WORD_VV	1.437	n/a	<>	n/a	-999	12	[0, 0, 0]	n/a	catFR1	0	R1487T
1652.498	0.0	1662413	REC_END	n/a	n/a	n/a	n/a	-999	12	[0, 0, 0]	n/a	catFR1	0	R1487T
