onset	duration	sample	trial_type	response_time	stim_file	item_name	category	serialpos	list	test	answer	experiment	session	subject
0.0	0.0	119556	INSTRUCT_START	n/a	n/a	n/a	n/a	-999	-999	[0, 0, 0]	n/a	catFR1	0	R1189M
0.0	10.775	119556	INSTRUCT_END	n/a	n/a	n/a	n/a	-999	-999	[0, 0, 0]	n/a	catFR1	0	R1189M
10.775	0.0	130331	SESS_START	n/a	n/a	n/a	n/a	-999	-999	[0, 0, 0]	n/a	catFR1	0	R1189M
10.775	68.775	130331	MIC_TEST	n/a	n/a	n/a	n/a	-999	-999	[0, 0, 0]	n/a	catFR1	0	R1189M
79.55	3.667	199102	PRACTICE_TRIAL	n/a	n/a	n/a	n/a	-999	-1	[0, 0, 0]	n/a	catFR1	0	R1189M
83.217	10.428	202769	COUNTDOWN_START	n/a	n/a	n/a	n/a	-999	-1	[0, 0, 0]	n/a	catFR1	0	R1189M
93.645	0.008	213196	COUNTDOWN_END	n/a	n/a	n/a	n/a	-999	-1	[0, 0, 0]	n/a	catFR1	0	R1189M
93.653	1.617	213204	PRACTICE_ORIENT	n/a	n/a	n/a	n/a	-999	-1	[0, 0, 0]	n/a	catFR1	0	R1189M
95.27	2.333	214821	PRACTICE_ORIENT_OFF	n/a	n/a	n/a	n/a	-999	-1	[0, 0, 0]	n/a	catFR1	0	R1189M
97.603	1.617	217154	PRACTICE_WORD	n/a	n/a	FLOOD	n/a	-1	-1	[0, 0, 0]	n/a	catFR1	0	R1189M
99.22	0.866	218771	PRACTICE_WORD_OFF	n/a	n/a	FLOOD	n/a	-999	-1	[0, 0, 0]	n/a	catFR1	0	R1189M
100.086	1.618	219637	PRACTICE_WORD	n/a	n/a	IRON	n/a	-1	-1	[0, 0, 0]	n/a	catFR1	0	R1189M
101.704	0.95	221255	PRACTICE_WORD_OFF	n/a	n/a	IRON	n/a	-999	-1	[0, 0, 0]	n/a	catFR1	0	R1189M
102.654	1.617	222204	PRACTICE_WORD	n/a	n/a	WATCH	n/a	-1	-1	[0, 0, 0]	n/a	catFR1	0	R1189M
104.271	0.934	223821	PRACTICE_WORD_OFF	n/a	n/a	WATCH	n/a	-999	-1	[0, 0, 0]	n/a	catFR1	0	R1189M
105.205	1.617	224755	PRACTICE_WORD	n/a	n/a	CAMEL	n/a	-1	-1	[0, 0, 0]	n/a	catFR1	0	R1189M
106.822	0.967	226372	PRACTICE_WORD_OFF	n/a	n/a	CAMEL	n/a	-999	-1	[0, 0, 0]	n/a	catFR1	0	R1189M
107.789	1.617	227339	PRACTICE_WORD	n/a	n/a	RING	n/a	-1	-1	[0, 0, 0]	n/a	catFR1	0	R1189M
109.406	0.783	228956	PRACTICE_WORD_OFF	n/a	n/a	RING	n/a	-999	-1	[0, 0, 0]	n/a	catFR1	0	R1189M
110.189	1.617	229739	PRACTICE_WORD	n/a	n/a	BEAM	n/a	-1	-1	[0, 0, 0]	n/a	catFR1	0	R1189M
111.806	0.8	231356	PRACTICE_WORD_OFF	n/a	n/a	BEAM	n/a	-999	-1	[0, 0, 0]	n/a	catFR1	0	R1189M
112.606	1.617	232156	PRACTICE_WORD	n/a	n/a	TONGUE	n/a	-1	-1	[0, 0, 0]	n/a	catFR1	0	R1189M
114.223	0.883	233773	PRACTICE_WORD_OFF	n/a	n/a	TONGUE	n/a	-999	-1	[0, 0, 0]	n/a	catFR1	0	R1189M
115.106	1.618	234656	PRACTICE_WORD	n/a	n/a	RHINO	n/a	-1	-1	[0, 0, 0]	n/a	catFR1	0	R1189M
116.724	0.9	236274	PRACTICE_WORD_OFF	n/a	n/a	RHINO	n/a	-999	-1	[0, 0, 0]	n/a	catFR1	0	R1189M
117.624	1.617	237174	PRACTICE_WORD	n/a	n/a	WAGON	n/a	-1	-1	[0, 0, 0]	n/a	catFR1	0	R1189M
119.241	0.832	238791	PRACTICE_WORD_OFF	n/a	n/a	WAGON	n/a	-999	-1	[0, 0, 0]	n/a	catFR1	0	R1189M
120.073	1.618	239622	PRACTICE_WORD	n/a	n/a	CHEST	n/a	-1	-1	[0, 0, 0]	n/a	catFR1	0	R1189M
121.691	0.95	241240	PRACTICE_WORD_OFF	n/a	n/a	CHEST	n/a	-999	-1	[0, 0, 0]	n/a	catFR1	0	R1189M
122.641	1.617	242190	PRACTICE_WORD	n/a	n/a	ATTIC	n/a	-1	-1	[0, 0, 0]	n/a	catFR1	0	R1189M
124.258	0.967	243807	PRACTICE_WORD_OFF	n/a	n/a	ATTIC	n/a	-999	-1	[0, 0, 0]	n/a	catFR1	0	R1189M
125.225	1.617	244774	PRACTICE_WORD	n/a	n/a	COTTON	n/a	-1	-1	[0, 0, 0]	n/a	catFR1	0	R1189M
126.842	0.0	246391	PRACTICE_WORD_OFF	n/a	n/a	COTTON	n/a	-999	-1	[0, 0, 0]	n/a	catFR1	0	R1189M
126.842	0.001	246391	ENCODING_END	n/a	n/a	n/a	n/a	-999	-1	[0, 0, 0]	n/a	catFR1	0	R1189M
126.843	0.0	246392	DISTRACT_START	n/a	n/a	n/a	n/a	-999	-1	[0, 0, 0]	n/a	catFR1	0	R1189M
126.843	0.016	246392	START	n/a	n/a	n/a	n/a	-999	-1	[-999, -999, -999]	n/a	catFR1	0	R1189M
126.859	6.685	246408	PROB	6.647	n/a	n/a	n/a	-999	-1	[5, 2, 4]	11.0	catFR1	0	R1189M
133.544	3.684	253093	PROB	3.649	n/a	n/a	n/a	-999	-1	[6, 9, 1]	19.0	catFR1	0	R1189M
137.228	5.001	256777	PROB	4.974	n/a	n/a	n/a	-999	-1	[3, 7, 9]	19.0	catFR1	0	R1189M
142.229	2.517	261777	PROB	2.484	n/a	n/a	n/a	-999	-1	[1, 1, 3]	5.0	catFR1	0	R1189M
144.746	4.359	264294	PROB	4.359	n/a	n/a	n/a	-999	-1	[8, 3, 5]	16.0	catFR1	0	R1189M
149.105	0.008	268653	STOP	n/a	n/a	n/a	n/a	-999	-1	[-999, -999, -999]	n/a	catFR1	0	R1189M
149.113	0.7	268661	DISTRACT_END	n/a	n/a	n/a	n/a	-999	-1	[0, 0, 0]	n/a	catFR1	0	R1189M
149.813	0.521	269361	RETRIEVAL_ORIENT	n/a	n/a	n/a	n/a	-999	-1	[0, 0, 0]	n/a	catFR1	0	R1189M
150.334	30.01	269882	PRACTICE_REC_START	n/a	n/a	n/a	n/a	-999	-1	[0, 0, 0]	n/a	catFR1	0	R1189M
180.344	22.279	299890	PRACTICE_REC_END	n/a	n/a	n/a	n/a	-999	-1	[0, 0, 0]	n/a	catFR1	0	R1189M
202.623	0.5	322168	TRIAL	n/a	n/a	n/a	n/a	-999	1	[0, 0, 0]	n/a	catFR1	0	R1189M
203.123	10.428	322668	COUNTDOWN_START	n/a	n/a	n/a	n/a	-999	1	[0, 0, 0]	n/a	catFR1	0	R1189M
213.551	0.008	333095	COUNTDOWN_END	n/a	n/a	n/a	n/a	-999	1	[0, 0, 0]	n/a	catFR1	0	R1189M
213.559	1.617	333103	ORIENT	n/a	n/a	n/a	n/a	-999	1	[0, 0, 0]	n/a	catFR1	0	R1189M
215.176	2.184	334720	ORIENT_OFF	n/a	n/a	n/a	n/a	-999	1	[0, 0, 0]	n/a	catFR1	0	R1189M
217.36	1.617	336904	WORD	n/a	wordpools/wordpool_categorized_EN.txt	TURKEY	FarmAnimals	1	1	[0, 0, 0]	n/a	catFR1	0	R1189M
218.977	0.95	338521	WORD_OFF	n/a	n/a	TURKEY	n/a	1	1	[0, 0, 0]	n/a	catFR1	0	R1189M
219.927	1.617	339471	WORD	n/a	wordpools/wordpool_categorized_EN.txt	CHICKEN	FarmAnimals	2	1	[0, 0, 0]	n/a	catFR1	0	R1189M
221.544	0.917	341088	WORD_OFF	n/a	n/a	CHICKEN	n/a	2	1	[0, 0, 0]	n/a	catFR1	0	R1189M
222.461	1.616	342005	WORD	n/a	wordpools/wordpool_categorized_EN.txt	MARBLES	Toys	3	1	[0, 0, 0]	n/a	catFR1	0	R1189M
224.077	0.801	343621	WORD_OFF	n/a	n/a	MARBLES	n/a	3	1	[0, 0, 0]	n/a	catFR1	0	R1189M
224.878	1.617	344422	WORD	n/a	wordpools/wordpool_categorized_EN.txt	BASEBALL	Toys	4	1	[0, 0, 0]	n/a	catFR1	0	R1189M
226.495	0.817	346038	WORD_OFF	n/a	n/a	BASEBALL	n/a	4	1	[0, 0, 0]	n/a	catFR1	0	R1189M
227.312	1.617	346855	WORD	n/a	wordpools/wordpool_categorized_EN.txt	BLUEBIRD	Birds	5	1	[0, 0, 0]	n/a	catFR1	0	R1189M
228.929	0.95	348472	WORD_OFF	n/a	n/a	BLUEBIRD	n/a	5	1	[0, 0, 0]	n/a	catFR1	0	R1189M
229.879	1.617	349422	WORD	n/a	wordpools/wordpool_categorized_EN.txt	HAWK	Birds	6	1	[0, 0, 0]	n/a	catFR1	0	R1189M
231.496	0.9	351039	WORD_OFF	n/a	n/a	HAWK	n/a	6	1	[0, 0, 0]	n/a	catFR1	0	R1189M
232.396	1.616	351939	WORD	n/a	wordpools/wordpool_categorized_EN.txt	GOAT	FarmAnimals	7	1	[0, 0, 0]	n/a	catFR1	0	R1189M
234.012	0.985	353555	WORD_OFF	n/a	n/a	GOAT	n/a	7	1	[0, 0, 0]	n/a	catFR1	0	R1189M
234.997	1.617	354540	WORD	n/a	wordpools/wordpool_categorized_EN.txt	LAMB	FarmAnimals	8	1	[0, 0, 0]	n/a	catFR1	0	R1189M
236.614	1.0	356157	WORD_OFF	n/a	n/a	LAMB	n/a	8	1	[0, 0, 0]	n/a	catFR1	0	R1189M
237.614	1.617	357157	WORD	n/a	wordpools/wordpool_categorized_EN.txt	SLINKY	Toys	9	1	[0, 0, 0]	n/a	catFR1	0	R1189M
239.231	0.816	358774	WORD_OFF	n/a	n/a	SLINKY	n/a	9	1	[0, 0, 0]	n/a	catFR1	0	R1189M
240.047	1.617	359590	WORD	n/a	wordpools/wordpool_categorized_EN.txt	PUZZLE	Toys	10	1	[0, 0, 0]	n/a	catFR1	0	R1189M
241.664	0.767	361207	WORD_OFF	n/a	n/a	PUZZLE	n/a	10	1	[0, 0, 0]	n/a	catFR1	0	R1189M
242.431	1.616	361973	WORD	n/a	wordpools/wordpool_categorized_EN.txt	FINCH	Birds	11	1	[0, 0, 0]	n/a	catFR1	0	R1189M
244.047	1.017	363589	WORD_OFF	n/a	n/a	FINCH	n/a	11	1	[0, 0, 0]	n/a	catFR1	0	R1189M
245.064	1.601	364606	WORD	n/a	wordpools/wordpool_categorized_EN.txt	GOOSE	Birds	12	1	[0, 0, 0]	n/a	catFR1	0	R1189M
246.665	0.001	366207	WORD_OFF	n/a	n/a	GOOSE	n/a	12	1	[0, 0, 0]	n/a	catFR1	0	R1189M
246.666	0.142	366208	ENCODING_END	n/a	n/a	n/a	n/a	-999	1	[0, 0, 0]	n/a	catFR1	0	R1189M
246.808	0.0	366350	DISTRACT_START	n/a	n/a	n/a	n/a	-999	1	[0, 0, 0]	n/a	catFR1	0	R1189M
246.808	0.007	366350	START	n/a	n/a	n/a	n/a	-999	1	[-999, -999, -999]	n/a	catFR1	0	R1189M
246.815	3.951	366357	PROB	3.914	n/a	n/a	n/a	-999	1	[7, 1, 3]	11.0	catFR1	0	R1189M
250.766	3.801	370308	PROB	3.771	n/a	n/a	n/a	-999	1	[9, 4, 3]	16.0	catFR1	0	R1189M
254.567	2.384	374109	PROB	2.347	n/a	n/a	n/a	-999	1	[9, 7, 7]	23.0	catFR1	0	R1189M
256.951	2.0	376493	PROB	1.962	n/a	n/a	n/a	-999	1	[4, 3, 5]	12.0	catFR1	0	R1189M
258.951	2.417	378493	PROB	2.385	n/a	n/a	n/a	-999	1	[4, 6, 9]	19.0	catFR1	0	R1189M
261.368	3.901	380909	PROB	3.865	n/a	n/a	n/a	-999	1	[4, 2, 1]	7.0	catFR1	0	R1189M
265.269	2.413	384810	PROB	2.413	n/a	n/a	n/a	-999	1	[4, 6, 1]	11.0	catFR1	0	R1189M
267.682	0.021	387223	STOP	n/a	n/a	n/a	n/a	-999	1	[-999, -999, -999]	n/a	catFR1	0	R1189M
267.703	0.633	387244	DISTRACT_END	n/a	n/a	n/a	n/a	-999	1	[0, 0, 0]	n/a	catFR1	0	R1189M
268.336	0.518	387877	RETRIEVAL_ORIENT	n/a	n/a	n/a	n/a	-999	1	[0, 0, 0]	n/a	catFR1	0	R1189M
268.854	1.624	388395	REC_START	n/a	n/a	n/a	n/a	-999	1	[0, 0, 0]	n/a	catFR1	0	R1189M
270.478	0.923	390019	REC_WORD_VV	1.624	n/a	<>	n/a	-999	1	[0, 0, 0]	n/a	catFR1	0	R1189M
271.401	1.588	390942	REC_WORD	2.547	n/a	TURKEY	FarmAnimals	1	1	[0, 0, 0]	n/a	catFR1	0	R1189M
272.989	3.865	392530	REC_WORD	4.135	n/a	CHICKEN	FarmAnimals	2	1	[0, 0, 0]	n/a	catFR1	0	R1189M
276.854	1.0	396395	REC_WORD	8.0	n/a	GOOSE	Birds	12	1	[0, 0, 0]	n/a	catFR1	0	R1189M
277.854	1.427	397394	REC_WORD_VV	9.0	n/a	<>	n/a	-999	1	[0, 0, 0]	n/a	catFR1	0	R1189M
279.281	4.417	398821	REC_WORD	10.427	n/a	LAMB	FarmAnimals	8	1	[0, 0, 0]	n/a	catFR1	0	R1189M
283.698	2.423	403238	REC_WORD	14.844	n/a	FINCH	Birds	11	1	[0, 0, 0]	n/a	catFR1	0	R1189M
286.121	3.181	405661	REC_WORD	17.267	n/a	BLUEBIRD	Birds	5	1	[0, 0, 0]	n/a	catFR1	0	R1189M
289.302	2.563	408842	REC_WORD	20.448	n/a	MARBLES	Toys	3	1	[0, 0, 0]	n/a	catFR1	0	R1189M
291.865	4.308	411405	REC_WORD	23.011	n/a	BASEBALL	Toys	4	1	[0, 0, 0]	n/a	catFR1	0	R1189M
296.173	1.907	415712	REC_WORD	27.319	n/a	SLINKY	Toys	9	1	[0, 0, 0]	n/a	catFR1	0	R1189M
298.08	0.785	417619	REC_WORD	29.226	n/a	PUZZLE	Toys	10	1	[0, 0, 0]	n/a	catFR1	0	R1189M
298.865	11.162	418404	REC_END	n/a	n/a	n/a	n/a	-999	1	[0, 0, 0]	n/a	catFR1	0	R1189M
310.027	0.5	429566	TRIAL	n/a	n/a	n/a	n/a	-999	2	[0, 0, 0]	n/a	catFR1	0	R1189M
310.527	10.428	430066	COUNTDOWN_START	n/a	n/a	n/a	n/a	-999	2	[0, 0, 0]	n/a	catFR1	0	R1189M
320.955	0.008	440493	COUNTDOWN_END	n/a	n/a	n/a	n/a	-999	2	[0, 0, 0]	n/a	catFR1	0	R1189M
320.963	1.617	440501	ORIENT	n/a	n/a	n/a	n/a	-999	2	[0, 0, 0]	n/a	catFR1	0	R1189M
322.58	1.951	442118	ORIENT_OFF	n/a	n/a	n/a	n/a	-999	2	[0, 0, 0]	n/a	catFR1	0	R1189M
324.531	1.617	444069	WORD	n/a	wordpools/wordpool_categorized_EN.txt	RADIO	Electronics	1	2	[0, 0, 0]	n/a	catFR1	0	R1189M
326.148	0.8	445686	WORD_OFF	n/a	n/a	RADIO	n/a	1	2	[0, 0, 0]	n/a	catFR1	0	R1189M
326.948	1.617	446486	WORD	n/a	wordpools/wordpool_categorized_EN.txt	SPEAKER	Electronics	2	2	[0, 0, 0]	n/a	catFR1	0	R1189M
328.565	0.85	448103	WORD_OFF	n/a	n/a	SPEAKER	n/a	2	2	[0, 0, 0]	n/a	catFR1	0	R1189M
329.415	1.616	448953	WORD	n/a	wordpools/wordpool_categorized_EN.txt	ARM	BodyParts	3	2	[0, 0, 0]	n/a	catFR1	0	R1189M
331.031	0.983	450568	WORD_OFF	n/a	n/a	ARM	n/a	3	2	[0, 0, 0]	n/a	catFR1	0	R1189M
332.014	1.618	451551	WORD	n/a	wordpools/wordpool_categorized_EN.txt	ELBOW	BodyParts	4	2	[0, 0, 0]	n/a	catFR1	0	R1189M
333.632	0.984	453169	WORD_OFF	n/a	n/a	ELBOW	n/a	4	2	[0, 0, 0]	n/a	catFR1	0	R1189M
334.616	1.617	454153	WORD	n/a	wordpools/wordpool_categorized_EN.txt	SNOW	Weather	5	2	[0, 0, 0]	n/a	catFR1	0	R1189M
336.233	0.816	455770	WORD_OFF	n/a	n/a	SNOW	n/a	5	2	[0, 0, 0]	n/a	catFR1	0	R1189M
337.049	1.618	456586	WORD	n/a	wordpools/wordpool_categorized_EN.txt	TORNADO	Weather	6	2	[0, 0, 0]	n/a	catFR1	0	R1189M
338.667	0.766	458204	WORD_OFF	n/a	n/a	TORNADO	n/a	6	2	[0, 0, 0]	n/a	catFR1	0	R1189M
339.433	1.616	458970	WORD	n/a	wordpools/wordpool_categorized_EN.txt	TOE	BodyParts	7	2	[0, 0, 0]	n/a	catFR1	0	R1189M
341.049	0.802	460586	WORD_OFF	n/a	n/a	TOE	n/a	7	2	[0, 0, 0]	n/a	catFR1	0	R1189M
341.851	1.617	461388	WORD	n/a	wordpools/wordpool_categorized_EN.txt	HAND	BodyParts	8	2	[0, 0, 0]	n/a	catFR1	0	R1189M
343.468	0.766	463005	WORD_OFF	n/a	n/a	HAND	n/a	8	2	[0, 0, 0]	n/a	catFR1	0	R1189M
344.234	1.617	463771	WORD	n/a	wordpools/wordpool_categorized_EN.txt	TELEVISION	Electronics	9	2	[0, 0, 0]	n/a	catFR1	0	R1189M
345.851	0.967	465388	WORD_OFF	n/a	n/a	TELEVISION	n/a	9	2	[0, 0, 0]	n/a	catFR1	0	R1189M
346.818	1.617	466355	WORD	n/a	wordpools/wordpool_categorized_EN.txt	STEREO	Electronics	10	2	[0, 0, 0]	n/a	catFR1	0	R1189M
348.435	0.834	467971	WORD_OFF	n/a	n/a	STEREO	n/a	10	2	[0, 0, 0]	n/a	catFR1	0	R1189M
349.269	1.617	468805	WORD	n/a	wordpools/wordpool_categorized_EN.txt	LIGHTNING	Weather	11	2	[0, 0, 0]	n/a	catFR1	0	R1189M
350.886	1.0	470422	WORD_OFF	n/a	n/a	LIGHTNING	n/a	11	2	[0, 0, 0]	n/a	catFR1	0	R1189M
351.886	1.617	471422	WORD	n/a	wordpools/wordpool_categorized_EN.txt	DRIZZLE	Weather	12	2	[0, 0, 0]	n/a	catFR1	0	R1189M
353.503	0.0	473039	WORD_OFF	n/a	n/a	DRIZZLE	n/a	12	2	[0, 0, 0]	n/a	catFR1	0	R1189M
353.503	0.105	473039	ENCODING_END	n/a	n/a	n/a	n/a	-999	2	[0, 0, 0]	n/a	catFR1	0	R1189M
353.608	0.001	473144	DISTRACT_START	n/a	n/a	n/a	n/a	-999	2	[0, 0, 0]	n/a	catFR1	0	R1189M
353.609	0.011	473145	START	n/a	n/a	n/a	n/a	-999	2	[-999, -999, -999]	n/a	catFR1	0	R1189M
353.62	4.784	473156	PROB	4.749	n/a	n/a	n/a	-999	2	[5, 3, 8]	16.0	catFR1	0	R1189M
358.404	3.5	477940	PROB	3.462	n/a	n/a	n/a	-999	2	[6, 5, 1]	12.0	catFR1	0	R1189M
361.904	5.518	481440	PROB	5.49	n/a	n/a	n/a	-999	2	[6, 5, 7]	18.0	catFR1	0	R1189M
367.422	4.468	486957	PROB	4.435	n/a	n/a	n/a	-999	2	[5, 6, 8]	19.0	catFR1	0	R1189M
371.89	7.367	491425	PROB	7.367	n/a	n/a	n/a	-999	2	[7, 7, 9]	23.0	catFR1	0	R1189M
379.257	0.018	498792	STOP	n/a	n/a	n/a	n/a	-999	2	[-999, -999, -999]	n/a	catFR1	0	R1189M
379.275	0.716	498810	DISTRACT_END	n/a	n/a	n/a	n/a	-999	2	[0, 0, 0]	n/a	catFR1	0	R1189M
379.991	0.518	499526	RETRIEVAL_ORIENT	n/a	n/a	n/a	n/a	-999	2	[0, 0, 0]	n/a	catFR1	0	R1189M
380.509	2.056	500044	REC_START	n/a	n/a	n/a	n/a	-999	2	[0, 0, 0]	n/a	catFR1	0	R1189M
382.565	1.411	502099	REC_WORD	2.056	n/a	ARM	BodyParts	3	2	[0, 0, 0]	n/a	catFR1	0	R1189M
383.976	2.873	503510	REC_WORD	3.467	n/a	ELBOW	BodyParts	4	2	[0, 0, 0]	n/a	catFR1	0	R1189M
386.849	0.478	506383	REC_WORD_VV	6.34	n/a	<>	n/a	-999	2	[0, 0, 0]	n/a	catFR1	0	R1189M
387.327	1.861	506861	REC_WORD	6.818	n/a	DRIZZLE	Weather	12	2	[0, 0, 0]	n/a	catFR1	0	R1189M
389.188	3.323	508722	REC_WORD	8.679	n/a	TORNADO	Weather	6	2	[0, 0, 0]	n/a	catFR1	0	R1189M
392.511	2.293	512045	REC_WORD	12.002	n/a	RADIO	Electronics	1	2	[0, 0, 0]	n/a	catFR1	0	R1189M
394.804	15.719	514338	REC_WORD	14.295	n/a	SPEAKER	Electronics	2	2	[0, 0, 0]	n/a	catFR1	0	R1189M
410.523	5.859	530056	REC_END	n/a	n/a	n/a	n/a	-999	2	[0, 0, 0]	n/a	catFR1	0	R1189M
416.382	0.5	535915	TRIAL	n/a	n/a	n/a	n/a	-999	3	[0, 0, 0]	n/a	catFR1	0	R1189M
416.882	10.428	536415	COUNTDOWN_START	n/a	n/a	n/a	n/a	-999	3	[0, 0, 0]	n/a	catFR1	0	R1189M
427.31	0.007	546842	COUNTDOWN_END	n/a	n/a	n/a	n/a	-999	3	[0, 0, 0]	n/a	catFR1	0	R1189M
427.317	1.617	546849	ORIENT	n/a	n/a	n/a	n/a	-999	3	[0, 0, 0]	n/a	catFR1	0	R1189M
428.934	2.083	548466	ORIENT_OFF	n/a	n/a	n/a	n/a	-999	3	[0, 0, 0]	n/a	catFR1	0	R1189M
431.017	1.618	550549	WORD	n/a	wordpools/wordpool_categorized_EN.txt	BOAT	Vehicles	1	3	[0, 0, 0]	n/a	catFR1	0	R1189M
432.635	0.883	552167	WORD_OFF	n/a	n/a	BOAT	n/a	1	3	[0, 0, 0]	n/a	catFR1	0	R1189M
433.518	1.616	553050	WORD	n/a	wordpools/wordpool_categorized_EN.txt	MOTORCYCLE	Vehicles	2	3	[0, 0, 0]	n/a	catFR1	0	R1189M
435.134	0.768	554665	WORD_OFF	n/a	n/a	MOTORCYCLE	n/a	2	3	[0, 0, 0]	n/a	catFR1	0	R1189M
435.902	1.617	555433	WORD	n/a	wordpools/wordpool_categorized_EN.txt	TAPE	OfficeSupplies	3	3	[0, 0, 0]	n/a	catFR1	0	R1189M
437.519	0.867	557050	WORD_OFF	n/a	n/a	TAPE	n/a	3	3	[0, 0, 0]	n/a	catFR1	0	R1189M
438.386	1.616	557917	WORD	n/a	wordpools/wordpool_categorized_EN.txt	PEN	OfficeSupplies	4	3	[0, 0, 0]	n/a	catFR1	0	R1189M
440.002	0.868	559533	WORD_OFF	n/a	n/a	PEN	n/a	4	3	[0, 0, 0]	n/a	catFR1	0	R1189M
440.87	1.617	560401	WORD	n/a	wordpools/wordpool_categorized_EN.txt	GORILLA	Zoo	5	3	[0, 0, 0]	n/a	catFR1	0	R1189M
442.487	1.0	562018	WORD_OFF	n/a	n/a	GORILLA	n/a	5	3	[0, 0, 0]	n/a	catFR1	0	R1189M
443.487	1.616	563018	WORD	n/a	wordpools/wordpool_categorized_EN.txt	LION	Zoo	6	3	[0, 0, 0]	n/a	catFR1	0	R1189M
445.103	0.9	564634	WORD_OFF	n/a	n/a	LION	n/a	6	3	[0, 0, 0]	n/a	catFR1	0	R1189M
446.003	1.618	565534	WORD	n/a	wordpools/wordpool_categorized_EN.txt	SCOOTER	Vehicles	7	3	[0, 0, 0]	n/a	catFR1	0	R1189M
447.621	0.867	567152	WORD_OFF	n/a	n/a	SCOOTER	n/a	7	3	[0, 0, 0]	n/a	catFR1	0	R1189M
448.488	1.616	568019	WORD	n/a	wordpools/wordpool_categorized_EN.txt	TRUCK	Vehicles	8	3	[0, 0, 0]	n/a	catFR1	0	R1189M
450.104	0.801	569635	WORD_OFF	n/a	n/a	TRUCK	n/a	8	3	[0, 0, 0]	n/a	catFR1	0	R1189M
450.905	1.617	570436	WORD	n/a	wordpools/wordpool_categorized_EN.txt	PENCIL	OfficeSupplies	9	3	[0, 0, 0]	n/a	catFR1	0	R1189M
452.522	0.933	572052	WORD_OFF	n/a	n/a	PENCIL	n/a	9	3	[0, 0, 0]	n/a	catFR1	0	R1189M
453.455	1.616	572985	WORD	n/a	wordpools/wordpool_categorized_EN.txt	STAPLER	OfficeSupplies	10	3	[0, 0, 0]	n/a	catFR1	0	R1189M
455.071	0.818	574601	WORD_OFF	n/a	n/a	STAPLER	n/a	10	3	[0, 0, 0]	n/a	catFR1	0	R1189M
455.889	1.617	575419	WORD	n/a	wordpools/wordpool_categorized_EN.txt	ELEPHANT	Zoo	11	3	[0, 0, 0]	n/a	catFR1	0	R1189M
457.506	0.917	577036	WORD_OFF	n/a	n/a	ELEPHANT	n/a	11	3	[0, 0, 0]	n/a	catFR1	0	R1189M
458.423	1.616	577953	WORD	n/a	wordpools/wordpool_categorized_EN.txt	ORANGUTAN	Zoo	12	3	[0, 0, 0]	n/a	catFR1	0	R1189M
460.039	0.0	579569	ENCODING_END	n/a	n/a	n/a	n/a	-999	3	[0, 0, 0]	n/a	catFR1	0	R1189M
460.039	0.105	579569	WORD_OFF	n/a	n/a	ORANGUTAN	n/a	12	3	[0, 0, 0]	n/a	catFR1	0	R1189M
460.144	0.0	579674	DISTRACT_START	n/a	n/a	n/a	n/a	-999	3	[0, 0, 0]	n/a	catFR1	0	R1189M
460.144	0.013	579674	START	n/a	n/a	n/a	n/a	-999	3	[-999, -999, -999]	n/a	catFR1	0	R1189M
460.157	4.617	579687	PROB	4.581	n/a	n/a	n/a	-999	3	[9, 7, 3]	19.0	catFR1	0	R1189M
464.774	2.018	584304	PROB	1.995	n/a	n/a	n/a	-999	3	[1, 3, 7]	11.0	catFR1	0	R1189M
466.792	3.266	586322	PROB	3.24	n/a	n/a	n/a	-999	3	[8, 3, 8]	19.0	catFR1	0	R1189M
470.058	6.135	589587	PROB	6.112	n/a	n/a	n/a	-999	3	[5, 2, 3]	10.0	catFR1	0	R1189M
476.193	1.967	595722	PROB	1.944	n/a	n/a	n/a	-999	3	[3, 3, 3]	9.0	catFR1	0	R1189M
478.16	2.873	597689	PROB	2.873	n/a	n/a	n/a	-999	3	[1, 7, 7]	15.0	catFR1	0	R1189M
481.033	0.01	600562	STOP	n/a	n/a	n/a	n/a	-999	3	[-999, -999, -999]	n/a	catFR1	0	R1189M
481.043	0.518	600572	DISTRACT_END	n/a	n/a	n/a	n/a	-999	3	[0, 0, 0]	n/a	catFR1	0	R1189M
481.561	0.516	601090	RETRIEVAL_ORIENT	n/a	n/a	n/a	n/a	-999	3	[0, 0, 0]	n/a	catFR1	0	R1189M
482.077	2.117	601606	REC_START	n/a	n/a	n/a	n/a	-999	3	[0, 0, 0]	n/a	catFR1	0	R1189M
484.194	2.48	603723	REC_WORD	2.117	n/a	MOTORCYCLE	Vehicles	2	3	[0, 0, 0]	n/a	catFR1	0	R1189M
486.674	2.01	606203	REC_WORD	4.597	n/a	BOAT	Vehicles	1	3	[0, 0, 0]	n/a	catFR1	0	R1189M
488.684	4.324	608212	REC_WORD	6.607	n/a	SCOOTER	Vehicles	7	3	[0, 0, 0]	n/a	catFR1	0	R1189M
493.008	11.882	612536	REC_WORD_VV	10.931	n/a	<>	n/a	-999	3	[0, 0, 0]	n/a	catFR1	0	R1189M
504.89	7.2	624417	REC_WORD	22.813	n/a	LION	Zoo	6	3	[0, 0, 0]	n/a	catFR1	0	R1189M
512.09	6.911	631617	REC_END	n/a	n/a	n/a	n/a	-999	3	[0, 0, 0]	n/a	catFR1	0	R1189M
519.001	0.5	638528	TRIAL	n/a	n/a	n/a	n/a	-999	4	[0, 0, 0]	n/a	catFR1	0	R1189M
519.501	10.428	639028	COUNTDOWN_START	n/a	n/a	n/a	n/a	-999	4	[0, 0, 0]	n/a	catFR1	0	R1189M
529.929	0.008	649455	COUNTDOWN_END	n/a	n/a	n/a	n/a	-999	4	[0, 0, 0]	n/a	catFR1	0	R1189M
529.937	1.617	649463	ORIENT	n/a	n/a	n/a	n/a	-999	4	[0, 0, 0]	n/a	catFR1	0	R1189M
531.554	1.934	651080	ORIENT_OFF	n/a	n/a	n/a	n/a	-999	4	[0, 0, 0]	n/a	catFR1	0	R1189M
533.488	1.616	653014	WORD	n/a	wordpools/wordpool_categorized_EN.txt	ROSE	Flowers	1	4	[0, 0, 0]	n/a	catFR1	0	R1189M
535.104	0.834	654630	WORD_OFF	n/a	n/a	ROSE	n/a	1	4	[0, 0, 0]	n/a	catFR1	0	R1189M
535.938	1.617	655464	WORD	n/a	wordpools/wordpool_categorized_EN.txt	LILAC	Flowers	2	4	[0, 0, 0]	n/a	catFR1	0	R1189M
537.555	1.0	657081	WORD_OFF	n/a	n/a	LILAC	n/a	2	4	[0, 0, 0]	n/a	catFR1	0	R1189M
538.555	1.617	658081	WORD	n/a	wordpools/wordpool_categorized_EN.txt	SOFA	Furniture	3	4	[0, 0, 0]	n/a	catFR1	0	R1189M
540.172	0.784	659697	WORD_OFF	n/a	n/a	SOFA	n/a	3	4	[0, 0, 0]	n/a	catFR1	0	R1189M
540.956	1.617	660481	WORD	n/a	wordpools/wordpool_categorized_EN.txt	BED	Furniture	4	4	[0, 0, 0]	n/a	catFR1	0	R1189M
542.573	0.8	662098	WORD_OFF	n/a	n/a	BED	n/a	4	4	[0, 0, 0]	n/a	catFR1	0	R1189M
543.373	1.617	662898	WORD	n/a	wordpools/wordpool_categorized_EN.txt	BLUEBERRY	Fruit	5	4	[0, 0, 0]	n/a	catFR1	0	R1189M
544.99	0.983	664515	WORD_OFF	n/a	n/a	BLUEBERRY	n/a	5	4	[0, 0, 0]	n/a	catFR1	0	R1189M
545.973	1.617	665498	WORD	n/a	wordpools/wordpool_categorized_EN.txt	PLUM	Fruit	6	4	[0, 0, 0]	n/a	catFR1	0	R1189M
547.59	1.001	667115	WORD_OFF	n/a	n/a	PLUM	n/a	6	4	[0, 0, 0]	n/a	catFR1	0	R1189M
548.591	1.617	668116	WORD	n/a	wordpools/wordpool_categorized_EN.txt	CABINET	Furniture	7	4	[0, 0, 0]	n/a	catFR1	0	R1189M
550.208	1.0	669733	WORD_OFF	n/a	n/a	CABINET	n/a	7	4	[0, 0, 0]	n/a	catFR1	0	R1189M
551.208	1.617	670733	WORD	n/a	wordpools/wordpool_categorized_EN.txt	COUCH	Furniture	8	4	[0, 0, 0]	n/a	catFR1	0	R1189M
552.825	0.833	672350	WORD_OFF	n/a	n/a	COUCH	n/a	8	4	[0, 0, 0]	n/a	catFR1	0	R1189M
553.658	1.617	673183	WORD	n/a	wordpools/wordpool_categorized_EN.txt	DAFFODIL	Flowers	9	4	[0, 0, 0]	n/a	catFR1	0	R1189M
555.275	0.917	674800	WORD_OFF	n/a	n/a	DAFFODIL	n/a	9	4	[0, 0, 0]	n/a	catFR1	0	R1189M
556.192	1.617	675717	WORD	n/a	wordpools/wordpool_categorized_EN.txt	LILY	Flowers	10	4	[0, 0, 0]	n/a	catFR1	0	R1189M
557.809	0.834	677333	WORD_OFF	n/a	n/a	LILY	n/a	10	4	[0, 0, 0]	n/a	catFR1	0	R1189M
558.643	1.617	678167	WORD	n/a	wordpools/wordpool_categorized_EN.txt	APPLE	Fruit	11	4	[0, 0, 0]	n/a	catFR1	0	R1189M
560.26	0.765	679784	WORD_OFF	n/a	n/a	APPLE	n/a	11	4	[0, 0, 0]	n/a	catFR1	0	R1189M
561.025	1.618	680549	WORD	n/a	wordpools/wordpool_categorized_EN.txt	PEAR	Fruit	12	4	[0, 0, 0]	n/a	catFR1	0	R1189M
562.643	0.001	682167	WORD_OFF	n/a	n/a	PEAR	n/a	12	4	[0, 0, 0]	n/a	catFR1	0	R1189M
562.644	0.134	682168	ENCODING_END	n/a	n/a	n/a	n/a	-999	4	[0, 0, 0]	n/a	catFR1	0	R1189M
562.778	0.001	682302	DISTRACT_START	n/a	n/a	n/a	n/a	-999	4	[0, 0, 0]	n/a	catFR1	0	R1189M
562.779	0.014	682303	START	n/a	n/a	n/a	n/a	-999	4	[-999, -999, -999]	n/a	catFR1	0	R1189M
562.793	3.484	682317	PROB	3.457	n/a	n/a	n/a	-999	4	[2, 8, 2]	12.0	catFR1	0	R1189M
566.277	2.668	685801	PROB	2.637	n/a	n/a	n/a	-999	4	[9, 5, 9]	23.0	catFR1	0	R1189M
568.945	2.25	688469	PROB	2.225	n/a	n/a	n/a	-999	4	[1, 2, 9]	12.0	catFR1	0	R1189M
571.195	1.95	690719	PROB	1.925	n/a	n/a	n/a	-999	4	[4, 9, 9]	22.0	catFR1	0	R1189M
573.145	3.518	692669	PROB	3.489	n/a	n/a	n/a	-999	4	[9, 3, 6]	18.0	catFR1	0	R1189M
576.663	5.067	696186	PROB	5.043	n/a	n/a	n/a	-999	4	[4, 2, 8]	14.0	catFR1	0	R1189M
581.73	3.848	701253	PROB	3.848	n/a	n/a	n/a	-999	4	[8, 6, 5]	19.0	catFR1	0	R1189M
585.578	0.02	705101	STOP	n/a	n/a	n/a	n/a	-999	4	[-999, -999, -999]	n/a	catFR1	0	R1189M
585.598	0.667	705121	DISTRACT_END	n/a	n/a	n/a	n/a	-999	4	[0, 0, 0]	n/a	catFR1	0	R1189M
586.265	0.517	705788	RETRIEVAL_ORIENT	n/a	n/a	n/a	n/a	-999	4	[0, 0, 0]	n/a	catFR1	0	R1189M
586.782	2.2	706305	REC_START	n/a	n/a	n/a	n/a	-999	4	[0, 0, 0]	n/a	catFR1	0	R1189M
588.982	0.574	708505	REC_WORD_VV	2.2	n/a	<>	n/a	-999	4	[0, 0, 0]	n/a	catFR1	0	R1189M
589.556	3.671	709079	REC_WORD	2.774	n/a	DAFFODIL	Flowers	9	4	[0, 0, 0]	n/a	catFR1	0	R1189M
593.227	0.929	712749	REC_WORD_VV	6.445	n/a	<>	n/a	-999	4	[0, 0, 0]	n/a	catFR1	0	R1189M
594.156	2.015	713678	REC_WORD	7.374	n/a	SOFA	Furniture	3	4	[0, 0, 0]	n/a	catFR1	0	R1189M
596.171	2.641	715693	REC_WORD	9.389	n/a	BED	Furniture	4	4	[0, 0, 0]	n/a	catFR1	0	R1189M
598.812	3.36	718334	REC_WORD	12.03	n/a	BLUEBERRY	Fruit	5	4	[0, 0, 0]	n/a	catFR1	0	R1189M
602.172	8.186	721694	REC_WORD	15.39	n/a	ROSE	Flowers	1	4	[0, 0, 0]	n/a	catFR1	0	R1189M
610.358	4.512	729879	REC_WORD_VV	23.576	n/a	<>	n/a	-999	4	[0, 0, 0]	n/a	catFR1	0	R1189M
614.87	1.924	734391	REC_WORD	28.088	n/a	LILY	Flowers	10	4	[0, 0, 0]	n/a	catFR1	0	R1189M
616.794	6.961	736315	REC_END	n/a	n/a	n/a	n/a	-999	4	[0, 0, 0]	n/a	catFR1	0	R1189M
623.755	0.5	743276	TRIAL	n/a	n/a	n/a	n/a	-999	5	[0, 0, 0]	n/a	catFR1	0	R1189M
624.255	10.428	743776	COUNTDOWN_START	n/a	n/a	n/a	n/a	-999	5	[0, 0, 0]	n/a	catFR1	0	R1189M
634.683	0.008	754203	COUNTDOWN_END	n/a	n/a	n/a	n/a	-999	5	[0, 0, 0]	n/a	catFR1	0	R1189M
634.691	1.617	754211	ORIENT	n/a	n/a	n/a	n/a	-999	5	[0, 0, 0]	n/a	catFR1	0	R1189M
636.308	2.017	755828	ORIENT_OFF	n/a	n/a	n/a	n/a	-999	5	[0, 0, 0]	n/a	catFR1	0	R1189M
638.325	1.617	757845	WORD	n/a	wordpools/wordpool_categorized_EN.txt	WOODS	Landscapes	1	5	[0, 0, 0]	n/a	catFR1	0	R1189M
639.942	0.816	759462	WORD_OFF	n/a	n/a	WOODS	n/a	1	5	[0, 0, 0]	n/a	catFR1	0	R1189M
640.758	1.617	760278	WORD	n/a	wordpools/wordpool_categorized_EN.txt	LAKE	Landscapes	2	5	[0, 0, 0]	n/a	catFR1	0	R1189M
642.375	0.951	761895	WORD_OFF	n/a	n/a	LAKE	n/a	2	5	[0, 0, 0]	n/a	catFR1	0	R1189M
643.326	1.617	762846	WORD	n/a	wordpools/wordpool_categorized_EN.txt	NIGHTSTAND	Furniture	3	5	[0, 0, 0]	n/a	catFR1	0	R1189M
644.943	0.866	764462	WORD_OFF	n/a	n/a	NIGHTSTAND	n/a	3	5	[0, 0, 0]	n/a	catFR1	0	R1189M
645.809	1.617	765328	WORD	n/a	wordpools/wordpool_categorized_EN.txt	RECLINER	Furniture	4	5	[0, 0, 0]	n/a	catFR1	0	R1189M
647.426	0.834	766945	WORD_OFF	n/a	n/a	RECLINER	n/a	4	5	[0, 0, 0]	n/a	catFR1	0	R1189M
648.26	1.617	767779	WORD	n/a	wordpools/wordpool_categorized_EN.txt	STOVE	Appliances	5	5	[0, 0, 0]	n/a	catFR1	0	R1189M
649.877	0.95	769396	WORD_OFF	n/a	n/a	STOVE	n/a	5	5	[0, 0, 0]	n/a	catFR1	0	R1189M
650.827	1.617	770346	WORD	n/a	wordpools/wordpool_categorized_EN.txt	DRYER	Appliances	6	5	[0, 0, 0]	n/a	catFR1	0	R1189M
652.444	1.0	771963	WORD_OFF	n/a	n/a	DRYER	n/a	6	5	[0, 0, 0]	n/a	catFR1	0	R1189M
653.444	1.616	772963	WORD	n/a	wordpools/wordpool_categorized_EN.txt	RIVER	Landscapes	7	5	[0, 0, 0]	n/a	catFR1	0	R1189M
655.06	0.785	774579	WORD_OFF	n/a	n/a	RIVER	n/a	7	5	[0, 0, 0]	n/a	catFR1	0	R1189M
655.845	1.617	775364	WORD	n/a	wordpools/wordpool_categorized_EN.txt	STREAM	Landscapes	8	5	[0, 0, 0]	n/a	catFR1	0	R1189M
657.462	0.95	776981	WORD_OFF	n/a	n/a	STREAM	n/a	8	5	[0, 0, 0]	n/a	catFR1	0	R1189M
658.412	1.616	777931	WORD	n/a	wordpools/wordpool_categorized_EN.txt	SHELF	Furniture	9	5	[0, 0, 0]	n/a	catFR1	0	R1189M
660.028	0.901	779547	WORD_OFF	n/a	n/a	SHELF	n/a	9	5	[0, 0, 0]	n/a	catFR1	0	R1189M
660.929	1.617	780448	WORD	n/a	wordpools/wordpool_categorized_EN.txt	BOOKCASE	Furniture	10	5	[0, 0, 0]	n/a	catFR1	0	R1189M
662.546	0.9	782064	WORD_OFF	n/a	n/a	BOOKCASE	n/a	10	5	[0, 0, 0]	n/a	catFR1	0	R1189M
663.446	1.616	782964	WORD	n/a	wordpools/wordpool_categorized_EN.txt	TOASTER	Appliances	11	5	[0, 0, 0]	n/a	catFR1	0	R1189M
665.062	0.851	784580	WORD_OFF	n/a	n/a	TOASTER	n/a	11	5	[0, 0, 0]	n/a	catFR1	0	R1189M
665.913	1.617	785431	WORD	n/a	wordpools/wordpool_categorized_EN.txt	WASHER	Appliances	12	5	[0, 0, 0]	n/a	catFR1	0	R1189M
667.53	0.0	787048	ENCODING_END	n/a	n/a	n/a	n/a	-999	5	[0, 0, 0]	n/a	catFR1	0	R1189M
667.53	0.103	787048	WORD_OFF	n/a	n/a	WASHER	n/a	12	5	[0, 0, 0]	n/a	catFR1	0	R1189M
667.633	0.0	787151	DISTRACT_START	n/a	n/a	n/a	n/a	-999	5	[0, 0, 0]	n/a	catFR1	0	R1189M
667.633	0.014	787151	START	n/a	n/a	n/a	n/a	-999	5	[-999, -999, -999]	n/a	catFR1	0	R1189M
667.647	5.018	787165	PROB	4.987	n/a	n/a	n/a	-999	5	[6, 6, 5]	17.0	catFR1	0	R1189M
672.665	2.317	792183	PROB	2.281	n/a	n/a	n/a	-999	5	[6, 3, 5]	14.0	catFR1	0	R1189M
674.982	4.284	794500	PROB	4.251	n/a	n/a	n/a	-999	5	[1, 8, 9]	18.0	catFR1	0	R1189M
679.266	2.0	798784	PROB	1.967	n/a	n/a	n/a	-999	5	[6, 5, 5]	16.0	catFR1	0	R1189M
681.266	2.217	800783	PROB	2.184	n/a	n/a	n/a	-999	5	[6, 2, 8]	16.0	catFR1	0	R1189M
683.483	3.318	803000	PROB	3.286	n/a	n/a	n/a	-999	5	[3, 8, 5]	16.0	catFR1	0	R1189M
686.801	1.672	806318	PROB	1.672	n/a	n/a	n/a	-999	5	[1, 2, 1]	4.0	catFR1	0	R1189M
688.473	0.012	807990	STOP	n/a	n/a	n/a	n/a	-999	5	[-999, -999, -999]	n/a	catFR1	0	R1189M
688.485	0.582	808002	DISTRACT_END	n/a	n/a	n/a	n/a	-999	5	[0, 0, 0]	n/a	catFR1	0	R1189M
689.067	0.518	808584	RETRIEVAL_ORIENT	n/a	n/a	n/a	n/a	-999	5	[0, 0, 0]	n/a	catFR1	0	R1189M
689.585	2.137	809102	REC_START	n/a	n/a	n/a	n/a	-999	5	[0, 0, 0]	n/a	catFR1	0	R1189M
691.722	0.711	811239	REC_WORD_VV	2.137	n/a	<>	n/a	-999	5	[0, 0, 0]	n/a	catFR1	0	R1189M
692.433	1.718	811950	REC_WORD	2.848	n/a	BOOKCASE	Furniture	10	5	[0, 0, 0]	n/a	catFR1	0	R1189M
694.151	6.664	813668	REC_WORD	4.566	n/a	SHELF	Furniture	9	5	[0, 0, 0]	n/a	catFR1	0	R1189M
700.815	11.638	820331	REC_WORD	11.23	n/a	WOODS	Landscapes	1	5	[0, 0, 0]	n/a	catFR1	0	R1189M
712.453	1.784	831969	REC_WORD	22.868	n/a	STREAM	Landscapes	8	5	[0, 0, 0]	n/a	catFR1	0	R1189M
714.237	5.359	833753	REC_WORD	24.652	n/a	RIVER	Landscapes	7	5	[0, 0, 0]	n/a	catFR1	0	R1189M
719.596	6.562	839111	REC_END	n/a	n/a	n/a	n/a	-999	5	[0, 0, 0]	n/a	catFR1	0	R1189M
726.158	0.5	845673	TRIAL	n/a	n/a	n/a	n/a	-999	6	[0, 0, 0]	n/a	catFR1	0	R1189M
726.658	10.428	846173	COUNTDOWN_START	n/a	n/a	n/a	n/a	-999	6	[0, 0, 0]	n/a	catFR1	0	R1189M
737.086	0.007	856600	COUNTDOWN_END	n/a	n/a	n/a	n/a	-999	6	[0, 0, 0]	n/a	catFR1	0	R1189M
737.093	1.618	856607	ORIENT	n/a	n/a	n/a	n/a	-999	6	[0, 0, 0]	n/a	catFR1	0	R1189M
738.711	2.033	858225	ORIENT_OFF	n/a	n/a	n/a	n/a	-999	6	[0, 0, 0]	n/a	catFR1	0	R1189M
740.744	1.617	860258	WORD	n/a	wordpools/wordpool_categorized_EN.txt	CHERRY	Fruit	1	6	[0, 0, 0]	n/a	catFR1	0	R1189M
742.361	0.934	861875	WORD_OFF	n/a	n/a	CHERRY	n/a	1	6	[0, 0, 0]	n/a	catFR1	0	R1189M
743.295	1.617	862809	WORD	n/a	wordpools/wordpool_categorized_EN.txt	BANANA	Fruit	2	6	[0, 0, 0]	n/a	catFR1	0	R1189M
744.912	0.783	864426	WORD_OFF	n/a	n/a	BANANA	n/a	2	6	[0, 0, 0]	n/a	catFR1	0	R1189M
745.695	1.617	865209	WORD	n/a	wordpools/wordpool_categorized_EN.txt	PIGEON	Birds	3	6	[0, 0, 0]	n/a	catFR1	0	R1189M
747.312	0.917	866826	WORD_OFF	n/a	n/a	PIGEON	n/a	3	6	[0, 0, 0]	n/a	catFR1	0	R1189M
748.229	1.617	867743	WORD	n/a	wordpools/wordpool_categorized_EN.txt	SEAGULL	Birds	4	6	[0, 0, 0]	n/a	catFR1	0	R1189M
749.846	0.85	869359	WORD_OFF	n/a	n/a	SEAGULL	n/a	4	6	[0, 0, 0]	n/a	catFR1	0	R1189M
750.696	1.617	870209	WORD	n/a	wordpools/wordpool_categorized_EN.txt	CELERY	Vegetables	5	6	[0, 0, 0]	n/a	catFR1	0	R1189M
752.313	0.951	871826	WORD_OFF	n/a	n/a	CELERY	n/a	5	6	[0, 0, 0]	n/a	catFR1	0	R1189M
753.264	1.617	872777	WORD	n/a	wordpools/wordpool_categorized_EN.txt	LETTUCE	Vegetables	6	6	[0, 0, 0]	n/a	catFR1	0	R1189M
754.881	0.833	874394	WORD_OFF	n/a	n/a	LETTUCE	n/a	6	6	[0, 0, 0]	n/a	catFR1	0	R1189M
755.714	1.617	875227	WORD	n/a	wordpools/wordpool_categorized_EN.txt	CARDINAL	Birds	7	6	[0, 0, 0]	n/a	catFR1	0	R1189M
757.331	0.782	876844	WORD_OFF	n/a	n/a	CARDINAL	n/a	7	6	[0, 0, 0]	n/a	catFR1	0	R1189M
758.113	1.602	877626	WORD	n/a	wordpools/wordpool_categorized_EN.txt	DUCK	Birds	8	6	[0, 0, 0]	n/a	catFR1	0	R1189M
759.715	0.9	879228	WORD_OFF	n/a	n/a	DUCK	n/a	8	6	[0, 0, 0]	n/a	catFR1	0	R1189M
760.615	1.617	880128	WORD	n/a	wordpools/wordpool_categorized_EN.txt	GRAPE	Fruit	9	6	[0, 0, 0]	n/a	catFR1	0	R1189M
762.232	0.866	881745	WORD_OFF	n/a	n/a	GRAPE	n/a	9	6	[0, 0, 0]	n/a	catFR1	0	R1189M
763.098	1.618	882611	WORD	n/a	wordpools/wordpool_categorized_EN.txt	LEMON	Fruit	10	6	[0, 0, 0]	n/a	catFR1	0	R1189M
764.716	0.8	884229	WORD_OFF	n/a	n/a	LEMON	n/a	10	6	[0, 0, 0]	n/a	catFR1	0	R1189M
765.516	1.616	885029	WORD	n/a	wordpools/wordpool_categorized_EN.txt	PEAS	Vegetables	11	6	[0, 0, 0]	n/a	catFR1	0	R1189M
767.132	0.851	886644	WORD_OFF	n/a	n/a	PEAS	n/a	11	6	[0, 0, 0]	n/a	catFR1	0	R1189M
767.983	1.617	887495	WORD	n/a	wordpools/wordpool_categorized_EN.txt	ONION	Vegetables	12	6	[0, 0, 0]	n/a	catFR1	0	R1189M
769.6	0.0	889112	ENCODING_END	n/a	n/a	n/a	n/a	-999	6	[0, 0, 0]	n/a	catFR1	0	R1189M
769.6	0.106	889112	WORD_OFF	n/a	n/a	ONION	n/a	12	6	[0, 0, 0]	n/a	catFR1	0	R1189M
769.706	0.0	889218	DISTRACT_START	n/a	n/a	n/a	n/a	-999	6	[0, 0, 0]	n/a	catFR1	0	R1189M
769.706	0.011	889218	START	n/a	n/a	n/a	n/a	-999	6	[-999, -999, -999]	n/a	catFR1	0	R1189M
769.717	5.251	889229	PROB	5.228	n/a	n/a	n/a	-999	6	[4, 3, 7]	14.0	catFR1	0	R1189M
774.968	2.534	894480	PROB	2.498	n/a	n/a	n/a	-999	6	[3, 4, 4]	11.0	catFR1	0	R1189M
777.502	3.067	897014	PROB	3.035	n/a	n/a	n/a	-999	6	[3, 8, 7]	18.0	catFR1	0	R1189M
780.569	2.867	900081	PROB	2.831	n/a	n/a	n/a	-999	6	[4, 5, 8]	17.0	catFR1	0	R1189M
783.436	3.451	902948	PROB	3.413	n/a	n/a	n/a	-999	6	[8, 8, 2]	18.0	catFR1	0	R1189M
786.887	2.842	906398	PROB	2.842	n/a	n/a	n/a	-999	6	[7, 2, 9]	18.0	catFR1	0	R1189M
789.729	0.009	909240	STOP	n/a	n/a	n/a	n/a	-999	6	[-999, -999, -999]	n/a	catFR1	0	R1189M
789.738	0.633	909249	DISTRACT_END	n/a	n/a	n/a	n/a	-999	6	[0, 0, 0]	n/a	catFR1	0	R1189M
790.371	0.517	909882	RETRIEVAL_ORIENT	n/a	n/a	n/a	n/a	-999	6	[0, 0, 0]	n/a	catFR1	0	R1189M
790.888	1.241	910399	REC_START	n/a	n/a	n/a	n/a	-999	6	[0, 0, 0]	n/a	catFR1	0	R1189M
792.129	2.224	911640	REC_WORD	1.241	n/a	CARDINAL	Birds	7	6	[0, 0, 0]	n/a	catFR1	0	R1189M
794.353	2.393	913864	REC_WORD	3.465	n/a	GRAPE	Fruit	9	6	[0, 0, 0]	n/a	catFR1	0	R1189M
796.746	2.588	916257	REC_WORD	5.858	n/a	LEMON	Fruit	10	6	[0, 0, 0]	n/a	catFR1	0	R1189M
799.334	21.568	918845	REC_WORD	8.446	n/a	PEAS	Vegetables	11	6	[0, 0, 0]	n/a	catFR1	0	R1189M
820.902	5.809	940411	REC_END	n/a	n/a	n/a	n/a	-999	6	[0, 0, 0]	n/a	catFR1	0	R1189M
826.711	0.5	946220	TRIAL	n/a	n/a	n/a	n/a	-999	7	[0, 0, 0]	n/a	catFR1	0	R1189M
827.211	10.428	946720	COUNTDOWN_START	n/a	n/a	n/a	n/a	-999	7	[0, 0, 0]	n/a	catFR1	0	R1189M
837.639	0.008	957147	COUNTDOWN_END	n/a	n/a	n/a	n/a	-999	7	[0, 0, 0]	n/a	catFR1	0	R1189M
837.647	1.617	957155	ORIENT	n/a	n/a	n/a	n/a	-999	7	[0, 0, 0]	n/a	catFR1	0	R1189M
839.264	2.167	958772	ORIENT_OFF	n/a	n/a	n/a	n/a	-999	7	[0, 0, 0]	n/a	catFR1	0	R1189M
841.431	1.616	960939	WORD	n/a	wordpools/wordpool_categorized_EN.txt	SKIRT	Clothing	1	7	[0, 0, 0]	n/a	catFR1	0	R1189M
843.047	0.834	962555	WORD_OFF	n/a	n/a	SKIRT	n/a	1	7	[0, 0, 0]	n/a	catFR1	0	R1189M
843.881	1.617	963389	WORD	n/a	wordpools/wordpool_categorized_EN.txt	COAT	Clothing	2	7	[0, 0, 0]	n/a	catFR1	0	R1189M
845.498	0.984	965006	WORD_OFF	n/a	n/a	COAT	n/a	2	7	[0, 0, 0]	n/a	catFR1	0	R1189M
846.482	1.616	965990	WORD	n/a	wordpools/wordpool_categorized_EN.txt	FLUTE	Instruments	3	7	[0, 0, 0]	n/a	catFR1	0	R1189M
848.098	0.884	967606	WORD_OFF	n/a	n/a	FLUTE	n/a	3	7	[0, 0, 0]	n/a	catFR1	0	R1189M
848.982	1.617	968490	WORD	n/a	wordpools/wordpool_categorized_EN.txt	BANJO	Instruments	4	7	[0, 0, 0]	n/a	catFR1	0	R1189M
850.599	0.8	970107	WORD_OFF	n/a	n/a	BANJO	n/a	4	7	[0, 0, 0]	n/a	catFR1	0	R1189M
851.399	1.616	970907	WORD	n/a	wordpools/wordpool_categorized_EN.txt	CEILING	Building	5	7	[0, 0, 0]	n/a	catFR1	0	R1189M
853.015	0.818	972523	WORD_OFF	n/a	n/a	CEILING	n/a	5	7	[0, 0, 0]	n/a	catFR1	0	R1189M
853.833	1.617	973341	WORD	n/a	wordpools/wordpool_categorized_EN.txt	HALLWAY	Building	6	7	[0, 0, 0]	n/a	catFR1	0	R1189M
855.45	0.967	974957	WORD_OFF	n/a	n/a	HALLWAY	n/a	6	7	[0, 0, 0]	n/a	catFR1	0	R1189M
856.417	1.616	975924	WORD	n/a	wordpools/wordpool_categorized_EN.txt	SHOES	Clothing	7	7	[0, 0, 0]	n/a	catFR1	0	R1189M
858.033	1.0	977540	WORD_OFF	n/a	n/a	SHOES	n/a	7	7	[0, 0, 0]	n/a	catFR1	0	R1189M
859.033	1.601	978540	WORD	n/a	wordpools/wordpool_categorized_EN.txt	PANTS	Clothing	8	7	[0, 0, 0]	n/a	catFR1	0	R1189M
860.634	0.784	980141	WORD_OFF	n/a	n/a	PANTS	n/a	8	7	[0, 0, 0]	n/a	catFR1	0	R1189M
861.418	1.616	980925	WORD	n/a	wordpools/wordpool_categorized_EN.txt	TROMBONE	Instruments	9	7	[0, 0, 0]	n/a	catFR1	0	R1189M
863.034	0.901	982541	WORD_OFF	n/a	n/a	TROMBONE	n/a	9	7	[0, 0, 0]	n/a	catFR1	0	R1189M
863.935	1.617	983442	WORD	n/a	wordpools/wordpool_categorized_EN.txt	CELLO	Instruments	10	7	[0, 0, 0]	n/a	catFR1	0	R1189M
865.552	0.85	985059	WORD_OFF	n/a	n/a	CELLO	n/a	10	7	[0, 0, 0]	n/a	catFR1	0	R1189M
866.402	1.616	985909	WORD	n/a	wordpools/wordpool_categorized_EN.txt	STAIRS	Building	11	7	[0, 0, 0]	n/a	catFR1	0	R1189M
868.018	0.851	987525	WORD_OFF	n/a	n/a	STAIRS	n/a	11	7	[0, 0, 0]	n/a	catFR1	0	R1189M
868.869	1.617	988376	WORD	n/a	wordpools/wordpool_categorized_EN.txt	FLOOR	Building	12	7	[0, 0, 0]	n/a	catFR1	0	R1189M
870.486	0.0	989993	ENCODING_END	n/a	n/a	n/a	n/a	-999	7	[0, 0, 0]	n/a	catFR1	0	R1189M
870.486	0.138	989993	WORD_OFF	n/a	n/a	FLOOR	n/a	12	7	[0, 0, 0]	n/a	catFR1	0	R1189M
870.624	0.0	990131	DISTRACT_START	n/a	n/a	n/a	n/a	-999	7	[0, 0, 0]	n/a	catFR1	0	R1189M
870.624	0.012	990131	START	n/a	n/a	n/a	n/a	-999	7	[-999, -999, -999]	n/a	catFR1	0	R1189M
870.636	4.151	990143	PROB	4.118	n/a	n/a	n/a	-999	7	[6, 6, 2]	14.0	catFR1	0	R1189M
874.787	2.901	994293	PROB	2.871	n/a	n/a	n/a	-999	7	[8, 7, 1]	16.0	catFR1	0	R1189M
877.688	4.484	997194	PROB	4.457	n/a	n/a	n/a	-999	7	[8, 6, 7]	21.0	catFR1	0	R1189M
882.172	2.916	1001678	PROB	2.893	n/a	n/a	n/a	-999	7	[2, 9, 7]	18.0	catFR1	0	R1189M
885.088	4.069	1004594	PROB	4.04	n/a	n/a	n/a	-999	7	[5, 3, 2]	10.0	catFR1	0	R1189M
889.157	2.595	1008663	PROB	2.595	n/a	n/a	n/a	-999	7	[2, 6, 8]	16.0	catFR1	0	R1189M
891.752	0.022	1011257	STOP	n/a	n/a	n/a	n/a	-999	7	[-999, -999, -999]	n/a	catFR1	0	R1189M
891.774	0.667	1011279	DISTRACT_END	n/a	n/a	n/a	n/a	-999	7	[0, 0, 0]	n/a	catFR1	0	R1189M
892.441	0.517	1011946	RETRIEVAL_ORIENT	n/a	n/a	n/a	n/a	-999	7	[0, 0, 0]	n/a	catFR1	0	R1189M
892.958	1.619	1012463	REC_START	n/a	n/a	n/a	n/a	-999	7	[0, 0, 0]	n/a	catFR1	0	R1189M
894.577	1.962	1014082	REC_WORD	1.619	n/a	TROMBONE	Instruments	9	7	[0, 0, 0]	n/a	catFR1	0	R1189M
896.539	2.021	1016044	REC_WORD	3.581	n/a	CELLO	Instruments	10	7	[0, 0, 0]	n/a	catFR1	0	R1189M
898.56	2.49	1018065	REC_WORD	5.602	n/a	STAIRS	Building	11	7	[0, 0, 0]	n/a	catFR1	0	R1189M
901.05	3.062	1020555	REC_WORD	8.092	n/a	FLOOR	Building	12	7	[0, 0, 0]	n/a	catFR1	0	R1189M
904.112	18.857	1023617	REC_WORD	11.154	n/a	COAT	Clothing	2	7	[0, 0, 0]	n/a	catFR1	0	R1189M
922.969	5.729	1042473	REC_END	n/a	n/a	n/a	n/a	-999	7	[0, 0, 0]	n/a	catFR1	0	R1189M
928.698	0.5	1048201	TRIAL	n/a	n/a	n/a	n/a	-999	8	[0, 0, 0]	n/a	catFR1	0	R1189M
929.198	10.428	1048701	COUNTDOWN_START	n/a	n/a	n/a	n/a	-999	8	[0, 0, 0]	n/a	catFR1	0	R1189M
939.626	0.007	1059129	COUNTDOWN_END	n/a	n/a	n/a	n/a	-999	8	[0, 0, 0]	n/a	catFR1	0	R1189M
939.633	1.617	1059136	ORIENT	n/a	n/a	n/a	n/a	-999	8	[0, 0, 0]	n/a	catFR1	0	R1189M
941.25	2.184	1060753	ORIENT_OFF	n/a	n/a	n/a	n/a	-999	8	[0, 0, 0]	n/a	catFR1	0	R1189M
943.434	1.616	1062936	WORD	n/a	wordpools/wordpool_categorized_EN.txt	DOOR	Building	1	8	[0, 0, 0]	n/a	catFR1	0	R1189M
945.05	0.934	1064552	WORD_OFF	n/a	n/a	DOOR	n/a	1	8	[0, 0, 0]	n/a	catFR1	0	R1189M
945.984	1.617	1065486	WORD	n/a	wordpools/wordpool_categorized_EN.txt	ROOM	Building	2	8	[0, 0, 0]	n/a	catFR1	0	R1189M
947.601	0.884	1067103	WORD_OFF	n/a	n/a	ROOM	n/a	2	8	[0, 0, 0]	n/a	catFR1	0	R1189M
948.485	1.616	1067987	WORD	n/a	wordpools/wordpool_categorized_EN.txt	LEMONADE	Beverages	3	8	[0, 0, 0]	n/a	catFR1	0	R1189M
950.101	0.784	1069603	WORD_OFF	n/a	n/a	LEMONADE	n/a	3	8	[0, 0, 0]	n/a	catFR1	0	R1189M
950.885	1.617	1070387	WORD	n/a	wordpools/wordpool_categorized_EN.txt	COFFEE	Beverages	4	8	[0, 0, 0]	n/a	catFR1	0	R1189M
952.502	0.934	1072004	WORD_OFF	n/a	n/a	COFFEE	n/a	4	8	[0, 0, 0]	n/a	catFR1	0	R1189M
953.436	1.616	1072938	WORD	n/a	wordpools/wordpool_categorized_EN.txt	ROOSTER	FarmAnimals	5	8	[0, 0, 0]	n/a	catFR1	0	R1189M
955.052	0.851	1074554	WORD_OFF	n/a	n/a	ROOSTER	n/a	5	8	[0, 0, 0]	n/a	catFR1	0	R1189M
955.903	1.617	1075405	WORD	n/a	wordpools/wordpool_categorized_EN.txt	CALF	FarmAnimals	6	8	[0, 0, 0]	n/a	catFR1	0	R1189M
957.52	1.0	1077022	WORD_OFF	n/a	n/a	CALF	n/a	6	8	[0, 0, 0]	n/a	catFR1	0	R1189M
958.52	1.616	1078022	WORD	n/a	wordpools/wordpool_categorized_EN.txt	CIDER	Beverages	7	8	[0, 0, 0]	n/a	catFR1	0	R1189M
960.136	0.851	1079637	WORD_OFF	n/a	n/a	CIDER	n/a	7	8	[0, 0, 0]	n/a	catFR1	0	R1189M
960.987	1.617	1080488	WORD	n/a	wordpools/wordpool_categorized_EN.txt	BEER	Beverages	8	8	[0, 0, 0]	n/a	catFR1	0	R1189M
962.604	0.9	1082105	WORD_OFF	n/a	n/a	BEER	n/a	8	8	[0, 0, 0]	n/a	catFR1	0	R1189M
963.504	1.616	1083005	WORD	n/a	wordpools/wordpool_categorized_EN.txt	WALL	Building	9	8	[0, 0, 0]	n/a	catFR1	0	R1189M
965.12	0.9	1084621	WORD_OFF	n/a	n/a	WALL	n/a	9	8	[0, 0, 0]	n/a	catFR1	0	R1189M
966.02	1.618	1085521	WORD	n/a	wordpools/wordpool_categorized_EN.txt	ROOF	Building	10	8	[0, 0, 0]	n/a	catFR1	0	R1189M
967.638	0.801	1087139	WORD_OFF	n/a	n/a	ROOF	n/a	10	8	[0, 0, 0]	n/a	catFR1	0	R1189M
968.439	1.616	1087940	WORD	n/a	wordpools/wordpool_categorized_EN.txt	HORSE	FarmAnimals	11	8	[0, 0, 0]	n/a	catFR1	0	R1189M
970.055	1.016	1089556	WORD_OFF	n/a	n/a	HORSE	n/a	11	8	[0, 0, 0]	n/a	catFR1	0	R1189M
971.071	1.602	1090572	WORD	n/a	wordpools/wordpool_categorized_EN.txt	COW	FarmAnimals	12	8	[0, 0, 0]	n/a	catFR1	0	R1189M
972.673	0.0	1092174	ENCODING_END	n/a	n/a	n/a	n/a	-999	8	[0, 0, 0]	n/a	catFR1	0	R1189M
972.673	0.107	1092174	WORD_OFF	n/a	n/a	COW	n/a	12	8	[0, 0, 0]	n/a	catFR1	0	R1189M
972.78	0.0	1092281	DISTRACT_START	n/a	n/a	n/a	n/a	-999	8	[0, 0, 0]	n/a	catFR1	0	R1189M
972.78	0.009	1092281	START	n/a	n/a	n/a	n/a	-999	8	[-999, -999, -999]	n/a	catFR1	0	R1189M
972.789	5.502	1092290	PROB	5.468	n/a	n/a	n/a	-999	8	[3, 4, 7]	14.0	catFR1	0	R1189M
978.291	3.467	1097791	PROB	3.429	n/a	n/a	n/a	-999	8	[6, 6, 6]	18.0	catFR1	0	R1189M
981.758	4.201	1101258	PROB	4.171	n/a	n/a	n/a	-999	8	[5, 9, 8]	22.0	catFR1	0	R1189M
985.959	2.45	1105459	PROB	2.426	n/a	n/a	n/a	-999	8	[8, 5, 2]	15.0	catFR1	0	R1189M
988.409	2.901	1107909	PROB	2.872	n/a	n/a	n/a	-999	8	[8, 2, 3]	13.0	catFR1	0	R1189M
991.31	2.81	1110810	PROB	2.81	n/a	n/a	n/a	-999	8	[3, 1, 2]	6.0	catFR1	0	R1189M
994.12	0.006	1113620	STOP	n/a	n/a	n/a	n/a	-999	8	[-999, -999, -999]	n/a	catFR1	0	R1189M
994.126	0.701	1113626	DISTRACT_END	n/a	n/a	n/a	n/a	-999	8	[0, 0, 0]	n/a	catFR1	0	R1189M
994.827	0.518	1114326	RETRIEVAL_ORIENT	n/a	n/a	n/a	n/a	-999	8	[0, 0, 0]	n/a	catFR1	0	R1189M
995.345	1.585	1114844	REC_START	n/a	n/a	n/a	n/a	-999	8	[0, 0, 0]	n/a	catFR1	0	R1189M
996.93	1.677	1116429	REC_WORD	1.585	n/a	WALL	Building	9	8	[0, 0, 0]	n/a	catFR1	0	R1189M
998.607	2.063	1118106	REC_WORD	3.262	n/a	ROOF	Building	10	8	[0, 0, 0]	n/a	catFR1	0	R1189M
1000.67	2.378	1120169	REC_WORD	5.325	n/a	HORSE	FarmAnimals	11	8	[0, 0, 0]	n/a	catFR1	0	R1189M
1003.048	3.868	1122547	REC_WORD	7.703	n/a	COW	FarmAnimals	12	8	[0, 0, 0]	n/a	catFR1	0	R1189M
1006.916	18.439	1126415	REC_WORD	11.571	n/a	CIDER	Beverages	7	8	[0, 0, 0]	n/a	catFR1	0	R1189M
1025.355	35.618	1144853	REC_END	n/a	n/a	n/a	n/a	-999	8	[0, 0, 0]	n/a	catFR1	0	R1189M
1060.973	0.5	1180469	TRIAL	n/a	n/a	n/a	n/a	-999	9	[0, 0, 0]	n/a	catFR1	0	R1189M
1061.473	10.428	1180969	COUNTDOWN_START	n/a	n/a	n/a	n/a	-999	9	[0, 0, 0]	n/a	catFR1	0	R1189M
1071.901	0.008	1191396	COUNTDOWN_END	n/a	n/a	n/a	n/a	-999	9	[0, 0, 0]	n/a	catFR1	0	R1189M
1071.909	1.617	1191404	ORIENT	n/a	n/a	n/a	n/a	-999	9	[0, 0, 0]	n/a	catFR1	0	R1189M
1073.526	1.983	1193021	ORIENT_OFF	n/a	n/a	n/a	n/a	-999	9	[0, 0, 0]	n/a	catFR1	0	R1189M
1075.509	1.616	1195004	WORD	n/a	wordpools/wordpool_categorized_EN.txt	TEA	Beverages	1	9	[0, 0, 0]	n/a	catFR1	0	R1189M
1077.125	0.835	1196620	WORD_OFF	n/a	n/a	TEA	n/a	1	9	[0, 0, 0]	n/a	catFR1	0	R1189M
1077.96	1.617	1197455	WORD	n/a	wordpools/wordpool_categorized_EN.txt	RUM	Beverages	2	9	[0, 0, 0]	n/a	catFR1	0	R1189M
1079.577	0.85	1199072	WORD_OFF	n/a	n/a	RUM	n/a	2	9	[0, 0, 0]	n/a	catFR1	0	R1189M
1080.427	1.616	1199922	WORD	n/a	wordpools/wordpool_categorized_EN.txt	GLUE	OfficeSupplies	3	9	[0, 0, 0]	n/a	catFR1	0	R1189M
1082.043	0.784	1201537	WORD_OFF	n/a	n/a	GLUE	n/a	3	9	[0, 0, 0]	n/a	catFR1	0	R1189M
1082.827	1.617	1202321	WORD	n/a	wordpools/wordpool_categorized_EN.txt	PAPER	OfficeSupplies	4	9	[0, 0, 0]	n/a	catFR1	0	R1189M
1084.444	0.951	1203938	WORD_OFF	n/a	n/a	PAPER	n/a	4	9	[0, 0, 0]	n/a	catFR1	0	R1189M
1085.395	1.616	1204889	WORD	n/a	wordpools/wordpool_categorized_EN.txt	MAPLE	Trees	5	9	[0, 0, 0]	n/a	catFR1	0	R1189M
1087.011	0.851	1206505	WORD_OFF	n/a	n/a	MAPLE	n/a	5	9	[0, 0, 0]	n/a	catFR1	0	R1189M
1087.862	1.617	1207356	WORD	n/a	wordpools/wordpool_categorized_EN.txt	CYPRESS	Trees	6	9	[0, 0, 0]	n/a	catFR1	0	R1189M
1089.479	0.917	1208973	WORD_OFF	n/a	n/a	CYPRESS	n/a	6	9	[0, 0, 0]	n/a	catFR1	0	R1189M
1090.396	1.616	1209890	WORD	n/a	wordpools/wordpool_categorized_EN.txt	JUICE	Beverages	7	9	[0, 0, 0]	n/a	catFR1	0	R1189M
1092.012	0.917	1211506	WORD_OFF	n/a	n/a	JUICE	n/a	7	9	[0, 0, 0]	n/a	catFR1	0	R1189M
1092.929	1.617	1212423	WORD	n/a	wordpools/wordpool_categorized_EN.txt	WINE	Beverages	8	9	[0, 0, 0]	n/a	catFR1	0	R1189M
1094.546	0.834	1214040	WORD_OFF	n/a	n/a	WINE	n/a	8	9	[0, 0, 0]	n/a	catFR1	0	R1189M
1095.38	1.617	1214874	WORD	n/a	wordpools/wordpool_categorized_EN.txt	BINDER	OfficeSupplies	9	9	[0, 0, 0]	n/a	catFR1	0	R1189M
1096.997	0.817	1216491	WORD_OFF	n/a	n/a	BINDER	n/a	9	9	[0, 0, 0]	n/a	catFR1	0	R1189M
1097.814	1.617	1217308	WORD	n/a	wordpools/wordpool_categorized_EN.txt	RULER	OfficeSupplies	10	9	[0, 0, 0]	n/a	catFR1	0	R1189M
1099.431	0.933	1218924	WORD_OFF	n/a	n/a	RULER	n/a	10	9	[0, 0, 0]	n/a	catFR1	0	R1189M
1100.364	1.617	1219857	WORD	n/a	wordpools/wordpool_categorized_EN.txt	WILLOW	Trees	11	9	[0, 0, 0]	n/a	catFR1	0	R1189M
1101.981	0.917	1221474	WORD_OFF	n/a	n/a	WILLOW	n/a	11	9	[0, 0, 0]	n/a	catFR1	0	R1189M
1102.898	1.617	1222391	WORD	n/a	wordpools/wordpool_categorized_EN.txt	SPRUCE	Trees	12	9	[0, 0, 0]	n/a	catFR1	0	R1189M
1104.515	0.0	1224008	ENCODING_END	n/a	n/a	n/a	n/a	-999	9	[0, 0, 0]	n/a	catFR1	0	R1189M
1104.515	0.107	1224008	WORD_OFF	n/a	n/a	SPRUCE	n/a	12	9	[0, 0, 0]	n/a	catFR1	0	R1189M
1104.622	0.0	1224115	DISTRACT_START	n/a	n/a	n/a	n/a	-999	9	[0, 0, 0]	n/a	catFR1	0	R1189M
1104.622	0.01	1224115	START	n/a	n/a	n/a	n/a	-999	9	[-999, -999, -999]	n/a	catFR1	0	R1189M
1104.632	5.184	1224125	PROB	5.146	n/a	n/a	n/a	-999	9	[3, 2, 6]	11.0	catFR1	0	R1189M
1109.816	2.05	1229309	PROB	2.026	n/a	n/a	n/a	-999	9	[3, 7, 3]	13.0	catFR1	0	R1189M
1111.866	3.468	1231359	PROB	3.431	n/a	n/a	n/a	-999	9	[2, 2, 9]	13.0	catFR1	0	R1189M
1115.334	2.834	1234827	PROB	2.794	n/a	n/a	n/a	-999	9	[4, 4, 3]	11.0	catFR1	0	R1189M
1118.168	3.4	1237660	PROB	3.377	n/a	n/a	n/a	-999	9	[6, 9, 3]	18.0	catFR1	0	R1189M
1121.568	3.034	1241060	PROB	3.01	n/a	n/a	n/a	-999	9	[5, 4, 1]	10.0	catFR1	0	R1189M
1124.602	2.469	1244094	PROB	2.469	n/a	n/a	n/a	-999	9	[5, 5, 4]	14.0	catFR1	0	R1189M
1127.071	0.014	1246563	STOP	n/a	n/a	n/a	n/a	-999	9	[-999, -999, -999]	n/a	catFR1	0	R1189M
1127.085	0.618	1246577	DISTRACT_END	n/a	n/a	n/a	n/a	-999	9	[0, 0, 0]	n/a	catFR1	0	R1189M
1127.703	0.517	1247195	RETRIEVAL_ORIENT	n/a	n/a	n/a	n/a	-999	9	[0, 0, 0]	n/a	catFR1	0	R1189M
1128.22	1.414	1247712	REC_START	n/a	n/a	n/a	n/a	-999	9	[0, 0, 0]	n/a	catFR1	0	R1189M
1129.634	2.637	1249126	REC_WORD	1.414	n/a	BINDER	OfficeSupplies	9	9	[0, 0, 0]	n/a	catFR1	0	R1189M
1132.271	3.014	1251763	REC_WORD	4.051	n/a	RULER	OfficeSupplies	10	9	[0, 0, 0]	n/a	catFR1	0	R1189M
1135.285	1.198	1254776	REC_WORD_VV	7.065	n/a	<>	n/a	-999	9	[0, 0, 0]	n/a	catFR1	0	R1189M
1136.483	21.357	1255974	REC_WORD	8.263	n/a	CYPRESS	Trees	6	9	[0, 0, 0]	n/a	catFR1	0	R1189M
1157.84	0.395	1277330	REC_WORD	29.62	n/a	WILLOW	Trees	11	9	[0, 0, 0]	n/a	catFR1	0	R1189M
1158.235	6.325	1277725	REC_END	n/a	n/a	n/a	n/a	-999	9	[0, 0, 0]	n/a	catFR1	0	R1189M
1164.56	0.5	1284050	TRIAL	n/a	n/a	n/a	n/a	-999	10	[0, 0, 0]	n/a	catFR1	0	R1189M
1165.06	10.428	1284550	COUNTDOWN_START	n/a	n/a	n/a	n/a	-999	10	[0, 0, 0]	n/a	catFR1	0	R1189M
1175.488	0.007	1294977	COUNTDOWN_END	n/a	n/a	n/a	n/a	-999	10	[0, 0, 0]	n/a	catFR1	0	R1189M
1175.495	1.616	1294984	ORIENT	n/a	n/a	n/a	n/a	-999	10	[0, 0, 0]	n/a	catFR1	0	R1189M
1177.111	1.802	1296600	ORIENT_OFF	n/a	n/a	n/a	n/a	-999	10	[0, 0, 0]	n/a	catFR1	0	R1189M
1178.913	1.617	1298402	WORD	n/a	wordpools/wordpool_categorized_EN.txt	BLOUSE	Clothing	1	10	[0, 0, 0]	n/a	catFR1	0	R1189M
1180.53	0.8	1300019	WORD_OFF	n/a	n/a	BLOUSE	n/a	1	10	[0, 0, 0]	n/a	catFR1	0	R1189M
1181.33	1.617	1300819	WORD	n/a	wordpools/wordpool_categorized_EN.txt	SHIRT	Clothing	2	10	[0, 0, 0]	n/a	catFR1	0	R1189M
1182.947	0.85	1302436	WORD_OFF	n/a	n/a	SHIRT	n/a	2	10	[0, 0, 0]	n/a	catFR1	0	R1189M
1183.797	1.617	1303286	WORD	n/a	wordpools/wordpool_categorized_EN.txt	DOLL	Toys	3	10	[0, 0, 0]	n/a	catFR1	0	R1189M
1185.414	1.0	1304903	WORD_OFF	n/a	n/a	DOLL	n/a	3	10	[0, 0, 0]	n/a	catFR1	0	R1189M
1186.414	1.616	1305903	WORD	n/a	wordpools/wordpool_categorized_EN.txt	FRISBEE	Toys	4	10	[0, 0, 0]	n/a	catFR1	0	R1189M
1188.03	0.818	1307518	WORD_OFF	n/a	n/a	FRISBEE	n/a	4	10	[0, 0, 0]	n/a	catFR1	0	R1189M
1188.848	1.617	1308336	WORD	n/a	wordpools/wordpool_categorized_EN.txt	ORCHID	Flowers	5	10	[0, 0, 0]	n/a	catFR1	0	R1189M
1190.465	0.9	1309953	WORD_OFF	n/a	n/a	ORCHID	n/a	5	10	[0, 0, 0]	n/a	catFR1	0	R1189M
1191.365	1.617	1310853	WORD	n/a	wordpools/wordpool_categorized_EN.txt	VIOLET	Flowers	6	10	[0, 0, 0]	n/a	catFR1	0	R1189M
1192.982	0.8	1312470	WORD_OFF	n/a	n/a	VIOLET	n/a	6	10	[0, 0, 0]	n/a	catFR1	0	R1189M
1193.782	1.617	1313270	WORD	n/a	wordpools/wordpool_categorized_EN.txt	DOLLHOUSE	Toys	7	10	[0, 0, 0]	n/a	catFR1	0	R1189M
1195.399	0.784	1314887	WORD_OFF	n/a	n/a	DOLLHOUSE	n/a	7	10	[0, 0, 0]	n/a	catFR1	0	R1189M
1196.183	1.617	1315671	WORD	n/a	wordpools/wordpool_categorized_EN.txt	BLOCKS	Toys	8	10	[0, 0, 0]	n/a	catFR1	0	R1189M
1197.8	1.0	1317288	WORD_OFF	n/a	n/a	BLOCKS	n/a	8	10	[0, 0, 0]	n/a	catFR1	0	R1189M
1198.8	1.617	1318288	WORD	n/a	wordpools/wordpool_categorized_EN.txt	JEANS	Clothing	9	10	[0, 0, 0]	n/a	catFR1	0	R1189M
1200.417	0.9	1319905	WORD_OFF	n/a	n/a	JEANS	n/a	9	10	[0, 0, 0]	n/a	catFR1	0	R1189M
1201.317	1.617	1320805	WORD	n/a	wordpools/wordpool_categorized_EN.txt	SHORTS	Clothing	10	10	[0, 0, 0]	n/a	catFR1	0	R1189M
1202.934	0.834	1322422	WORD_OFF	n/a	n/a	SHORTS	n/a	10	10	[0, 0, 0]	n/a	catFR1	0	R1189M
1203.768	1.617	1323256	WORD	n/a	wordpools/wordpool_categorized_EN.txt	CARNATION	Flowers	11	10	[0, 0, 0]	n/a	catFR1	0	R1189M
1205.385	0.833	1324872	WORD_OFF	n/a	n/a	CARNATION	n/a	11	10	[0, 0, 0]	n/a	catFR1	0	R1189M
1206.218	1.617	1325705	WORD	n/a	wordpools/wordpool_categorized_EN.txt	SUNFLOWER	Flowers	12	10	[0, 0, 0]	n/a	catFR1	0	R1189M
1207.835	0.0	1327322	ENCODING_END	n/a	n/a	n/a	n/a	-999	10	[0, 0, 0]	n/a	catFR1	0	R1189M
1207.835	0.138	1327322	WORD_OFF	n/a	n/a	SUNFLOWER	n/a	12	10	[0, 0, 0]	n/a	catFR1	0	R1189M
1207.973	0.0	1327460	DISTRACT_START	n/a	n/a	n/a	n/a	-999	10	[0, 0, 0]	n/a	catFR1	0	R1189M
1207.973	0.012	1327460	START	n/a	n/a	n/a	n/a	-999	10	[-999, -999, -999]	n/a	catFR1	0	R1189M
1207.985	6.551	1327472	PROB	6.513	n/a	n/a	n/a	-999	10	[9, 8, 1]	18.0	catFR1	0	R1189M
1214.536	2.884	1334023	PROB	2.85	n/a	n/a	n/a	-999	10	[7, 5, 5]	17.0	catFR1	0	R1189M
1217.42	2.616	1336907	PROB	2.58	n/a	n/a	n/a	-999	10	[5, 7, 6]	18.0	catFR1	0	R1189M
1220.036	2.235	1339523	PROB	2.205	n/a	n/a	n/a	-999	10	[1, 5, 1]	7.0	catFR1	0	R1189M
1222.271	2.451	1341757	PROB	2.419	n/a	n/a	n/a	-999	10	[8, 2, 8]	18.0	catFR1	0	R1189M
1224.722	2.1	1344208	PROB	2.072	n/a	n/a	n/a	-999	10	[3, 5, 5]	13.0	catFR1	0	R1189M
1226.822	3.171	1346308	PROB	3.171	n/a	n/a	n/a	-999	10	[7, 1, 6]	14.0	catFR1	0	R1189M
1229.993	0.012	1349479	STOP	n/a	n/a	n/a	n/a	-999	10	[-999, -999, -999]	n/a	catFR1	0	R1189M
1230.005	0.551	1349491	DISTRACT_END	n/a	n/a	n/a	n/a	-999	10	[0, 0, 0]	n/a	catFR1	0	R1189M
1230.556	0.516	1350042	RETRIEVAL_ORIENT	n/a	n/a	n/a	n/a	-999	10	[0, 0, 0]	n/a	catFR1	0	R1189M
1231.072	1.136	1350558	REC_START	n/a	n/a	n/a	n/a	-999	10	[0, 0, 0]	n/a	catFR1	0	R1189M
1232.208	2.021	1351694	REC_WORD	1.136	n/a	DOLLHOUSE	Toys	7	10	[0, 0, 0]	n/a	catFR1	0	R1189M
1234.229	1.926	1353715	REC_WORD	3.157	n/a	BLOCKS	Toys	8	10	[0, 0, 0]	n/a	catFR1	0	R1189M
1236.155	2.501	1355641	REC_WORD	5.083	n/a	JEANS	Clothing	9	10	[0, 0, 0]	n/a	catFR1	0	R1189M
1238.656	4.168	1358142	REC_WORD	7.584	n/a	SHORTS	Clothing	10	10	[0, 0, 0]	n/a	catFR1	0	R1189M
1242.824	2.088	1362309	REC_WORD	11.752	n/a	BLOUSE	Clothing	1	10	[0, 0, 0]	n/a	catFR1	0	R1189M
1244.912	16.171	1364397	REC_WORD	13.84	n/a	SHIRT	Clothing	2	10	[0, 0, 0]	n/a	catFR1	0	R1189M
1261.083	5.996	1380567	REC_END	n/a	n/a	n/a	n/a	-999	10	[0, 0, 0]	n/a	catFR1	0	R1189M
1267.079	0.5	1386563	TRIAL	n/a	n/a	n/a	n/a	-999	11	[0, 0, 0]	n/a	catFR1	0	R1189M
1267.579	10.428	1387063	COUNTDOWN_START	n/a	n/a	n/a	n/a	-999	11	[0, 0, 0]	n/a	catFR1	0	R1189M
1278.007	0.007	1397490	COUNTDOWN_END	n/a	n/a	n/a	n/a	-999	11	[0, 0, 0]	n/a	catFR1	0	R1189M
1278.014	1.601	1397497	ORIENT	n/a	n/a	n/a	n/a	-999	11	[0, 0, 0]	n/a	catFR1	0	R1189M
1279.615	1.951	1399098	ORIENT_OFF	n/a	n/a	n/a	n/a	-999	11	[0, 0, 0]	n/a	catFR1	0	R1189M
1281.566	1.617	1401049	WORD	n/a	wordpools/wordpool_categorized_EN.txt	ORANGE	Fruit	1	11	[0, 0, 0]	n/a	catFR1	0	R1189M
1283.183	0.899	1402666	WORD_OFF	n/a	n/a	ORANGE	n/a	1	11	[0, 0, 0]	n/a	catFR1	0	R1189M
1284.082	1.601	1403565	WORD	n/a	wordpools/wordpool_categorized_EN.txt	STRAWBERRY	Fruit	2	11	[0, 0, 0]	n/a	catFR1	0	R1189M
1285.683	0.784	1405166	WORD_OFF	n/a	n/a	STRAWBERRY	n/a	2	11	[0, 0, 0]	n/a	catFR1	0	R1189M
1286.467	1.616	1405950	WORD	n/a	wordpools/wordpool_categorized_EN.txt	MARKER	OfficeSupplies	3	11	[0, 0, 0]	n/a	catFR1	0	R1189M
1288.083	1.0	1407566	WORD_OFF	n/a	n/a	MARKER	n/a	3	11	[0, 0, 0]	n/a	catFR1	0	R1189M
1289.083	1.618	1408566	WORD	n/a	wordpools/wordpool_categorized_EN.txt	FOLDER	OfficeSupplies	4	11	[0, 0, 0]	n/a	catFR1	0	R1189M
1290.701	0.8	1410184	WORD_OFF	n/a	n/a	FOLDER	n/a	4	11	[0, 0, 0]	n/a	catFR1	0	R1189M
1291.501	1.616	1410984	WORD	n/a	wordpools/wordpool_categorized_EN.txt	TRUMPET	Instruments	5	11	[0, 0, 0]	n/a	catFR1	0	R1189M
1293.117	0.768	1412599	WORD_OFF	n/a	n/a	TRUMPET	n/a	5	11	[0, 0, 0]	n/a	catFR1	0	R1189M
1293.885	1.617	1413367	WORD	n/a	wordpools/wordpool_categorized_EN.txt	BASS	Instruments	6	11	[0, 0, 0]	n/a	catFR1	0	R1189M
1295.502	0.917	1414984	WORD_OFF	n/a	n/a	BASS	n/a	6	11	[0, 0, 0]	n/a	catFR1	0	R1189M
1296.419	1.616	1415901	WORD	n/a	wordpools/wordpool_categorized_EN.txt	PEACH	Fruit	7	11	[0, 0, 0]	n/a	catFR1	0	R1189M
1298.035	0.851	1417517	WORD_OFF	n/a	n/a	PEACH	n/a	7	11	[0, 0, 0]	n/a	catFR1	0	R1189M
1298.886	1.617	1418368	WORD	n/a	wordpools/wordpool_categorized_EN.txt	LIME	Fruit	8	11	[0, 0, 0]	n/a	catFR1	0	R1189M
1300.503	1.0	1419985	WORD_OFF	n/a	n/a	LIME	n/a	8	11	[0, 0, 0]	n/a	catFR1	0	R1189M
1301.503	1.616	1420985	WORD	n/a	wordpools/wordpool_categorized_EN.txt	ERASER	OfficeSupplies	9	11	[0, 0, 0]	n/a	catFR1	0	R1189M
1303.119	0.917	1422601	WORD_OFF	n/a	n/a	ERASER	n/a	9	11	[0, 0, 0]	n/a	catFR1	0	R1189M
1304.036	1.601	1423518	WORD	n/a	wordpools/wordpool_categorized_EN.txt	NOTEBOOK	OfficeSupplies	10	11	[0, 0, 0]	n/a	catFR1	0	R1189M
1305.637	0.984	1425119	WORD_OFF	n/a	n/a	NOTEBOOK	n/a	10	11	[0, 0, 0]	n/a	catFR1	0	R1189M
1306.621	1.617	1426103	WORD	n/a	wordpools/wordpool_categorized_EN.txt	TUBA	Instruments	11	11	[0, 0, 0]	n/a	catFR1	0	R1189M
1308.238	0.917	1427720	WORD_OFF	n/a	n/a	TUBA	n/a	11	11	[0, 0, 0]	n/a	catFR1	0	R1189M
1309.155	1.617	1428637	WORD	n/a	wordpools/wordpool_categorized_EN.txt	GUITAR	Instruments	12	11	[0, 0, 0]	n/a	catFR1	0	R1189M
1310.772	0.0	1430253	ENCODING_END	n/a	n/a	n/a	n/a	-999	11	[0, 0, 0]	n/a	catFR1	0	R1189M
1310.772	0.104	1430253	WORD_OFF	n/a	n/a	GUITAR	n/a	12	11	[0, 0, 0]	n/a	catFR1	0	R1189M
1310.876	0.0	1430357	DISTRACT_START	n/a	n/a	n/a	n/a	-999	11	[0, 0, 0]	n/a	catFR1	0	R1189M
1310.876	0.012	1430357	START	n/a	n/a	n/a	n/a	-999	11	[-999, -999, -999]	n/a	catFR1	0	R1189M
1310.888	6.902	1430369	PROB	6.866	n/a	n/a	n/a	-999	11	[1, 1, 7]	9.0	catFR1	0	R1189M
1317.79	3.367	1437271	PROB	3.33	n/a	n/a	n/a	-999	11	[6, 3, 8]	17.0	catFR1	0	R1189M
1321.157	2.234	1440638	PROB	2.197	n/a	n/a	n/a	-999	11	[2, 3, 8]	13.0	catFR1	0	R1189M
1323.391	2.083	1442872	PROB	2.059	n/a	n/a	n/a	-999	11	[5, 5, 7]	17.0	catFR1	0	R1189M
1325.474	2.851	1444955	PROB	2.824	n/a	n/a	n/a	-999	11	[9, 9, 1]	19.0	catFR1	0	R1189M
1328.325	2.517	1447805	PROB	2.492	n/a	n/a	n/a	-999	11	[1, 8, 1]	10.0	catFR1	0	R1189M
1330.842	1.758	1450322	PROB	1.758	n/a	n/a	n/a	-999	11	[5, 4, 2]	11.0	catFR1	0	R1189M
1332.6	0.009	1452080	STOP	n/a	n/a	n/a	n/a	-999	11	[-999, -999, -999]	n/a	catFR1	0	R1189M
1332.609	0.567	1452089	DISTRACT_END	n/a	n/a	n/a	n/a	-999	11	[0, 0, 0]	n/a	catFR1	0	R1189M
1333.176	0.517	1452656	RETRIEVAL_ORIENT	n/a	n/a	n/a	n/a	-999	11	[0, 0, 0]	n/a	catFR1	0	R1189M
1333.693	2.108	1453173	REC_START	n/a	n/a	n/a	n/a	-999	11	[0, 0, 0]	n/a	catFR1	0	R1189M
1335.801	0.566	1455281	REC_WORD_VV	2.108	n/a	<>	n/a	-999	11	[0, 0, 0]	n/a	catFR1	0	R1189M
1336.367	1.836	1455847	REC_WORD	2.674	n/a	ORANGE	Fruit	1	11	[0, 0, 0]	n/a	catFR1	0	R1189M
1338.203	3.536	1457683	REC_WORD	4.51	n/a	STRAWBERRY	Fruit	2	11	[0, 0, 0]	n/a	catFR1	0	R1189M
1341.739	2.172	1461219	REC_WORD	8.046	n/a	TUBA	Instruments	11	11	[0, 0, 0]	n/a	catFR1	0	R1189M
1343.911	3.443	1463391	REC_WORD	10.218	n/a	BASS	Instruments	6	11	[0, 0, 0]	n/a	catFR1	0	R1189M
1347.354	16.353	1466833	REC_WORD	13.661	n/a	GUITAR	Instruments	12	11	[0, 0, 0]	n/a	catFR1	0	R1189M
1363.707	5.976	1483185	REC_END	n/a	n/a	n/a	n/a	-999	11	[0, 0, 0]	n/a	catFR1	0	R1189M
1369.683	0.5	1489161	TRIAL	n/a	n/a	n/a	n/a	-999	12	[0, 0, 0]	n/a	catFR1	0	R1189M
1370.183	10.428	1489661	COUNTDOWN_START	n/a	n/a	n/a	n/a	-999	12	[0, 0, 0]	n/a	catFR1	0	R1189M
1380.611	0.007	1500088	COUNTDOWN_END	n/a	n/a	n/a	n/a	-999	12	[0, 0, 0]	n/a	catFR1	0	R1189M
1380.618	1.617	1500095	ORIENT	n/a	n/a	n/a	n/a	-999	12	[0, 0, 0]	n/a	catFR1	0	R1189M
1382.235	1.8	1501712	ORIENT_OFF	n/a	n/a	n/a	n/a	-999	12	[0, 0, 0]	n/a	catFR1	0	R1189M
1384.035	1.618	1503512	WORD	n/a	wordpools/wordpool_categorized_EN.txt	CAULIFLOWER	Vegetables	1	12	[0, 0, 0]	n/a	catFR1	0	R1189M
1385.653	0.8	1505130	WORD_OFF	n/a	n/a	CAULIFLOWER	n/a	1	12	[0, 0, 0]	n/a	catFR1	0	R1189M
1386.453	1.616	1505930	WORD	n/a	wordpools/wordpool_categorized_EN.txt	CUCUMBER	Vegetables	2	12	[0, 0, 0]	n/a	catFR1	0	R1189M
1388.069	0.967	1507546	WORD_OFF	n/a	n/a	CUCUMBER	n/a	2	12	[0, 0, 0]	n/a	catFR1	0	R1189M
1389.036	1.618	1508513	WORD	n/a	wordpools/wordpool_categorized_EN.txt	STRAINER	KitchenTools	3	12	[0, 0, 0]	n/a	catFR1	0	R1189M
1390.654	0.917	1510131	WORD_OFF	n/a	n/a	STRAINER	n/a	3	12	[0, 0, 0]	n/a	catFR1	0	R1189M
1391.571	1.617	1511048	WORD	n/a	wordpools/wordpool_categorized_EN.txt	GRATER	KitchenTools	4	12	[0, 0, 0]	n/a	catFR1	0	R1189M
1393.188	0.815	1512665	WORD_OFF	n/a	n/a	GRATER	n/a	4	12	[0, 0, 0]	n/a	catFR1	0	R1189M
1394.003	1.618	1513480	WORD	n/a	wordpools/wordpool_categorized_EN.txt	EAR	BodyParts	5	12	[0, 0, 0]	n/a	catFR1	0	R1189M
1395.621	1.001	1515098	WORD_OFF	n/a	n/a	EAR	n/a	5	12	[0, 0, 0]	n/a	catFR1	0	R1189M
1396.622	1.617	1516099	WORD	n/a	wordpools/wordpool_categorized_EN.txt	KNEE	BodyParts	6	12	[0, 0, 0]	n/a	catFR1	0	R1189M
1398.239	0.765	1517715	WORD_OFF	n/a	n/a	KNEE	n/a	6	12	[0, 0, 0]	n/a	catFR1	0	R1189M
1399.004	1.602	1518480	WORD	n/a	wordpools/wordpool_categorized_EN.txt	PEELER	KitchenTools	7	12	[0, 0, 0]	n/a	catFR1	0	R1189M
1400.606	0.866	1520082	WORD_OFF	n/a	n/a	PEELER	n/a	7	12	[0, 0, 0]	n/a	catFR1	0	R1189M
1401.472	1.617	1520948	WORD	n/a	wordpools/wordpool_categorized_EN.txt	FORK	KitchenTools	8	12	[0, 0, 0]	n/a	catFR1	0	R1189M
1403.089	0.933	1522565	WORD_OFF	n/a	n/a	FORK	n/a	8	12	[0, 0, 0]	n/a	catFR1	0	R1189M
1404.022	1.618	1523498	WORD	n/a	wordpools/wordpool_categorized_EN.txt	POTATO	Vegetables	9	12	[0, 0, 0]	n/a	catFR1	0	R1189M
1405.64	0.784	1525116	WORD_OFF	n/a	n/a	POTATO	n/a	9	12	[0, 0, 0]	n/a	catFR1	0	R1189M
1406.424	1.616	1525900	WORD	n/a	wordpools/wordpool_categorized_EN.txt	CORN	Vegetables	10	12	[0, 0, 0]	n/a	catFR1	0	R1189M
1408.04	0.851	1527516	WORD_OFF	n/a	n/a	CORN	n/a	10	12	[0, 0, 0]	n/a	catFR1	0	R1189M
1408.891	1.617	1528367	WORD	n/a	wordpools/wordpool_categorized_EN.txt	LEG	BodyParts	11	12	[0, 0, 0]	n/a	catFR1	0	R1189M
1410.508	0.816	1529984	WORD_OFF	n/a	n/a	LEG	n/a	11	12	[0, 0, 0]	n/a	catFR1	0	R1189M
1411.324	1.617	1530800	WORD	n/a	wordpools/wordpool_categorized_EN.txt	EYE	BodyParts	12	12	[0, 0, 0]	n/a	catFR1	0	R1189M
1412.941	0.001	1532417	WORD_OFF	n/a	n/a	EYE	n/a	12	12	[0, 0, 0]	n/a	catFR1	0	R1189M
1412.942	0.137	1532418	ENCODING_END	n/a	n/a	n/a	n/a	-999	12	[0, 0, 0]	n/a	catFR1	0	R1189M
1413.079	0.0	1532555	DISTRACT_START	n/a	n/a	n/a	n/a	-999	12	[0, 0, 0]	n/a	catFR1	0	R1189M
1413.079	0.011	1532555	START	n/a	n/a	n/a	n/a	-999	12	[-999, -999, -999]	n/a	catFR1	0	R1189M
1413.09	4.519	1532566	PROB	4.494	n/a	n/a	n/a	-999	12	[4, 1, 9]	14.0	catFR1	0	R1189M
1417.609	2.701	1537084	PROB	2.672	n/a	n/a	n/a	-999	12	[1, 5, 2]	8.0	catFR1	0	R1189M
1420.31	2.133	1539785	PROB	2.1	n/a	n/a	n/a	-999	12	[2, 8, 1]	11.0	catFR1	0	R1189M
1422.443	1.951	1541918	PROB	1.919	n/a	n/a	n/a	-999	12	[6, 6, 2]	14.0	catFR1	0	R1189M
1424.394	3.699	1543869	PROB	3.67	n/a	n/a	n/a	-999	12	[8, 9, 3]	20.0	catFR1	0	R1189M
1428.093	3.369	1547568	PROB	3.332	n/a	n/a	n/a	-999	12	[9, 8, 7]	24.0	catFR1	0	R1189M
1431.462	1.632	1550937	PROB	1.594	n/a	n/a	n/a	-999	12	[4, 1, 6]	11.0	catFR1	0	R1189M
1433.094	2.452	1552568	PROB	2.452	n/a	n/a	n/a	-999	12	[7, 1, 6]	14.0	catFR1	0	R1189M
1435.546	0.017	1555020	STOP	n/a	n/a	n/a	n/a	-999	12	[-999, -999, -999]	n/a	catFR1	0	R1189M
1435.563	0.532	1555037	DISTRACT_END	n/a	n/a	n/a	n/a	-999	12	[0, 0, 0]	n/a	catFR1	0	R1189M
1436.095	0.518	1555569	RETRIEVAL_ORIENT	n/a	n/a	n/a	n/a	-999	12	[0, 0, 0]	n/a	catFR1	0	R1189M
1436.613	2.387	1556087	REC_START	n/a	n/a	n/a	n/a	-999	12	[0, 0, 0]	n/a	catFR1	0	R1189M
1439.0	2.597	1558474	REC_WORD	2.387	n/a	EAR	BodyParts	5	12	[0, 0, 0]	n/a	catFR1	0	R1189M
1441.597	4.196	1561071	REC_WORD	4.984	n/a	KNEE	BodyParts	6	12	[0, 0, 0]	n/a	catFR1	0	R1189M
1445.793	4.205	1565267	REC_WORD	9.18	n/a	LEG	BodyParts	11	12	[0, 0, 0]	n/a	catFR1	0	R1189M
1449.998	15.325	1569471	REC_WORD	13.385	n/a	CAULIFLOWER	Vegetables	1	12	[0, 0, 0]	n/a	catFR1	0	R1189M
1465.323	1.303	1584796	REC_WORD_VV	28.71	n/a	<>	n/a	-999	12	[0, 0, 0]	n/a	catFR1	0	R1189M
1466.626	9.328	1586099	REC_END	n/a	n/a	n/a	n/a	-999	12	[0, 0, 0]	n/a	catFR1	0	R1189M
1475.954	0.5	1595426	TRIAL	n/a	n/a	n/a	n/a	-999	13	[0, 0, 0]	n/a	catFR1	0	R1189M
1476.454	10.428	1595926	COUNTDOWN_START	n/a	n/a	n/a	n/a	-999	13	[0, 0, 0]	n/a	catFR1	0	R1189M
1486.882	0.007	1606353	COUNTDOWN_END	n/a	n/a	n/a	n/a	-999	13	[0, 0, 0]	n/a	catFR1	0	R1189M
1486.889	1.617	1606360	ORIENT	n/a	n/a	n/a	n/a	-999	13	[0, 0, 0]	n/a	catFR1	0	R1189M
1488.506	1.984	1607977	ORIENT_OFF	n/a	n/a	n/a	n/a	-999	13	[0, 0, 0]	n/a	catFR1	0	R1189M
1490.49	1.616	1609961	WORD	n/a	wordpools/wordpool_categorized_EN.txt	SHOVEL	Tools	1	13	[0, 0, 0]	n/a	catFR1	0	R1189M
1492.106	0.884	1611577	WORD_OFF	n/a	n/a	SHOVEL	n/a	1	13	[0, 0, 0]	n/a	catFR1	0	R1189M
1492.99	1.617	1612461	WORD	n/a	wordpools/wordpool_categorized_EN.txt	HAMMER	Tools	2	13	[0, 0, 0]	n/a	catFR1	0	R1189M
1494.607	0.8	1614078	WORD_OFF	n/a	n/a	HAMMER	n/a	2	13	[0, 0, 0]	n/a	catFR1	0	R1189M
1495.407	1.616	1614878	WORD	n/a	wordpools/wordpool_categorized_EN.txt	JACKET	Clothing	3	13	[0, 0, 0]	n/a	catFR1	0	R1189M
1497.023	0.818	1616494	WORD_OFF	n/a	n/a	JACKET	n/a	3	13	[0, 0, 0]	n/a	catFR1	0	R1189M
1497.841	1.617	1617312	WORD	n/a	wordpools/wordpool_categorized_EN.txt	UNDERWEAR	Clothing	4	13	[0, 0, 0]	n/a	catFR1	0	R1189M
1499.458	0.85	1618929	WORD_OFF	n/a	n/a	UNDERWEAR	n/a	4	13	[0, 0, 0]	n/a	catFR1	0	R1189M
1500.308	1.617	1619779	WORD	n/a	wordpools/wordpool_categorized_EN.txt	MOPED	Vehicles	5	13	[0, 0, 0]	n/a	catFR1	0	R1189M
1501.925	0.834	1621395	WORD_OFF	n/a	n/a	MOPED	n/a	5	13	[0, 0, 0]	n/a	catFR1	0	R1189M
1502.759	1.617	1622229	WORD	n/a	wordpools/wordpool_categorized_EN.txt	JEEP	Vehicles	6	13	[0, 0, 0]	n/a	catFR1	0	R1189M
1504.376	0.8	1623846	WORD_OFF	n/a	n/a	JEEP	n/a	6	13	[0, 0, 0]	n/a	catFR1	0	R1189M
1505.176	1.617	1624646	WORD	n/a	wordpools/wordpool_categorized_EN.txt	WRENCH	Tools	7	13	[0, 0, 0]	n/a	catFR1	0	R1189M
1506.793	0.783	1626263	WORD_OFF	n/a	n/a	WRENCH	n/a	7	13	[0, 0, 0]	n/a	catFR1	0	R1189M
1507.576	1.617	1627046	WORD	n/a	wordpools/wordpool_categorized_EN.txt	AXE	Tools	8	13	[0, 0, 0]	n/a	catFR1	0	R1189M
1509.193	1.001	1628663	WORD_OFF	n/a	n/a	AXE	n/a	8	13	[0, 0, 0]	n/a	catFR1	0	R1189M
1510.194	1.617	1629664	WORD	n/a	wordpools/wordpool_categorized_EN.txt	DRESS	Clothing	9	13	[0, 0, 0]	n/a	catFR1	0	R1189M
1511.811	1.0	1631281	WORD_OFF	n/a	n/a	DRESS	n/a	9	13	[0, 0, 0]	n/a	catFR1	0	R1189M
1512.811	1.617	1632281	WORD	n/a	wordpools/wordpool_categorized_EN.txt	SOCKS	Clothing	10	13	[0, 0, 0]	n/a	catFR1	0	R1189M
1514.428	0.783	1633898	WORD_OFF	n/a	n/a	SOCKS	n/a	10	13	[0, 0, 0]	n/a	catFR1	0	R1189M
1515.211	1.617	1634681	WORD	n/a	wordpools/wordpool_categorized_EN.txt	BUS	Vehicles	11	13	[0, 0, 0]	n/a	catFR1	0	R1189M
1516.828	1.0	1636298	WORD_OFF	n/a	n/a	BUS	n/a	11	13	[0, 0, 0]	n/a	catFR1	0	R1189M
1517.828	1.617	1637298	WORD	n/a	wordpools/wordpool_categorized_EN.txt	BIKE	Vehicles	12	13	[0, 0, 0]	n/a	catFR1	0	R1189M
1519.445	0.001	1638914	WORD_OFF	n/a	n/a	BIKE	n/a	12	13	[0, 0, 0]	n/a	catFR1	0	R1189M
1519.446	0.131	1638915	ENCODING_END	n/a	n/a	n/a	n/a	-999	13	[0, 0, 0]	n/a	catFR1	0	R1189M
1519.577	0.0	1639046	DISTRACT_START	n/a	n/a	n/a	n/a	-999	13	[0, 0, 0]	n/a	catFR1	0	R1189M
1519.577	0.018	1639046	START	n/a	n/a	n/a	n/a	-999	13	[-999, -999, -999]	n/a	catFR1	0	R1189M
1519.595	7.602	1639064	PROB	7.567	n/a	n/a	n/a	-999	13	[8, 8, 3]	19.0	catFR1	0	R1189M
1527.197	2.9	1646666	PROB	2.875	n/a	n/a	n/a	-999	13	[3, 5, 3]	13.0	catFR1	0	R1189M
1530.097	7.068	1649566	PROB	7.04	n/a	n/a	n/a	-999	13	[7, 9, 9]	25.0	catFR1	0	R1189M
1537.165	3.637	1656633	PROB	3.637	n/a	n/a	n/a	-999	13	[6, 5, 4]	15.0	catFR1	0	R1189M
1540.802	0.014	1660270	STOP	n/a	n/a	n/a	n/a	-999	13	[-999, -999, -999]	n/a	catFR1	0	R1189M
1540.816	0.567	1660284	DISTRACT_END	n/a	n/a	n/a	n/a	-999	13	[0, 0, 0]	n/a	catFR1	0	R1189M
1541.383	0.518	1660851	RETRIEVAL_ORIENT	n/a	n/a	n/a	n/a	-999	13	[0, 0, 0]	n/a	catFR1	0	R1189M
1541.901	4.416	1661369	REC_START	n/a	n/a	n/a	n/a	-999	13	[0, 0, 0]	n/a	catFR1	0	R1189M
1546.317	0.804	1665785	REC_WORD_VV	4.416	n/a	<>	n/a	-999	13	[0, 0, 0]	n/a	catFR1	0	R1189M
1547.121	1.836	1666589	REC_WORD	5.22	n/a	JACKET	Clothing	3	13	[0, 0, 0]	n/a	catFR1	0	R1189M
1548.957	3.304	1668425	REC_WORD	7.056	n/a	UNDERWEAR	Clothing	4	13	[0, 0, 0]	n/a	catFR1	0	R1189M
1552.261	5.622	1671729	REC_WORD_VV	10.36	n/a	<>	n/a	-999	13	[0, 0, 0]	n/a	catFR1	0	R1189M
1557.883	1.886	1677350	REC_WORD	15.982	n/a	AXE	Tools	8	13	[0, 0, 0]	n/a	catFR1	0	R1189M
1559.769	12.144	1679236	REC_WORD	17.868	n/a	BUS	Vehicles	11	13	[0, 0, 0]	n/a	catFR1	0	R1189M
1571.913	11.127	1691379	REC_END	n/a	n/a	n/a	n/a	-999	13	[0, 0, 0]	n/a	catFR1	0	R1189M
1583.04	0.5	1702506	TRIAL	n/a	n/a	n/a	n/a	-999	14	[0, 0, 0]	n/a	catFR1	0	R1189M
1583.54	10.428	1703006	COUNTDOWN_START	n/a	n/a	n/a	n/a	-999	14	[0, 0, 0]	n/a	catFR1	0	R1189M
1593.968	0.009	1713433	COUNTDOWN_END	n/a	n/a	n/a	n/a	-999	14	[0, 0, 0]	n/a	catFR1	0	R1189M
1593.977	1.617	1713442	ORIENT	n/a	n/a	n/a	n/a	-999	14	[0, 0, 0]	n/a	catFR1	0	R1189M
1595.594	2.233	1715059	ORIENT_OFF	n/a	n/a	n/a	n/a	-999	14	[0, 0, 0]	n/a	catFR1	0	R1189M
1597.827	1.617	1717292	WORD	n/a	wordpools/wordpool_categorized_EN.txt	MOUSSE	Desserts	1	14	[0, 0, 0]	n/a	catFR1	0	R1189M
1599.444	0.8	1718909	WORD_OFF	n/a	n/a	MOUSSE	n/a	1	14	[0, 0, 0]	n/a	catFR1	0	R1189M
1600.244	1.617	1719709	WORD	n/a	wordpools/wordpool_categorized_EN.txt	CHEESECAKE	Desserts	2	14	[0, 0, 0]	n/a	catFR1	0	R1189M
1601.861	0.884	1721326	WORD_OFF	n/a	n/a	CHEESECAKE	n/a	2	14	[0, 0, 0]	n/a	catFR1	0	R1189M
1602.745	1.617	1722210	WORD	n/a	wordpools/wordpool_categorized_EN.txt	TULIP	Flowers	3	14	[0, 0, 0]	n/a	catFR1	0	R1189M
1604.362	0.85	1723827	WORD_OFF	n/a	n/a	TULIP	n/a	3	14	[0, 0, 0]	n/a	catFR1	0	R1189M
1605.212	1.617	1724677	WORD	n/a	wordpools/wordpool_categorized_EN.txt	MARIGOLD	Flowers	4	14	[0, 0, 0]	n/a	catFR1	0	R1189M
1606.829	0.8	1726293	WORD_OFF	n/a	n/a	MARIGOLD	n/a	4	14	[0, 0, 0]	n/a	catFR1	0	R1189M
1607.629	1.617	1727093	WORD	n/a	wordpools/wordpool_categorized_EN.txt	SPATULA	KitchenTools	5	14	[0, 0, 0]	n/a	catFR1	0	R1189M
1609.246	0.984	1728710	WORD_OFF	n/a	n/a	SPATULA	n/a	5	14	[0, 0, 0]	n/a	catFR1	0	R1189M
1610.23	1.617	1729694	WORD	n/a	wordpools/wordpool_categorized_EN.txt	COLANDER	KitchenTools	6	14	[0, 0, 0]	n/a	catFR1	0	R1189M
1611.847	1.017	1731311	WORD_OFF	n/a	n/a	COLANDER	n/a	6	14	[0, 0, 0]	n/a	catFR1	0	R1189M
1612.864	1.617	1732328	WORD	n/a	wordpools/wordpool_categorized_EN.txt	PETUNIA	Flowers	7	14	[0, 0, 0]	n/a	catFR1	0	R1189M
1614.481	1.0	1733945	WORD_OFF	n/a	n/a	PETUNIA	n/a	7	14	[0, 0, 0]	n/a	catFR1	0	R1189M
1615.481	1.616	1734945	WORD	n/a	wordpools/wordpool_categorized_EN.txt	DAISY	Flowers	8	14	[0, 0, 0]	n/a	catFR1	0	R1189M
1617.097	0.967	1736561	WORD_OFF	n/a	n/a	DAISY	n/a	8	14	[0, 0, 0]	n/a	catFR1	0	R1189M
1618.064	1.617	1737528	WORD	n/a	wordpools/wordpool_categorized_EN.txt	COOKIE	Desserts	9	14	[0, 0, 0]	n/a	catFR1	0	R1189M
1619.681	0.867	1739145	WORD_OFF	n/a	n/a	COOKIE	n/a	9	14	[0, 0, 0]	n/a	catFR1	0	R1189M
1620.548	1.617	1740012	WORD	n/a	wordpools/wordpool_categorized_EN.txt	PUDDING	Desserts	10	14	[0, 0, 0]	n/a	catFR1	0	R1189M
1622.165	0.801	1741629	WORD_OFF	n/a	n/a	PUDDING	n/a	10	14	[0, 0, 0]	n/a	catFR1	0	R1189M
1622.966	1.616	1742430	WORD	n/a	wordpools/wordpool_categorized_EN.txt	WHISK	KitchenTools	11	14	[0, 0, 0]	n/a	catFR1	0	R1189M
1624.582	0.817	1744045	WORD_OFF	n/a	n/a	WHISK	n/a	11	14	[0, 0, 0]	n/a	catFR1	0	R1189M
1625.399	1.616	1744862	WORD	n/a	wordpools/wordpool_categorized_EN.txt	KNIFE	KitchenTools	12	14	[0, 0, 0]	n/a	catFR1	0	R1189M
1627.015	0.001	1746478	WORD_OFF	n/a	n/a	KNIFE	n/a	12	14	[0, 0, 0]	n/a	catFR1	0	R1189M
1627.016	0.104	1746479	ENCODING_END	n/a	n/a	n/a	n/a	-999	14	[0, 0, 0]	n/a	catFR1	0	R1189M
1627.12	0.0	1746583	DISTRACT_START	n/a	n/a	n/a	n/a	-999	14	[0, 0, 0]	n/a	catFR1	0	R1189M
1627.12	0.012	1746583	START	n/a	n/a	n/a	n/a	-999	14	[-999, -999, -999]	n/a	catFR1	0	R1189M
1627.132	3.602	1746595	PROB	3.565	n/a	n/a	n/a	-999	14	[9, 5, 8]	22.0	catFR1	0	R1189M
1630.734	1.767	1750197	PROB	1.74	n/a	n/a	n/a	-999	14	[3, 7, 1]	11.0	catFR1	0	R1189M
1632.501	2.45	1751964	PROB	2.412	n/a	n/a	n/a	-999	14	[4, 2, 9]	15.0	catFR1	0	R1189M
1634.951	2.1	1754414	PROB	2.074	n/a	n/a	n/a	-999	14	[8, 2, 1]	11.0	catFR1	0	R1189M
1637.051	2.984	1756514	PROB	2.957	n/a	n/a	n/a	-999	14	[7, 6, 4]	17.0	catFR1	0	R1189M
1640.035	2.184	1759498	PROB	2.15	n/a	n/a	n/a	-999	14	[2, 7, 4]	13.0	catFR1	0	R1189M
1642.219	3.751	1761681	PROB	3.719	n/a	n/a	n/a	-999	14	[8, 3, 8]	19.0	catFR1	0	R1189M
1645.97	2.488	1765432	PROB	2.488	n/a	n/a	n/a	-999	14	[7, 7, 9]	23.0	catFR1	0	R1189M
1648.458	0.013	1767920	STOP	n/a	n/a	n/a	n/a	-999	14	[-999, -999, -999]	n/a	catFR1	0	R1189M
1648.471	0.565	1767933	DISTRACT_END	n/a	n/a	n/a	n/a	-999	14	[0, 0, 0]	n/a	catFR1	0	R1189M
1649.036	0.519	1768498	RETRIEVAL_ORIENT	n/a	n/a	n/a	n/a	-999	14	[0, 0, 0]	n/a	catFR1	0	R1189M
1649.555	1.98	1769017	REC_START	n/a	n/a	n/a	n/a	-999	14	[0, 0, 0]	n/a	catFR1	0	R1189M
1651.535	1.607	1770997	REC_WORD	1.98	n/a	WHISK	KitchenTools	11	14	[0, 0, 0]	n/a	catFR1	0	R1189M
1653.142	1.494	1772604	REC_WORD	3.587	n/a	KNIFE	KitchenTools	12	14	[0, 0, 0]	n/a	catFR1	0	R1189M
1654.636	2.26	1774098	REC_WORD	5.081	n/a	COLANDER	KitchenTools	6	14	[0, 0, 0]	n/a	catFR1	0	R1189M
1656.896	1.732	1776358	REC_WORD	7.341	n/a	MOUSSE	Desserts	1	14	[0, 0, 0]	n/a	catFR1	0	R1189M
1658.628	5.103	1778090	REC_WORD	9.073	n/a	CHEESECAKE	Desserts	2	14	[0, 0, 0]	n/a	catFR1	0	R1189M
1663.731	15.836	1783192	REC_WORD_VV	14.176	n/a	<>	n/a	-999	14	[0, 0, 0]	n/a	catFR1	0	R1189M
1679.567	8.928	1799027	REC_END	n/a	n/a	n/a	n/a	-999	14	[0, 0, 0]	n/a	catFR1	0	R1189M
1688.495	0.5	1807955	TRIAL	n/a	n/a	n/a	n/a	-999	15	[0, 0, 0]	n/a	catFR1	0	R1189M
1688.995	10.428	1808455	COUNTDOWN_START	n/a	n/a	n/a	n/a	-999	15	[0, 0, 0]	n/a	catFR1	0	R1189M
1699.423	0.007	1818882	COUNTDOWN_END	n/a	n/a	n/a	n/a	-999	15	[0, 0, 0]	n/a	catFR1	0	R1189M
1699.43	1.616	1818889	ORIENT	n/a	n/a	n/a	n/a	-999	15	[0, 0, 0]	n/a	catFR1	0	R1189M
1701.046	2.001	1820505	ORIENT_OFF	n/a	n/a	n/a	n/a	-999	15	[0, 0, 0]	n/a	catFR1	0	R1189M
1703.047	1.618	1822506	WORD	n/a	wordpools/wordpool_categorized_EN.txt	DOVE	Birds	1	15	[0, 0, 0]	n/a	catFR1	0	R1189M
1704.665	0.933	1824124	WORD_OFF	n/a	n/a	DOVE	n/a	1	15	[0, 0, 0]	n/a	catFR1	0	R1189M
1705.598	1.617	1825057	WORD	n/a	wordpools/wordpool_categorized_EN.txt	CROW	Birds	2	15	[0, 0, 0]	n/a	catFR1	0	R1189M
1707.215	0.816	1826674	WORD_OFF	n/a	n/a	CROW	n/a	2	15	[0, 0, 0]	n/a	catFR1	0	R1189M
1708.031	1.618	1827490	WORD	n/a	wordpools/wordpool_categorized_EN.txt	CORKSCREW	KitchenTools	3	15	[0, 0, 0]	n/a	catFR1	0	R1189M
1709.649	0.967	1829108	WORD_OFF	n/a	n/a	CORKSCREW	n/a	3	15	[0, 0, 0]	n/a	catFR1	0	R1189M
1710.616	1.617	1830075	WORD	n/a	wordpools/wordpool_categorized_EN.txt	TONGS	KitchenTools	4	15	[0, 0, 0]	n/a	catFR1	0	R1189M
1712.233	0.849	1831691	WORD_OFF	n/a	n/a	TONGS	n/a	4	15	[0, 0, 0]	n/a	catFR1	0	R1189M
1713.082	1.618	1832540	WORD	n/a	wordpools/wordpool_categorized_EN.txt	OVEN	Appliances	5	15	[0, 0, 0]	n/a	catFR1	0	R1189M
1714.7	0.767	1834158	WORD_OFF	n/a	n/a	OVEN	n/a	5	15	[0, 0, 0]	n/a	catFR1	0	R1189M
1715.467	1.616	1834925	WORD	n/a	wordpools/wordpool_categorized_EN.txt	VACUUM	Appliances	6	15	[0, 0, 0]	n/a	catFR1	0	R1189M
1717.083	0.983	1836541	WORD_OFF	n/a	n/a	VACUUM	n/a	6	15	[0, 0, 0]	n/a	catFR1	0	R1189M
1718.066	1.618	1837524	WORD	n/a	wordpools/wordpool_categorized_EN.txt	LADLE	KitchenTools	7	15	[0, 0, 0]	n/a	catFR1	0	R1189M
1719.684	0.85	1839142	WORD_OFF	n/a	n/a	LADLE	n/a	7	15	[0, 0, 0]	n/a	catFR1	0	R1189M
1720.534	1.617	1839992	WORD	n/a	wordpools/wordpool_categorized_EN.txt	SPOON	KitchenTools	8	15	[0, 0, 0]	n/a	catFR1	0	R1189M
1722.151	0.9	1841609	WORD_OFF	n/a	n/a	SPOON	n/a	8	15	[0, 0, 0]	n/a	catFR1	0	R1189M
1723.051	1.618	1842509	WORD	n/a	wordpools/wordpool_categorized_EN.txt	ROBIN	Birds	9	15	[0, 0, 0]	n/a	catFR1	0	R1189M
1724.669	0.933	1844127	WORD_OFF	n/a	n/a	ROBIN	n/a	9	15	[0, 0, 0]	n/a	catFR1	0	R1189M
1725.602	1.617	1845060	WORD	n/a	wordpools/wordpool_categorized_EN.txt	SPARROW	Birds	10	15	[0, 0, 0]	n/a	catFR1	0	R1189M
1727.219	0.866	1846677	WORD_OFF	n/a	n/a	SPARROW	n/a	10	15	[0, 0, 0]	n/a	catFR1	0	R1189M
1728.085	1.601	1847543	WORD	n/a	wordpools/wordpool_categorized_EN.txt	BLENDER	Appliances	11	15	[0, 0, 0]	n/a	catFR1	0	R1189M
1729.686	0.817	1849143	WORD_OFF	n/a	n/a	BLENDER	n/a	11	15	[0, 0, 0]	n/a	catFR1	0	R1189M
1730.503	1.616	1849960	WORD	n/a	wordpools/wordpool_categorized_EN.txt	FREEZER	Appliances	12	15	[0, 0, 0]	n/a	catFR1	0	R1189M
1732.119	0.0	1851576	ENCODING_END	n/a	n/a	n/a	n/a	-999	15	[0, 0, 0]	n/a	catFR1	0	R1189M
1732.119	0.14	1851576	WORD_OFF	n/a	n/a	FREEZER	n/a	12	15	[0, 0, 0]	n/a	catFR1	0	R1189M
1732.259	0.0	1851716	DISTRACT_START	n/a	n/a	n/a	n/a	-999	15	[0, 0, 0]	n/a	catFR1	0	R1189M
1732.259	0.011	1851716	START	n/a	n/a	n/a	n/a	-999	15	[-999, -999, -999]	n/a	catFR1	0	R1189M
1732.27	3.85	1851727	PROB	3.818	n/a	n/a	n/a	-999	15	[1, 6, 5]	12.0	catFR1	0	R1189M
1736.12	2.285	1855577	PROB	2.257	n/a	n/a	n/a	-999	15	[7, 7, 3]	17.0	catFR1	0	R1189M
1738.405	2.983	1857862	PROB	2.949	n/a	n/a	n/a	-999	15	[7, 2, 8]	17.0	catFR1	0	R1189M
1741.388	1.901	1860845	PROB	1.87	n/a	n/a	n/a	-999	15	[7, 7, 7]	21.0	catFR1	0	R1189M
1743.289	3.05	1862746	PROB	3.024	n/a	n/a	n/a	-999	15	[6, 6, 7]	19.0	catFR1	0	R1189M
1746.339	2.368	1865796	PROB	2.342	n/a	n/a	n/a	-999	15	[1, 3, 8]	12.0	catFR1	0	R1189M
1748.707	2.917	1868163	PROB	2.878	n/a	n/a	n/a	-999	15	[8, 6, 5]	19.0	catFR1	0	R1189M
1751.624	2.289	1871080	PROB	2.289	n/a	n/a	n/a	-999	15	[9, 9, 3]	21.0	catFR1	0	R1189M
1753.913	0.011	1873369	STOP	n/a	n/a	n/a	n/a	-999	15	[-999, -999, -999]	n/a	catFR1	0	R1189M
1753.924	0.667	1873380	DISTRACT_END	n/a	n/a	n/a	n/a	-999	15	[0, 0, 0]	n/a	catFR1	0	R1189M
1754.591	0.516	1874047	RETRIEVAL_ORIENT	n/a	n/a	n/a	n/a	-999	15	[0, 0, 0]	n/a	catFR1	0	R1189M
1755.107	2.227	1874563	REC_START	n/a	n/a	n/a	n/a	-999	15	[0, 0, 0]	n/a	catFR1	0	R1189M
1757.334	0.696	1876790	REC_WORD_VV	2.227	n/a	<>	n/a	-999	15	[0, 0, 0]	n/a	catFR1	0	R1189M
1758.03	1.444	1877486	REC_WORD	2.923	n/a	SPOON	KitchenTools	8	15	[0, 0, 0]	n/a	catFR1	0	R1189M
1759.474	6.554	1878930	REC_WORD	4.367	n/a	LADLE	KitchenTools	7	15	[0, 0, 0]	n/a	catFR1	0	R1189M
1766.028	19.093	1885483	REC_WORD	10.921	n/a	ROBIN	Birds	9	15	[0, 0, 0]	n/a	catFR1	0	R1189M
1785.121	9.411	1904575	REC_END	n/a	n/a	n/a	n/a	-999	15	[0, 0, 0]	n/a	catFR1	0	R1189M
1794.532	0.5	1913986	TRIAL	n/a	n/a	n/a	n/a	-999	16	[0, 0, 0]	n/a	catFR1	0	R1189M
1795.032	10.428	1914486	COUNTDOWN_START	n/a	n/a	n/a	n/a	-999	16	[0, 0, 0]	n/a	catFR1	0	R1189M
1805.46	0.008	1924913	COUNTDOWN_END	n/a	n/a	n/a	n/a	-999	16	[0, 0, 0]	n/a	catFR1	0	R1189M
1805.468	1.616	1924921	ORIENT	n/a	n/a	n/a	n/a	-999	16	[0, 0, 0]	n/a	catFR1	0	R1189M
1807.084	1.983	1926537	ORIENT_OFF	n/a	n/a	n/a	n/a	-999	16	[0, 0, 0]	n/a	catFR1	0	R1189M
1809.067	1.601	1928520	WORD	n/a	wordpools/wordpool_categorized_EN.txt	PLANKTON	OceanAnimals	1	16	[0, 0, 0]	n/a	catFR1	0	R1189M
1810.668	0.951	1930121	WORD_OFF	n/a	n/a	PLANKTON	n/a	1	16	[0, 0, 0]	n/a	catFR1	0	R1189M
1811.619	1.617	1931072	WORD	n/a	wordpools/wordpool_categorized_EN.txt	LOBSTER	OceanAnimals	2	16	[0, 0, 0]	n/a	catFR1	0	R1189M
1813.236	0.782	1932689	WORD_OFF	n/a	n/a	LOBSTER	n/a	2	16	[0, 0, 0]	n/a	catFR1	0	R1189M
1814.018	1.618	1933471	WORD	n/a	wordpools/wordpool_categorized_EN.txt	DRUM	Instruments	3	16	[0, 0, 0]	n/a	catFR1	0	R1189M
1815.636	0.884	1935089	WORD_OFF	n/a	n/a	DRUM	n/a	3	16	[0, 0, 0]	n/a	catFR1	0	R1189M
1816.52	1.616	1935972	WORD	n/a	wordpools/wordpool_categorized_EN.txt	VIOLIN	Instruments	4	16	[0, 0, 0]	n/a	catFR1	0	R1189M
1818.136	0.966	1937588	WORD_OFF	n/a	n/a	VIOLIN	n/a	4	16	[0, 0, 0]	n/a	catFR1	0	R1189M
1819.102	1.602	1938554	WORD	n/a	wordpools/wordpool_categorized_EN.txt	COBBLER	Desserts	5	16	[0, 0, 0]	n/a	catFR1	0	R1189M
1820.704	0.867	1940156	WORD_OFF	n/a	n/a	COBBLER	n/a	5	16	[0, 0, 0]	n/a	catFR1	0	R1189M
1821.571	1.617	1941023	WORD	n/a	wordpools/wordpool_categorized_EN.txt	CUPCAKE	Desserts	6	16	[0, 0, 0]	n/a	catFR1	0	R1189M
1823.188	0.815	1942640	WORD_OFF	n/a	n/a	CUPCAKE	n/a	6	16	[0, 0, 0]	n/a	catFR1	0	R1189M
1824.003	1.618	1943455	WORD	n/a	wordpools/wordpool_categorized_EN.txt	CRAB	OceanAnimals	7	16	[0, 0, 0]	n/a	catFR1	0	R1189M
1825.621	0.767	1945073	WORD_OFF	n/a	n/a	CRAB	n/a	7	16	[0, 0, 0]	n/a	catFR1	0	R1189M
1826.388	1.616	1945840	WORD	n/a	wordpools/wordpool_categorized_EN.txt	JELLYFISH	OceanAnimals	8	16	[0, 0, 0]	n/a	catFR1	0	R1189M
1828.004	0.885	1947456	WORD_OFF	n/a	n/a	JELLYFISH	n/a	8	16	[0, 0, 0]	n/a	catFR1	0	R1189M
1828.889	1.617	1948341	WORD	n/a	wordpools/wordpool_categorized_EN.txt	ORGAN	Instruments	9	16	[0, 0, 0]	n/a	catFR1	0	R1189M
1830.506	0.783	1949958	WORD_OFF	n/a	n/a	ORGAN	n/a	9	16	[0, 0, 0]	n/a	catFR1	0	R1189M
1831.289	1.617	1950741	WORD	n/a	wordpools/wordpool_categorized_EN.txt	PIANO	Instruments	10	16	[0, 0, 0]	n/a	catFR1	0	R1189M
1832.906	0.834	1952358	WORD_OFF	n/a	n/a	PIANO	n/a	10	16	[0, 0, 0]	n/a	catFR1	0	R1189M
1833.74	1.617	1953192	WORD	n/a	wordpools/wordpool_categorized_EN.txt	FUDGE	Desserts	11	16	[0, 0, 0]	n/a	catFR1	0	R1189M
1835.357	0.883	1954808	WORD_OFF	n/a	n/a	FUDGE	n/a	11	16	[0, 0, 0]	n/a	catFR1	0	R1189M
1836.24	1.617	1955691	WORD	n/a	wordpools/wordpool_categorized_EN.txt	PASTRY	Desserts	12	16	[0, 0, 0]	n/a	catFR1	0	R1189M
1837.857	0.0	1957308	ENCODING_END	n/a	n/a	n/a	n/a	-999	16	[0, 0, 0]	n/a	catFR1	0	R1189M
1837.857	0.104	1957308	WORD_OFF	n/a	n/a	PASTRY	n/a	12	16	[0, 0, 0]	n/a	catFR1	0	R1189M
1837.961	0.0	1957412	DISTRACT_START	n/a	n/a	n/a	n/a	-999	16	[0, 0, 0]	n/a	catFR1	0	R1189M
1837.961	0.013	1957412	START	n/a	n/a	n/a	n/a	-999	16	[-999, -999, -999]	n/a	catFR1	0	R1189M
1837.974	4.317	1957425	PROB	4.284	n/a	n/a	n/a	-999	16	[5, 7, 9]	21.0	catFR1	0	R1189M
1842.291	3.601	1961742	PROB	3.574	n/a	n/a	n/a	-999	16	[6, 8, 8]	24.0	catFR1	0	R1189M
1845.892	3.183	1965343	PROB	3.149	n/a	n/a	n/a	-999	16	[7, 3, 5]	15.0	catFR1	0	R1189M
1849.075	2.535	1968526	PROB	2.511	n/a	n/a	n/a	-999	16	[3, 2, 7]	12.0	catFR1	0	R1189M
1851.61	4.267	1971060	PROB	4.24	n/a	n/a	n/a	-999	16	[9, 9, 9]	27.0	catFR1	0	R1189M
1855.877	3.284	1975327	PROB	3.284	n/a	n/a	n/a	-999	16	[3, 5, 9]	17.0	catFR1	0	R1189M
1859.161	0.017	1978611	STOP	n/a	n/a	n/a	n/a	-999	16	[-999, -999, -999]	n/a	catFR1	0	R1189M
1859.178	0.567	1978628	DISTRACT_END	n/a	n/a	n/a	n/a	-999	16	[0, 0, 0]	n/a	catFR1	0	R1189M
1859.745	0.517	1979195	RETRIEVAL_ORIENT	n/a	n/a	n/a	n/a	-999	16	[0, 0, 0]	n/a	catFR1	0	R1189M
1860.262	1.859	1979712	REC_START	n/a	n/a	n/a	n/a	-999	16	[0, 0, 0]	n/a	catFR1	0	R1189M
1862.121	2.144	1981571	REC_WORD	1.859	n/a	PLANKTON	OceanAnimals	1	16	[0, 0, 0]	n/a	catFR1	0	R1189M
1864.265	3.283	1983715	REC_WORD	4.003	n/a	LOBSTER	OceanAnimals	2	16	[0, 0, 0]	n/a	catFR1	0	R1189M
1867.548	22.725	1986998	REC_WORD_VV	7.286	n/a	<>	n/a	-999	16	[0, 0, 0]	n/a	catFR1	0	R1189M
1890.273	54.105	2009721	REC_END	n/a	n/a	n/a	n/a	-999	16	[0, 0, 0]	n/a	catFR1	0	R1189M
1944.378	0.5	2063823	TRIAL	n/a	n/a	n/a	n/a	-999	17	[0, 0, 0]	n/a	catFR1	0	R1189M
1944.878	10.428	2064323	COUNTDOWN_START	n/a	n/a	n/a	n/a	-999	17	[0, 0, 0]	n/a	catFR1	0	R1189M
1955.306	0.007	2074751	COUNTDOWN_END	n/a	n/a	n/a	n/a	-999	17	[0, 0, 0]	n/a	catFR1	0	R1189M
1955.313	1.617	2074758	ORIENT	n/a	n/a	n/a	n/a	-999	17	[0, 0, 0]	n/a	catFR1	0	R1189M
1956.93	2.166	2076374	ORIENT_OFF	n/a	n/a	n/a	n/a	-999	17	[0, 0, 0]	n/a	catFR1	0	R1189M
1959.096	1.618	2078540	WORD	n/a	wordpools/wordpool_categorized_EN.txt	BULL	FarmAnimals	1	17	[0, 0, 0]	n/a	catFR1	0	R1189M
1960.714	0.884	2080158	WORD_OFF	n/a	n/a	BULL	n/a	1	17	[0, 0, 0]	n/a	catFR1	0	R1189M
1961.598	1.617	2081042	WORD	n/a	wordpools/wordpool_categorized_EN.txt	PIG	FarmAnimals	2	17	[0, 0, 0]	n/a	catFR1	0	R1189M
1963.215	0.866	2082659	WORD_OFF	n/a	n/a	PIG	n/a	2	17	[0, 0, 0]	n/a	catFR1	0	R1189M
1964.081	1.601	2083525	WORD	n/a	wordpools/wordpool_categorized_EN.txt	PANDA	Zoo	3	17	[0, 0, 0]	n/a	catFR1	0	R1189M
1965.682	0.8	2085126	WORD_OFF	n/a	n/a	PANDA	n/a	3	17	[0, 0, 0]	n/a	catFR1	0	R1189M
1966.482	1.616	2085926	WORD	n/a	wordpools/wordpool_categorized_EN.txt	BEAR	Zoo	4	17	[0, 0, 0]	n/a	catFR1	0	R1189M
1968.098	0.984	2087542	WORD_OFF	n/a	n/a	BEAR	n/a	4	17	[0, 0, 0]	n/a	catFR1	0	R1189M
1969.082	1.618	2088526	WORD	n/a	wordpools/wordpool_categorized_EN.txt	EVERGREEN	Trees	5	17	[0, 0, 0]	n/a	catFR1	0	R1189M
1970.7	0.867	2090144	WORD_OFF	n/a	n/a	EVERGREEN	n/a	5	17	[0, 0, 0]	n/a	catFR1	0	R1189M
1971.567	1.616	2091011	WORD	n/a	wordpools/wordpool_categorized_EN.txt	HICKORY	Trees	6	17	[0, 0, 0]	n/a	catFR1	0	R1189M
1973.183	0.784	2092627	WORD_OFF	n/a	n/a	HICKORY	n/a	6	17	[0, 0, 0]	n/a	catFR1	0	R1189M
1973.967	1.617	2093410	WORD	n/a	wordpools/wordpool_categorized_EN.txt	ZEBRA	Zoo	7	17	[0, 0, 0]	n/a	catFR1	0	R1189M
1975.584	1.0	2095027	WORD_OFF	n/a	n/a	ZEBRA	n/a	7	17	[0, 0, 0]	n/a	catFR1	0	R1189M
1976.584	1.617	2096027	WORD	n/a	wordpools/wordpool_categorized_EN.txt	TIGER	Zoo	8	17	[0, 0, 0]	n/a	catFR1	0	R1189M
1978.201	0.933	2097644	WORD_OFF	n/a	n/a	TIGER	n/a	8	17	[0, 0, 0]	n/a	catFR1	0	R1189M
1979.134	1.618	2098577	WORD	n/a	wordpools/wordpool_categorized_EN.txt	SHEEP	FarmAnimals	9	17	[0, 0, 0]	n/a	catFR1	0	R1189M
1980.752	0.783	2100195	WORD_OFF	n/a	n/a	SHEEP	n/a	9	17	[0, 0, 0]	n/a	catFR1	0	R1189M
1981.535	1.617	2100978	WORD	n/a	wordpools/wordpool_categorized_EN.txt	HEN	FarmAnimals	10	17	[0, 0, 0]	n/a	catFR1	0	R1189M
1983.152	0.899	2102595	WORD_OFF	n/a	n/a	HEN	n/a	10	17	[0, 0, 0]	n/a	catFR1	0	R1189M
1984.051	1.618	2103494	WORD	n/a	wordpools/wordpool_categorized_EN.txt	PINE	Trees	11	17	[0, 0, 0]	n/a	catFR1	0	R1189M
1985.669	1.0	2105112	WORD_OFF	n/a	n/a	PINE	n/a	11	17	[0, 0, 0]	n/a	catFR1	0	R1189M
1986.669	1.617	2106112	WORD	n/a	wordpools/wordpool_categorized_EN.txt	WALNUT	Trees	12	17	[0, 0, 0]	n/a	catFR1	0	R1189M
1988.286	0.001	2107729	WORD_OFF	n/a	n/a	WALNUT	n/a	12	17	[0, 0, 0]	n/a	catFR1	0	R1189M
1988.287	0.104	2107730	ENCODING_END	n/a	n/a	n/a	n/a	-999	17	[0, 0, 0]	n/a	catFR1	0	R1189M
1988.391	0.0	2107834	DISTRACT_START	n/a	n/a	n/a	n/a	-999	17	[0, 0, 0]	n/a	catFR1	0	R1189M
1988.391	0.012	2107834	START	n/a	n/a	n/a	n/a	-999	17	[-999, -999, -999]	n/a	catFR1	0	R1189M
1988.403	4.201	2107846	PROB	4.175	n/a	n/a	n/a	-999	17	[3, 1, 1]	5.0	catFR1	0	R1189M
1992.604	2.9	2112046	PROB	2.861	n/a	n/a	n/a	-999	17	[4, 7, 3]	14.0	catFR1	0	R1189M
1995.504	5.601	2114946	PROB	5.576	n/a	n/a	n/a	-999	17	[9, 9, 6]	24.0	catFR1	0	R1189M
2001.105	2.768	2120547	PROB	2.745	n/a	n/a	n/a	-999	17	[4, 9, 9]	22.0	catFR1	0	R1189M
2003.873	3.384	2123315	PROB	3.361	n/a	n/a	n/a	-999	17	[5, 3, 9]	17.0	catFR1	0	R1189M
2007.257	2.863	2126699	PROB	2.863	n/a	n/a	n/a	-999	17	[1, 4, 8]	13.0	catFR1	0	R1189M
2010.12	0.021	2129561	STOP	n/a	n/a	n/a	n/a	-999	17	[-999, -999, -999]	n/a	catFR1	0	R1189M
2010.141	0.666	2129582	DISTRACT_END	n/a	n/a	n/a	n/a	-999	17	[0, 0, 0]	n/a	catFR1	0	R1189M
2010.807	0.518	2130248	RETRIEVAL_ORIENT	n/a	n/a	n/a	n/a	-999	17	[0, 0, 0]	n/a	catFR1	0	R1189M
2011.325	1.878	2130766	REC_START	n/a	n/a	n/a	n/a	-999	17	[0, 0, 0]	n/a	catFR1	0	R1189M
2013.203	1.043	2132644	REC_WORD	1.878	n/a	ZEBRA	Zoo	7	17	[0, 0, 0]	n/a	catFR1	0	R1189M
2014.246	1.98	2133687	REC_WORD	2.921	n/a	ZEBRA	Zoo	7	17	[0, 0, 0]	n/a	catFR1	0	R1189M
2016.226	2.278	2135667	REC_WORD	4.901	n/a	TIGER	Zoo	8	17	[0, 0, 0]	n/a	catFR1	0	R1189M
2018.504	2.103	2137945	REC_WORD	7.179	n/a	BEAR	Zoo	4	17	[0, 0, 0]	n/a	catFR1	0	R1189M
2020.607	2.248	2140048	REC_WORD	9.282	n/a	SHEEP	FarmAnimals	9	17	[0, 0, 0]	n/a	catFR1	0	R1189M
2022.855	7.443	2142296	REC_WORD	11.53	n/a	EVERGREEN	Trees	5	17	[0, 0, 0]	n/a	catFR1	0	R1189M
2030.298	11.039	2149738	REC_WORD_VV	18.973	n/a	<>	n/a	-999	17	[0, 0, 0]	n/a	catFR1	0	R1189M
2041.337	7.578	2160777	REC_END	n/a	n/a	n/a	n/a	-999	17	[0, 0, 0]	n/a	catFR1	0	R1189M
2048.915	0.5	2168354	TRIAL	n/a	n/a	n/a	n/a	-999	18	[0, 0, 0]	n/a	catFR1	0	R1189M
2049.415	10.428	2168854	COUNTDOWN_START	n/a	n/a	n/a	n/a	-999	18	[0, 0, 0]	n/a	catFR1	0	R1189M
2059.843	0.007	2179282	COUNTDOWN_END	n/a	n/a	n/a	n/a	-999	18	[0, 0, 0]	n/a	catFR1	0	R1189M
2059.85	1.617	2179289	ORIENT	n/a	n/a	n/a	n/a	-999	18	[0, 0, 0]	n/a	catFR1	0	R1189M
2061.467	1.967	2180905	ORIENT_OFF	n/a	n/a	n/a	n/a	-999	18	[0, 0, 0]	n/a	catFR1	0	R1189M
2063.434	1.616	2182872	WORD	n/a	wordpools/wordpool_categorized_EN.txt	BATHROOM	Building	1	18	[0, 0, 0]	n/a	catFR1	0	R1189M
2065.05	0.901	2184488	WORD_OFF	n/a	n/a	BATHROOM	n/a	1	18	[0, 0, 0]	n/a	catFR1	0	R1189M
2065.951	1.617	2185389	WORD	n/a	wordpools/wordpool_categorized_EN.txt	WINDOW	Building	2	18	[0, 0, 0]	n/a	catFR1	0	R1189M
2067.568	0.917	2187006	WORD_OFF	n/a	n/a	WINDOW	n/a	2	18	[0, 0, 0]	n/a	catFR1	0	R1189M
2068.485	1.616	2187923	WORD	n/a	wordpools/wordpool_categorized_EN.txt	MICROWAVE	Electronics	3	18	[0, 0, 0]	n/a	catFR1	0	R1189M
2070.101	0.917	2189539	WORD_OFF	n/a	n/a	MICROWAVE	n/a	3	18	[0, 0, 0]	n/a	catFR1	0	R1189M
2071.018	1.618	2190456	WORD	n/a	wordpools/wordpool_categorized_EN.txt	PRINTER	Electronics	4	18	[0, 0, 0]	n/a	catFR1	0	R1189M
2072.636	0.8	2192074	WORD_OFF	n/a	n/a	PRINTER	n/a	4	18	[0, 0, 0]	n/a	catFR1	0	R1189M
2073.436	1.616	2192874	WORD	n/a	wordpools/wordpool_categorized_EN.txt	OCEAN	Landscapes	5	18	[0, 0, 0]	n/a	catFR1	0	R1189M
2075.052	0.901	2194490	WORD_OFF	n/a	n/a	OCEAN	n/a	5	18	[0, 0, 0]	n/a	catFR1	0	R1189M
2075.953	1.617	2195391	WORD	n/a	wordpools/wordpool_categorized_EN.txt	VALLEY	Landscapes	6	18	[0, 0, 0]	n/a	catFR1	0	R1189M
2077.57	0.884	2197008	WORD_OFF	n/a	n/a	VALLEY	n/a	6	18	[0, 0, 0]	n/a	catFR1	0	R1189M
2078.454	1.616	2197892	WORD	n/a	wordpools/wordpool_categorized_EN.txt	ATTIC	Building	7	18	[0, 0, 0]	n/a	catFR1	0	R1189M
2080.07	0.784	2199507	WORD_OFF	n/a	n/a	ATTIC	n/a	7	18	[0, 0, 0]	n/a	catFR1	0	R1189M
2080.854	1.617	2200291	WORD	n/a	wordpools/wordpool_categorized_EN.txt	FOUNDATION	Building	8	18	[0, 0, 0]	n/a	catFR1	0	R1189M
2082.471	0.784	2201908	WORD_OFF	n/a	n/a	FOUNDATION	n/a	8	18	[0, 0, 0]	n/a	catFR1	0	R1189M
2083.255	1.617	2202692	WORD	n/a	wordpools/wordpool_categorized_EN.txt	TABLET	Electronics	9	18	[0, 0, 0]	n/a	catFR1	0	R1189M
2084.872	0.967	2204309	WORD_OFF	n/a	n/a	TABLET	n/a	9	18	[0, 0, 0]	n/a	catFR1	0	R1189M
2085.839	1.617	2205276	WORD	n/a	wordpools/wordpool_categorized_EN.txt	PHONE	Electronics	10	18	[0, 0, 0]	n/a	catFR1	0	R1189M
2087.456	0.916	2206893	WORD_OFF	n/a	n/a	PHONE	n/a	10	18	[0, 0, 0]	n/a	catFR1	0	R1189M
2088.372	1.617	2207809	WORD	n/a	wordpools/wordpool_categorized_EN.txt	HILLS	Landscapes	11	18	[0, 0, 0]	n/a	catFR1	0	R1189M
2089.989	1.016	2209426	WORD_OFF	n/a	n/a	HILLS	n/a	11	18	[0, 0, 0]	n/a	catFR1	0	R1189M
2091.005	1.618	2210442	WORD	n/a	wordpools/wordpool_categorized_EN.txt	MOUNTAIN	Landscapes	12	18	[0, 0, 0]	n/a	catFR1	0	R1189M
2092.623	0.0	2212060	ENCODING_END	n/a	n/a	n/a	n/a	-999	18	[0, 0, 0]	n/a	catFR1	0	R1189M
2092.623	0.141	2212060	WORD_OFF	n/a	n/a	MOUNTAIN	n/a	12	18	[0, 0, 0]	n/a	catFR1	0	R1189M
2092.764	0.0	2212201	DISTRACT_START	n/a	n/a	n/a	n/a	-999	18	[0, 0, 0]	n/a	catFR1	0	R1189M
2092.764	0.009	2212201	START	n/a	n/a	n/a	n/a	-999	18	[-999, -999, -999]	n/a	catFR1	0	R1189M
2092.773	7.535	2212210	PROB	7.508	n/a	n/a	n/a	-999	18	[8, 3, 2]	13.0	catFR1	0	R1189M
2100.308	2.7	2219744	PROB	2.677	n/a	n/a	n/a	-999	18	[3, 8, 7]	18.0	catFR1	0	R1189M
2103.008	2.168	2222444	PROB	2.145	n/a	n/a	n/a	-999	18	[2, 5, 4]	11.0	catFR1	0	R1189M
2105.176	1.849	2224612	PROB	1.824	n/a	n/a	n/a	-999	18	[6, 6, 6]	18.0	catFR1	0	R1189M
2107.025	1.601	2226461	PROB	1.577	n/a	n/a	n/a	-999	18	[6, 4, 1]	11.0	catFR1	0	R1189M
2108.626	3.168	2228062	PROB	3.143	n/a	n/a	n/a	-999	18	[9, 4, 7]	20.0	catFR1	0	R1189M
2111.794	2.464	2231230	PROB	2.464	n/a	n/a	n/a	-999	18	[1, 3, 5]	9.0	catFR1	0	R1189M
2114.258	0.02	2233693	STOP	n/a	n/a	n/a	n/a	-999	18	[-999, -999, -999]	n/a	catFR1	0	R1189M
2114.278	0.65	2233713	DISTRACT_END	n/a	n/a	n/a	n/a	-999	18	[0, 0, 0]	n/a	catFR1	0	R1189M
2114.928	0.517	2234363	RETRIEVAL_ORIENT	n/a	n/a	n/a	n/a	-999	18	[0, 0, 0]	n/a	catFR1	0	R1189M
2115.445	1.629	2234880	REC_START	n/a	n/a	n/a	n/a	-999	18	[0, 0, 0]	n/a	catFR1	0	R1189M
2117.074	2.026	2236509	REC_WORD	1.629	n/a	BATHROOM	Building	1	18	[0, 0, 0]	n/a	catFR1	0	R1189M
2119.1	2.089	2238535	REC_WORD	3.655	n/a	WINDOW	Building	2	18	[0, 0, 0]	n/a	catFR1	0	R1189M
2121.189	2.306	2240624	REC_WORD	5.744	n/a	ATTIC	Building	7	18	[0, 0, 0]	n/a	catFR1	0	R1189M
2123.495	21.96	2242930	REC_WORD	8.05	n/a	FOUNDATION	Building	8	18	[0, 0, 0]	n/a	catFR1	0	R1189M
2145.455	11.397	2264889	REC_END	n/a	n/a	n/a	n/a	-999	18	[0, 0, 0]	n/a	catFR1	0	R1189M
2156.852	0.5	2276285	TRIAL	n/a	n/a	n/a	n/a	-999	19	[0, 0, 0]	n/a	catFR1	0	R1189M
2157.352	10.428	2276785	COUNTDOWN_START	n/a	n/a	n/a	n/a	-999	19	[0, 0, 0]	n/a	catFR1	0	R1189M
2167.78	0.008	2287212	COUNTDOWN_END	n/a	n/a	n/a	n/a	-999	19	[0, 0, 0]	n/a	catFR1	0	R1189M
2167.788	1.617	2287220	ORIENT	n/a	n/a	n/a	n/a	-999	19	[0, 0, 0]	n/a	catFR1	0	R1189M
2169.405	2.017	2288837	ORIENT_OFF	n/a	n/a	n/a	n/a	-999	19	[0, 0, 0]	n/a	catFR1	0	R1189M
2171.422	1.616	2290854	WORD	n/a	wordpools/wordpool_categorized_EN.txt	JELLO	Desserts	1	19	[0, 0, 0]	n/a	catFR1	0	R1189M
2173.038	0.818	2292470	WORD_OFF	n/a	n/a	JELLO	n/a	1	19	[0, 0, 0]	n/a	catFR1	0	R1189M
2173.856	1.617	2293288	WORD	n/a	wordpools/wordpool_categorized_EN.txt	BROWNIES	Desserts	2	19	[0, 0, 0]	n/a	catFR1	0	R1189M
2175.473	0.933	2294905	WORD_OFF	n/a	n/a	BROWNIES	n/a	2	19	[0, 0, 0]	n/a	catFR1	0	R1189M
2176.406	1.616	2295838	WORD	n/a	wordpools/wordpool_categorized_EN.txt	CREEK	Landscapes	3	19	[0, 0, 0]	n/a	catFR1	0	R1189M
2178.022	0.801	2297454	WORD_OFF	n/a	n/a	CREEK	n/a	3	19	[0, 0, 0]	n/a	catFR1	0	R1189M
2178.823	1.617	2298255	WORD	n/a	wordpools/wordpool_categorized_EN.txt	FOREST	Landscapes	4	19	[0, 0, 0]	n/a	catFR1	0	R1189M
2180.44	0.934	2299872	WORD_OFF	n/a	n/a	FOREST	n/a	4	19	[0, 0, 0]	n/a	catFR1	0	R1189M
2181.374	1.617	2300806	WORD	n/a	wordpools/wordpool_categorized_EN.txt	WATER	Beverages	5	19	[0, 0, 0]	n/a	catFR1	0	R1189M
2182.991	0.883	2302423	WORD_OFF	n/a	n/a	WATER	n/a	5	19	[0, 0, 0]	n/a	catFR1	0	R1189M
2183.874	1.617	2303305	WORD	n/a	wordpools/wordpool_categorized_EN.txt	COLA	Beverages	6	19	[0, 0, 0]	n/a	catFR1	0	R1189M
2185.491	0.884	2304922	WORD_OFF	n/a	n/a	COLA	n/a	6	19	[0, 0, 0]	n/a	catFR1	0	R1189M
2186.375	1.617	2305806	WORD	n/a	wordpools/wordpool_categorized_EN.txt	PIE	Desserts	7	19	[0, 0, 0]	n/a	catFR1	0	R1189M
2187.992	0.95	2307423	WORD_OFF	n/a	n/a	PIE	n/a	7	19	[0, 0, 0]	n/a	catFR1	0	R1189M
2188.942	1.617	2308373	WORD	n/a	wordpools/wordpool_categorized_EN.txt	CAKE	Desserts	8	19	[0, 0, 0]	n/a	catFR1	0	R1189M
2190.559	0.983	2309990	WORD_OFF	n/a	n/a	CAKE	n/a	8	19	[0, 0, 0]	n/a	catFR1	0	R1189M
2191.542	1.617	2310973	WORD	n/a	wordpools/wordpool_categorized_EN.txt	ISLAND	Landscapes	9	19	[0, 0, 0]	n/a	catFR1	0	R1189M
2193.159	0.834	2312590	WORD_OFF	n/a	n/a	ISLAND	n/a	9	19	[0, 0, 0]	n/a	catFR1	0	R1189M
2193.993	1.617	2313424	WORD	n/a	wordpools/wordpool_categorized_EN.txt	BEACH	Landscapes	10	19	[0, 0, 0]	n/a	catFR1	0	R1189M
2195.61	0.9	2315041	WORD_OFF	n/a	n/a	BEACH	n/a	10	19	[0, 0, 0]	n/a	catFR1	0	R1189M
2196.51	1.616	2315941	WORD	n/a	wordpools/wordpool_categorized_EN.txt	MILK	Beverages	11	19	[0, 0, 0]	n/a	catFR1	0	R1189M
2198.126	0.818	2317557	WORD_OFF	n/a	n/a	MILK	n/a	11	19	[0, 0, 0]	n/a	catFR1	0	R1189M
2198.944	1.617	2318375	WORD	n/a	wordpools/wordpool_categorized_EN.txt	SODA	Beverages	12	19	[0, 0, 0]	n/a	catFR1	0	R1189M
2200.561	0.0	2319992	ENCODING_END	n/a	n/a	n/a	n/a	-999	19	[0, 0, 0]	n/a	catFR1	0	R1189M
2200.561	0.106	2319992	WORD_OFF	n/a	n/a	SODA	n/a	12	19	[0, 0, 0]	n/a	catFR1	0	R1189M
2200.667	0.0	2320098	DISTRACT_START	n/a	n/a	n/a	n/a	-999	19	[0, 0, 0]	n/a	catFR1	0	R1189M
2200.667	0.011	2320098	START	n/a	n/a	n/a	n/a	-999	19	[-999, -999, -999]	n/a	catFR1	0	R1189M
2200.678	3.517	2320109	PROB	3.484	n/a	n/a	n/a	-999	19	[1, 5, 6]	12.0	catFR1	0	R1189M
2204.195	2.034	2323625	PROB	2.006	n/a	n/a	n/a	-999	19	[9, 3, 9]	21.0	catFR1	0	R1189M
2206.229	1.95	2325659	PROB	1.925	n/a	n/a	n/a	-999	19	[1, 7, 7]	15.0	catFR1	0	R1189M
2208.179	4.134	2327609	PROB	4.111	n/a	n/a	n/a	-999	19	[9, 6, 2]	17.0	catFR1	0	R1189M
2212.313	3.151	2331743	PROB	3.12	n/a	n/a	n/a	-999	19	[6, 2, 5]	13.0	catFR1	0	R1189M
2215.464	2.717	2334894	PROB	2.682	n/a	n/a	n/a	-999	19	[7, 3, 4]	14.0	catFR1	0	R1189M
2218.181	3.733	2337611	PROB	3.733	n/a	n/a	n/a	-999	19	[1, 6, 2]	9.0	catFR1	0	R1189M
2221.914	0.018	2341343	STOP	n/a	n/a	n/a	n/a	-999	19	[-999, -999, -999]	n/a	catFR1	0	R1189M
2221.932	0.55	2341361	DISTRACT_END	n/a	n/a	n/a	n/a	-999	19	[0, 0, 0]	n/a	catFR1	0	R1189M
2222.482	0.517	2341911	RETRIEVAL_ORIENT	n/a	n/a	n/a	n/a	-999	19	[0, 0, 0]	n/a	catFR1	0	R1189M
2222.999	0.799	2342428	REC_START	n/a	n/a	n/a	n/a	-999	19	[0, 0, 0]	n/a	catFR1	0	R1189M
2223.798	1.824	2343227	REC_WORD	0.799	n/a	COLA	Beverages	6	19	[0, 0, 0]	n/a	catFR1	0	R1189M
2225.622	1.977	2345051	REC_WORD	2.623	n/a	PIE	Desserts	7	19	[0, 0, 0]	n/a	catFR1	0	R1189M
2227.599	1.92	2347028	REC_WORD	4.6	n/a	CAKE	Desserts	8	19	[0, 0, 0]	n/a	catFR1	0	R1189M
2229.519	2.441	2348948	REC_WORD	6.52	n/a	ISLAND	Landscapes	9	19	[0, 0, 0]	n/a	catFR1	0	R1189M
2231.96	2.234	2351389	REC_WORD	8.961	n/a	BEACH	Landscapes	10	19	[0, 0, 0]	n/a	catFR1	0	R1189M
2234.194	18.817	2353623	REC_WORD	11.195	n/a	SODA	Beverages	12	19	[0, 0, 0]	n/a	catFR1	0	R1189M
2253.011	9.545	2372439	REC_END	n/a	n/a	n/a	n/a	-999	19	[0, 0, 0]	n/a	catFR1	0	R1189M
2262.556	0.5	2381983	TRIAL	n/a	n/a	n/a	n/a	-999	20	[0, 0, 0]	n/a	catFR1	0	R1189M
2263.056	10.428	2382483	COUNTDOWN_START	n/a	n/a	n/a	n/a	-999	20	[0, 0, 0]	n/a	catFR1	0	R1189M
2273.484	0.008	2392910	COUNTDOWN_END	n/a	n/a	n/a	n/a	-999	20	[0, 0, 0]	n/a	catFR1	0	R1189M
2273.492	1.616	2392918	ORIENT	n/a	n/a	n/a	n/a	-999	20	[0, 0, 0]	n/a	catFR1	0	R1189M
2275.108	2.218	2394534	ORIENT_OFF	n/a	n/a	n/a	n/a	-999	20	[0, 0, 0]	n/a	catFR1	0	R1189M
2277.326	1.617	2396752	WORD	n/a	wordpools/wordpool_categorized_EN.txt	BALL	Toys	1	20	[0, 0, 0]	n/a	catFR1	0	R1189M
2278.943	0.8	2398369	WORD_OFF	n/a	n/a	BALL	n/a	1	20	[0, 0, 0]	n/a	catFR1	0	R1189M
2279.743	1.617	2399169	WORD	n/a	wordpools/wordpool_categorized_EN.txt	BARBIE	Toys	2	20	[0, 0, 0]	n/a	catFR1	0	R1189M
2281.36	0.917	2400786	WORD_OFF	n/a	n/a	BARBIE	n/a	2	20	[0, 0, 0]	n/a	catFR1	0	R1189M
2282.277	1.617	2401703	WORD	n/a	wordpools/wordpool_categorized_EN.txt	OYSTER	OceanAnimals	3	20	[0, 0, 0]	n/a	catFR1	0	R1189M
2283.894	1.0	2403320	WORD_OFF	n/a	n/a	OYSTER	n/a	3	20	[0, 0, 0]	n/a	catFR1	0	R1189M
2284.894	1.617	2404320	WORD	n/a	wordpools/wordpool_categorized_EN.txt	WHALE	OceanAnimals	4	20	[0, 0, 0]	n/a	catFR1	0	R1189M
2286.511	0.833	2405937	WORD_OFF	n/a	n/a	WHALE	n/a	4	20	[0, 0, 0]	n/a	catFR1	0	R1189M
2287.344	1.617	2406770	WORD	n/a	wordpools/wordpool_categorized_EN.txt	RAIN	Weather	5	20	[0, 0, 0]	n/a	catFR1	0	R1189M
2288.961	1.001	2408386	WORD_OFF	n/a	n/a	RAIN	n/a	5	20	[0, 0, 0]	n/a	catFR1	0	R1189M
2289.962	1.616	2409387	WORD	n/a	wordpools/wordpool_categorized_EN.txt	HURRICANE	Weather	6	20	[0, 0, 0]	n/a	catFR1	0	R1189M
2291.578	1.001	2411003	WORD_OFF	n/a	n/a	HURRICANE	n/a	6	20	[0, 0, 0]	n/a	catFR1	0	R1189M
2292.579	1.617	2412004	WORD	n/a	wordpools/wordpool_categorized_EN.txt	BASKETBALL	Toys	7	20	[0, 0, 0]	n/a	catFR1	0	R1189M
2294.196	0.967	2413621	WORD_OFF	n/a	n/a	BASKETBALL	n/a	7	20	[0, 0, 0]	n/a	catFR1	0	R1189M
2295.163	1.617	2414588	WORD	n/a	wordpools/wordpool_categorized_EN.txt	FOOTBALL	Toys	8	20	[0, 0, 0]	n/a	catFR1	0	R1189M
2296.78	0.916	2416205	WORD_OFF	n/a	n/a	FOOTBALL	n/a	8	20	[0, 0, 0]	n/a	catFR1	0	R1189M
2297.696	1.617	2417121	WORD	n/a	wordpools/wordpool_categorized_EN.txt	FISH	OceanAnimals	9	20	[0, 0, 0]	n/a	catFR1	0	R1189M
2299.313	0.984	2418738	WORD_OFF	n/a	n/a	FISH	n/a	9	20	[0, 0, 0]	n/a	catFR1	0	R1189M
2300.297	1.617	2419722	WORD	n/a	wordpools/wordpool_categorized_EN.txt	OCTOPUS	OceanAnimals	10	20	[0, 0, 0]	n/a	catFR1	0	R1189M
2301.914	0.817	2421339	WORD_OFF	n/a	n/a	OCTOPUS	n/a	10	20	[0, 0, 0]	n/a	catFR1	0	R1189M
2302.731	1.617	2422156	WORD	n/a	wordpools/wordpool_categorized_EN.txt	WIND	Weather	11	20	[0, 0, 0]	n/a	catFR1	0	R1189M
2304.348	1.0	2423773	WORD_OFF	n/a	n/a	WIND	n/a	11	20	[0, 0, 0]	n/a	catFR1	0	R1189M
2305.348	1.617	2424773	WORD	n/a	wordpools/wordpool_categorized_EN.txt	CLOUD	Weather	12	20	[0, 0, 0]	n/a	catFR1	0	R1189M
2306.965	0.0	2426389	ENCODING_END	n/a	n/a	n/a	n/a	-999	20	[0, 0, 0]	n/a	catFR1	0	R1189M
2306.965	0.103	2426389	WORD_OFF	n/a	n/a	CLOUD	n/a	12	20	[0, 0, 0]	n/a	catFR1	0	R1189M
2307.068	0.0	2426492	DISTRACT_START	n/a	n/a	n/a	n/a	-999	20	[0, 0, 0]	n/a	catFR1	0	R1189M
2307.068	0.013	2426492	START	n/a	n/a	n/a	n/a	-999	20	[-999, -999, -999]	n/a	catFR1	0	R1189M
2307.081	5.202	2426505	PROB	5.176	n/a	n/a	n/a	-999	20	[8, 1, 4]	13.0	catFR1	0	R1189M
2312.283	4.766	2431707	PROB	4.741	n/a	n/a	n/a	-999	20	[9, 3, 2]	14.0	catFR1	0	R1189M
2317.049	2.685	2436473	PROB	2.648	n/a	n/a	n/a	-999	20	[2, 4, 7]	13.0	catFR1	0	R1189M
2319.734	1.717	2439158	PROB	1.684	n/a	n/a	n/a	-999	20	[9, 9, 4]	22.0	catFR1	0	R1189M
2321.451	4.65	2440875	PROB	4.622	n/a	n/a	n/a	-999	20	[9, 6, 4]	19.0	catFR1	0	R1189M
2326.101	2.092	2445524	PROB	2.092	n/a	n/a	n/a	-999	20	[1, 7, 5]	13.0	catFR1	0	R1189M
2328.193	0.01	2447616	STOP	n/a	n/a	n/a	n/a	-999	20	[-999, -999, -999]	n/a	catFR1	0	R1189M
2328.203	0.666	2447626	DISTRACT_END	n/a	n/a	n/a	n/a	-999	20	[0, 0, 0]	n/a	catFR1	0	R1189M
2328.869	0.518	2448292	RETRIEVAL_ORIENT	n/a	n/a	n/a	n/a	-999	20	[0, 0, 0]	n/a	catFR1	0	R1189M
2329.387	2.102	2448810	REC_START	n/a	n/a	n/a	n/a	-999	20	[0, 0, 0]	n/a	catFR1	0	R1189M
2331.489	2.193	2450912	REC_WORD	2.102	n/a	FOOTBALL	Toys	8	20	[0, 0, 0]	n/a	catFR1	0	R1189M
2333.682	2.885	2453105	REC_WORD	4.295	n/a	FISH	OceanAnimals	9	20	[0, 0, 0]	n/a	catFR1	0	R1189M
2336.567	2.711	2455990	REC_WORD	7.18	n/a	OCTOPUS	OceanAnimals	10	20	[0, 0, 0]	n/a	catFR1	0	R1189M
2339.278	2.226	2458701	REC_WORD	9.891	n/a	WIND	Weather	11	20	[0, 0, 0]	n/a	catFR1	0	R1189M
2341.504	8.123	2460926	REC_WORD	12.117	n/a	CLOUD	Weather	12	20	[0, 0, 0]	n/a	catFR1	0	R1189M
2349.627	9.772	2469049	REC_WORD	20.24	n/a	WHALE	OceanAnimals	4	20	[0, 0, 0]	n/a	catFR1	0	R1189M
2359.399	31.015	2478820	REC_END	n/a	n/a	n/a	n/a	-999	20	[0, 0, 0]	n/a	catFR1	0	R1189M
2390.414	0.5	2509834	TRIAL	n/a	n/a	n/a	n/a	-999	21	[0, 0, 0]	n/a	catFR1	0	R1189M
2390.914	10.428	2510334	COUNTDOWN_START	n/a	n/a	n/a	n/a	-999	21	[0, 0, 0]	n/a	catFR1	0	R1189M
2401.342	0.008	2520761	COUNTDOWN_END	n/a	n/a	n/a	n/a	-999	21	[0, 0, 0]	n/a	catFR1	0	R1189M
2401.35	1.617	2520769	ORIENT	n/a	n/a	n/a	n/a	-999	21	[0, 0, 0]	n/a	catFR1	0	R1189M
2402.967	2.099	2522386	ORIENT_OFF	n/a	n/a	n/a	n/a	-999	21	[0, 0, 0]	n/a	catFR1	0	R1189M
2405.066	1.618	2524485	WORD	n/a	wordpools/wordpool_categorized_EN.txt	SHRIMP	OceanAnimals	1	21	[0, 0, 0]	n/a	catFR1	0	R1189M
2406.684	0.917	2526103	WORD_OFF	n/a	n/a	SHRIMP	n/a	1	21	[0, 0, 0]	n/a	catFR1	0	R1189M
2407.601	1.617	2527020	WORD	n/a	wordpools/wordpool_categorized_EN.txt	SQUID	OceanAnimals	2	21	[0, 0, 0]	n/a	catFR1	0	R1189M
2409.218	1.0	2528637	WORD_OFF	n/a	n/a	SQUID	n/a	2	21	[0, 0, 0]	n/a	catFR1	0	R1189M
2410.218	1.617	2529637	WORD	n/a	wordpools/wordpool_categorized_EN.txt	BEETLE	Insects	3	21	[0, 0, 0]	n/a	catFR1	0	R1189M
2411.835	1.017	2531253	WORD_OFF	n/a	n/a	BEETLE	n/a	3	21	[0, 0, 0]	n/a	catFR1	0	R1189M
2412.852	1.617	2532270	WORD	n/a	wordpools/wordpool_categorized_EN.txt	ROACH	Insects	4	21	[0, 0, 0]	n/a	catFR1	0	R1189M
2414.469	0.85	2533887	WORD_OFF	n/a	n/a	ROACH	n/a	4	21	[0, 0, 0]	n/a	catFR1	0	R1189M
2415.319	1.617	2534737	WORD	n/a	wordpools/wordpool_categorized_EN.txt	CAR	Vehicles	5	21	[0, 0, 0]	n/a	catFR1	0	R1189M
2416.936	0.95	2536354	WORD_OFF	n/a	n/a	CAR	n/a	5	21	[0, 0, 0]	n/a	catFR1	0	R1189M
2417.886	1.617	2537304	WORD	n/a	wordpools/wordpool_categorized_EN.txt	TRAIN	Vehicles	6	21	[0, 0, 0]	n/a	catFR1	0	R1189M
2419.503	1.001	2538921	WORD_OFF	n/a	n/a	TRAIN	n/a	6	21	[0, 0, 0]	n/a	catFR1	0	R1189M
2420.504	1.616	2539922	WORD	n/a	wordpools/wordpool_categorized_EN.txt	FLY	Insects	7	21	[0, 0, 0]	n/a	catFR1	0	R1189M
2422.12	1.0	2541538	WORD_OFF	n/a	n/a	FLY	n/a	7	21	[0, 0, 0]	n/a	catFR1	0	R1189M
2423.12	1.601	2542538	WORD	n/a	wordpools/wordpool_categorized_EN.txt	BEE	Insects	8	21	[0, 0, 0]	n/a	catFR1	0	R1189M
2424.721	0.834	2544139	WORD_OFF	n/a	n/a	BEE	n/a	8	21	[0, 0, 0]	n/a	catFR1	0	R1189M
2425.555	1.616	2544973	WORD	n/a	wordpools/wordpool_categorized_EN.txt	TURTLE	OceanAnimals	9	21	[0, 0, 0]	n/a	catFR1	0	R1189M
2427.171	0.984	2546589	WORD_OFF	n/a	n/a	TURTLE	n/a	9	21	[0, 0, 0]	n/a	catFR1	0	R1189M
