onset	duration	sample	trial_type	response_time	stim_file	item_name	category	serialpos	list	test	answer	experiment	session	subject
0.0	164.933	681300	INSTRUCT_START	n/a	n/a	n/a	n/a	-999	-999	[0, 0, 0]	n/a	catFR1	0	R1533J
164.933	41.316	846227	INSTRUCT_END	n/a	n/a	n/a	n/a	-999	-999	[0, 0, 0]	n/a	catFR1	0	R1533J
206.249	10.0	887539	COUNTDOWN_START	n/a	n/a	n/a	n/a	-999	-999	[0, 0, 0]	n/a	catFR1	0	R1533J
216.601	0.0	897886	COUNTDOWN_END	n/a	n/a	n/a	n/a	-999	-999	[0, 0, 0]	n/a	catFR1	0	R1533J
216.601	2.067	897897	ENCODING_START	n/a	n/a	n/a	n/a	-999	-1	[0, 0, 0]	n/a	catFR1	0	R1533J
218.668	1.6	899955	WORD	n/a	n/a	WIND	Weather	1	-1	[0, 0, 0]	n/a	catFR1	0	R1533J
220.267	0.8	901555	WORD_OFF	n/a	n/a	WIND	Weather	1	-1	[0, 0, 0]	n/a	catFR1	0	R1533J
221.067	1.6	902355	WORD	n/a	n/a	HUMIDITY	Weather	2	-1	[0, 0, 0]	n/a	catFR1	0	R1533J
222.667	0.983	903955	WORD_OFF	n/a	n/a	HUMIDITY	Weather	2	-1	[0, 0, 0]	n/a	catFR1	0	R1533J
223.65	1.6	904937	WORD	n/a	n/a	LEVEL	Tools	3	-1	[0, 0, 0]	n/a	catFR1	0	R1533J
225.251	0.916	906537	WORD_OFF	n/a	n/a	LEVEL	Tools	3	-1	[0, 0, 0]	n/a	catFR1	0	R1533J
226.167	1.6	907454	WORD	n/a	n/a	AXE	Tools	4	-1	[0, 0, 0]	n/a	catFR1	0	R1533J
227.767	0.799	909054	WORD_OFF	n/a	n/a	AXE	Tools	4	-1	[0, 0, 0]	n/a	catFR1	0	R1533J
228.566	1.6	909854	WORD	n/a	n/a	FLUTE	Instruments	5	-1	[0, 0, 0]	n/a	catFR1	0	R1533J
230.166	0.9	911454	WORD_OFF	n/a	n/a	FLUTE	Instruments	5	-1	[0, 0, 0]	n/a	catFR1	0	R1533J
231.066	1.6	912350	WORD	n/a	n/a	PIANO	Instruments	6	-1	[0, 0, 0]	n/a	catFR1	0	R1533J
232.666	0.983	913950	WORD_OFF	n/a	n/a	PIANO	Instruments	6	-1	[0, 0, 0]	n/a	catFR1	0	R1533J
233.649	1.6	914931	WORD	n/a	n/a	HURRICANE	Weather	7	-1	[0, 0, 0]	n/a	catFR1	0	R1533J
235.25	0.784	916542	WORD_OFF	n/a	n/a	HURRICANE	Weather	7	-1	[0, 0, 0]	n/a	catFR1	0	R1533J
236.034	1.6	917321	WORD	n/a	n/a	THUNDER	Weather	8	-1	[0, 0, 0]	n/a	catFR1	0	R1533J
237.634	0.883	918921	WORD_OFF	n/a	n/a	THUNDER	Weather	8	-1	[0, 0, 0]	n/a	catFR1	0	R1533J
238.517	1.6	919806	WORD	n/a	n/a	WRENCH	Tools	9	-1	[0, 0, 0]	n/a	catFR1	0	R1533J
240.133	0.968	921417	WORD_OFF	n/a	n/a	WRENCH	Tools	9	-1	[0, 0, 0]	n/a	catFR1	0	R1533J
241.101	1.6	922387	WORD	n/a	n/a	RATCHET	Tools	10	-1	[0, 0, 0]	n/a	catFR1	0	R1533J
242.717	0.984	924009	WORD_OFF	n/a	n/a	RATCHET	Tools	10	-1	[0, 0, 0]	n/a	catFR1	0	R1533J
243.701	1.6	924990	WORD	n/a	n/a	CELLO	Instruments	11	-1	[0, 0, 0]	n/a	catFR1	0	R1533J
245.317	0.817	926601	WORD_OFF	n/a	n/a	CELLO	Instruments	11	-1	[0, 0, 0]	n/a	catFR1	0	R1533J
246.134	1.6	927422	WORD	n/a	n/a	BASS	Instruments	12	-1	[0, 0, 0]	n/a	catFR1	0	R1533J
247.734	0.002	929022	WORD_OFF	n/a	n/a	BASS	Instruments	12	-1	[0, 0, 0]	n/a	catFR1	0	R1533J
247.736	0.0	929022	ENCODING_END	n/a	n/a	n/a	n/a	-999	-1	[0, 0, 0]	n/a	catFR1	0	R1533J
247.736	0.0	929022	DISTRACT_START	n/a	n/a	n/a	n/a	-999	-1	[0, 0, 0]	n/a	catFR1	0	R1533J
247.735	0.001	929022	PROB	27.183	n/a	n/a	n/a	-999	-1	[3, 6, 4]	13.0	catFR1	0	R1533J
247.736	27.198	929023	START	n/a	n/a	n/a	n/a	-999	-1	[-999, -999, -999]	n/a	catFR1	0	R1533J
274.934	0.0	956220	STOP	n/a	n/a	n/a	n/a	-999	-1	[-999, -999, -999]	n/a	catFR1	0	R1533J
274.934	1.716	956222	DISTRACT_END	n/a	n/a	n/a	n/a	-999	-1	[0, 0, 0]	n/a	catFR1	0	R1533J
276.65	0.957	957939	REC_START	n/a	n/a	n/a	n/a	-999	-1	[0, 0, 0]	n/a	catFR1	0	R1533J
277.607	0.743	958892	REC_WORD_VV	0.957	n/a	<>	n/a	-999	-1	[0, 0, 0]	n/a	catFR1	0	R1533J
278.35	4.947	959635	REC_WORD_VV	1.7	n/a	<>	n/a	-999	-1	[0, 0, 0]	n/a	catFR1	0	R1533J
283.297	1.0	964582	REC_WORD_VV	6.647	n/a	<>	n/a	-999	-1	[0, 0, 0]	n/a	catFR1	0	R1533J
284.297	2.787	965582	REC_WORD_VV	7.647	n/a	<>	n/a	-999	-1	[0, 0, 0]	n/a	catFR1	0	R1533J
287.084	0.293	968369	REC_WORD_VV	10.434	n/a	<>	n/a	-999	-1	[0, 0, 0]	n/a	catFR1	0	R1533J
287.377	0.703	968662	REC_WORD	10.727	n/a	WRENCH	Tools	9	-1	[0, 0, 0]	n/a	catFR1	0	R1533J
288.08	0.917	969365	REC_WORD	11.43	n/a	AXE	Tools	4	-1	[0, 0, 0]	n/a	catFR1	0	R1533J
288.997	1.256	970282	REC_WORD	12.347	n/a	HUMIDITY	Weather	2	-1	[0, 0, 0]	n/a	catFR1	0	R1533J
290.253	3.491	971538	REC_WORD	13.603	n/a	CELLO	Instruments	11	-1	[0, 0, 0]	n/a	catFR1	0	R1533J
293.744	3.105	975029	REC_WORD	17.094	n/a	BASS	Instruments	12	-1	[0, 0, 0]	n/a	catFR1	0	R1533J
296.849	6.114	978133	REC_WORD_VV	20.199	n/a	<>	n/a	-999	-1	[0, 0, 0]	n/a	catFR1	0	R1533J
302.963	0.691	984247	REC_WORD	26.313	n/a	CELLO	Instruments	11	-1	[0, 0, 0]	n/a	catFR1	0	R1533J
303.654	0.672	984938	REC_WORD	27.004	n/a	HUMIDITY	Weather	2	-1	[0, 0, 0]	n/a	catFR1	0	R1533J
304.326	1.731	985610	REC_WORD	27.676	n/a	BASS	Instruments	12	-1	[0, 0, 0]	n/a	catFR1	0	R1533J
306.057	0.787	987341	REC_WORD_VV	29.407	n/a	<>	n/a	-999	-1	[0, 0, 0]	n/a	catFR1	0	R1533J
306.844	13.34	988126	REC_END	n/a	n/a	n/a	n/a	-999	-1	[0, 0, 0]	n/a	catFR1	0	R1533J
320.184	10.0	1001470	COUNTDOWN_START	n/a	n/a	n/a	n/a	-999	1	[0, 0, 0]	n/a	catFR1	0	R1533J
330.533	0.0	1011817	COUNTDOWN_END	n/a	n/a	n/a	n/a	-999	1	[0, 0, 0]	n/a	catFR1	0	R1533J
330.533	1.834	1011817	ENCODING_START	n/a	n/a	n/a	n/a	-999	1	[0, 0, 0]	n/a	catFR1	0	R1533J
332.367	1.6	1013651	WORD	n/a	wordpools/wordpool_categorized_EN.txt	BOAT	Vehicles	1	1	[0, 0, 0]	n/a	catFR1	0	R1533J
333.967	0.884	1015251	WORD_OFF	n/a	n/a	BOAT	Vehicles	1	1	[0, 0, 0]	n/a	catFR1	0	R1533J
334.851	1.6	1016137	WORD	n/a	wordpools/wordpool_categorized_EN.txt	MOPED	Vehicles	2	1	[0, 0, 0]	n/a	catFR1	0	R1533J
336.451	0.933	1017737	WORD_OFF	n/a	n/a	MOPED	Vehicles	2	1	[0, 0, 0]	n/a	catFR1	0	R1533J
337.384	1.6	1018665	WORD	n/a	wordpools/wordpool_categorized_EN.txt	SATIN	Fabric	3	1	[0, 0, 0]	n/a	catFR1	0	R1533J
339.001	0.933	1020286	WORD_OFF	n/a	n/a	SATIN	Fabric	3	1	[0, 0, 0]	n/a	catFR1	0	R1533J
339.934	1.6	1021214	WORD	n/a	wordpools/wordpool_categorized_EN.txt	LEATHER	Fabric	4	1	[0, 0, 0]	n/a	catFR1	0	R1533J
341.55	0.934	1022835	WORD_OFF	n/a	n/a	LEATHER	Fabric	4	1	[0, 0, 0]	n/a	catFR1	0	R1533J
342.484	1.6	1023763	WORD	n/a	wordpools/wordpool_categorized_EN.txt	CUCUMBER	Vegetables	5	1	[0, 0, 0]	n/a	catFR1	0	R1533J
344.101	0.95	1025385	WORD_OFF	n/a	n/a	CUCUMBER	Vegetables	5	1	[0, 0, 0]	n/a	catFR1	0	R1533J
345.051	1.6	1026334	WORD	n/a	wordpools/wordpool_categorized_EN.txt	PEAS	Vegetables	6	1	[0, 0, 0]	n/a	catFR1	0	R1533J
346.651	0.833	1027934	WORD_OFF	n/a	n/a	PEAS	Vegetables	6	1	[0, 0, 0]	n/a	catFR1	0	R1533J
347.484	1.6	1028766	WORD	n/a	wordpools/wordpool_categorized_EN.txt	BUS	Vehicles	7	1	[0, 0, 0]	n/a	catFR1	0	R1533J
349.099	0.884	1030377	WORD_OFF	n/a	n/a	BUS	Vehicles	7	1	[0, 0, 0]	n/a	catFR1	0	R1533J
349.983	1.6	1031262	WORD	n/a	wordpools/wordpool_categorized_EN.txt	PLANE	Vehicles	8	1	[0, 0, 0]	n/a	catFR1	0	R1533J
351.583	0.801	1032862	WORD_OFF	n/a	n/a	PLANE	Vehicles	8	1	[0, 0, 0]	n/a	catFR1	0	R1533J
352.384	1.6	1033662	WORD	n/a	wordpools/wordpool_categorized_EN.txt	WOOL	Fabric	9	1	[0, 0, 0]	n/a	catFR1	0	R1533J
353.984	0.9	1035262	WORD_OFF	n/a	n/a	WOOL	Fabric	9	1	[0, 0, 0]	n/a	catFR1	0	R1533J
354.884	1.6	1036169	WORD	n/a	wordpools/wordpool_categorized_EN.txt	COTTON	Fabric	10	1	[0, 0, 0]	n/a	catFR1	0	R1533J
356.501	0.783	1037779	WORD_OFF	n/a	n/a	COTTON	Fabric	10	1	[0, 0, 0]	n/a	catFR1	0	R1533J
357.284	1.6	1038569	WORD	n/a	wordpools/wordpool_categorized_EN.txt	BROCCOLI	Vegetables	11	1	[0, 0, 0]	n/a	catFR1	0	R1533J
358.884	0.9	1040169	WORD_OFF	n/a	n/a	BROCCOLI	Vegetables	11	1	[0, 0, 0]	n/a	catFR1	0	R1533J
359.784	1.6	1041065	WORD	n/a	wordpools/wordpool_categorized_EN.txt	SPINACH	Vegetables	12	1	[0, 0, 0]	n/a	catFR1	0	R1533J
361.384	0.001	1042665	WORD_OFF	n/a	n/a	SPINACH	Vegetables	12	1	[0, 0, 0]	n/a	catFR1	0	R1533J
361.385	0.0	1042665	ENCODING_END	n/a	n/a	n/a	n/a	-999	1	[0, 0, 0]	n/a	catFR1	0	R1533J
361.385	0.0	1042665	DISTRACT_START	n/a	n/a	n/a	n/a	-999	1	[0, 0, 0]	n/a	catFR1	0	R1533J
361.385	0.0	1042666	START	n/a	n/a	n/a	n/a	-999	1	[-999, -999, -999]	n/a	catFR1	0	R1533J
361.385	11.782	1042666	PROB	11.766	n/a	n/a	n/a	-999	1	[3, 7, 6]	16.0	catFR1	0	R1533J
373.167	8.316	1054447	PROB	8.299	n/a	n/a	n/a	-999	1	[1, 1, 8]	10.0	catFR1	0	R1533J
381.483	0.0	1062761	DISTRACT_END	n/a	n/a	n/a	n/a	-999	1	[0, 0, 0]	n/a	catFR1	0	R1533J
381.483	1.7	1062763	STOP	n/a	n/a	n/a	n/a	-999	1	[-999, -999, -999]	n/a	catFR1	0	R1533J
383.183	1.437	1064467	REC_START	n/a	n/a	n/a	n/a	-999	1	[0, 0, 0]	n/a	catFR1	0	R1533J
384.62	2.374	1065900	REC_WORD_VV	1.437	n/a	<>	n/a	-999	1	[0, 0, 0]	n/a	catFR1	0	R1533J
386.994	1.975	1068274	REC_WORD_VV	3.811	n/a	<>	n/a	-999	1	[0, 0, 0]	n/a	catFR1	0	R1533J
388.969	1.158	1070249	REC_WORD_VV	5.786	n/a	<>	n/a	-999	1	[0, 0, 0]	n/a	catFR1	0	R1533J
390.127	0.51	1071406	REC_WORD	6.944	n/a	BROCCOLI	Vegetables	11	1	[0, 0, 0]	n/a	catFR1	0	R1533J
390.637	0.685	1071916	REC_WORD	7.454	n/a	CUCUMBER	Vegetables	5	1	[0, 0, 0]	n/a	catFR1	0	R1533J
391.322	1.09	1072601	REC_WORD	8.139	n/a	PEAS	Vegetables	6	1	[0, 0, 0]	n/a	catFR1	0	R1533J
392.412	0.605	1073691	REC_WORD	9.229	n/a	WOOL	Fabric	9	1	[0, 0, 0]	n/a	catFR1	0	R1533J
393.017	2.324	1074296	REC_WORD	9.834	n/a	LEATHER	Fabric	4	1	[0, 0, 0]	n/a	catFR1	0	R1533J
395.341	1.546	1076620	REC_WORD	12.158	n/a	BOAT	Vehicles	1	1	[0, 0, 0]	n/a	catFR1	0	R1533J
396.887	8.299	1078166	REC_WORD_VV	13.704	n/a	<>	n/a	-999	1	[0, 0, 0]	n/a	catFR1	0	R1533J
405.186	1.612	1086465	REC_WORD_VV	22.003	n/a	<>	n/a	-999	1	[0, 0, 0]	n/a	catFR1	0	R1533J
406.798	0.964	1088077	REC_WORD_VV	23.615	n/a	<>	n/a	-999	1	[0, 0, 0]	n/a	catFR1	0	R1533J
407.762	0.623	1089041	REC_WORD_VV	24.579	n/a	<>	n/a	-999	1	[0, 0, 0]	n/a	catFR1	0	R1533J
408.385	3.407	1089663	REC_WORD_VV	25.202	n/a	<>	n/a	-999	1	[0, 0, 0]	n/a	catFR1	0	R1533J
411.792	1.0	1093070	REC_WORD_VV	28.609	n/a	<>	n/a	-999	1	[0, 0, 0]	n/a	catFR1	0	R1533J
412.792	0.573	1094070	REC_WORD_VV	29.609	n/a	<>	n/a	-999	1	[0, 0, 0]	n/a	catFR1	0	R1533J
413.365	3.252	1094643	REC_END	n/a	n/a	n/a	n/a	-999	1	[0, 0, 0]	n/a	catFR1	0	R1533J
416.617	10.0	1097897	COUNTDOWN_START	n/a	n/a	n/a	n/a	-999	2	[0, 0, 0]	n/a	catFR1	0	R1533J
426.968	0.0	1108243	COUNTDOWN_END	n/a	n/a	n/a	n/a	-999	2	[0, 0, 0]	n/a	catFR1	0	R1533J
426.968	2.034	1108243	ENCODING_START	n/a	n/a	n/a	n/a	-999	2	[0, 0, 0]	n/a	catFR1	0	R1533J
429.002	1.6	1110281	WORD	n/a	wordpools/wordpool_categorized_EN.txt	CHERRY	Fruit	1	2	[0, 0, 0]	n/a	catFR1	0	R1533J
430.601	0.783	1111881	WORD_OFF	n/a	n/a	CHERRY	Fruit	1	2	[0, 0, 0]	n/a	catFR1	0	R1533J
431.384	1.6	1112659	WORD	n/a	wordpools/wordpool_categorized_EN.txt	APPLE	Fruit	2	2	[0, 0, 0]	n/a	catFR1	0	R1533J
433.002	0.965	1114281	WORD_OFF	n/a	n/a	APPLE	Fruit	2	2	[0, 0, 0]	n/a	catFR1	0	R1533J
433.967	1.6	1115241	WORD	n/a	wordpools/wordpool_categorized_EN.txt	VALLEY	Landscapes	3	2	[0, 0, 0]	n/a	catFR1	0	R1533J
435.568	0.766	1116841	WORD_OFF	n/a	n/a	VALLEY	Landscapes	3	2	[0, 0, 0]	n/a	catFR1	0	R1533J
436.334	1.6	1117609	WORD	n/a	wordpools/wordpool_categorized_EN.txt	RIVER	Landscapes	4	2	[0, 0, 0]	n/a	catFR1	0	R1533J
437.951	0.833	1119230	WORD_OFF	n/a	n/a	RIVER	Landscapes	4	2	[0, 0, 0]	n/a	catFR1	0	R1533J
438.784	1.6	1120062	WORD	n/a	wordpools/wordpool_categorized_EN.txt	WASHER	Appliances	5	2	[0, 0, 0]	n/a	catFR1	0	R1533J
440.384	0.867	1121662	WORD_OFF	n/a	n/a	WASHER	Appliances	5	2	[0, 0, 0]	n/a	catFR1	0	R1533J
441.251	1.6	1122526	WORD	n/a	wordpools/wordpool_categorized_EN.txt	FREEZER	Appliances	6	2	[0, 0, 0]	n/a	catFR1	0	R1533J
442.851	0.783	1124126	WORD_OFF	n/a	n/a	FREEZER	Appliances	6	2	[0, 0, 0]	n/a	catFR1	0	R1533J
443.634	1.6	1124915	WORD	n/a	wordpools/wordpool_categorized_EN.txt	BANANA	Fruit	7	2	[0, 0, 0]	n/a	catFR1	0	R1533J
445.25	0.816	1126526	WORD_OFF	n/a	n/a	BANANA	Fruit	7	2	[0, 0, 0]	n/a	catFR1	0	R1533J
446.066	1.6	1127337	WORD	n/a	wordpools/wordpool_categorized_EN.txt	PEAR	Fruit	8	2	[0, 0, 0]	n/a	catFR1	0	R1533J
447.667	0.799	1128947	WORD_OFF	n/a	n/a	PEAR	Fruit	8	2	[0, 0, 0]	n/a	catFR1	0	R1533J
448.466	1.6	1129737	WORD	n/a	wordpools/wordpool_categorized_EN.txt	ISLAND	Landscapes	9	2	[0, 0, 0]	n/a	catFR1	0	R1533J
450.067	0.984	1131347	WORD_OFF	n/a	n/a	ISLAND	Landscapes	9	2	[0, 0, 0]	n/a	catFR1	0	R1533J
451.051	1.6	1132329	WORD	n/a	wordpools/wordpool_categorized_EN.txt	CREEK	Landscapes	10	2	[0, 0, 0]	n/a	catFR1	0	R1533J
452.651	0.883	1133929	WORD_OFF	n/a	n/a	CREEK	Landscapes	10	2	[0, 0, 0]	n/a	catFR1	0	R1533J
453.534	1.6	1134814	WORD	n/a	wordpools/wordpool_categorized_EN.txt	IRON	Appliances	11	2	[0, 0, 0]	n/a	catFR1	0	R1533J
455.134	0.799	1136414	WORD_OFF	n/a	n/a	IRON	Appliances	11	2	[0, 0, 0]	n/a	catFR1	0	R1533J
455.933	1.6	1137214	WORD	n/a	wordpools/wordpool_categorized_EN.txt	DISHWASHER	Appliances	12	2	[0, 0, 0]	n/a	catFR1	0	R1533J
457.536	0.001	1138812	PROB	10.415	n/a	n/a	n/a	-999	2	[6, 7, 6]	19.0	catFR1	0	R1533J
457.537	0.0	1138813	START	n/a	n/a	n/a	n/a	-999	2	[-999, -999, -999]	n/a	catFR1	0	R1533J
457.535	0.002	1138814	WORD_OFF	n/a	n/a	DISHWASHER	Appliances	12	2	[0, 0, 0]	n/a	catFR1	0	R1533J
457.537	0.0	1138814	ENCODING_END	n/a	n/a	n/a	n/a	-999	2	[0, 0, 0]	n/a	catFR1	0	R1533J
457.537	10.431	1138814	DISTRACT_START	n/a	n/a	n/a	n/a	-999	2	[0, 0, 0]	n/a	catFR1	0	R1533J
467.968	5.133	1149243	PROB	5.116	n/a	n/a	n/a	-999	2	[4, 8, 2]	14.0	catFR1	0	R1533J
473.101	3.933	1154376	PROB	3.916	n/a	n/a	n/a	-999	2	[6, 1, 4]	11.0	catFR1	0	R1533J
477.034	6.298	1158309	PROB	6.282	n/a	n/a	n/a	-999	2	[7, 4, 8]	19.0	catFR1	0	R1533J
483.332	0.0	1164606	DISTRACT_END	n/a	n/a	n/a	n/a	-999	2	[0, 0, 0]	n/a	catFR1	0	R1533J
483.332	1.551	1164606	STOP	n/a	n/a	n/a	n/a	-999	2	[-999, -999, -999]	n/a	catFR1	0	R1533J
484.883	1.746	1166152	REC_START	n/a	n/a	n/a	n/a	-999	2	[0, 0, 0]	n/a	catFR1	0	R1533J
486.629	1.355	1167903	REC_WORD_VV	1.746	n/a	<>	n/a	-999	2	[0, 0, 0]	n/a	catFR1	0	R1533J
487.984	0.368	1169258	REC_WORD_VV	3.101	n/a	<>	n/a	-999	2	[0, 0, 0]	n/a	catFR1	0	R1533J
488.352	0.525	1169626	REC_WORD	3.469	n/a	BOAT	Vehicles	-999	2	[0, 0, 0]	n/a	catFR1	0	R1533J
488.877	0.521	1170151	REC_WORD	3.994	n/a	RIVER	Landscapes	4	2	[0, 0, 0]	n/a	catFR1	0	R1533J
489.398	0.517	1170672	REC_WORD	4.515	n/a	BROCCOLI	Vegetables	-999	2	[0, 0, 0]	n/a	catFR1	0	R1533J
489.915	1.156	1171189	REC_WORD	5.032	n/a	PEAS	Vegetables	-999	2	[0, 0, 0]	n/a	catFR1	0	R1533J
491.071	1.568	1172345	REC_WORD	6.188	n/a	CHERRY	Fruit	1	2	[0, 0, 0]	n/a	catFR1	0	R1533J
492.639	1.208	1173913	REC_WORD_VV	7.756	n/a	<>	n/a	-999	2	[0, 0, 0]	n/a	catFR1	0	R1533J
493.847	1.0	1175121	REC_WORD	8.964	n/a	BANANA	Fruit	7	2	[0, 0, 0]	n/a	catFR1	0	R1533J
494.847	0.766	1176121	REC_WORD_VV	9.964	n/a	<>	n/a	-999	2	[0, 0, 0]	n/a	catFR1	0	R1533J
495.613	3.413	1176887	REC_WORD_VV	10.73	n/a	<>	n/a	-999	2	[0, 0, 0]	n/a	catFR1	0	R1533J
499.026	0.348	1180300	REC_WORD	14.143	n/a	WOOL	Fabric	-999	2	[0, 0, 0]	n/a	catFR1	0	R1533J
499.374	0.984	1180648	REC_WORD	14.491	n/a	LEATHER	Fabric	-999	2	[0, 0, 0]	n/a	catFR1	0	R1533J
500.358	3.034	1181632	REC_WORD_VV	15.475	n/a	<>	n/a	-999	2	[0, 0, 0]	n/a	catFR1	0	R1533J
503.392	4.0	1184665	REC_WORD_VV	18.509	n/a	<>	n/a	-999	2	[0, 0, 0]	n/a	catFR1	0	R1533J
507.392	1.0	1188665	REC_WORD_VV	22.509	n/a	<>	n/a	-999	2	[0, 0, 0]	n/a	catFR1	0	R1533J
508.392	4.08	1189665	REC_WORD_VV	23.509	n/a	<>	n/a	-999	2	[0, 0, 0]	n/a	catFR1	0	R1533J
512.472	2.611	1193745	REC_WORD_VV	27.589	n/a	<>	n/a	-999	2	[0, 0, 0]	n/a	catFR1	0	R1533J
515.083	3.034	1196358	REC_END	n/a	n/a	n/a	n/a	-999	2	[0, 0, 0]	n/a	catFR1	0	R1533J
518.117	10.0	1199390	COUNTDOWN_START	n/a	n/a	n/a	n/a	-999	3	[0, 0, 0]	n/a	catFR1	0	R1533J
528.466	0.001	1209736	COUNTDOWN_END	n/a	n/a	n/a	n/a	-999	3	[0, 0, 0]	n/a	catFR1	0	R1533J
528.467	1.917	1209736	ENCODING_START	n/a	n/a	n/a	n/a	-999	3	[0, 0, 0]	n/a	catFR1	0	R1533J
530.384	1.6	1211656	WORD	n/a	wordpools/wordpool_categorized_EN.txt	VACUUM	Appliances	1	3	[0, 0, 0]	n/a	catFR1	0	R1533J
532.0	0.851	1213267	WORD_OFF	n/a	n/a	VACUUM	Appliances	1	3	[0, 0, 0]	n/a	catFR1	0	R1533J
532.851	1.6	1214120	WORD	n/a	wordpools/wordpool_categorized_EN.txt	MIXER	Appliances	2	3	[0, 0, 0]	n/a	catFR1	0	R1533J
534.451	0.766	1215720	WORD_OFF	n/a	n/a	MIXER	Appliances	2	3	[0, 0, 0]	n/a	catFR1	0	R1533J
535.217	1.6	1216488	WORD	n/a	wordpools/wordpool_categorized_EN.txt	TRUMPET	Instruments	3	3	[0, 0, 0]	n/a	catFR1	0	R1533J
536.817	0.882	1218088	WORD_OFF	n/a	n/a	TRUMPET	Instruments	3	3	[0, 0, 0]	n/a	catFR1	0	R1533J
537.699	1.6	1218974	WORD	n/a	wordpools/wordpool_categorized_EN.txt	BANJO	Instruments	4	3	[0, 0, 0]	n/a	catFR1	0	R1533J
539.301	0.8	1220574	WORD_OFF	n/a	n/a	BANJO	Instruments	4	3	[0, 0, 0]	n/a	catFR1	0	R1533J
540.101	1.6	1221374	WORD	n/a	wordpools/wordpool_categorized_EN.txt	STEREO	Electronics	5	3	[0, 0, 0]	n/a	catFR1	0	R1533J
541.701	0.783	1222974	WORD_OFF	n/a	n/a	STEREO	Electronics	5	3	[0, 0, 0]	n/a	catFR1	0	R1533J
542.484	1.6	1223752	WORD	n/a	wordpools/wordpool_categorized_EN.txt	CALCULATOR	Electronics	6	3	[0, 0, 0]	n/a	catFR1	0	R1533J
544.084	0.782	1225352	WORD_OFF	n/a	n/a	CALCULATOR	Electronics	6	3	[0, 0, 0]	n/a	catFR1	0	R1533J
544.866	1.6	1226142	WORD	n/a	wordpools/wordpool_categorized_EN.txt	BLENDER	Appliances	7	3	[0, 0, 0]	n/a	catFR1	0	R1533J
546.467	0.917	1227742	WORD_OFF	n/a	n/a	BLENDER	Appliances	7	3	[0, 0, 0]	n/a	catFR1	0	R1533J
547.384	1.6	1228659	WORD	n/a	wordpools/wordpool_categorized_EN.txt	REFRIGERATOR	Appliances	8	3	[0, 0, 0]	n/a	catFR1	0	R1533J
548.984	0.85	1230259	WORD_OFF	n/a	n/a	REFRIGERATOR	Appliances	8	3	[0, 0, 0]	n/a	catFR1	0	R1533J
549.834	1.6	1231102	WORD	n/a	wordpools/wordpool_categorized_EN.txt	TROMBONE	Instruments	9	3	[0, 0, 0]	n/a	catFR1	0	R1533J
551.434	0.932	1232702	WORD_OFF	n/a	n/a	TROMBONE	Instruments	9	3	[0, 0, 0]	n/a	catFR1	0	R1533J
552.366	1.6	1233640	WORD	n/a	wordpools/wordpool_categorized_EN.txt	DRUM	Instruments	10	3	[0, 0, 0]	n/a	catFR1	0	R1533J
553.967	0.817	1235240	WORD_OFF	n/a	n/a	DRUM	Instruments	10	3	[0, 0, 0]	n/a	catFR1	0	R1533J
554.784	1.6	1236051	WORD	n/a	wordpools/wordpool_categorized_EN.txt	PHONE	Electronics	11	3	[0, 0, 0]	n/a	catFR1	0	R1533J
556.401	0.931	1237672	WORD_OFF	n/a	n/a	PHONE	Electronics	11	3	[0, 0, 0]	n/a	catFR1	0	R1533J
557.332	1.6	1238600	WORD	n/a	wordpools/wordpool_categorized_EN.txt	TABLET	Electronics	12	3	[0, 0, 0]	n/a	catFR1	0	R1533J
558.934	0.001	1240200	WORD_OFF	n/a	n/a	TABLET	Electronics	12	3	[0, 0, 0]	n/a	catFR1	0	R1533J
558.935	0.0	1240205	START	n/a	n/a	n/a	n/a	-999	3	[-999, -999, -999]	n/a	catFR1	0	R1533J
558.935	0.0	1240205	PROB	5.466	n/a	n/a	n/a	-999	3	[3, 5, 4]	12.0	catFR1	0	R1533J
558.935	0.0	1240211	ENCODING_END	n/a	n/a	n/a	n/a	-999	3	[0, 0, 0]	n/a	catFR1	0	R1533J
558.935	5.482	1240211	DISTRACT_START	n/a	n/a	n/a	n/a	-999	3	[0, 0, 0]	n/a	catFR1	0	R1533J
564.417	4.466	1245687	PROB	4.45	n/a	n/a	n/a	-999	3	[6, 1, 6]	13.0	catFR1	0	R1533J
568.883	8.117	1250153	PROB	8.099	n/a	n/a	n/a	-999	3	[1, 6, 6]	13.0	catFR1	0	R1533J
577.0	4.349	1258269	PROB	4.333	n/a	n/a	n/a	-999	3	[6, 5, 2]	13.0	catFR1	0	R1533J
581.349	0.0	1262618	STOP	n/a	n/a	n/a	n/a	-999	3	[-999, -999, -999]	n/a	catFR1	0	R1533J
581.349	1.7	1262622	DISTRACT_END	n/a	n/a	n/a	n/a	-999	3	[0, 0, 0]	n/a	catFR1	0	R1533J
583.049	1.393	1264318	REC_START	n/a	n/a	n/a	n/a	-999	3	[0, 0, 0]	n/a	catFR1	0	R1533J
584.442	0.988	1265711	REC_WORD	1.393	n/a	TRUMPET	Instruments	3	3	[0, 0, 0]	n/a	catFR1	0	R1533J
585.43	0.881	1266699	REC_WORD	2.381	n/a	TROMBONE	Instruments	9	3	[0, 0, 0]	n/a	catFR1	0	R1533J
586.311	1.801	1267580	REC_WORD	3.262	n/a	BANJO	Instruments	4	3	[0, 0, 0]	n/a	catFR1	0	R1533J
588.112	4.376	1269381	REC_WORD_VV	5.063	n/a	<>	n/a	-999	3	[0, 0, 0]	n/a	catFR1	0	R1533J
592.488	0.512	1273757	REC_WORD	9.439	n/a	WASHER	Appliances	-999	3	[0, 0, 0]	n/a	catFR1	0	R1533J
593.0	0.532	1274269	REC_WORD	9.951	n/a	DRYER	n/a	-999	3	[0, 0, 0]	n/a	catFR1	0	R1533J
593.532	0.865	1274801	REC_WORD	10.483	n/a	TRUMPET	Instruments	3	3	[0, 0, 0]	n/a	catFR1	0	R1533J
594.397	1.356	1275665	REC_WORD	11.348	n/a	BANJO	Instruments	4	3	[0, 0, 0]	n/a	catFR1	0	R1533J
595.753	1.135	1277021	REC_WORD_VV	12.704	n/a	<>	n/a	-999	3	[0, 0, 0]	n/a	catFR1	0	R1533J
596.888	1.584	1278156	REC_WORD	13.839	n/a	VACUUM	Appliances	1	3	[0, 0, 0]	n/a	catFR1	0	R1533J
598.472	5.014	1279740	REC_WORD_VV	15.423	n/a	<>	n/a	-999	3	[0, 0, 0]	n/a	catFR1	0	R1533J
603.486	1.431	1284754	REC_WORD_VV	20.437	n/a	<>	n/a	-999	3	[0, 0, 0]	n/a	catFR1	0	R1533J
604.917	1.0	1286185	REC_WORD_VV	21.868	n/a	<>	n/a	-999	3	[0, 0, 0]	n/a	catFR1	0	R1533J
605.917	2.61	1287185	REC_WORD_VV	22.868	n/a	<>	n/a	-999	3	[0, 0, 0]	n/a	catFR1	0	R1533J
608.527	4.702	1289795	REC_WORD_VV	25.478	n/a	<>	n/a	-999	3	[0, 0, 0]	n/a	catFR1	0	R1533J
613.229	3.421	1294494	REC_END	n/a	n/a	n/a	n/a	-999	3	[0, 0, 0]	n/a	catFR1	0	R1533J
616.65	10.0	1297918	COUNTDOWN_START	n/a	n/a	n/a	n/a	-999	4	[0, 0, 0]	n/a	catFR1	0	R1533J
626.999	0.001	1308264	COUNTDOWN_END	n/a	n/a	n/a	n/a	-999	4	[0, 0, 0]	n/a	catFR1	0	R1533J
627.0	2.217	1308264	ENCODING_START	n/a	n/a	n/a	n/a	-999	4	[0, 0, 0]	n/a	catFR1	0	R1533J
629.217	1.6	1310483	WORD	n/a	wordpools/wordpool_categorized_EN.txt	PAPER	OfficeSupplies	1	4	[0, 0, 0]	n/a	catFR1	0	R1533J
630.817	0.815	1312083	WORD_OFF	n/a	n/a	PAPER	OfficeSupplies	1	4	[0, 0, 0]	n/a	catFR1	0	R1533J
631.632	1.6	1312894	WORD	n/a	wordpools/wordpool_categorized_EN.txt	GLUE	OfficeSupplies	2	4	[0, 0, 0]	n/a	catFR1	0	R1533J
633.233	0.783	1314494	WORD_OFF	n/a	n/a	GLUE	OfficeSupplies	2	4	[0, 0, 0]	n/a	catFR1	0	R1533J
634.016	1.6	1315283	WORD	n/a	wordpools/wordpool_categorized_EN.txt	GOOSE	Birds	3	4	[0, 0, 0]	n/a	catFR1	0	R1533J
635.616	0.883	1316883	WORD_OFF	n/a	n/a	GOOSE	Birds	3	4	[0, 0, 0]	n/a	catFR1	0	R1533J
636.499	1.6	1317768	WORD	n/a	wordpools/wordpool_categorized_EN.txt	CARDINAL	Birds	4	4	[0, 0, 0]	n/a	catFR1	0	R1533J
638.116	0.984	1319379	WORD_OFF	n/a	n/a	CARDINAL	Birds	4	4	[0, 0, 0]	n/a	catFR1	0	R1533J
639.1	1.6	1320371	WORD	n/a	wordpools/wordpool_categorized_EN.txt	LADLE	KitchenTools	5	4	[0, 0, 0]	n/a	catFR1	0	R1533J
640.716	0.867	1321982	WORD_OFF	n/a	n/a	LADLE	KitchenTools	5	4	[0, 0, 0]	n/a	catFR1	0	R1533J
641.583	1.6	1322846	WORD	n/a	wordpools/wordpool_categorized_EN.txt	SPATULA	KitchenTools	6	4	[0, 0, 0]	n/a	catFR1	0	R1533J
643.198	0.984	1324467	WORD_OFF	n/a	n/a	SPATULA	KitchenTools	6	4	[0, 0, 0]	n/a	catFR1	0	R1533J
644.182	1.6	1325448	WORD	n/a	wordpools/wordpool_categorized_EN.txt	BLUEBIRD	Birds	7	4	[0, 0, 0]	n/a	catFR1	0	R1533J
645.799	0.783	1327070	WORD_OFF	n/a	n/a	BLUEBIRD	Birds	7	4	[0, 0, 0]	n/a	catFR1	0	R1533J
646.582	1.6	1327848	WORD	n/a	wordpools/wordpool_categorized_EN.txt	FINCH	Birds	8	4	[0, 0, 0]	n/a	catFR1	0	R1533J
648.182	0.817	1329448	WORD_OFF	n/a	n/a	FINCH	Birds	8	4	[0, 0, 0]	n/a	catFR1	0	R1533J
648.999	1.6	1330259	WORD	n/a	wordpools/wordpool_categorized_EN.txt	ERASER	OfficeSupplies	9	4	[0, 0, 0]	n/a	catFR1	0	R1533J
650.599	0.9	1331859	WORD_OFF	n/a	n/a	ERASER	OfficeSupplies	9	4	[0, 0, 0]	n/a	catFR1	0	R1533J
651.499	1.6	1332766	WORD	n/a	wordpools/wordpool_categorized_EN.txt	TAPE	OfficeSupplies	10	4	[0, 0, 0]	n/a	catFR1	0	R1533J
653.1	0.766	1334366	WORD_OFF	n/a	n/a	TAPE	OfficeSupplies	10	4	[0, 0, 0]	n/a	catFR1	0	R1533J
653.866	1.6	1335134	WORD	n/a	wordpools/wordpool_categorized_EN.txt	PEELER	KitchenTools	11	4	[0, 0, 0]	n/a	catFR1	0	R1533J
655.466	0.767	1336734	WORD_OFF	n/a	n/a	PEELER	KitchenTools	11	4	[0, 0, 0]	n/a	catFR1	0	R1533J
656.233	1.6	1337502	WORD	n/a	wordpools/wordpool_categorized_EN.txt	FORK	KitchenTools	12	4	[0, 0, 0]	n/a	catFR1	0	R1533J
657.849	0.003	1339112	WORD_OFF	n/a	n/a	FORK	KitchenTools	12	4	[0, 0, 0]	n/a	catFR1	0	R1533J
657.852	0.0	1339112	ENCODING_END	n/a	n/a	n/a	n/a	-999	4	[0, 0, 0]	n/a	catFR1	0	R1533J
657.849	0.003	1339114	PROB	4.766	n/a	n/a	n/a	-999	4	[5, 4, 1]	10.0	catFR1	0	R1533J
657.852	0.0	1339117	START	n/a	n/a	n/a	n/a	-999	4	[-999, -999, -999]	n/a	catFR1	0	R1533J
657.852	4.78	1339123	DISTRACT_START	n/a	n/a	n/a	n/a	-999	4	[0, 0, 0]	n/a	catFR1	0	R1533J
662.632	5.201	1343897	PROB	5.183	n/a	n/a	n/a	-999	4	[7, 3, 2]	12.0	catFR1	0	R1533J
667.833	6.483	1349098	PROB	6.466	n/a	n/a	n/a	-999	4	[8, 3, 5]	16.0	catFR1	0	R1533J
674.316	4.299	1355580	PROB	4.282	n/a	n/a	n/a	-999	4	[8, 2, 7]	17.0	catFR1	0	R1533J
678.615	0.0	1359879	STOP	n/a	n/a	n/a	n/a	-999	4	[-999, -999, -999]	n/a	catFR1	0	R1533J
678.615	1.585	1359880	DISTRACT_END	n/a	n/a	n/a	n/a	-999	4	[0, 0, 0]	n/a	catFR1	0	R1533J
680.2	1.654	1361459	REC_START	n/a	n/a	n/a	n/a	-999	4	[0, 0, 0]	n/a	catFR1	0	R1533J
681.854	0.451	1363118	REC_WORD_VV	1.654	n/a	<>	n/a	-999	4	[0, 0, 0]	n/a	catFR1	0	R1533J
682.305	1.71	1363569	REC_WORD	2.105	n/a	TABLET	Electronics	-999	4	[0, 0, 0]	n/a	catFR1	0	R1533J
684.015	0.277	1365279	REC_WORD_VV	3.815	n/a	<>	n/a	-999	4	[0, 0, 0]	n/a	catFR1	0	R1533J
684.292	0.722	1365556	REC_WORD	4.092	n/a	PILL	n/a	-999	4	[0, 0, 0]	n/a	catFR1	0	R1533J
685.014	0.626	1366278	REC_WORD	4.814	n/a	PILLAR	n/a	-999	4	[0, 0, 0]	n/a	catFR1	0	R1533J
685.64	0.647	1366904	REC_WORD_VV	5.44	n/a	<>	n/a	-999	4	[0, 0, 0]	n/a	catFR1	0	R1533J
686.287	0.705	1367551	REC_WORD	6.087	n/a	TABLET	Electronics	-999	4	[0, 0, 0]	n/a	catFR1	0	R1533J
686.992	3.599	1368256	REC_WORD	6.792	n/a	BLUE	n/a	-999	4	[0, 0, 0]	n/a	catFR1	0	R1533J
690.591	0.983	1371854	REC_WORD	10.391	n/a	BLUEBIRD	Birds	7	4	[0, 0, 0]	n/a	catFR1	0	R1533J
691.574	1.058	1372837	REC_WORD	11.374	n/a	BLADDER	n/a	-999	4	[0, 0, 0]	n/a	catFR1	0	R1533J
692.632	2.862	1373895	REC_WORD	12.432	n/a	BLUEBIRD	Birds	7	4	[0, 0, 0]	n/a	catFR1	0	R1533J
695.494	2.691	1376757	REC_WORD_VV	15.294	n/a	<>	n/a	-999	4	[0, 0, 0]	n/a	catFR1	0	R1533J
698.185	1.332	1379448	REC_WORD_VV	17.985	n/a	<>	n/a	-999	4	[0, 0, 0]	n/a	catFR1	0	R1533J
699.517	8.911	1380780	REC_WORD_VV	19.317	n/a	<>	n/a	-999	4	[0, 0, 0]	n/a	catFR1	0	R1533J
708.428	1.0	1389690	REC_WORD_VV	28.228	n/a	<>	n/a	-999	4	[0, 0, 0]	n/a	catFR1	0	R1533J
709.428	0.968	1390690	REC_WORD_VV	29.228	n/a	<>	n/a	-999	4	[0, 0, 0]	n/a	catFR1	0	R1533J
710.396	6.671	1391656	REC_END	n/a	n/a	n/a	n/a	-999	4	[0, 0, 0]	n/a	catFR1	0	R1533J
717.067	10.0	1398334	COUNTDOWN_START	n/a	n/a	n/a	n/a	-999	5	[0, 0, 0]	n/a	catFR1	0	R1533J
727.417	0.0	1408680	COUNTDOWN_END	n/a	n/a	n/a	n/a	-999	5	[0, 0, 0]	n/a	catFR1	0	R1533J
727.417	1.833	1408680	ENCODING_START	n/a	n/a	n/a	n/a	-999	5	[0, 0, 0]	n/a	catFR1	0	R1533J
729.25	1.6	1410515	WORD	n/a	wordpools/wordpool_categorized_EN.txt	COLA	Beverages	1	5	[0, 0, 0]	n/a	catFR1	0	R1533J
730.867	0.95	1412126	WORD_OFF	n/a	n/a	COLA	Beverages	1	5	[0, 0, 0]	n/a	catFR1	0	R1533J
731.817	1.6	1413075	WORD	n/a	wordpools/wordpool_categorized_EN.txt	JUICE	Beverages	2	5	[0, 0, 0]	n/a	catFR1	0	R1533J
733.418	0.933	1414675	WORD_OFF	n/a	n/a	JUICE	Beverages	2	5	[0, 0, 0]	n/a	catFR1	0	R1533J
734.351	1.6	1415614	WORD	n/a	wordpools/wordpool_categorized_EN.txt	CHIMPANZEE	Zoo	3	5	[0, 0, 0]	n/a	catFR1	0	R1533J
735.951	0.782	1417214	WORD_OFF	n/a	n/a	CHIMPANZEE	Zoo	3	5	[0, 0, 0]	n/a	catFR1	0	R1533J
736.733	1.6	1417992	WORD	n/a	wordpools/wordpool_categorized_EN.txt	PANDA	Zoo	4	5	[0, 0, 0]	n/a	catFR1	0	R1533J
738.334	0.967	1419592	WORD_OFF	n/a	n/a	PANDA	Zoo	4	5	[0, 0, 0]	n/a	catFR1	0	R1533J
739.301	1.6	1420563	WORD	n/a	wordpools/wordpool_categorized_EN.txt	TORNADO	Weather	5	5	[0, 0, 0]	n/a	catFR1	0	R1533J
740.901	0.766	1422163	WORD_OFF	n/a	n/a	TORNADO	Weather	5	5	[0, 0, 0]	n/a	catFR1	0	R1533J
741.667	1.6	1422931	WORD	n/a	wordpools/wordpool_categorized_EN.txt	THUNDERSTORM	Weather	6	5	[0, 0, 0]	n/a	catFR1	0	R1533J
743.268	0.949	1424531	WORD_OFF	n/a	n/a	THUNDERSTORM	Weather	6	5	[0, 0, 0]	n/a	catFR1	0	R1533J
744.217	1.6	1425480	WORD	n/a	wordpools/wordpool_categorized_EN.txt	LION	Zoo	7	5	[0, 0, 0]	n/a	catFR1	0	R1533J
745.817	0.917	1427080	WORD_OFF	n/a	n/a	LION	Zoo	7	5	[0, 0, 0]	n/a	catFR1	0	R1533J
746.734	1.6	1427998	WORD	n/a	wordpools/wordpool_categorized_EN.txt	BEAR	Zoo	8	5	[0, 0, 0]	n/a	catFR1	0	R1533J
748.351	0.966	1429608	WORD_OFF	n/a	n/a	BEAR	Zoo	8	5	[0, 0, 0]	n/a	catFR1	0	R1533J
749.317	1.6	1430579	WORD	n/a	wordpools/wordpool_categorized_EN.txt	MILK	Beverages	9	5	[0, 0, 0]	n/a	catFR1	0	R1533J
750.934	0.967	1432190	WORD_OFF	n/a	n/a	MILK	Beverages	9	5	[0, 0, 0]	n/a	catFR1	0	R1533J
751.901	1.6	1433160	WORD	n/a	wordpools/wordpool_categorized_EN.txt	COFFEE	Beverages	10	5	[0, 0, 0]	n/a	catFR1	0	R1533J
753.517	0.866	1434782	WORD_OFF	n/a	n/a	COFFEE	Beverages	10	5	[0, 0, 0]	n/a	catFR1	0	R1533J
754.383	1.6	1435646	WORD	n/a	wordpools/wordpool_categorized_EN.txt	SNOW	Weather	11	5	[0, 0, 0]	n/a	catFR1	0	R1533J
755.984	0.8	1437246	WORD_OFF	n/a	n/a	SNOW	Weather	11	5	[0, 0, 0]	n/a	catFR1	0	R1533J
756.784	1.6	1438046	WORD	n/a	wordpools/wordpool_categorized_EN.txt	LIGHTNING	Weather	12	5	[0, 0, 0]	n/a	catFR1	0	R1533J
758.385	0.0	1439645	PROB	6.732	n/a	n/a	n/a	-999	5	[7, 8, 5]	20.0	catFR1	0	R1533J
758.384	0.001	1439646	WORD_OFF	n/a	n/a	LIGHTNING	Weather	12	5	[0, 0, 0]	n/a	catFR1	0	R1533J
758.385	0.001	1439646	ENCODING_END	n/a	n/a	n/a	n/a	-999	5	[0, 0, 0]	n/a	catFR1	0	R1533J
758.386	0.0	1439646	DISTRACT_START	n/a	n/a	n/a	n/a	-999	5	[0, 0, 0]	n/a	catFR1	0	R1533J
758.386	6.748	1439646	START	n/a	n/a	n/a	n/a	-999	5	[-999, -999, -999]	n/a	catFR1	0	R1533J
765.134	6.55	1446393	PROB	6.533	n/a	n/a	n/a	-999	5	[5, 8, 8]	21.0	catFR1	0	R1533J
771.684	5.532	1452943	PROB	5.516	n/a	n/a	n/a	-999	5	[7, 2, 6]	15.0	catFR1	0	R1533J
777.216	4.768	1458475	PROB	4.749	n/a	n/a	n/a	-999	5	[2, 7, 7]	16.0	catFR1	0	R1533J
781.984	0.0	1463240	DISTRACT_END	n/a	n/a	n/a	n/a	-999	5	[0, 0, 0]	n/a	catFR1	0	R1533J
781.984	1.833	1463242	STOP	n/a	n/a	n/a	n/a	-999	5	[-999, -999, -999]	n/a	catFR1	0	R1533J
783.817	1.323	1465075	REC_START	n/a	n/a	n/a	n/a	-999	5	[0, 0, 0]	n/a	catFR1	0	R1533J
785.14	0.856	1466398	REC_WORD	1.323	n/a	CHIMPANZEE	Zoo	3	5	[0, 0, 0]	n/a	catFR1	0	R1533J
785.996	0.723	1467254	REC_WORD	2.179	n/a	PANDA	Zoo	4	5	[0, 0, 0]	n/a	catFR1	0	R1533J
786.719	0.758	1467977	REC_WORD	2.902	n/a	BEAR	Zoo	8	5	[0, 0, 0]	n/a	catFR1	0	R1533J
787.477	1.675	1468735	REC_WORD_VV	3.66	n/a	<>	n/a	-999	5	[0, 0, 0]	n/a	catFR1	0	R1533J
789.152	0.672	1470410	REC_WORD_VV	5.335	n/a	<>	n/a	-999	5	[0, 0, 0]	n/a	catFR1	0	R1533J
789.824	1.587	1471082	REC_WORD	6.007	n/a	WOOL	Fabric	-999	5	[0, 0, 0]	n/a	catFR1	0	R1533J
791.411	1.026	1472669	REC_WORD	7.594	n/a	LIGHTNING	Weather	12	5	[0, 0, 0]	n/a	catFR1	0	R1533J
792.437	4.084	1473695	REC_WORD	8.62	n/a	TORNADO	Weather	5	5	[0, 0, 0]	n/a	catFR1	0	R1533J
796.521	2.897	1477779	REC_WORD	12.704	n/a	LION	Zoo	7	5	[0, 0, 0]	n/a	catFR1	0	R1533J
799.418	3.365	1480675	REC_WORD_VV	15.601	n/a	<>	n/a	-999	5	[0, 0, 0]	n/a	catFR1	0	R1533J
802.783	6.638	1484040	REC_WORD	18.966	n/a	LION	Zoo	7	5	[0, 0, 0]	n/a	catFR1	0	R1533J
809.421	0.611	1490678	REC_WORD_VV	25.604	n/a	<>	n/a	-999	5	[0, 0, 0]	n/a	catFR1	0	R1533J
810.032	1.156	1491289	REC_WORD	26.215	n/a	GOOSE	Birds	-999	5	[0, 0, 0]	n/a	catFR1	0	R1533J
811.188	1.841	1492445	REC_WORD_VV	27.371	n/a	<>	n/a	-999	5	[0, 0, 0]	n/a	catFR1	0	R1533J
813.029	0.984	1494286	REC_WORD_VV	29.212	n/a	<>	n/a	-999	5	[0, 0, 0]	n/a	catFR1	0	R1533J
814.013	3.621	1495272	REC_END	n/a	n/a	n/a	n/a	-999	5	[0, 0, 0]	n/a	catFR1	0	R1533J
817.634	10.0	1498888	COUNTDOWN_START	n/a	n/a	n/a	n/a	-999	6	[0, 0, 0]	n/a	catFR1	0	R1533J
827.983	0.001	1509235	COUNTDOWN_END	n/a	n/a	n/a	n/a	-999	6	[0, 0, 0]	n/a	catFR1	0	R1533J
827.984	2.333	1509235	ENCODING_START	n/a	n/a	n/a	n/a	-999	6	[0, 0, 0]	n/a	catFR1	0	R1533J
830.317	1.6	1511571	WORD	n/a	wordpools/wordpool_categorized_EN.txt	MONKEY	Zoo	1	6	[0, 0, 0]	n/a	catFR1	0	R1533J
831.917	0.767	1513171	WORD_OFF	n/a	n/a	MONKEY	Zoo	1	6	[0, 0, 0]	n/a	catFR1	0	R1533J
832.684	1.6	1513939	WORD	n/a	wordpools/wordpool_categorized_EN.txt	CHEETAH	Zoo	2	6	[0, 0, 0]	n/a	catFR1	0	R1533J
834.284	0.883	1515539	WORD_OFF	n/a	n/a	CHEETAH	Zoo	2	6	[0, 0, 0]	n/a	catFR1	0	R1533J
835.167	1.6	1516424	WORD	n/a	wordpools/wordpool_categorized_EN.txt	DENIM	Fabric	3	6	[0, 0, 0]	n/a	catFR1	0	R1533J
836.782	0.852	1518035	WORD_OFF	n/a	n/a	DENIM	Fabric	3	6	[0, 0, 0]	n/a	catFR1	0	R1533J
837.634	1.6	1518888	WORD	n/a	wordpools/wordpool_categorized_EN.txt	SUEDE	Fabric	4	6	[0, 0, 0]	n/a	catFR1	0	R1533J
839.235	0.832	1520488	WORD_OFF	n/a	n/a	SUEDE	Fabric	4	6	[0, 0, 0]	n/a	catFR1	0	R1533J
840.067	1.6	1521320	WORD	n/a	wordpools/wordpool_categorized_EN.txt	SPOON	KitchenTools	5	6	[0, 0, 0]	n/a	catFR1	0	R1533J
841.668	0.783	1522920	WORD_OFF	n/a	n/a	SPOON	KitchenTools	5	6	[0, 0, 0]	n/a	catFR1	0	R1533J
842.451	1.6	1523710	WORD	n/a	wordpools/wordpool_categorized_EN.txt	CORKSCREW	KitchenTools	6	6	[0, 0, 0]	n/a	catFR1	0	R1533J
844.051	0.816	1525310	WORD_OFF	n/a	n/a	CORKSCREW	KitchenTools	6	6	[0, 0, 0]	n/a	catFR1	0	R1533J
844.867	1.6	1526120	WORD	n/a	wordpools/wordpool_categorized_EN.txt	ELEPHANT	Zoo	7	6	[0, 0, 0]	n/a	catFR1	0	R1533J
846.467	0.784	1527720	WORD_OFF	n/a	n/a	ELEPHANT	Zoo	7	6	[0, 0, 0]	n/a	catFR1	0	R1533J
847.251	1.6	1528510	WORD	n/a	wordpools/wordpool_categorized_EN.txt	TIGER	Zoo	8	6	[0, 0, 0]	n/a	catFR1	0	R1533J
848.851	0.816	1530110	WORD_OFF	n/a	n/a	TIGER	Zoo	8	6	[0, 0, 0]	n/a	catFR1	0	R1533J
849.667	1.6	1530920	WORD	n/a	wordpools/wordpool_categorized_EN.txt	SPANDEX	Fabric	9	6	[0, 0, 0]	n/a	catFR1	0	R1533J
851.268	0.966	1532520	WORD_OFF	n/a	n/a	SPANDEX	Fabric	9	6	[0, 0, 0]	n/a	catFR1	0	R1533J
852.234	1.6	1533491	WORD	n/a	wordpools/wordpool_categorized_EN.txt	LINEN	Fabric	10	6	[0, 0, 0]	n/a	catFR1	0	R1533J
853.851	0.967	1535102	WORD_OFF	n/a	n/a	LINEN	Fabric	10	6	[0, 0, 0]	n/a	catFR1	0	R1533J
854.818	1.6	1536072	WORD	n/a	wordpools/wordpool_categorized_EN.txt	COLANDER	KitchenTools	11	6	[0, 0, 0]	n/a	catFR1	0	R1533J
856.433	1.0	1537683	WORD_OFF	n/a	n/a	COLANDER	KitchenTools	11	6	[0, 0, 0]	n/a	catFR1	0	R1533J
857.433	1.6	1538686	WORD	n/a	wordpools/wordpool_categorized_EN.txt	KNIFE	KitchenTools	12	6	[0, 0, 0]	n/a	catFR1	0	R1533J
859.034	0.002	1540286	WORD_OFF	n/a	n/a	KNIFE	KitchenTools	12	6	[0, 0, 0]	n/a	catFR1	0	R1533J
859.036	0.0	1540286	ENCODING_END	n/a	n/a	n/a	n/a	-999	6	[0, 0, 0]	n/a	catFR1	0	R1533J
859.034	0.003	1540288	PROB	7.332	n/a	n/a	n/a	-999	6	[1, 7, 3]	11.0	catFR1	0	R1533J
859.037	0.0	1540291	START	n/a	n/a	n/a	n/a	-999	6	[-999, -999, -999]	n/a	catFR1	0	R1533J
859.037	7.347	1540296	DISTRACT_START	n/a	n/a	n/a	n/a	-999	6	[0, 0, 0]	n/a	catFR1	0	R1533J
866.384	7.715	1547638	PROB	7.699	n/a	n/a	n/a	-999	6	[4, 2, 7]	13.0	catFR1	0	R1533J
874.099	6.268	1555352	PROB	6.25	n/a	n/a	n/a	-999	6	[8, 3, 4]	15.0	catFR1	0	R1533J
880.367	0.0	1561619	DISTRACT_END	n/a	n/a	n/a	n/a	-999	6	[0, 0, 0]	n/a	catFR1	0	R1533J
880.367	1.832	1561620	STOP	n/a	n/a	n/a	n/a	-999	6	[-999, -999, -999]	n/a	catFR1	0	R1533J
882.199	1.412	1563454	REC_START	n/a	n/a	n/a	n/a	-999	6	[0, 0, 0]	n/a	catFR1	0	R1533J
883.611	1.852	1564864	REC_WORD_VV	1.412	n/a	<>	n/a	-999	6	[0, 0, 0]	n/a	catFR1	0	R1533J
885.463	2.153	1566716	REC_WORD	3.264	n/a	KNIFE	KitchenTools	12	6	[0, 0, 0]	n/a	catFR1	0	R1533J
887.616	1.705	1568869	REC_WORD_VV	5.417	n/a	<>	n/a	-999	6	[0, 0, 0]	n/a	catFR1	0	R1533J
889.321	0.788	1570574	REC_WORD	7.122	n/a	KNIFE	KitchenTools	12	6	[0, 0, 0]	n/a	catFR1	0	R1533J
890.109	5.555	1571362	REC_WORD_VV	7.91	n/a	<>	n/a	-999	6	[0, 0, 0]	n/a	catFR1	0	R1533J
895.664	0.343	1576916	REC_WORD_VV	13.465	n/a	<>	n/a	-999	6	[0, 0, 0]	n/a	catFR1	0	R1533J
896.007	2.123	1577259	REC_WORD	13.808	n/a	COLA	Beverages	-999	6	[0, 0, 0]	n/a	catFR1	0	R1533J
898.13	1.0	1579382	REC_WORD_VV	15.931	n/a	<>	n/a	-999	6	[0, 0, 0]	n/a	catFR1	0	R1533J
899.13	0.701	1580382	REC_WORD_VV	16.931	n/a	<>	n/a	-999	6	[0, 0, 0]	n/a	catFR1	0	R1533J
899.831	0.431	1581083	REC_WORD	17.632	n/a	COLA	Beverages	-999	6	[0, 0, 0]	n/a	catFR1	0	R1533J
900.262	2.17	1581514	REC_WORD	18.063	n/a	SPATULA	KitchenTools	-999	6	[0, 0, 0]	n/a	catFR1	0	R1533J
902.432	2.157	1583684	REC_WORD	20.233	n/a	KNIFE	KitchenTools	12	6	[0, 0, 0]	n/a	catFR1	0	R1533J
904.589	0.328	1585841	REC_WORD_VV	22.39	n/a	<>	n/a	-999	6	[0, 0, 0]	n/a	catFR1	0	R1533J
904.917	1.705	1586169	REC_WORD	22.718	n/a	ELEPHANT	Zoo	7	6	[0, 0, 0]	n/a	catFR1	0	R1533J
906.622	0.288	1587874	REC_WORD_VV	24.423	n/a	<>	n/a	-999	6	[0, 0, 0]	n/a	catFR1	0	R1533J
906.91	1.944	1588162	REC_WORD	24.711	n/a	ELEPHANT	Zoo	7	6	[0, 0, 0]	n/a	catFR1	0	R1533J
908.854	3.54	1590106	REC_WORD	26.655	n/a	TIGER	Zoo	8	6	[0, 0, 0]	n/a	catFR1	0	R1533J
912.394	2.955	1593640	REC_END	n/a	n/a	n/a	n/a	-999	6	[0, 0, 0]	n/a	catFR1	0	R1533J
915.349	10.0	1596606	COUNTDOWN_START	n/a	n/a	n/a	n/a	-999	7	[0, 0, 0]	n/a	catFR1	0	R1533J
925.699	0.0	1606952	COUNTDOWN_END	n/a	n/a	n/a	n/a	-999	7	[0, 0, 0]	n/a	catFR1	0	R1533J
925.699	1.983	1606952	ENCODING_START	n/a	n/a	n/a	n/a	-999	7	[0, 0, 0]	n/a	catFR1	0	R1533J
927.682	1.6	1608936	WORD	n/a	wordpools/wordpool_categorized_EN.txt	GIRAFFE	Zoo	1	7	[0, 0, 0]	n/a	catFR1	0	R1533J
929.299	0.984	1610547	WORD_OFF	n/a	n/a	GIRAFFE	Zoo	1	7	[0, 0, 0]	n/a	catFR1	0	R1533J
930.283	1.6	1611528	WORD	n/a	wordpools/wordpool_categorized_EN.txt	GORILLA	Zoo	2	7	[0, 0, 0]	n/a	catFR1	0	R1533J
931.882	0.95	1613128	WORD_OFF	n/a	n/a	GORILLA	Zoo	2	7	[0, 0, 0]	n/a	catFR1	0	R1533J
932.832	1.6	1614078	WORD	n/a	wordpools/wordpool_categorized_EN.txt	HEAD	BodyParts	3	7	[0, 0, 0]	n/a	catFR1	0	R1533J
934.449	0.816	1615699	WORD_OFF	n/a	n/a	HEAD	BodyParts	3	7	[0, 0, 0]	n/a	catFR1	0	R1533J
935.265	1.6	1616520	WORD	n/a	wordpools/wordpool_categorized_EN.txt	ARM	BodyParts	4	7	[0, 0, 0]	n/a	catFR1	0	R1533J
936.865	0.95	1618120	WORD_OFF	n/a	n/a	ARM	BodyParts	4	7	[0, 0, 0]	n/a	catFR1	0	R1533J
937.815	1.6	1619070	WORD	n/a	wordpools/wordpool_categorized_EN.txt	PETUNIA	Flowers	5	7	[0, 0, 0]	n/a	catFR1	0	R1533J
939.415	0.784	1620670	WORD_OFF	n/a	n/a	PETUNIA	Flowers	5	7	[0, 0, 0]	n/a	catFR1	0	R1533J
940.199	1.6	1621448	WORD	n/a	wordpools/wordpool_categorized_EN.txt	VIOLET	Flowers	6	7	[0, 0, 0]	n/a	catFR1	0	R1533J
941.799	0.783	1623048	WORD_OFF	n/a	n/a	VIOLET	Flowers	6	7	[0, 0, 0]	n/a	catFR1	0	R1533J
942.582	1.6	1623837	WORD	n/a	wordpools/wordpool_categorized_EN.txt	LEG	BodyParts	7	7	[0, 0, 0]	n/a	catFR1	0	R1533J
944.183	0.883	1625437	WORD_OFF	n/a	n/a	LEG	BodyParts	7	7	[0, 0, 0]	n/a	catFR1	0	R1533J
945.066	1.6	1626312	WORD	n/a	wordpools/wordpool_categorized_EN.txt	EAR	BodyParts	8	7	[0, 0, 0]	n/a	catFR1	0	R1533J
946.666	0.816	1627912	WORD_OFF	n/a	n/a	EAR	BodyParts	8	7	[0, 0, 0]	n/a	catFR1	0	R1533J
947.482	1.6	1628733	WORD	n/a	wordpools/wordpool_categorized_EN.txt	ZEBRA	Zoo	9	7	[0, 0, 0]	n/a	catFR1	0	R1533J
949.098	0.935	1630344	WORD_OFF	n/a	n/a	ZEBRA	Zoo	9	7	[0, 0, 0]	n/a	catFR1	0	R1533J
950.033	1.6	1631283	WORD	n/a	wordpools/wordpool_categorized_EN.txt	ORANGUTAN	Zoo	10	7	[0, 0, 0]	n/a	catFR1	0	R1533J
951.648	1.001	1632893	WORD_OFF	n/a	n/a	ORANGUTAN	Zoo	10	7	[0, 0, 0]	n/a	catFR1	0	R1533J
952.649	1.6	1633896	WORD	n/a	wordpools/wordpool_categorized_EN.txt	SUNFLOWER	Flowers	11	7	[0, 0, 0]	n/a	catFR1	0	R1533J
954.265	0.834	1635517	WORD_OFF	n/a	n/a	SUNFLOWER	Flowers	11	7	[0, 0, 0]	n/a	catFR1	0	R1533J
955.099	1.6	1636349	WORD	n/a	wordpools/wordpool_categorized_EN.txt	TULIP	Flowers	12	7	[0, 0, 0]	n/a	catFR1	0	R1533J
956.715	0.0	1637960	WORD_OFF	n/a	n/a	TULIP	Flowers	12	7	[0, 0, 0]	n/a	catFR1	0	R1533J
956.715	0.001	1637964	PROB	5.783	n/a	n/a	n/a	-999	7	[8, 6, 4]	18.0	catFR1	0	R1533J
956.716	0.0	1637965	START	n/a	n/a	n/a	n/a	-999	7	[-999, -999, -999]	n/a	catFR1	0	R1533J
956.716	0.0	1637971	ENCODING_END	n/a	n/a	n/a	n/a	-999	7	[0, 0, 0]	n/a	catFR1	0	R1533J
956.716	5.799	1637971	DISTRACT_START	n/a	n/a	n/a	n/a	-999	7	[0, 0, 0]	n/a	catFR1	0	R1533J
962.515	6.701	1643764	PROB	6.683	n/a	n/a	n/a	-999	7	[7, 4, 4]	15.0	catFR1	0	R1533J
969.216	4.351	1650464	PROB	4.333	n/a	n/a	n/a	-999	7	[3, 4, 6]	13.0	catFR1	0	R1533J
973.567	5.849	1654815	PROB	5.832	n/a	n/a	n/a	-999	7	[8, 8, 6]	22.0	catFR1	0	R1533J
979.416	0.0	1660664	STOP	n/a	n/a	n/a	n/a	-999	7	[-999, -999, -999]	n/a	catFR1	0	R1533J
979.416	1.85	1660669	DISTRACT_END	n/a	n/a	n/a	n/a	-999	7	[0, 0, 0]	n/a	catFR1	0	R1533J
981.266	2.288	1662515	REC_START	n/a	n/a	n/a	n/a	-999	7	[0, 0, 0]	n/a	catFR1	0	R1533J
983.554	0.939	1664802	REC_WORD_VV	2.288	n/a	<>	n/a	-999	7	[0, 0, 0]	n/a	catFR1	0	R1533J
984.493	2.633	1665741	REC_WORD_VV	3.227	n/a	<>	n/a	-999	7	[0, 0, 0]	n/a	catFR1	0	R1533J
987.126	1.358	1668373	REC_WORD_VV	5.86	n/a	<>	n/a	-999	7	[0, 0, 0]	n/a	catFR1	0	R1533J
988.484	3.58	1669731	REC_WORD	7.218	n/a	GIRAFFE	Zoo	1	7	[0, 0, 0]	n/a	catFR1	0	R1533J
992.064	2.299	1673311	REC_WORD	10.798	n/a	GIRAFFE	Zoo	1	7	[0, 0, 0]	n/a	catFR1	0	R1533J
994.363	4.977	1675610	REC_WORD	13.097	n/a	EAR	BodyParts	8	7	[0, 0, 0]	n/a	catFR1	0	R1533J
999.34	0.559	1680587	REC_WORD_VV	18.074	n/a	<>	n/a	-999	7	[0, 0, 0]	n/a	catFR1	0	R1533J
999.899	3.934	1681146	REC_WORD	18.633	n/a	ELEPHANT	Zoo	-999	7	[0, 0, 0]	n/a	catFR1	0	R1533J
1003.833	1.546	1685080	REC_WORD	22.567	n/a	GORILLA	Zoo	2	7	[0, 0, 0]	n/a	catFR1	0	R1533J
1005.379	0.676	1686625	REC_WORD	24.113	n/a	GIRAFFE	Zoo	1	7	[0, 0, 0]	n/a	catFR1	0	R1533J
1006.055	0.525	1687301	REC_WORD	24.789	n/a	GORILLA	Zoo	2	7	[0, 0, 0]	n/a	catFR1	0	R1533J
1006.58	3.388	1687826	REC_WORD	25.314	n/a	ELEPHANT	Zoo	-999	7	[0, 0, 0]	n/a	catFR1	0	R1533J
1009.968	1.521	1691214	REC_WORD_VV	28.702	n/a	<>	n/a	-999	7	[0, 0, 0]	n/a	catFR1	0	R1533J
1011.489	7.045	1692733	REC_END	n/a	n/a	n/a	n/a	-999	7	[0, 0, 0]	n/a	catFR1	0	R1533J
1018.534	10.0	1699784	COUNTDOWN_START	n/a	n/a	n/a	n/a	-999	8	[0, 0, 0]	n/a	catFR1	0	R1533J
1028.882	0.0	1710131	COUNTDOWN_END	n/a	n/a	n/a	n/a	-999	8	[0, 0, 0]	n/a	catFR1	0	R1533J
1028.882	1.818	1710131	ENCODING_START	n/a	n/a	n/a	n/a	-999	8	[0, 0, 0]	n/a	catFR1	0	R1533J
1030.7	1.6	1711944	WORD	n/a	wordpools/wordpool_categorized_EN.txt	CRAB	OceanAnimals	1	8	[0, 0, 0]	n/a	catFR1	0	R1533J
1032.301	1.0	1713544	WORD_OFF	n/a	n/a	CRAB	OceanAnimals	1	8	[0, 0, 0]	n/a	catFR1	0	R1533J
1033.301	1.6	1714547	WORD	n/a	wordpools/wordpool_categorized_EN.txt	OYSTER	OceanAnimals	2	8	[0, 0, 0]	n/a	catFR1	0	R1533J
1034.918	1.0	1716157	WORD_OFF	n/a	n/a	OYSTER	OceanAnimals	2	8	[0, 0, 0]	n/a	catFR1	0	R1533J
1035.918	1.6	1717160	WORD	n/a	wordpools/wordpool_categorized_EN.txt	MOSQUITO	Insects	3	8	[0, 0, 0]	n/a	catFR1	0	R1533J
1037.517	0.85	1718760	WORD_OFF	n/a	n/a	MOSQUITO	Insects	3	8	[0, 0, 0]	n/a	catFR1	0	R1533J
1038.367	1.6	1719613	WORD	n/a	wordpools/wordpool_categorized_EN.txt	ROACH	Insects	4	8	[0, 0, 0]	n/a	catFR1	0	R1533J
1039.967	0.784	1721213	WORD_OFF	n/a	n/a	ROACH	Insects	4	8	[0, 0, 0]	n/a	catFR1	0	R1533J
1040.751	1.6	1721992	WORD	n/a	wordpools/wordpool_categorized_EN.txt	WALL	Building	5	8	[0, 0, 0]	n/a	catFR1	0	R1533J
1042.367	0.817	1723613	WORD_OFF	n/a	n/a	WALL	Building	5	8	[0, 0, 0]	n/a	catFR1	0	R1533J
1043.184	1.6	1724424	WORD	n/a	wordpools/wordpool_categorized_EN.txt	FOUNDATION	Building	6	8	[0, 0, 0]	n/a	catFR1	0	R1533J
1044.784	0.999	1726024	WORD_OFF	n/a	n/a	FOUNDATION	Building	6	8	[0, 0, 0]	n/a	catFR1	0	R1533J
1045.783	1.6	1727027	WORD	n/a	wordpools/wordpool_categorized_EN.txt	LADYBUG	Insects	7	8	[0, 0, 0]	n/a	catFR1	0	R1533J
1047.384	0.967	1728627	WORD_OFF	n/a	n/a	LADYBUG	Insects	7	8	[0, 0, 0]	n/a	catFR1	0	R1533J
1048.351	1.6	1729597	WORD	n/a	wordpools/wordpool_categorized_EN.txt	FLY	Insects	8	8	[0, 0, 0]	n/a	catFR1	0	R1533J
1049.968	0.916	1731208	WORD_OFF	n/a	n/a	FLY	Insects	8	8	[0, 0, 0]	n/a	catFR1	0	R1533J
1050.884	1.6	1732125	WORD	n/a	wordpools/wordpool_categorized_EN.txt	OCTOPUS	OceanAnimals	9	8	[0, 0, 0]	n/a	catFR1	0	R1533J
1052.499	0.968	1733747	WORD_OFF	n/a	n/a	OCTOPUS	OceanAnimals	9	8	[0, 0, 0]	n/a	catFR1	0	R1533J
1053.467	1.6	1734707	WORD	n/a	wordpools/wordpool_categorized_EN.txt	LOBSTER	OceanAnimals	10	8	[0, 0, 0]	n/a	catFR1	0	R1533J
1055.083	0.983	1736328	WORD_OFF	n/a	n/a	LOBSTER	OceanAnimals	10	8	[0, 0, 0]	n/a	catFR1	0	R1533J
1056.066	1.6	1737309	WORD	n/a	wordpools/wordpool_categorized_EN.txt	ROOM	Building	11	8	[0, 0, 0]	n/a	catFR1	0	R1533J
1057.667	0.933	1738909	WORD_OFF	n/a	n/a	ROOM	Building	11	8	[0, 0, 0]	n/a	catFR1	0	R1533J
1058.6	1.6	1739848	WORD	n/a	wordpools/wordpool_categorized_EN.txt	HALLWAY	Building	12	8	[0, 0, 0]	n/a	catFR1	0	R1533J
1060.2	0.001	1741444	PROB	11.832	n/a	n/a	n/a	-999	8	[6, 5, 8]	19.0	catFR1	0	R1533J
1060.201	0.0	1741445	START	n/a	n/a	n/a	n/a	-999	8	[-999, -999, -999]	n/a	catFR1	0	R1533J
1060.2	0.001	1741448	WORD_OFF	n/a	n/a	HALLWAY	Building	12	8	[0, 0, 0]	n/a	catFR1	0	R1533J
1060.201	0.0	1741448	ENCODING_END	n/a	n/a	n/a	n/a	-999	8	[0, 0, 0]	n/a	catFR1	0	R1533J
1060.201	11.849	1741448	DISTRACT_START	n/a	n/a	n/a	n/a	-999	8	[0, 0, 0]	n/a	catFR1	0	R1533J
1072.05	4.25	1753293	PROB	4.233	n/a	n/a	n/a	-999	8	[6, 7, 1]	14.0	catFR1	0	R1533J
1076.3	4.866	1757543	PROB	4.849	n/a	n/a	n/a	-999	8	[4, 2, 4]	10.0	catFR1	0	R1533J
1081.166	0.0	1762408	DISTRACT_END	n/a	n/a	n/a	n/a	-999	8	[0, 0, 0]	n/a	catFR1	0	R1533J
1081.166	1.782	1762408	STOP	n/a	n/a	n/a	n/a	-999	8	[-999, -999, -999]	n/a	catFR1	0	R1533J
1082.948	1.139	1764189	REC_START	n/a	n/a	n/a	n/a	-999	8	[0, 0, 0]	n/a	catFR1	0	R1533J
1084.087	0.882	1765329	REC_WORD	1.139	n/a	MOSQUITO	Insects	3	8	[0, 0, 0]	n/a	catFR1	0	R1533J
1084.969	0.753	1766211	REC_WORD	2.021	n/a	MOSQUITO	Insects	3	8	[0, 0, 0]	n/a	catFR1	0	R1533J
1085.722	0.743	1766964	REC_WORD	2.774	n/a	CRAB	OceanAnimals	1	8	[0, 0, 0]	n/a	catFR1	0	R1533J
1086.465	1.36	1767707	REC_WORD_VV	3.517	n/a	<>	n/a	-999	8	[0, 0, 0]	n/a	catFR1	0	R1533J
1087.825	1.0	1769067	REC_WORD	4.877	n/a	OCTOPUS	OceanAnimals	9	8	[0, 0, 0]	n/a	catFR1	0	R1533J
1088.825	0.474	1770067	REC_WORD_VV	5.877	n/a	<>	n/a	-999	8	[0, 0, 0]	n/a	catFR1	0	R1533J
1089.299	3.627	1770541	REC_WORD_VV	6.351	n/a	<>	n/a	-999	8	[0, 0, 0]	n/a	catFR1	0	R1533J
1092.926	1.0	1774168	REC_WORD	9.978	n/a	ORANGUTAN	Zoo	-999	8	[0, 0, 0]	n/a	catFR1	0	R1533J
1093.926	0.546	1775168	REC_WORD_VV	10.978	n/a	<>	n/a	-999	8	[0, 0, 0]	n/a	catFR1	0	R1533J
1094.472	0.666	1775714	REC_WORD	11.524	n/a	PANEL	n/a	-999	8	[0, 0, 0]	n/a	catFR1	0	R1533J
1095.138	1.812	1776380	REC_WORD	12.19	n/a	LADDER	n/a	-999	8	[0, 0, 0]	n/a	catFR1	0	R1533J
1096.95	3.078	1778192	REC_WORD_VV	14.002	n/a	<>	n/a	-999	8	[0, 0, 0]	n/a	catFR1	0	R1533J
1100.028	0.799	1781269	REC_WORD_VV	17.08	n/a	<>	n/a	-999	8	[0, 0, 0]	n/a	catFR1	0	R1533J
1100.827	2.165	1782068	REC_WORD	17.879	n/a	DISHWASHER	Appliances	-999	8	[0, 0, 0]	n/a	catFR1	0	R1533J
1102.992	0.706	1784233	REC_WORD	20.044	n/a	LIGHTNING	Weather	-999	8	[0, 0, 0]	n/a	catFR1	0	R1533J
1103.698	4.712	1784939	REC_WORD	20.75	n/a	PEN	n/a	-999	8	[0, 0, 0]	n/a	catFR1	0	R1533J
1108.41	4.747	1789651	REC_WORD_VV	25.462	n/a	<>	n/a	-999	8	[0, 0, 0]	n/a	catFR1	0	R1533J
1113.157	2.293	1794397	REC_END	n/a	n/a	n/a	n/a	-999	8	[0, 0, 0]	n/a	catFR1	0	R1533J
1115.45	10.0	1796691	COUNTDOWN_START	n/a	n/a	n/a	n/a	-999	9	[0, 0, 0]	n/a	catFR1	0	R1533J
1125.8	0.0	1807037	COUNTDOWN_END	n/a	n/a	n/a	n/a	-999	9	[0, 0, 0]	n/a	catFR1	0	R1533J
1125.8	2.384	1807037	ENCODING_START	n/a	n/a	n/a	n/a	-999	9	[0, 0, 0]	n/a	catFR1	0	R1533J
1128.184	1.6	1809427	WORD	n/a	wordpools/wordpool_categorized_EN.txt	BEE	Insects	1	9	[0, 0, 0]	n/a	catFR1	0	R1533J
1129.784	0.865	1811027	WORD_OFF	n/a	n/a	BEE	Insects	1	9	[0, 0, 0]	n/a	catFR1	0	R1533J
1130.649	1.6	1811891	WORD	n/a	wordpools/wordpool_categorized_EN.txt	CRICKET	Insects	2	9	[0, 0, 0]	n/a	catFR1	0	R1533J
1132.267	0.833	1813512	WORD_OFF	n/a	n/a	CRICKET	Insects	2	9	[0, 0, 0]	n/a	catFR1	0	R1533J
1133.1	1.6	1814344	WORD	n/a	wordpools/wordpool_categorized_EN.txt	SHOVEL	Tools	3	9	[0, 0, 0]	n/a	catFR1	0	R1533J
1134.717	0.982	1815955	WORD_OFF	n/a	n/a	SHOVEL	Tools	3	9	[0, 0, 0]	n/a	catFR1	0	R1533J
1135.699	1.6	1816936	WORD	n/a	wordpools/wordpool_categorized_EN.txt	DRILL	Tools	4	9	[0, 0, 0]	n/a	catFR1	0	R1533J
1137.318	0.764	1818557	WORD_OFF	n/a	n/a	DRILL	Tools	4	9	[0, 0, 0]	n/a	catFR1	0	R1533J
1138.082	1.6	1819325	WORD	n/a	wordpools/wordpool_categorized_EN.txt	VELVET	Fabric	5	9	[0, 0, 0]	n/a	catFR1	0	R1533J
1139.684	0.833	1820925	WORD_OFF	n/a	n/a	VELVET	Fabric	5	9	[0, 0, 0]	n/a	catFR1	0	R1533J
1140.517	1.6	1821757	WORD	n/a	wordpools/wordpool_categorized_EN.txt	NYLON	Fabric	6	9	[0, 0, 0]	n/a	catFR1	0	R1533J
1142.134	0.95	1823379	WORD_OFF	n/a	n/a	NYLON	Fabric	6	9	[0, 0, 0]	n/a	catFR1	0	R1533J
1143.084	1.6	1824328	WORD	n/a	wordpools/wordpool_categorized_EN.txt	SAW	Tools	7	9	[0, 0, 0]	n/a	catFR1	0	R1533J
1144.701	0.849	1825939	WORD_OFF	n/a	n/a	SAW	Tools	7	9	[0, 0, 0]	n/a	catFR1	0	R1533J
1145.55	1.6	1826792	WORD	n/a	wordpools/wordpool_categorized_EN.txt	PLIERS	Tools	8	9	[0, 0, 0]	n/a	catFR1	0	R1533J
1147.15	0.9	1828392	WORD_OFF	n/a	n/a	PLIERS	Tools	8	9	[0, 0, 0]	n/a	catFR1	0	R1533J
1148.05	1.6	1829288	WORD	n/a	wordpools/wordpool_categorized_EN.txt	FLEECE	Fabric	9	9	[0, 0, 0]	n/a	catFR1	0	R1533J
1149.667	0.817	1830909	WORD_OFF	n/a	n/a	FLEECE	Fabric	9	9	[0, 0, 0]	n/a	catFR1	0	R1533J
1150.484	1.6	1831720	WORD	n/a	wordpools/wordpool_categorized_EN.txt	SILK	Fabric	10	9	[0, 0, 0]	n/a	catFR1	0	R1533J
1152.084	0.816	1833320	WORD_OFF	n/a	n/a	SILK	Fabric	10	9	[0, 0, 0]	n/a	catFR1	0	R1533J
1152.9	1.6	1834141	WORD	n/a	wordpools/wordpool_categorized_EN.txt	BEETLE	Insects	11	9	[0, 0, 0]	n/a	catFR1	0	R1533J
1154.517	0.95	1835752	WORD_OFF	n/a	n/a	BEETLE	Insects	11	9	[0, 0, 0]	n/a	catFR1	0	R1533J
1155.467	1.6	1836701	WORD	n/a	wordpools/wordpool_categorized_EN.txt	SPIDER	Insects	12	9	[0, 0, 0]	n/a	catFR1	0	R1533J
1157.067	0.0	1838301	WORD_OFF	n/a	n/a	SPIDER	Insects	12	9	[0, 0, 0]	n/a	catFR1	0	R1533J
1157.067	0.002	1838305	PROB	5.648	n/a	n/a	n/a	-999	9	[6, 1, 1]	8.0	catFR1	0	R1533J
1157.069	0.0	1838307	START	n/a	n/a	n/a	n/a	-999	9	[-999, -999, -999]	n/a	catFR1	0	R1533J
1157.069	0.0	1838312	ENCODING_END	n/a	n/a	n/a	n/a	-999	9	[0, 0, 0]	n/a	catFR1	0	R1533J
1157.069	5.665	1838312	DISTRACT_START	n/a	n/a	n/a	n/a	-999	9	[0, 0, 0]	n/a	catFR1	0	R1533J
1162.734	3.316	1843972	PROB	3.299	n/a	n/a	n/a	-999	9	[8, 3, 1]	12.0	catFR1	0	R1533J
1166.05	5.215	1847288	PROB	5.199	n/a	n/a	n/a	-999	9	[8, 7, 4]	19.0	catFR1	0	R1533J
1171.265	4.302	1852503	PROB	4.284	n/a	n/a	n/a	-999	9	[3, 5, 7]	15.0	catFR1	0	R1533J
1175.567	3.614	1856804	PROB	3.599	n/a	n/a	n/a	-999	9	[4, 5, 1]	10.0	catFR1	0	R1533J
1179.181	0.0	1860413	DISTRACT_END	n/a	n/a	n/a	n/a	-999	9	[0, 0, 0]	n/a	catFR1	0	R1533J
1179.181	1.535	1860418	STOP	n/a	n/a	n/a	n/a	-999	9	[-999, -999, -999]	n/a	catFR1	0	R1533J
1180.716	3.266	1861949	REC_START	n/a	n/a	n/a	n/a	-999	9	[0, 0, 0]	n/a	catFR1	0	R1533J
1183.982	2.968	1865219	REC_WORD	3.266	n/a	MOSQUITO	Insects	-999	9	[0, 0, 0]	n/a	catFR1	0	R1533J
1186.95	0.824	1868187	REC_WORD_VV	6.234	n/a	<>	n/a	-999	9	[0, 0, 0]	n/a	catFR1	0	R1533J
1187.774	1.491	1869011	REC_WORD	7.058	n/a	MOSQUITO	Insects	-999	9	[0, 0, 0]	n/a	catFR1	0	R1533J
1189.265	1.811	1870502	REC_WORD	8.549	n/a	LEATHER	Fabric	-999	9	[0, 0, 0]	n/a	catFR1	0	R1533J
1191.076	0.429	1872312	REC_WORD	10.36	n/a	LEATHER	Fabric	-999	9	[0, 0, 0]	n/a	catFR1	0	R1533J
1191.505	0.773	1872741	REC_WORD	10.789	n/a	SUEDE	Fabric	-999	9	[0, 0, 0]	n/a	catFR1	0	R1533J
1192.278	2.881	1873514	REC_WORD	11.562	n/a	SILK	Fabric	10	9	[0, 0, 0]	n/a	catFR1	0	R1533J
1195.159	3.587	1876395	REC_WORD	14.443	n/a	PANEL	n/a	-999	9	[0, 0, 0]	n/a	catFR1	0	R1533J
1198.746	3.156	1879982	REC_WORD	18.03	n/a	WOOL	Fabric	-999	9	[0, 0, 0]	n/a	catFR1	0	R1533J
1201.902	6.47	1883138	REC_WORD	21.186	n/a	SPIDER	Insects	12	9	[0, 0, 0]	n/a	catFR1	0	R1533J
1208.372	2.554	1889608	REC_WORD_VV	27.656	n/a	<>	n/a	-999	9	[0, 0, 0]	n/a	catFR1	0	R1533J
1210.926	4.141	1892157	REC_END	n/a	n/a	n/a	n/a	-999	9	[0, 0, 0]	n/a	catFR1	0	R1533J
1215.067	10.0	1896307	COUNTDOWN_START	n/a	n/a	n/a	n/a	-999	10	[0, 0, 0]	n/a	catFR1	0	R1533J
1225.417	0.0	1906653	COUNTDOWN_END	n/a	n/a	n/a	n/a	-999	10	[0, 0, 0]	n/a	catFR1	0	R1533J
1225.417	2.2	1906653	ENCODING_START	n/a	n/a	n/a	n/a	-999	10	[0, 0, 0]	n/a	catFR1	0	R1533J
1227.617	1.6	1908851	WORD	n/a	wordpools/wordpool_categorized_EN.txt	CAR	Vehicles	1	10	[0, 0, 0]	n/a	catFR1	0	R1533J
1229.217	0.834	1910451	WORD_OFF	n/a	n/a	CAR	Vehicles	1	10	[0, 0, 0]	n/a	catFR1	0	R1533J
1230.051	1.6	1911283	WORD	n/a	wordpools/wordpool_categorized_EN.txt	TRUCK	Vehicles	2	10	[0, 0, 0]	n/a	catFR1	0	R1533J
1231.667	0.784	1912904	WORD_OFF	n/a	n/a	TRUCK	Vehicles	2	10	[0, 0, 0]	n/a	catFR1	0	R1533J
1232.451	1.6	1913683	WORD	n/a	wordpools/wordpool_categorized_EN.txt	SOFA	Furniture	3	10	[0, 0, 0]	n/a	catFR1	0	R1533J
1234.051	0.933	1915283	WORD_OFF	n/a	n/a	SOFA	Furniture	3	10	[0, 0, 0]	n/a	catFR1	0	R1533J
1234.984	1.6	1916221	WORD	n/a	wordpools/wordpool_categorized_EN.txt	RECLINER	Furniture	4	10	[0, 0, 0]	n/a	catFR1	0	R1533J
1236.6	0.817	1917832	WORD_OFF	n/a	n/a	RECLINER	Furniture	4	10	[0, 0, 0]	n/a	catFR1	0	R1533J
1237.417	1.6	1918653	WORD	n/a	wordpools/wordpool_categorized_EN.txt	SODA	Beverages	5	10	[0, 0, 0]	n/a	catFR1	0	R1533J
1239.032	1.002	1920264	WORD_OFF	n/a	n/a	SODA	Beverages	5	10	[0, 0, 0]	n/a	catFR1	0	R1533J
1240.034	1.6	1921267	WORD	n/a	wordpools/wordpool_categorized_EN.txt	RUM	Beverages	6	10	[0, 0, 0]	n/a	catFR1	0	R1533J
1241.634	0.817	1922867	WORD_OFF	n/a	n/a	RUM	Beverages	6	10	[0, 0, 0]	n/a	catFR1	0	R1533J
1242.451	1.6	1923688	WORD	n/a	wordpools/wordpool_categorized_EN.txt	TRAIN	Vehicles	7	10	[0, 0, 0]	n/a	catFR1	0	R1533J
1244.067	0.966	1925299	WORD_OFF	n/a	n/a	TRAIN	Vehicles	7	10	[0, 0, 0]	n/a	catFR1	0	R1533J
1245.033	1.6	1926269	WORD	n/a	wordpools/wordpool_categorized_EN.txt	VAN	Vehicles	8	10	[0, 0, 0]	n/a	catFR1	0	R1533J
1246.634	0.95	1927869	WORD_OFF	n/a	n/a	VAN	Vehicles	8	10	[0, 0, 0]	n/a	catFR1	0	R1533J
1247.584	1.6	1928819	WORD	n/a	wordpools/wordpool_categorized_EN.txt	BED	Furniture	9	10	[0, 0, 0]	n/a	catFR1	0	R1533J
1249.2	0.85	1930429	WORD_OFF	n/a	n/a	BED	Furniture	9	10	[0, 0, 0]	n/a	catFR1	0	R1533J
1250.05	1.6	1931283	WORD	n/a	wordpools/wordpool_categorized_EN.txt	CABINET	Furniture	10	10	[0, 0, 0]	n/a	catFR1	0	R1533J
1251.65	0.833	1932883	WORD_OFF	n/a	n/a	CABINET	Furniture	10	10	[0, 0, 0]	n/a	catFR1	0	R1533J
1252.483	1.6	1933715	WORD	n/a	wordpools/wordpool_categorized_EN.txt	TEA	Beverages	11	10	[0, 0, 0]	n/a	catFR1	0	R1533J
1254.1	0.899	1935336	WORD_OFF	n/a	n/a	TEA	Beverages	11	10	[0, 0, 0]	n/a	catFR1	0	R1533J
1254.999	1.6	1936232	WORD	n/a	wordpools/wordpool_categorized_EN.txt	CIDER	Beverages	12	10	[0, 0, 0]	n/a	catFR1	0	R1533J
1256.6	0.002	1937832	WORD_OFF	n/a	n/a	CIDER	Beverages	12	10	[0, 0, 0]	n/a	catFR1	0	R1533J
1256.602	0.0	1937832	ENCODING_END	n/a	n/a	n/a	n/a	-999	10	[0, 0, 0]	n/a	catFR1	0	R1533J
1256.602	0.0	1937832	DISTRACT_START	n/a	n/a	n/a	n/a	-999	10	[0, 0, 0]	n/a	catFR1	0	R1533J
1256.6	0.002	1937833	PROB	10.632	n/a	n/a	n/a	-999	10	[4, 7, 5]	16.0	catFR1	0	R1533J
1256.602	10.649	1937835	START	n/a	n/a	n/a	n/a	-999	10	[-999, -999, -999]	n/a	catFR1	0	R1533J
1267.251	7.032	1948483	PROB	7.015	n/a	n/a	n/a	-999	10	[7, 7, 6]	20.0	catFR1	0	R1533J
1274.283	3.051	1955515	PROB	3.033	n/a	n/a	n/a	-999	10	[2, 5, 1]	8.0	catFR1	0	R1533J
1277.334	0.0	1958566	STOP	n/a	n/a	n/a	n/a	-999	10	[-999, -999, -999]	n/a	catFR1	0	R1533J
1277.334	1.749	1958568	DISTRACT_END	n/a	n/a	n/a	n/a	-999	10	[0, 0, 0]	n/a	catFR1	0	R1533J
1279.083	0.948	1960317	REC_START	n/a	n/a	n/a	n/a	-999	10	[0, 0, 0]	n/a	catFR1	0	R1533J
1280.031	0.664	1961263	REC_WORD	0.948	n/a	CIDER	Beverages	12	10	[0, 0, 0]	n/a	catFR1	0	R1533J
1280.695	1.479	1961927	REC_WORD	1.612	n/a	RUM	Beverages	6	10	[0, 0, 0]	n/a	catFR1	0	R1533J
1282.174	0.735	1963406	REC_WORD	3.091	n/a	TEA	Beverages	11	10	[0, 0, 0]	n/a	catFR1	0	R1533J
1282.909	2.378	1964141	REC_WORD_VV	3.826	n/a	<>	n/a	-999	10	[0, 0, 0]	n/a	catFR1	0	R1533J
1285.287	2.149	1966518	REC_WORD_VV	6.204	n/a	<>	n/a	-999	10	[0, 0, 0]	n/a	catFR1	0	R1533J
1287.436	1.079	1968667	REC_WORD	8.353	n/a	JUICE	Beverages	-999	10	[0, 0, 0]	n/a	catFR1	0	R1533J
1288.515	0.535	1969746	REC_WORD	9.432	n/a	TEA	Beverages	11	10	[0, 0, 0]	n/a	catFR1	0	R1533J
1289.05	0.427	1970281	REC_WORD	9.967	n/a	RUM	Beverages	6	10	[0, 0, 0]	n/a	catFR1	0	R1533J
1289.477	4.13	1970708	REC_WORD_VV	10.394	n/a	<>	n/a	-999	10	[0, 0, 0]	n/a	catFR1	0	R1533J
1293.607	7.157	1974838	REC_WORD	14.524	n/a	CORKSCREW	KitchenTools	-999	10	[0, 0, 0]	n/a	catFR1	0	R1533J
1300.764	1.207	1981995	REC_WORD	21.681	n/a	MOSQUITO	Insects	-999	10	[0, 0, 0]	n/a	catFR1	0	R1533J
1301.971	3.092	1983202	REC_WORD	22.888	n/a	SPIDER	Insects	-999	10	[0, 0, 0]	n/a	catFR1	0	R1533J
1305.063	0.636	1986293	REC_WORD	25.98	n/a	VACUUM	Appliances	-999	10	[0, 0, 0]	n/a	catFR1	0	R1533J
1305.699	0.532	1986929	REC_WORD	26.616	n/a	WASHER	Appliances	-999	10	[0, 0, 0]	n/a	catFR1	0	R1533J
1306.231	0.69	1987461	REC_WORD	27.148	n/a	DRYER	n/a	-999	10	[0, 0, 0]	n/a	catFR1	0	R1533J
1306.921	1.249	1988151	REC_WORD	27.838	n/a	DISHWASHER	Appliances	-999	10	[0, 0, 0]	n/a	catFR1	0	R1533J
1308.17	0.466	1989400	REC_WORD	29.087	n/a	TRUMPET	Instruments	-999	10	[0, 0, 0]	n/a	catFR1	0	R1533J
1308.636	0.656	1989866	REC_WORD	29.553	n/a	TROMBONE	Instruments	-999	10	[0, 0, 0]	n/a	catFR1	0	R1533J
1309.292	2.409	1990525	REC_END	n/a	n/a	n/a	n/a	-999	10	[0, 0, 0]	n/a	catFR1	0	R1533J
1311.701	10.0	1992936	COUNTDOWN_START	n/a	n/a	n/a	n/a	-999	11	[0, 0, 0]	n/a	catFR1	0	R1533J
1322.05	0.0	2003283	COUNTDOWN_END	n/a	n/a	n/a	n/a	-999	11	[0, 0, 0]	n/a	catFR1	0	R1533J
1322.05	2.134	2003283	ENCODING_START	n/a	n/a	n/a	n/a	-999	11	[0, 0, 0]	n/a	catFR1	0	R1533J
1324.184	1.6	2005416	WORD	n/a	wordpools/wordpool_categorized_EN.txt	MICROWAVE	Electronics	1	11	[0, 0, 0]	n/a	catFR1	0	R1533J
1325.8	0.934	2007027	WORD_OFF	n/a	n/a	MICROWAVE	Electronics	1	11	[0, 0, 0]	n/a	catFR1	0	R1533J
1326.734	1.6	2007965	WORD	n/a	wordpools/wordpool_categorized_EN.txt	TELEVISION	Electronics	2	11	[0, 0, 0]	n/a	catFR1	0	R1533J
1328.351	0.983	2009576	WORD_OFF	n/a	n/a	TELEVISION	Electronics	2	11	[0, 0, 0]	n/a	catFR1	0	R1533J
1329.334	1.6	2010568	WORD	n/a	wordpools/wordpool_categorized_EN.txt	RAIN	Weather	3	11	[0, 0, 0]	n/a	catFR1	0	R1533J
1330.951	0.783	2012179	WORD_OFF	n/a	n/a	RAIN	Weather	3	11	[0, 0, 0]	n/a	catFR1	0	R1533J
1331.734	1.6	2012968	WORD	n/a	wordpools/wordpool_categorized_EN.txt	FOG	Weather	4	11	[0, 0, 0]	n/a	catFR1	0	R1533J
1333.351	0.883	2014579	WORD_OFF	n/a	n/a	FOG	Weather	4	11	[0, 0, 0]	n/a	catFR1	0	R1533J
1334.234	1.6	2015464	WORD	n/a	wordpools/wordpool_categorized_EN.txt	MOTORCYCLE	Vehicles	5	11	[0, 0, 0]	n/a	catFR1	0	R1533J
1335.851	0.8	2017075	WORD_OFF	n/a	n/a	MOTORCYCLE	Vehicles	5	11	[0, 0, 0]	n/a	catFR1	0	R1533J
1336.651	1.6	2017875	WORD	n/a	wordpools/wordpool_categorized_EN.txt	JEEP	Vehicles	6	11	[0, 0, 0]	n/a	catFR1	0	R1533J
1338.267	0.984	2019496	WORD_OFF	n/a	n/a	JEEP	Vehicles	6	11	[0, 0, 0]	n/a	catFR1	0	R1533J
1339.251	1.6	2020477	WORD	n/a	wordpools/wordpool_categorized_EN.txt	PRINTER	Electronics	7	11	[0, 0, 0]	n/a	catFR1	0	R1533J
1340.865	0.852	2022088	WORD_OFF	n/a	n/a	PRINTER	Electronics	7	11	[0, 0, 0]	n/a	catFR1	0	R1533J
1341.717	1.6	2022941	WORD	n/a	wordpools/wordpool_categorized_EN.txt	SCANNER	Electronics	8	11	[0, 0, 0]	n/a	catFR1	0	R1533J
1343.334	1.0	2024563	WORD_OFF	n/a	n/a	SCANNER	Electronics	8	11	[0, 0, 0]	n/a	catFR1	0	R1533J
1344.334	1.6	2025565	WORD	n/a	wordpools/wordpool_categorized_EN.txt	CLOUD	Weather	9	11	[0, 0, 0]	n/a	catFR1	0	R1533J
1345.934	0.815	2027165	WORD_OFF	n/a	n/a	CLOUD	Weather	9	11	[0, 0, 0]	n/a	catFR1	0	R1533J
1346.749	1.6	2027976	WORD	n/a	wordpools/wordpool_categorized_EN.txt	DRIZZLE	Weather	10	11	[0, 0, 0]	n/a	catFR1	0	R1533J
1348.35	0.799	2029576	WORD_OFF	n/a	n/a	DRIZZLE	Weather	10	11	[0, 0, 0]	n/a	catFR1	0	R1533J
1349.149	1.6	2030376	WORD	n/a	wordpools/wordpool_categorized_EN.txt	BIKE	Vehicles	11	11	[0, 0, 0]	n/a	catFR1	0	R1533J
1350.75	0.834	2031976	WORD_OFF	n/a	n/a	BIKE	Vehicles	11	11	[0, 0, 0]	n/a	catFR1	0	R1533J
1351.584	1.6	2032808	WORD	n/a	wordpools/wordpool_categorized_EN.txt	SCOOTER	Vehicles	12	11	[0, 0, 0]	n/a	catFR1	0	R1533J
1353.2	0.0	2034428	START	n/a	n/a	n/a	n/a	-999	11	[-999, -999, -999]	n/a	catFR1	0	R1533J
1353.199	0.001	2034429	WORD_OFF	n/a	n/a	SCOOTER	Vehicles	12	11	[0, 0, 0]	n/a	catFR1	0	R1533J
1353.2	0.0	2034429	ENCODING_END	n/a	n/a	n/a	n/a	-999	11	[0, 0, 0]	n/a	catFR1	0	R1533J
1353.2	0.001	2034429	DISTRACT_START	n/a	n/a	n/a	n/a	-999	11	[0, 0, 0]	n/a	catFR1	0	R1533J
1353.201	5.247	2034429	PROB	5.233	n/a	n/a	n/a	-999	11	[8, 1, 4]	13.0	catFR1	0	R1533J
1358.448	3.652	2039676	PROB	3.633	n/a	n/a	n/a	-999	11	[3, 7, 4]	14.0	catFR1	0	R1533J
1362.1	6.516	2043327	PROB	6.499	n/a	n/a	n/a	-999	11	[7, 5, 4]	16.0	catFR1	0	R1533J
1368.616	3.9	2049843	PROB	3.884	n/a	n/a	n/a	-999	11	[7, 6, 1]	14.0	catFR1	0	R1533J
1372.516	4.884	2053743	PROB	4.866	n/a	n/a	n/a	-999	11	[4, 8, 8]	20.0	catFR1	0	R1533J
1377.4	0.0	2058621	DISTRACT_END	n/a	n/a	n/a	n/a	-999	11	[0, 0, 0]	n/a	catFR1	0	R1533J
1377.4	1.817	2058626	STOP	n/a	n/a	n/a	n/a	-999	11	[-999, -999, -999]	n/a	catFR1	0	R1533J
1379.217	0.535	2060445	REC_START	n/a	n/a	n/a	n/a	-999	11	[0, 0, 0]	n/a	catFR1	0	R1533J
1379.752	0.536	2060978	REC_WORD_VV	0.535	n/a	<>	n/a	-999	11	[0, 0, 0]	n/a	catFR1	0	R1533J
1380.288	0.64	2061514	REC_WORD	1.071	n/a	TRAIN	Vehicles	-999	11	[0, 0, 0]	n/a	catFR1	0	R1533J
1380.928	0.606	2062154	REC_WORD	1.711	n/a	CAR	Vehicles	-999	11	[0, 0, 0]	n/a	catFR1	0	R1533J
1381.534	0.422	2062760	REC_WORD	2.317	n/a	BIKE	Vehicles	11	11	[0, 0, 0]	n/a	catFR1	0	R1533J
1381.956	1.738	2063182	REC_WORD	2.739	n/a	MOTORCYCLE	Vehicles	5	11	[0, 0, 0]	n/a	catFR1	0	R1533J
1383.694	4.092	2064920	REC_WORD_VV	4.477	n/a	<>	n/a	-999	11	[0, 0, 0]	n/a	catFR1	0	R1533J
1387.786	1.003	2069012	REC_WORD	8.569	n/a	TELEVISION	Electronics	2	11	[0, 0, 0]	n/a	catFR1	0	R1533J
1388.789	5.409	2070015	REC_WORD	9.572	n/a	CAR	Vehicles	-999	11	[0, 0, 0]	n/a	catFR1	0	R1533J
1394.198	6.773	2075424	REC_WORD_VV	14.981	n/a	<>	n/a	-999	11	[0, 0, 0]	n/a	catFR1	0	R1533J
1400.971	0.353	2082196	REC_WORD_VV	21.754	n/a	<>	n/a	-999	11	[0, 0, 0]	n/a	catFR1	0	R1533J
1401.324	4.461	2082549	REC_WORD	22.107	n/a	DRYER	n/a	-999	11	[0, 0, 0]	n/a	catFR1	0	R1533J
1405.785	3.653	2087010	REC_WORD_VV	26.568	n/a	<>	n/a	-999	11	[0, 0, 0]	n/a	catFR1	0	R1533J
1409.438	2.229	2090664	REC_END	n/a	n/a	n/a	n/a	-999	11	[0, 0, 0]	n/a	catFR1	0	R1533J
1411.667	10.0	2092893	COUNTDOWN_START	n/a	n/a	n/a	n/a	-999	12	[0, 0, 0]	n/a	catFR1	0	R1533J
1422.017	0.0	2103240	COUNTDOWN_END	n/a	n/a	n/a	n/a	-999	12	[0, 0, 0]	n/a	catFR1	0	R1533J
1422.017	2.017	2103240	ENCODING_START	n/a	n/a	n/a	n/a	-999	12	[0, 0, 0]	n/a	catFR1	0	R1533J
1424.034	1.6	2105256	WORD	n/a	wordpools/wordpool_categorized_EN.txt	CHAIR	Furniture	1	12	[0, 0, 0]	n/a	catFR1	0	R1533J
1425.65	0.783	2106877	WORD_OFF	n/a	n/a	CHAIR	Furniture	1	12	[0, 0, 0]	n/a	catFR1	0	R1533J
1426.433	1.6	2107656	WORD	n/a	wordpools/wordpool_categorized_EN.txt	DESK	Furniture	2	12	[0, 0, 0]	n/a	catFR1	0	R1533J
1428.034	0.933	2109256	WORD_OFF	n/a	n/a	DESK	Furniture	2	12	[0, 0, 0]	n/a	catFR1	0	R1533J
1428.967	1.6	2110194	WORD	n/a	wordpools/wordpool_categorized_EN.txt	SLINKY	Toys	3	12	[0, 0, 0]	n/a	catFR1	0	R1533J
1430.584	0.9	2111805	WORD_OFF	n/a	n/a	SLINKY	Toys	3	12	[0, 0, 0]	n/a	catFR1	0	R1533J
1431.484	1.6	2112712	WORD	n/a	wordpools/wordpool_categorized_EN.txt	DOLL	Toys	4	12	[0, 0, 0]	n/a	catFR1	0	R1533J
1433.099	0.951	2114322	WORD_OFF	n/a	n/a	DOLL	Toys	4	12	[0, 0, 0]	n/a	catFR1	0	R1533J
1434.05	1.6	2115272	WORD	n/a	wordpools/wordpool_categorized_EN.txt	RADIO	Electronics	5	12	[0, 0, 0]	n/a	catFR1	0	R1533J
1435.651	0.95	2116872	WORD_OFF	n/a	n/a	RADIO	Electronics	5	12	[0, 0, 0]	n/a	catFR1	0	R1533J
1436.601	1.6	2117821	WORD	n/a	wordpools/wordpool_categorized_EN.txt	COMPUTER	Electronics	6	12	[0, 0, 0]	n/a	catFR1	0	R1533J
1438.216	0.768	2119442	WORD_OFF	n/a	n/a	COMPUTER	Electronics	6	12	[0, 0, 0]	n/a	catFR1	0	R1533J
1438.984	1.6	2120210	WORD	n/a	wordpools/wordpool_categorized_EN.txt	BLOCKS	Toys	7	12	[0, 0, 0]	n/a	catFR1	0	R1533J
1440.584	0.833	2121810	WORD_OFF	n/a	n/a	BLOCKS	Toys	7	12	[0, 0, 0]	n/a	catFR1	0	R1533J
1441.417	1.6	2122642	WORD	n/a	wordpools/wordpool_categorized_EN.txt	FOOTBALL	Toys	8	12	[0, 0, 0]	n/a	catFR1	0	R1533J
1443.034	0.933	2124253	WORD_OFF	n/a	n/a	FOOTBALL	Toys	8	12	[0, 0, 0]	n/a	catFR1	0	R1533J
1443.967	1.6	2125192	WORD	n/a	wordpools/wordpool_categorized_EN.txt	HEADPHONES	Electronics	9	12	[0, 0, 0]	n/a	catFR1	0	R1533J
1445.584	0.933	2126802	WORD_OFF	n/a	n/a	HEADPHONES	Electronics	9	12	[0, 0, 0]	n/a	catFR1	0	R1533J
1446.517	1.6	2127741	WORD	n/a	wordpools/wordpool_categorized_EN.txt	SPEAKER	Electronics	10	12	[0, 0, 0]	n/a	catFR1	0	R1533J
1448.133	0.951	2129352	WORD_OFF	n/a	n/a	SPEAKER	Electronics	10	12	[0, 0, 0]	n/a	catFR1	0	R1533J
1449.084	1.6	2130301	WORD	n/a	wordpools/wordpool_categorized_EN.txt	NIGHTSTAND	Furniture	11	12	[0, 0, 0]	n/a	catFR1	0	R1533J
1450.7	0.867	2131922	WORD_OFF	n/a	n/a	NIGHTSTAND	Furniture	11	12	[0, 0, 0]	n/a	catFR1	0	R1533J
1451.567	1.6	2132786	WORD	n/a	wordpools/wordpool_categorized_EN.txt	TABLE	Furniture	12	12	[0, 0, 0]	n/a	catFR1	0	R1533J
1453.183	0.001	2134405	PROB	5.015	n/a	n/a	n/a	-999	12	[5, 6, 4]	15.0	catFR1	0	R1533J
1453.184	0.0	2134406	START	n/a	n/a	n/a	n/a	-999	12	[-999, -999, -999]	n/a	catFR1	0	R1533J
1453.183	0.001	2134408	WORD_OFF	n/a	n/a	TABLE	Furniture	12	12	[0, 0, 0]	n/a	catFR1	0	R1533J
1453.184	0.0	2134408	ENCODING_END	n/a	n/a	n/a	n/a	-999	12	[0, 0, 0]	n/a	catFR1	0	R1533J
1453.184	5.032	2134408	DISTRACT_START	n/a	n/a	n/a	n/a	-999	12	[0, 0, 0]	n/a	catFR1	0	R1533J
1458.216	2.651	2139438	PROB	2.634	n/a	n/a	n/a	-999	12	[1, 1, 7]	9.0	catFR1	0	R1533J
1460.867	3.6	2142089	PROB	3.583	n/a	n/a	n/a	-999	12	[2, 8, 1]	11.0	catFR1	0	R1533J
1464.467	7.716	2145689	PROB	7.699	n/a	n/a	n/a	-999	12	[6, 8, 5]	19.0	catFR1	0	R1533J
1472.183	5.517	2153404	PROB	5.5	n/a	n/a	n/a	-999	12	[4, 6, 3]	13.0	catFR1	0	R1533J
1477.7	0.0	2158920	DISTRACT_END	n/a	n/a	n/a	n/a	-999	12	[0, 0, 0]	n/a	catFR1	0	R1533J
1477.7	1.85	2158921	STOP	n/a	n/a	n/a	n/a	-999	12	[-999, -999, -999]	n/a	catFR1	0	R1533J
1479.55	0.721	2160776	REC_START	n/a	n/a	n/a	n/a	-999	12	[0, 0, 0]	n/a	catFR1	0	R1533J
1480.271	0.837	2161492	REC_WORD_VV	0.721	n/a	<>	n/a	-999	12	[0, 0, 0]	n/a	catFR1	0	R1533J
1481.108	0.649	2162329	REC_WORD	1.558	n/a	TABLET	Electronics	-999	12	[0, 0, 0]	n/a	catFR1	0	R1533J
1481.757	0.791	2162978	REC_WORD	2.207	n/a	MICROPHONE	n/a	-999	12	[0, 0, 0]	n/a	catFR1	0	R1533J
1482.548	0.857	2163769	REC_WORD	2.998	n/a	MICROWAVE	Electronics	-999	12	[0, 0, 0]	n/a	catFR1	0	R1533J
1483.405	0.942	2164626	REC_WORD_VV	3.855	n/a	<>	n/a	-999	12	[0, 0, 0]	n/a	catFR1	0	R1533J
1484.347	1.607	2165568	REC_WORD	4.797	n/a	DESK	Furniture	2	12	[0, 0, 0]	n/a	catFR1	0	R1533J
1485.954	2.718	2167175	REC_WORD_VV	6.404	n/a	<>	n/a	-999	12	[0, 0, 0]	n/a	catFR1	0	R1533J
1488.672	2.866	2169893	REC_WORD	9.122	n/a	HEADPHONES	Electronics	9	12	[0, 0, 0]	n/a	catFR1	0	R1533J
1491.538	4.604	2172758	REC_WORD_VV	11.988	n/a	<>	n/a	-999	12	[0, 0, 0]	n/a	catFR1	0	R1533J
1496.142	4.486	2177362	REC_WORD	16.592	n/a	HEADSPEAKER	n/a	-999	12	[0, 0, 0]	n/a	catFR1	0	R1533J
1500.628	0.561	2181848	REC_WORD	21.078	n/a	MICROWAVE	Electronics	-999	12	[0, 0, 0]	n/a	catFR1	0	R1533J
1501.189	0.672	2182409	REC_WORD	21.639	n/a	TABLET	Electronics	-999	12	[0, 0, 0]	n/a	catFR1	0	R1533J
1501.861	1.321	2183081	REC_WORD	22.311	n/a	DESK	Furniture	2	12	[0, 0, 0]	n/a	catFR1	0	R1533J
1503.182	3.382	2184402	REC_WORD	23.632	n/a	DESKTOP	n/a	-999	12	[0, 0, 0]	n/a	catFR1	0	R1533J
1506.564	3.221	2187784	REC_WORD	27.014	n/a	PHONE	Electronics	-999	12	[0, 0, 0]	n/a	catFR1	0	R1533J
1509.785	0.0	2191005	REC_END	n/a	n/a	n/a	n/a	-999	12	[0, 0, 0]	n/a	catFR1	0	R1533J
