onset	duration	sample	trial_type	response_time	stim_file	item_name	category	serialpos	list	test	answer	experiment	session	subject
0.0	1.631	86314	INSTRUCT_START	n/a	n/a	n/a	n/a	-999	-999	[0, 0, 0]	n/a	catFR1	4	R1492J
1.631	34.317	87939	INSTRUCT_END	n/a	n/a	n/a	n/a	-999	-999	[0, 0, 0]	n/a	catFR1	4	R1492J
35.948	10.0	122258	COUNTDOWN_START	n/a	n/a	n/a	n/a	-999	-999	[0, 0, 0]	n/a	catFR1	4	R1492J
46.297	0.0	132611	COUNTDOWN_END	n/a	n/a	n/a	n/a	-999	-999	[0, 0, 0]	n/a	catFR1	4	R1492J
46.297	2.001	132611	ENCODING_START	n/a	n/a	n/a	n/a	-999	-1	[0, 0, 0]	n/a	catFR1	4	R1492J
48.298	1.6	134605	WORD	n/a	n/a	SHELF	Furniture	1	-1	[0, 0, 0]	n/a	catFR1	4	R1492J
49.913	0.767	136220	WORD_OFF	n/a	n/a	SHELF	Furniture	1	-1	[0, 0, 0]	n/a	catFR1	4	R1492J
50.68	1.6	136990	WORD	n/a	n/a	BOOKCASE	Furniture	2	-1	[0, 0, 0]	n/a	catFR1	4	R1492J
52.297	0.848	138605	WORD_OFF	n/a	n/a	BOOKCASE	Furniture	2	-1	[0, 0, 0]	n/a	catFR1	4	R1492J
53.145	1.6	139449	WORD	n/a	n/a	ONION	Vegetables	3	-1	[0, 0, 0]	n/a	catFR1	4	R1492J
54.746	0.9	141053	WORD_OFF	n/a	n/a	ONION	Vegetables	3	-1	[0, 0, 0]	n/a	catFR1	4	R1492J
55.646	1.6	141950	WORD	n/a	n/a	CAULIFLOWER	Vegetables	4	-1	[0, 0, 0]	n/a	catFR1	4	R1492J
57.264	1.0	143576	WORD_OFF	n/a	n/a	CAULIFLOWER	Vegetables	4	-1	[0, 0, 0]	n/a	catFR1	4	R1492J
58.264	1.6	144568	WORD	n/a	n/a	COFFEE	Beverages	5	-1	[0, 0, 0]	n/a	catFR1	4	R1492J
59.88	0.983	146182	WORD_OFF	n/a	n/a	COFFEE	Beverages	5	-1	[0, 0, 0]	n/a	catFR1	4	R1492J
60.863	1.6	147174	WORD	n/a	n/a	BEER	Beverages	6	-1	[0, 0, 0]	n/a	catFR1	4	R1492J
62.48	0.833	148789	WORD_OFF	n/a	n/a	BEER	Beverages	6	-1	[0, 0, 0]	n/a	catFR1	4	R1492J
63.313	1.6	149623	WORD	n/a	n/a	TABLE	Furniture	7	-1	[0, 0, 0]	n/a	catFR1	4	R1492J
64.93	0.833	151237	WORD_OFF	n/a	n/a	TABLE	Furniture	7	-1	[0, 0, 0]	n/a	catFR1	4	R1492J
65.763	1.6	152071	WORD	n/a	n/a	NIGHTSTAND	Furniture	8	-1	[0, 0, 0]	n/a	catFR1	4	R1492J
67.382	0.864	153686	WORD_OFF	n/a	n/a	NIGHTSTAND	Furniture	8	-1	[0, 0, 0]	n/a	catFR1	4	R1492J
68.246	1.6	154551	WORD	n/a	n/a	SPINACH	Vegetables	9	-1	[0, 0, 0]	n/a	catFR1	4	R1492J
69.863	0.95	156166	WORD_OFF	n/a	n/a	SPINACH	Vegetables	9	-1	[0, 0, 0]	n/a	catFR1	4	R1492J
70.813	1.6	157115	WORD	n/a	n/a	POTATO	Vegetables	10	-1	[0, 0, 0]	n/a	catFR1	4	R1492J
72.43	0.799	158741	WORD_OFF	n/a	n/a	POTATO	Vegetables	10	-1	[0, 0, 0]	n/a	catFR1	4	R1492J
73.229	1.6	159532	WORD	n/a	n/a	MILK	Beverages	11	-1	[0, 0, 0]	n/a	catFR1	4	R1492J
74.847	0.815	161157	WORD_OFF	n/a	n/a	MILK	Beverages	11	-1	[0, 0, 0]	n/a	catFR1	4	R1492J
75.662	1.6	161970	WORD	n/a	n/a	RUM	Beverages	12	-1	[0, 0, 0]	n/a	catFR1	4	R1492J
77.279	0.001	163584	WORD_OFF	n/a	n/a	RUM	Beverages	12	-1	[0, 0, 0]	n/a	catFR1	4	R1492J
77.28	0.0	163584	ENCODING_END	n/a	n/a	n/a	n/a	-999	-1	[0, 0, 0]	n/a	catFR1	4	R1492J
77.28	0.001	163585	START	n/a	n/a	n/a	n/a	-999	-1	[-999, -999, -999]	n/a	catFR1	4	R1492J
77.281	0.0	163586	PROB	3.933	n/a	n/a	n/a	-999	-1	[6, 5, 7]	18.0	catFR1	4	R1492J
77.28	3.951	163595	DISTRACT_START	n/a	n/a	n/a	n/a	-999	-1	[0, 0, 0]	n/a	catFR1	4	R1492J
81.231	3.8	167536	PROB	3.784	n/a	n/a	n/a	-999	-1	[4, 6, 8]	18.0	catFR1	4	R1492J
85.031	3.584	171336	PROB	3.565	n/a	n/a	n/a	-999	-1	[3, 8, 8]	19.0	catFR1	4	R1492J
88.615	3.015	174920	PROB	2.999	n/a	n/a	n/a	-999	-1	[7, 6, 4]	17.0	catFR1	4	R1492J
91.63	2.985	177935	PROB	2.965	n/a	n/a	n/a	-999	-1	[7, 5, 6]	18.0	catFR1	4	R1492J
94.615	5.881	180919	PROB	5.865	n/a	n/a	n/a	-999	-1	[8, 8, 6]	22.0	catFR1	4	R1492J
100.496	0.0	186800	STOP	n/a	n/a	n/a	n/a	-999	-1	[-999, -999, -999]	n/a	catFR1	4	R1492J
100.496	2.352	186801	DISTRACT_END	n/a	n/a	n/a	n/a	-999	-1	[0, 0, 0]	n/a	catFR1	4	R1492J
102.848	0.79	189152	REC_START	n/a	n/a	n/a	n/a	-999	-1	[0, 0, 0]	n/a	catFR1	4	R1492J
103.638	0.36	189942	REC_WORD	0.79	n/a	MILK	Beverages	11	-1	[0, 0, 0]	n/a	catFR1	4	R1492J
103.998	2.254	190302	REC_WORD	1.15	n/a	SPINACH	Vegetables	9	-1	[0, 0, 0]	n/a	catFR1	4	R1492J
106.252	26.785	192556	REC_WORD	3.404	n/a	BOOKCASE	Furniture	2	-1	[0, 0, 0]	n/a	catFR1	4	R1492J
133.037	21.344	219337	REC_END	n/a	n/a	n/a	n/a	-999	-1	[0, 0, 0]	n/a	catFR1	4	R1492J
154.381	10.0	240686	COUNTDOWN_START	n/a	n/a	n/a	n/a	-999	1	[0, 0, 0]	n/a	catFR1	4	R1492J
164.729	0.0	251028	COUNTDOWN_END	n/a	n/a	n/a	n/a	-999	1	[0, 0, 0]	n/a	catFR1	4	R1492J
164.729	2.101	251039	ENCODING_START	n/a	n/a	n/a	n/a	-999	1	[0, 0, 0]	n/a	catFR1	4	R1492J
166.83	1.6	253128	WORD	n/a	wordpools/wordpool_categorized_EN.txt	ROACH	Insects	1	1	[0, 0, 0]	n/a	catFR1	4	R1492J
168.431	0.816	254732	WORD_OFF	n/a	n/a	ROACH	Insects	1	1	[0, 0, 0]	n/a	catFR1	4	R1492J
169.247	1.6	255545	WORD	n/a	wordpools/wordpool_categorized_EN.txt	BUTTERFLY	Insects	2	1	[0, 0, 0]	n/a	catFR1	4	R1492J
170.848	0.948	257149	WORD_OFF	n/a	n/a	BUTTERFLY	Insects	2	1	[0, 0, 0]	n/a	catFR1	4	R1492J
171.796	1.6	258099	WORD	n/a	wordpools/wordpool_categorized_EN.txt	CELERY	Vegetables	3	1	[0, 0, 0]	n/a	catFR1	4	R1492J
173.396	0.918	259703	WORD_OFF	n/a	n/a	CELERY	Vegetables	3	1	[0, 0, 0]	n/a	catFR1	4	R1492J
174.314	1.6	260621	WORD	n/a	wordpools/wordpool_categorized_EN.txt	CARROT	Vegetables	4	1	[0, 0, 0]	n/a	catFR1	4	R1492J
175.929	0.834	262236	WORD_OFF	n/a	n/a	CARROT	Vegetables	4	1	[0, 0, 0]	n/a	catFR1	4	R1492J
176.763	1.6	263069	WORD	n/a	wordpools/wordpool_categorized_EN.txt	BUS	Vehicles	5	1	[0, 0, 0]	n/a	catFR1	4	R1492J
178.363	0.967	264663	WORD_OFF	n/a	n/a	BUS	Vehicles	5	1	[0, 0, 0]	n/a	catFR1	4	R1492J
179.33	1.6	265634	WORD	n/a	wordpools/wordpool_categorized_EN.txt	JEEP	Vehicles	6	1	[0, 0, 0]	n/a	catFR1	4	R1492J
180.946	0.85	267248	WORD_OFF	n/a	n/a	JEEP	Vehicles	6	1	[0, 0, 0]	n/a	catFR1	4	R1492J
181.796	1.6	268103	WORD	n/a	wordpools/wordpool_categorized_EN.txt	GNAT	Insects	7	1	[0, 0, 0]	n/a	catFR1	4	R1492J
183.396	0.932	269697	WORD_OFF	n/a	n/a	GNAT	Insects	7	1	[0, 0, 0]	n/a	catFR1	4	R1492J
184.328	1.6	270636	WORD	n/a	wordpools/wordpool_categorized_EN.txt	LADYBUG	Insects	8	1	[0, 0, 0]	n/a	catFR1	4	R1492J
185.929	0.885	272229	WORD_OFF	n/a	n/a	LADYBUG	Insects	8	1	[0, 0, 0]	n/a	catFR1	4	R1492J
186.814	1.6	273116	WORD	n/a	wordpools/wordpool_categorized_EN.txt	PLANE	Vehicles	9	1	[0, 0, 0]	n/a	catFR1	4	R1492J
188.429	0.901	274731	WORD_OFF	n/a	n/a	PLANE	Vehicles	9	1	[0, 0, 0]	n/a	catFR1	4	R1492J
189.33	1.6	275628	WORD	n/a	wordpools/wordpool_categorized_EN.txt	BIKE	Vehicles	10	1	[0, 0, 0]	n/a	catFR1	4	R1492J
190.931	0.85	277232	WORD_OFF	n/a	n/a	BIKE	Vehicles	10	1	[0, 0, 0]	n/a	catFR1	4	R1492J
191.781	1.6	278086	WORD	n/a	wordpools/wordpool_categorized_EN.txt	CABBAGE	Vegetables	11	1	[0, 0, 0]	n/a	catFR1	4	R1492J
193.381	0.782	279680	WORD_OFF	n/a	n/a	CABBAGE	Vegetables	11	1	[0, 0, 0]	n/a	catFR1	4	R1492J
194.163	1.6	280461	WORD	n/a	wordpools/wordpool_categorized_EN.txt	PEAS	Vegetables	12	1	[0, 0, 0]	n/a	catFR1	4	R1492J
195.781	0.001	282081	PROB	2.966	n/a	n/a	n/a	-999	1	[1, 5, 6]	12.0	catFR1	4	R1492J
195.782	0.0	282082	START	n/a	n/a	n/a	n/a	-999	1	[-999, -999, -999]	n/a	catFR1	4	R1492J
195.781	0.001	282086	WORD_OFF	n/a	n/a	PEAS	Vegetables	12	1	[0, 0, 0]	n/a	catFR1	4	R1492J
195.782	0.0	282086	ENCODING_END	n/a	n/a	n/a	n/a	-999	1	[0, 0, 0]	n/a	catFR1	4	R1492J
195.782	2.982	282086	DISTRACT_START	n/a	n/a	n/a	n/a	-999	1	[0, 0, 0]	n/a	catFR1	4	R1492J
198.764	2.583	285064	PROB	2.566	n/a	n/a	n/a	-999	1	[3, 4, 1]	8.0	catFR1	4	R1492J
201.347	2.15	287647	PROB	2.132	n/a	n/a	n/a	-999	1	[6, 5, 1]	12.0	catFR1	4	R1492J
203.497	2.9	289797	PROB	2.882	n/a	n/a	n/a	-999	1	[7, 3, 8]	18.0	catFR1	4	R1492J
206.397	2.634	292697	PROB	2.617	n/a	n/a	n/a	-999	1	[1, 1, 6]	8.0	catFR1	4	R1492J
209.031	1.833	295331	PROB	1.817	n/a	n/a	n/a	-999	1	[1, 4, 4]	9.0	catFR1	4	R1492J
210.864	1.817	297164	PROB	1.799	n/a	n/a	n/a	-999	1	[5, 1, 1]	7.0	catFR1	4	R1492J
212.681	3.016	298981	PROB	2.999	n/a	n/a	n/a	-999	1	[5, 4, 1]	10.0	catFR1	4	R1492J
215.697	2.584	301996	PROB	2.567	n/a	n/a	n/a	-999	1	[3, 8, 8]	19.0	catFR1	4	R1492J
218.281	0.0	304580	STOP	n/a	n/a	n/a	n/a	-999	1	[-999, -999, -999]	n/a	catFR1	4	R1492J
218.281	2.167	304586	DISTRACT_END	n/a	n/a	n/a	n/a	-999	1	[0, 0, 0]	n/a	catFR1	4	R1492J
220.448	0.577	306746	REC_START	n/a	n/a	n/a	n/a	-999	1	[0, 0, 0]	n/a	catFR1	4	R1492J
221.025	0.981	307324	REC_WORD	0.577	n/a	BIKE	Vehicles	10	1	[0, 0, 0]	n/a	catFR1	4	R1492J
222.006	9.43	308305	REC_WORD	1.558	n/a	BUTTERFLY	Insects	2	1	[0, 0, 0]	n/a	catFR1	4	R1492J
231.436	7.94	317735	REC_WORD	10.988	n/a	LADYBUG	Insects	8	1	[0, 0, 0]	n/a	catFR1	4	R1492J
239.376	6.356	325675	REC_WORD	18.928	n/a	CABBAGE	Vegetables	11	1	[0, 0, 0]	n/a	catFR1	4	R1492J
245.732	4.907	332030	REC_WORD	25.284	n/a	FLY	n/a	-999	1	[0, 0, 0]	n/a	catFR1	4	R1492J
250.639	2.959	336942	REC_END	n/a	n/a	n/a	n/a	-999	1	[0, 0, 0]	n/a	catFR1	4	R1492J
253.598	10.0	339896	COUNTDOWN_START	n/a	n/a	n/a	n/a	-999	2	[0, 0, 0]	n/a	catFR1	4	R1492J
263.948	0.0	350249	COUNTDOWN_END	n/a	n/a	n/a	n/a	-999	2	[0, 0, 0]	n/a	catFR1	4	R1492J
263.948	2.382	350249	ENCODING_START	n/a	n/a	n/a	n/a	-999	2	[0, 0, 0]	n/a	catFR1	4	R1492J
266.33	1.6	352634	WORD	n/a	wordpools/wordpool_categorized_EN.txt	PLUM	Fruit	1	2	[0, 0, 0]	n/a	catFR1	4	R1492J
267.948	0.766	354249	WORD_OFF	n/a	n/a	PLUM	Fruit	1	2	[0, 0, 0]	n/a	catFR1	4	R1492J
268.714	1.6	355009	WORD	n/a	wordpools/wordpool_categorized_EN.txt	ORANGE	Fruit	2	2	[0, 0, 0]	n/a	catFR1	4	R1492J
270.329	0.902	356623	WORD_OFF	n/a	n/a	ORANGE	Fruit	2	2	[0, 0, 0]	n/a	catFR1	4	R1492J
271.231	1.6	357531	WORD	n/a	wordpools/wordpool_categorized_EN.txt	PIG	FarmAnimals	3	2	[0, 0, 0]	n/a	catFR1	4	R1492J
272.848	0.965	359146	WORD_OFF	n/a	n/a	PIG	FarmAnimals	3	2	[0, 0, 0]	n/a	catFR1	4	R1492J
273.813	1.6	360116	WORD	n/a	wordpools/wordpool_categorized_EN.txt	ROOSTER	FarmAnimals	4	2	[0, 0, 0]	n/a	catFR1	4	R1492J
275.414	0.767	361710	WORD_OFF	n/a	n/a	ROOSTER	FarmAnimals	4	2	[0, 0, 0]	n/a	catFR1	4	R1492J
276.181	1.6	362480	WORD	n/a	wordpools/wordpool_categorized_EN.txt	CUCUMBER	Vegetables	5	2	[0, 0, 0]	n/a	catFR1	4	R1492J
277.797	0.916	364095	WORD_OFF	n/a	n/a	CUCUMBER	Vegetables	5	2	[0, 0, 0]	n/a	catFR1	4	R1492J
278.713	1.6	365013	WORD	n/a	wordpools/wordpool_categorized_EN.txt	BROCCOLI	Vegetables	6	2	[0, 0, 0]	n/a	catFR1	4	R1492J
280.314	1.0	366617	WORD_OFF	n/a	n/a	BROCCOLI	Vegetables	6	2	[0, 0, 0]	n/a	catFR1	4	R1492J
281.314	1.6	367609	WORD	n/a	wordpools/wordpool_categorized_EN.txt	GOAT	FarmAnimals	7	2	[0, 0, 0]	n/a	catFR1	4	R1492J
282.929	0.767	369224	WORD_OFF	n/a	n/a	GOAT	FarmAnimals	7	2	[0, 0, 0]	n/a	catFR1	4	R1492J
283.696	1.6	369994	WORD	n/a	wordpools/wordpool_categorized_EN.txt	CALF	FarmAnimals	8	2	[0, 0, 0]	n/a	catFR1	4	R1492J
285.296	0.851	371598	WORD_OFF	n/a	n/a	CALF	FarmAnimals	8	2	[0, 0, 0]	n/a	catFR1	4	R1492J
286.147	1.6	372442	WORD	n/a	wordpools/wordpool_categorized_EN.txt	APPLE	Fruit	9	2	[0, 0, 0]	n/a	catFR1	4	R1492J
287.747	0.782	374047	WORD_OFF	n/a	n/a	APPLE	Fruit	9	2	[0, 0, 0]	n/a	catFR1	4	R1492J
288.529	1.6	374828	WORD	n/a	wordpools/wordpool_categorized_EN.txt	LIME	Fruit	10	2	[0, 0, 0]	n/a	catFR1	4	R1492J
290.13	0.951	376432	WORD_OFF	n/a	n/a	LIME	Fruit	10	2	[0, 0, 0]	n/a	catFR1	4	R1492J
291.081	1.6	377381	WORD	n/a	wordpools/wordpool_categorized_EN.txt	LETTUCE	Vegetables	11	2	[0, 0, 0]	n/a	catFR1	4	R1492J
292.681	0.949	378985	WORD_OFF	n/a	n/a	LETTUCE	Vegetables	11	2	[0, 0, 0]	n/a	catFR1	4	R1492J
293.63	1.6	379925	WORD	n/a	wordpools/wordpool_categorized_EN.txt	CORN	Vegetables	12	2	[0, 0, 0]	n/a	catFR1	4	R1492J
295.248	0.001	381544	PROB	3.749	n/a	n/a	n/a	-999	2	[7, 7, 1]	15.0	catFR1	4	R1492J
295.249	0.0	381545	START	n/a	n/a	n/a	n/a	-999	2	[-999, -999, -999]	n/a	catFR1	4	R1492J
295.247	0.002	381550	WORD_OFF	n/a	n/a	CORN	Vegetables	12	2	[0, 0, 0]	n/a	catFR1	4	R1492J
295.249	0.0	381550	ENCODING_END	n/a	n/a	n/a	n/a	-999	2	[0, 0, 0]	n/a	catFR1	4	R1492J
295.249	3.764	381550	DISTRACT_START	n/a	n/a	n/a	n/a	-999	2	[0, 0, 0]	n/a	catFR1	4	R1492J
299.013	2.169	385309	PROB	2.15	n/a	n/a	n/a	-999	2	[8, 1, 2]	11.0	catFR1	4	R1492J
301.182	3.615	387478	PROB	3.599	n/a	n/a	n/a	-999	2	[2, 6, 1]	9.0	catFR1	4	R1492J
304.797	4.751	391093	PROB	4.732	n/a	n/a	n/a	-999	2	[7, 8, 8]	23.0	catFR1	4	R1492J
309.548	2.849	395844	PROB	2.833	n/a	n/a	n/a	-999	2	[8, 8, 4]	20.0	catFR1	4	R1492J
312.397	2.951	398692	PROB	2.933	n/a	n/a	n/a	-999	2	[5, 7, 2]	14.0	catFR1	4	R1492J
315.348	0.0	401643	DISTRACT_END	n/a	n/a	n/a	n/a	-999	2	[0, 0, 0]	n/a	catFR1	4	R1492J
315.348	2.382	401643	STOP	n/a	n/a	n/a	n/a	-999	2	[-999, -999, -999]	n/a	catFR1	4	R1492J
317.73	0.295	404026	REC_START	n/a	n/a	n/a	n/a	-999	2	[0, 0, 0]	n/a	catFR1	4	R1492J
318.025	1.574	404320	REC_WORD	0.295	n/a	LIME	Fruit	10	2	[0, 0, 0]	n/a	catFR1	4	R1492J
319.599	3.877	405894	REC_WORD	1.869	n/a	ORANGE	Fruit	2	2	[0, 0, 0]	n/a	catFR1	4	R1492J
323.476	3.851	409771	REC_WORD	5.746	n/a	PLUM	Fruit	1	2	[0, 0, 0]	n/a	catFR1	4	R1492J
327.327	16.43	413622	REC_WORD	9.597	n/a	APPLE	Fruit	9	2	[0, 0, 0]	n/a	catFR1	4	R1492J
343.757	4.167	430051	REC_WORD	26.027	n/a	ROOSTER	FarmAnimals	4	2	[0, 0, 0]	n/a	catFR1	4	R1492J
347.924	4.707	434221	REC_END	n/a	n/a	n/a	n/a	-999	2	[0, 0, 0]	n/a	catFR1	4	R1492J
352.631	10.0	438928	COUNTDOWN_START	n/a	n/a	n/a	n/a	-999	3	[0, 0, 0]	n/a	catFR1	4	R1492J
362.981	0.0	449280	COUNTDOWN_END	n/a	n/a	n/a	n/a	-999	3	[0, 0, 0]	n/a	catFR1	4	R1492J
362.981	2.116	449280	ENCODING_START	n/a	n/a	n/a	n/a	-999	3	[0, 0, 0]	n/a	catFR1	4	R1492J
365.097	1.6	451391	WORD	n/a	wordpools/wordpool_categorized_EN.txt	DISHWASHER	Appliances	1	3	[0, 0, 0]	n/a	catFR1	4	R1492J
366.713	0.935	453006	WORD_OFF	n/a	n/a	DISHWASHER	Appliances	1	3	[0, 0, 0]	n/a	catFR1	4	R1492J
367.648	1.6	453945	WORD	n/a	wordpools/wordpool_categorized_EN.txt	DRYER	Appliances	2	3	[0, 0, 0]	n/a	catFR1	4	R1492J
369.263	0.767	455559	WORD_OFF	n/a	n/a	DRYER	Appliances	2	3	[0, 0, 0]	n/a	catFR1	4	R1492J
370.03	1.6	456319	WORD	n/a	wordpools/wordpool_categorized_EN.txt	LEMONADE	Beverages	3	3	[0, 0, 0]	n/a	catFR1	4	R1492J
371.646	0.768	457944	WORD_OFF	n/a	n/a	LEMONADE	Beverages	3	3	[0, 0, 0]	n/a	catFR1	4	R1492J
372.414	1.6	458704	WORD	n/a	wordpools/wordpool_categorized_EN.txt	WATER	Beverages	4	3	[0, 0, 0]	n/a	catFR1	4	R1492J
374.028	0.786	460319	WORD_OFF	n/a	n/a	WATER	Beverages	4	3	[0, 0, 0]	n/a	catFR1	4	R1492J
374.814	1.6	461110	WORD	n/a	wordpools/wordpool_categorized_EN.txt	RIVER	Landscapes	5	3	[0, 0, 0]	n/a	catFR1	4	R1492J
376.414	0.949	462704	WORD_OFF	n/a	n/a	RIVER	Landscapes	5	3	[0, 0, 0]	n/a	catFR1	4	R1492J
377.363	1.6	463654	WORD	n/a	wordpools/wordpool_categorized_EN.txt	STREAM	Landscapes	6	3	[0, 0, 0]	n/a	catFR1	4	R1492J
378.963	0.816	465258	WORD_OFF	n/a	n/a	STREAM	Landscapes	6	3	[0, 0, 0]	n/a	catFR1	4	R1492J
379.779	1.6	466070	WORD	n/a	wordpools/wordpool_categorized_EN.txt	VACUUM	Appliances	7	3	[0, 0, 0]	n/a	catFR1	4	R1492J
381.381	0.849	467674	WORD_OFF	n/a	n/a	VACUUM	Appliances	7	3	[0, 0, 0]	n/a	catFR1	4	R1492J
382.23	1.6	468519	WORD	n/a	wordpools/wordpool_categorized_EN.txt	WASHER	Appliances	8	3	[0, 0, 0]	n/a	catFR1	4	R1492J
383.83	0.866	470123	WORD_OFF	n/a	n/a	WASHER	Appliances	8	3	[0, 0, 0]	n/a	catFR1	4	R1492J
384.696	1.6	470988	WORD	n/a	wordpools/wordpool_categorized_EN.txt	SODA	Beverages	9	3	[0, 0, 0]	n/a	catFR1	4	R1492J
386.296	0.801	472592	WORD_OFF	n/a	n/a	SODA	Beverages	9	3	[0, 0, 0]	n/a	catFR1	4	R1492J
387.097	1.6	473394	WORD	n/a	wordpools/wordpool_categorized_EN.txt	COLA	Beverages	10	3	[0, 0, 0]	n/a	catFR1	4	R1492J
388.714	0.816	475009	WORD_OFF	n/a	n/a	COLA	Beverages	10	3	[0, 0, 0]	n/a	catFR1	4	R1492J
389.53	1.6	475822	WORD	n/a	wordpools/wordpool_categorized_EN.txt	ISLAND	Landscapes	11	3	[0, 0, 0]	n/a	catFR1	4	R1492J
391.147	0.8	477436	WORD_OFF	n/a	n/a	ISLAND	Landscapes	11	3	[0, 0, 0]	n/a	catFR1	4	R1492J
391.947	1.6	478238	WORD	n/a	wordpools/wordpool_categorized_EN.txt	OCEAN	Landscapes	12	3	[0, 0, 0]	n/a	catFR1	4	R1492J
393.547	0.002	479839	PROB	4.116	n/a	n/a	n/a	-999	3	[8, 6, 1]	15.0	catFR1	4	R1492J
393.549	0.0	479841	START	n/a	n/a	n/a	n/a	-999	3	[-999, -999, -999]	n/a	catFR1	4	R1492J
393.548	0.001	479842	WORD_OFF	n/a	n/a	OCEAN	Landscapes	12	3	[0, 0, 0]	n/a	catFR1	4	R1492J
393.549	0.0	479842	ENCODING_END	n/a	n/a	n/a	n/a	-999	3	[0, 0, 0]	n/a	catFR1	4	R1492J
393.549	4.133	479842	DISTRACT_START	n/a	n/a	n/a	n/a	-999	3	[0, 0, 0]	n/a	catFR1	4	R1492J
397.682	2.249	483974	PROB	2.232	n/a	n/a	n/a	-999	3	[2, 2, 8]	12.0	catFR1	4	R1492J
399.931	3.217	486223	PROB	3.198	n/a	n/a	n/a	-999	3	[3, 2, 4]	9.0	catFR1	4	R1492J
403.148	2.899	489440	PROB	2.881	n/a	n/a	n/a	-999	3	[8, 3, 3]	14.0	catFR1	4	R1492J
406.047	4.502	492339	PROB	4.482	n/a	n/a	n/a	-999	3	[2, 4, 8]	14.0	catFR1	4	R1492J
410.549	2.365	496840	PROB	2.348	n/a	n/a	n/a	-999	3	[1, 2, 6]	9.0	catFR1	4	R1492J
412.914	2.167	499205	PROB	2.149	n/a	n/a	n/a	-999	3	[2, 5, 1]	8.0	catFR1	4	R1492J
415.081	0.0	501371	DISTRACT_END	n/a	n/a	n/a	n/a	-999	3	[0, 0, 0]	n/a	catFR1	4	R1492J
415.081	2.033	501372	STOP	n/a	n/a	n/a	n/a	-999	3	[-999, -999, -999]	n/a	catFR1	4	R1492J
417.114	6.355	503405	REC_START	n/a	n/a	n/a	n/a	-999	3	[0, 0, 0]	n/a	catFR1	4	R1492J
423.469	14.719	509760	REC_WORD	6.355	n/a	LEMONADE	Beverages	3	3	[0, 0, 0]	n/a	catFR1	4	R1492J
438.188	0.612	524478	REC_WORD	21.074	n/a	WASHER	Appliances	8	3	[0, 0, 0]	n/a	catFR1	4	R1492J
438.8	3.604	525090	REC_WORD	21.686	n/a	DRYER	Appliances	2	3	[0, 0, 0]	n/a	catFR1	4	R1492J
442.404	4.918	528694	REC_WORD	25.29	n/a	DISHWASHER	Appliances	1	3	[0, 0, 0]	n/a	catFR1	4	R1492J
447.322	16.724	533611	REC_END	n/a	n/a	n/a	n/a	-999	3	[0, 0, 0]	n/a	catFR1	4	R1492J
464.046	10.0	550338	COUNTDOWN_START	n/a	n/a	n/a	n/a	-999	4	[0, 0, 0]	n/a	catFR1	4	R1492J
474.398	0.0	560690	COUNTDOWN_END	n/a	n/a	n/a	n/a	-999	4	[0, 0, 0]	n/a	catFR1	4	R1492J
474.398	2.333	560690	ENCODING_START	n/a	n/a	n/a	n/a	-999	4	[0, 0, 0]	n/a	catFR1	4	R1492J
476.731	1.6	563022	WORD	n/a	wordpools/wordpool_categorized_EN.txt	DAISY	Flowers	1	4	[0, 0, 0]	n/a	catFR1	4	R1492J
478.331	0.916	564616	WORD_OFF	n/a	n/a	DAISY	Flowers	1	4	[0, 0, 0]	n/a	catFR1	4	R1492J
479.247	1.6	565534	WORD	n/a	wordpools/wordpool_categorized_EN.txt	PETUNIA	Flowers	2	4	[0, 0, 0]	n/a	catFR1	4	R1492J
480.864	0.948	567159	WORD_OFF	n/a	n/a	PETUNIA	Flowers	2	4	[0, 0, 0]	n/a	catFR1	4	R1492J
481.812	1.6	568099	WORD	n/a	wordpools/wordpool_categorized_EN.txt	HICKORY	Trees	3	4	[0, 0, 0]	n/a	catFR1	4	R1492J
483.413	0.967	569703	WORD_OFF	n/a	n/a	HICKORY	Trees	3	4	[0, 0, 0]	n/a	catFR1	4	R1492J
484.38	1.6	570674	WORD	n/a	wordpools/wordpool_categorized_EN.txt	EVERGREEN	Trees	4	4	[0, 0, 0]	n/a	catFR1	4	R1492J
485.998	0.833	572288	WORD_OFF	n/a	n/a	EVERGREEN	Trees	4	4	[0, 0, 0]	n/a	catFR1	4	R1492J
486.831	1.6	573122	WORD	n/a	wordpools/wordpool_categorized_EN.txt	CORKSCREW	KitchenTools	5	4	[0, 0, 0]	n/a	catFR1	4	R1492J
488.431	0.85	574726	WORD_OFF	n/a	n/a	CORKSCREW	KitchenTools	5	4	[0, 0, 0]	n/a	catFR1	4	R1492J
489.281	1.6	575570	WORD	n/a	wordpools/wordpool_categorized_EN.txt	PEELER	KitchenTools	6	4	[0, 0, 0]	n/a	catFR1	4	R1492J
490.898	0.8	577185	WORD_OFF	n/a	n/a	PEELER	KitchenTools	6	4	[0, 0, 0]	n/a	catFR1	4	R1492J
491.698	1.6	577987	WORD	n/a	wordpools/wordpool_categorized_EN.txt	BIRCH	Trees	7	4	[0, 0, 0]	n/a	catFR1	4	R1492J
493.313	0.8	579602	WORD_OFF	n/a	n/a	BIRCH	Trees	7	4	[0, 0, 0]	n/a	catFR1	4	R1492J
494.113	1.6	580404	WORD	n/a	wordpools/wordpool_categorized_EN.txt	WALNUT	Trees	8	4	[0, 0, 0]	n/a	catFR1	4	R1492J
495.713	0.818	581997	WORD_OFF	n/a	n/a	WALNUT	Trees	8	4	[0, 0, 0]	n/a	catFR1	4	R1492J
496.531	1.6	582820	WORD	n/a	wordpools/wordpool_categorized_EN.txt	VIOLET	Flowers	9	4	[0, 0, 0]	n/a	catFR1	4	R1492J
498.145	0.983	584435	WORD_OFF	n/a	n/a	VIOLET	Flowers	9	4	[0, 0, 0]	n/a	catFR1	4	R1492J
499.128	1.6	585416	WORD	n/a	wordpools/wordpool_categorized_EN.txt	ROSE	Flowers	10	4	[0, 0, 0]	n/a	catFR1	4	R1492J
500.73	0.834	587020	WORD_OFF	n/a	n/a	ROSE	Flowers	10	4	[0, 0, 0]	n/a	catFR1	4	R1492J
501.564	1.6	587854	WORD	n/a	wordpools/wordpool_categorized_EN.txt	COLANDER	KitchenTools	11	4	[0, 0, 0]	n/a	catFR1	4	R1492J
503.164	0.881	589458	WORD_OFF	n/a	n/a	COLANDER	KitchenTools	11	4	[0, 0, 0]	n/a	catFR1	4	R1492J
504.045	1.6	590334	WORD	n/a	wordpools/wordpool_categorized_EN.txt	FORK	KitchenTools	12	4	[0, 0, 0]	n/a	catFR1	4	R1492J
505.647	0.001	591934	PROB	4.333	n/a	n/a	n/a	-999	4	[1, 5, 7]	13.0	catFR1	4	R1492J
505.648	0.0	591935	START	n/a	n/a	n/a	n/a	-999	4	[-999, -999, -999]	n/a	catFR1	4	R1492J
505.646	0.002	591938	WORD_OFF	n/a	n/a	FORK	KitchenTools	12	4	[0, 0, 0]	n/a	catFR1	4	R1492J
505.648	0.0	591938	ENCODING_END	n/a	n/a	n/a	n/a	-999	4	[0, 0, 0]	n/a	catFR1	4	R1492J
505.648	4.351	591938	DISTRACT_START	n/a	n/a	n/a	n/a	-999	4	[0, 0, 0]	n/a	catFR1	4	R1492J
509.999	3.714	596286	PROB	3.699	n/a	n/a	n/a	-999	4	[1, 8, 4]	13.0	catFR1	4	R1492J
513.713	3.251	600000	PROB	3.233	n/a	n/a	n/a	-999	4	[1, 8, 6]	15.0	catFR1	4	R1492J
516.964	3.034	603251	PROB	3.016	n/a	n/a	n/a	-999	4	[3, 7, 5]	15.0	catFR1	4	R1492J
519.998	3.183	606285	PROB	3.166	n/a	n/a	n/a	-999	4	[8, 2, 5]	15.0	catFR1	4	R1492J
523.181	3.665	609468	PROB	3.65	n/a	n/a	n/a	-999	4	[4, 8, 4]	16.0	catFR1	4	R1492J
526.846	0.0	613133	STOP	n/a	n/a	n/a	n/a	-999	4	[-999, -999, -999]	n/a	catFR1	4	R1492J
526.846	2.099	613140	DISTRACT_END	n/a	n/a	n/a	n/a	-999	4	[0, 0, 0]	n/a	catFR1	4	R1492J
528.945	1.221	615237	REC_START	n/a	n/a	n/a	n/a	-999	4	[0, 0, 0]	n/a	catFR1	4	R1492J
530.166	3.224	616453	REC_WORD	1.221	n/a	CORKSCREW	KitchenTools	5	4	[0, 0, 0]	n/a	catFR1	4	R1492J
533.39	25.785	619676	REC_WORD	4.445	n/a	ROSE	Flowers	10	4	[0, 0, 0]	n/a	catFR1	4	R1492J
559.175	3.206	645464	REC_END	n/a	n/a	n/a	n/a	-999	4	[0, 0, 0]	n/a	catFR1	4	R1492J
562.381	10.0	648672	COUNTDOWN_START	n/a	n/a	n/a	n/a	-999	5	[0, 0, 0]	n/a	catFR1	4	R1492J
572.73	0.0	659014	COUNTDOWN_END	n/a	n/a	n/a	n/a	-999	5	[0, 0, 0]	n/a	catFR1	4	R1492J
572.73	2.134	659014	ENCODING_START	n/a	n/a	n/a	n/a	-999	5	[0, 0, 0]	n/a	catFR1	4	R1492J
574.864	1.6	661146	WORD	n/a	wordpools/wordpool_categorized_EN.txt	FINGERS	BodyParts	1	5	[0, 0, 0]	n/a	catFR1	4	R1492J
576.481	0.933	662771	WORD_OFF	n/a	n/a	FINGERS	BodyParts	1	5	[0, 0, 0]	n/a	catFR1	4	R1492J
577.414	1.6	663700	WORD	n/a	wordpools/wordpool_categorized_EN.txt	EAR	BodyParts	2	5	[0, 0, 0]	n/a	catFR1	4	R1492J
579.03	0.818	665314	WORD_OFF	n/a	n/a	EAR	BodyParts	2	5	[0, 0, 0]	n/a	catFR1	4	R1492J
579.848	1.6	666138	WORD	n/a	wordpools/wordpool_categorized_EN.txt	DESK	Furniture	3	5	[0, 0, 0]	n/a	catFR1	4	R1492J
581.462	1.002	667752	WORD_OFF	n/a	n/a	DESK	Furniture	3	5	[0, 0, 0]	n/a	catFR1	4	R1492J
582.464	1.6	668744	WORD	n/a	wordpools/wordpool_categorized_EN.txt	CABINET	Furniture	4	5	[0, 0, 0]	n/a	catFR1	4	R1492J
584.081	0.882	670369	WORD_OFF	n/a	n/a	CABINET	Furniture	4	5	[0, 0, 0]	n/a	catFR1	4	R1492J
584.963	1.6	671245	WORD	n/a	wordpools/wordpool_categorized_EN.txt	LOBSTER	OceanAnimals	5	5	[0, 0, 0]	n/a	catFR1	4	R1492J
586.563	0.984	672849	WORD_OFF	n/a	n/a	LOBSTER	OceanAnimals	5	5	[0, 0, 0]	n/a	catFR1	4	R1492J
587.547	1.6	673831	WORD	n/a	wordpools/wordpool_categorized_EN.txt	PLANKTON	OceanAnimals	6	5	[0, 0, 0]	n/a	catFR1	4	R1492J
589.147	0.934	675435	WORD_OFF	n/a	n/a	PLANKTON	OceanAnimals	6	5	[0, 0, 0]	n/a	catFR1	4	R1492J
590.081	1.6	676364	WORD	n/a	wordpools/wordpool_categorized_EN.txt	KNEE	BodyParts	7	5	[0, 0, 0]	n/a	catFR1	4	R1492J
591.695	0.853	677978	WORD_OFF	n/a	n/a	KNEE	BodyParts	7	5	[0, 0, 0]	n/a	catFR1	4	R1492J
592.548	1.6	678833	WORD	n/a	wordpools/wordpool_categorized_EN.txt	TOE	BodyParts	8	5	[0, 0, 0]	n/a	catFR1	4	R1492J
594.163	0.984	680448	WORD_OFF	n/a	n/a	TOE	BodyParts	8	5	[0, 0, 0]	n/a	catFR1	4	R1492J
595.147	1.6	681429	WORD	n/a	wordpools/wordpool_categorized_EN.txt	COUCH	Furniture	9	5	[0, 0, 0]	n/a	catFR1	4	R1492J
596.747	0.8	683033	WORD_OFF	n/a	n/a	COUCH	Furniture	9	5	[0, 0, 0]	n/a	catFR1	4	R1492J
597.547	1.6	683835	WORD	n/a	wordpools/wordpool_categorized_EN.txt	CHAIR	Furniture	10	5	[0, 0, 0]	n/a	catFR1	4	R1492J
599.148	0.866	685429	WORD_OFF	n/a	n/a	CHAIR	Furniture	10	5	[0, 0, 0]	n/a	catFR1	4	R1492J
600.014	1.6	686294	WORD	n/a	wordpools/wordpool_categorized_EN.txt	OYSTER	OceanAnimals	11	5	[0, 0, 0]	n/a	catFR1	4	R1492J
601.629	0.917	687919	WORD_OFF	n/a	n/a	OYSTER	OceanAnimals	11	5	[0, 0, 0]	n/a	catFR1	4	R1492J
602.546	1.6	688827	WORD	n/a	wordpools/wordpool_categorized_EN.txt	TURTLE	OceanAnimals	12	5	[0, 0, 0]	n/a	catFR1	4	R1492J
604.148	0.001	690431	WORD_OFF	n/a	n/a	TURTLE	OceanAnimals	12	5	[0, 0, 0]	n/a	catFR1	4	R1492J
604.149	0.0	690431	ENCODING_END	n/a	n/a	n/a	n/a	-999	5	[0, 0, 0]	n/a	catFR1	4	R1492J
604.149	0.0	690431	DISTRACT_START	n/a	n/a	n/a	n/a	-999	5	[0, 0, 0]	n/a	catFR1	4	R1492J
604.148	0.001	690431	PROB	8.148	n/a	n/a	n/a	-999	5	[2, 1, 2]	5.0	catFR1	4	R1492J
604.149	8.165	690432	START	n/a	n/a	n/a	n/a	-999	5	[-999, -999, -999]	n/a	catFR1	4	R1492J
612.314	3.216	698597	PROB	3.2	n/a	n/a	n/a	-999	5	[6, 8, 2]	16.0	catFR1	4	R1492J
615.53	2.784	701813	PROB	2.765	n/a	n/a	n/a	-999	5	[5, 5, 6]	16.0	catFR1	4	R1492J
618.314	2.766	704597	PROB	2.748	n/a	n/a	n/a	-999	5	[3, 8, 2]	13.0	catFR1	4	R1492J
621.08	3.8	707363	PROB	3.783	n/a	n/a	n/a	-999	5	[5, 3, 7]	15.0	catFR1	4	R1492J
624.88	0.0	711163	STOP	n/a	n/a	n/a	n/a	-999	5	[-999, -999, -999]	n/a	catFR1	4	R1492J
624.88	2.117	711168	DISTRACT_END	n/a	n/a	n/a	n/a	-999	5	[0, 0, 0]	n/a	catFR1	4	R1492J
626.997	1.056	713276	REC_START	n/a	n/a	n/a	n/a	-999	5	[0, 0, 0]	n/a	catFR1	4	R1492J
628.053	0.482	714335	REC_WORD	1.056	n/a	TOE	BodyParts	8	5	[0, 0, 0]	n/a	catFR1	4	R1492J
628.535	7.077	714817	REC_WORD	1.538	n/a	FINGERS	BodyParts	1	5	[0, 0, 0]	n/a	catFR1	4	R1492J
635.612	20.404	721894	REC_WORD	8.615	n/a	LOBSTER	OceanAnimals	5	5	[0, 0, 0]	n/a	catFR1	4	R1492J
656.016	1.215	742297	REC_WORD	29.019	n/a	TURTLE	OceanAnimals	12	5	[0, 0, 0]	n/a	catFR1	4	R1492J
657.231	4.983	743514	REC_END	n/a	n/a	n/a	n/a	-999	5	[0, 0, 0]	n/a	catFR1	4	R1492J
662.214	10.0	748495	COUNTDOWN_START	n/a	n/a	n/a	n/a	-999	6	[0, 0, 0]	n/a	catFR1	4	R1492J
672.563	0.0	758847	COUNTDOWN_END	n/a	n/a	n/a	n/a	-999	6	[0, 0, 0]	n/a	catFR1	4	R1492J
672.563	2.234	758847	ENCODING_START	n/a	n/a	n/a	n/a	-999	6	[0, 0, 0]	n/a	catFR1	4	R1492J
674.797	1.6	761074	WORD	n/a	wordpools/wordpool_categorized_EN.txt	JELLYFISH	OceanAnimals	1	6	[0, 0, 0]	n/a	catFR1	4	R1492J
676.414	0.933	762699	WORD_OFF	n/a	n/a	JELLYFISH	OceanAnimals	1	6	[0, 0, 0]	n/a	catFR1	4	R1492J
677.347	1.6	763628	WORD	n/a	wordpools/wordpool_categorized_EN.txt	SQUID	OceanAnimals	2	6	[0, 0, 0]	n/a	catFR1	4	R1492J
678.963	0.867	765243	WORD_OFF	n/a	n/a	SQUID	OceanAnimals	2	6	[0, 0, 0]	n/a	catFR1	4	R1492J
679.83	1.6	766108	WORD	n/a	wordpools/wordpool_categorized_EN.txt	LILY	Flowers	3	6	[0, 0, 0]	n/a	catFR1	4	R1492J
681.43	0.984	767712	WORD_OFF	n/a	n/a	LILY	Flowers	3	6	[0, 0, 0]	n/a	catFR1	4	R1492J
682.414	1.6	768693	WORD	n/a	wordpools/wordpool_categorized_EN.txt	MARIGOLD	Flowers	4	6	[0, 0, 0]	n/a	catFR1	4	R1492J
684.028	0.769	770308	WORD_OFF	n/a	n/a	MARIGOLD	Flowers	4	6	[0, 0, 0]	n/a	catFR1	4	R1492J
684.797	1.6	771078	WORD	n/a	wordpools/wordpool_categorized_EN.txt	SOFA	Furniture	5	6	[0, 0, 0]	n/a	catFR1	4	R1492J
686.397	0.917	772683	WORD_OFF	n/a	n/a	SOFA	Furniture	5	6	[0, 0, 0]	n/a	catFR1	4	R1492J
687.314	1.6	773601	WORD	n/a	wordpools/wordpool_categorized_EN.txt	RECLINER	Furniture	6	6	[0, 0, 0]	n/a	catFR1	4	R1492J
688.93	0.984	775215	WORD_OFF	n/a	n/a	RECLINER	Furniture	6	6	[0, 0, 0]	n/a	catFR1	4	R1492J
689.914	1.6	776197	WORD	n/a	wordpools/wordpool_categorized_EN.txt	DAFFODIL	Flowers	7	6	[0, 0, 0]	n/a	catFR1	4	R1492J
691.53	0.816	777811	WORD_OFF	n/a	n/a	DAFFODIL	Flowers	7	6	[0, 0, 0]	n/a	catFR1	4	R1492J
692.346	1.6	778624	WORD	n/a	wordpools/wordpool_categorized_EN.txt	TULIP	Flowers	8	6	[0, 0, 0]	n/a	catFR1	4	R1492J
693.948	0.832	780228	WORD_OFF	n/a	n/a	TULIP	Flowers	8	6	[0, 0, 0]	n/a	catFR1	4	R1492J
694.78	1.6	781062	WORD	n/a	wordpools/wordpool_categorized_EN.txt	CRAB	OceanAnimals	9	6	[0, 0, 0]	n/a	catFR1	4	R1492J
696.381	0.933	782666	WORD_OFF	n/a	n/a	CRAB	OceanAnimals	9	6	[0, 0, 0]	n/a	catFR1	4	R1492J
697.314	1.6	783595	WORD	n/a	wordpools/wordpool_categorized_EN.txt	SHRIMP	OceanAnimals	10	6	[0, 0, 0]	n/a	catFR1	4	R1492J
698.93	0.966	785209	WORD_OFF	n/a	n/a	SHRIMP	OceanAnimals	10	6	[0, 0, 0]	n/a	catFR1	4	R1492J
699.896	1.6	786180	WORD	n/a	wordpools/wordpool_categorized_EN.txt	DRESSER	Furniture	11	6	[0, 0, 0]	n/a	catFR1	4	R1492J
701.514	0.9	787795	WORD_OFF	n/a	n/a	DRESSER	Furniture	11	6	[0, 0, 0]	n/a	catFR1	4	R1492J
702.414	1.6	788692	WORD	n/a	wordpools/wordpool_categorized_EN.txt	BED	Furniture	12	6	[0, 0, 0]	n/a	catFR1	4	R1492J
704.03	0.001	790306	WORD_OFF	n/a	n/a	BED	Furniture	12	6	[0, 0, 0]	n/a	catFR1	4	R1492J
704.031	0.0	790310	PROB	5.05	n/a	n/a	n/a	-999	6	[3, 8, 6]	17.0	catFR1	4	R1492J
704.031	0.0	790310	START	n/a	n/a	n/a	n/a	-999	6	[-999, -999, -999]	n/a	catFR1	4	R1492J
704.031	0.0	790317	ENCODING_END	n/a	n/a	n/a	n/a	-999	6	[0, 0, 0]	n/a	catFR1	4	R1492J
704.031	5.067	790317	DISTRACT_START	n/a	n/a	n/a	n/a	-999	6	[0, 0, 0]	n/a	catFR1	4	R1492J
709.098	3.9	795377	PROB	3.882	n/a	n/a	n/a	-999	6	[7, 8, 1]	16.0	catFR1	4	R1492J
712.998	9.498	799277	PROB	9.483	n/a	n/a	n/a	-999	6	[6, 2, 7]	15.0	catFR1	4	R1492J
722.496	3.533	808775	PROB	3.518	n/a	n/a	n/a	-999	6	[2, 6, 8]	16.0	catFR1	4	R1492J
726.029	0.0	812307	STOP	n/a	n/a	n/a	n/a	-999	6	[-999, -999, -999]	n/a	catFR1	4	R1492J
726.029	2.267	812310	DISTRACT_END	n/a	n/a	n/a	n/a	-999	6	[0, 0, 0]	n/a	catFR1	4	R1492J
728.296	1.771	814576	REC_START	n/a	n/a	n/a	n/a	-999	6	[0, 0, 0]	n/a	catFR1	4	R1492J
730.067	1.703	816345	REC_WORD	1.771	n/a	DRESSER	Furniture	11	6	[0, 0, 0]	n/a	catFR1	4	R1492J
731.77	21.718	818048	REC_WORD	3.474	n/a	DRESSER	Furniture	11	6	[0, 0, 0]	n/a	catFR1	4	R1492J
753.488	5.02	839765	REC_WORD	25.192	n/a	BED	Furniture	12	6	[0, 0, 0]	n/a	catFR1	4	R1492J
758.508	3.538	844782	REC_END	n/a	n/a	n/a	n/a	-999	6	[0, 0, 0]	n/a	catFR1	4	R1492J
762.046	10.0	848328	COUNTDOWN_START	n/a	n/a	n/a	n/a	-999	7	[0, 0, 0]	n/a	catFR1	4	R1492J
772.397	0.0	858670	COUNTDOWN_END	n/a	n/a	n/a	n/a	-999	7	[0, 0, 0]	n/a	catFR1	4	R1492J
772.397	2.116	858680	ENCODING_START	n/a	n/a	n/a	n/a	-999	7	[0, 0, 0]	n/a	catFR1	4	R1492J
774.513	1.6	860791	WORD	n/a	wordpools/wordpool_categorized_EN.txt	VELVET	Fabric	1	7	[0, 0, 0]	n/a	catFR1	4	R1492J
776.113	0.818	862395	WORD_OFF	n/a	n/a	VELVET	Fabric	1	7	[0, 0, 0]	n/a	catFR1	4	R1492J
776.931	1.6	863208	WORD	n/a	wordpools/wordpool_categorized_EN.txt	NYLON	Fabric	2	7	[0, 0, 0]	n/a	catFR1	4	R1492J
778.531	0.783	864812	WORD_OFF	n/a	n/a	NYLON	Fabric	2	7	[0, 0, 0]	n/a	catFR1	4	R1492J
779.314	1.6	865593	WORD	n/a	wordpools/wordpool_categorized_EN.txt	SCREWDRIVER	Tools	3	7	[0, 0, 0]	n/a	catFR1	4	R1492J
780.931	0.766	867207	WORD_OFF	n/a	n/a	SCREWDRIVER	Tools	3	7	[0, 0, 0]	n/a	catFR1	4	R1492J
781.697	1.6	867978	WORD	n/a	wordpools/wordpool_categorized_EN.txt	AXE	Tools	4	7	[0, 0, 0]	n/a	catFR1	4	R1492J
783.298	0.9	869571	WORD_OFF	n/a	n/a	AXE	Tools	4	7	[0, 0, 0]	n/a	catFR1	4	R1492J
784.198	1.6	870479	WORD	n/a	wordpools/wordpool_categorized_EN.txt	MOSQUITO	Insects	5	7	[0, 0, 0]	n/a	catFR1	4	R1492J
785.813	0.833	872094	WORD_OFF	n/a	n/a	MOSQUITO	Insects	5	7	[0, 0, 0]	n/a	catFR1	4	R1492J
786.646	1.6	872927	WORD	n/a	wordpools/wordpool_categorized_EN.txt	ANT	Insects	6	7	[0, 0, 0]	n/a	catFR1	4	R1492J
788.247	0.849	874521	WORD_OFF	n/a	n/a	ANT	Insects	6	7	[0, 0, 0]	n/a	catFR1	4	R1492J
789.096	1.6	875376	WORD	n/a	wordpools/wordpool_categorized_EN.txt	WOOL	Fabric	7	7	[0, 0, 0]	n/a	catFR1	4	R1492J
790.697	0.901	876980	WORD_OFF	n/a	n/a	WOOL	Fabric	7	7	[0, 0, 0]	n/a	catFR1	4	R1492J
791.598	1.6	877877	WORD	n/a	wordpools/wordpool_categorized_EN.txt	SILK	Fabric	8	7	[0, 0, 0]	n/a	catFR1	4	R1492J
793.212	0.785	879491	WORD_OFF	n/a	n/a	SILK	Fabric	8	7	[0, 0, 0]	n/a	catFR1	4	R1492J
793.997	1.6	880272	WORD	n/a	wordpools/wordpool_categorized_EN.txt	CRICKET	Insects	9	7	[0, 0, 0]	n/a	catFR1	4	R1492J
795.597	0.901	881876	WORD_OFF	n/a	n/a	CRICKET	Insects	9	7	[0, 0, 0]	n/a	catFR1	4	R1492J
796.498	1.6	882773	WORD	n/a	wordpools/wordpool_categorized_EN.txt	BEETLE	Insects	10	7	[0, 0, 0]	n/a	catFR1	4	R1492J
798.113	0.784	884388	WORD_OFF	n/a	n/a	BEETLE	Insects	10	7	[0, 0, 0]	n/a	catFR1	4	R1492J
798.897	1.6	885180	WORD	n/a	wordpools/wordpool_categorized_EN.txt	LEVEL	Tools	11	7	[0, 0, 0]	n/a	catFR1	4	R1492J
800.512	0.968	886794	WORD_OFF	n/a	n/a	LEVEL	Tools	11	7	[0, 0, 0]	n/a	catFR1	4	R1492J
801.48	1.6	887754	WORD	n/a	wordpools/wordpool_categorized_EN.txt	PLIERS	Tools	12	7	[0, 0, 0]	n/a	catFR1	4	R1492J
803.096	0.002	889369	WORD_OFF	n/a	n/a	PLIERS	Tools	12	7	[0, 0, 0]	n/a	catFR1	4	R1492J
803.098	0.0	889369	ENCODING_END	n/a	n/a	n/a	n/a	-999	7	[0, 0, 0]	n/a	catFR1	4	R1492J
803.097	0.001	889372	PROB	2.901	n/a	n/a	n/a	-999	7	[2, 6, 1]	9.0	catFR1	4	R1492J
803.098	0.0	889373	START	n/a	n/a	n/a	n/a	-999	7	[-999, -999, -999]	n/a	catFR1	4	R1492J
803.098	2.916	889380	DISTRACT_START	n/a	n/a	n/a	n/a	-999	7	[0, 0, 0]	n/a	catFR1	4	R1492J
806.014	2.332	892289	PROB	2.317	n/a	n/a	n/a	-999	7	[5, 3, 1]	9.0	catFR1	4	R1492J
808.346	3.717	894621	PROB	3.7	n/a	n/a	n/a	-999	7	[4, 2, 1]	7.0	catFR1	4	R1492J
812.063	3.535	898338	PROB	3.517	n/a	n/a	n/a	-999	7	[2, 4, 4]	10.0	catFR1	4	R1492J
815.598	3.716	901873	PROB	3.699	n/a	n/a	n/a	-999	7	[7, 5, 6]	18.0	catFR1	4	R1492J
819.314	3.733	905589	PROB	3.717	n/a	n/a	n/a	-999	7	[8, 8, 8]	24.0	catFR1	4	R1492J
823.047	3.55	909321	PROB	3.533	n/a	n/a	n/a	-999	7	[6, 5, 7]	18.0	catFR1	4	R1492J
826.597	0.0	912871	DISTRACT_END	n/a	n/a	n/a	n/a	-999	7	[0, 0, 0]	n/a	catFR1	4	R1492J
826.597	2.3	912871	STOP	n/a	n/a	n/a	n/a	-999	7	[-999, -999, -999]	n/a	catFR1	4	R1492J
828.897	13.28	915169	REC_START	n/a	n/a	n/a	n/a	-999	7	[0, 0, 0]	n/a	catFR1	4	R1492J
842.177	16.949	928451	REC_WORD_VV	13.28	n/a	<>	n/a	-999	7	[0, 0, 0]	n/a	catFR1	4	R1492J
859.126	37.655	945396	REC_END	n/a	n/a	n/a	n/a	-999	7	[0, 0, 0]	n/a	catFR1	4	R1492J
896.781	10.0	983060	COUNTDOWN_START	n/a	n/a	n/a	n/a	-999	8	[0, 0, 0]	n/a	catFR1	4	R1492J
907.129	0.0	993402	COUNTDOWN_END	n/a	n/a	n/a	n/a	-999	8	[0, 0, 0]	n/a	catFR1	4	R1492J
907.129	2.367	993402	ENCODING_START	n/a	n/a	n/a	n/a	-999	8	[0, 0, 0]	n/a	catFR1	4	R1492J
909.496	1.6	995766	WORD	n/a	wordpools/wordpool_categorized_EN.txt	COOKIE	Desserts	1	8	[0, 0, 0]	n/a	catFR1	4	R1492J
911.096	0.985	997370	WORD_OFF	n/a	n/a	COOKIE	Desserts	1	8	[0, 0, 0]	n/a	catFR1	4	R1492J
912.081	1.6	998352	WORD	n/a	wordpools/wordpool_categorized_EN.txt	FUDGE	Desserts	2	8	[0, 0, 0]	n/a	catFR1	4	R1492J
913.695	0.984	999966	WORD_OFF	n/a	n/a	FUDGE	Desserts	2	8	[0, 0, 0]	n/a	catFR1	4	R1492J
914.679	1.6	1000948	WORD	n/a	wordpools/wordpool_categorized_EN.txt	SHOES	Clothing	3	8	[0, 0, 0]	n/a	catFR1	4	R1492J
916.281	0.931	1002552	WORD_OFF	n/a	n/a	SHOES	Clothing	3	8	[0, 0, 0]	n/a	catFR1	4	R1492J
917.212	1.6	1003481	WORD	n/a	wordpools/wordpool_categorized_EN.txt	PANTS	Clothing	4	8	[0, 0, 0]	n/a	catFR1	4	R1492J
918.814	0.882	1005085	WORD_OFF	n/a	n/a	PANTS	Clothing	4	8	[0, 0, 0]	n/a	catFR1	4	R1492J
919.696	1.6	1005971	WORD	n/a	wordpools/wordpool_categorized_EN.txt	COTTON	Fabric	5	8	[0, 0, 0]	n/a	catFR1	4	R1492J
921.296	0.767	1007565	WORD_OFF	n/a	n/a	COTTON	Fabric	5	8	[0, 0, 0]	n/a	catFR1	4	R1492J
922.063	1.6	1008335	WORD	n/a	wordpools/wordpool_categorized_EN.txt	FLEECE	Fabric	6	8	[0, 0, 0]	n/a	catFR1	4	R1492J
923.663	0.967	1009939	WORD_OFF	n/a	n/a	FLEECE	Fabric	6	8	[0, 0, 0]	n/a	catFR1	4	R1492J
924.63	1.6	1010900	WORD	n/a	wordpools/wordpool_categorized_EN.txt	CUPCAKE	Desserts	7	8	[0, 0, 0]	n/a	catFR1	4	R1492J
926.231	0.833	1012504	WORD_OFF	n/a	n/a	CUPCAKE	Desserts	7	8	[0, 0, 0]	n/a	catFR1	4	R1492J
927.064	1.6	1013337	WORD	n/a	wordpools/wordpool_categorized_EN.txt	BROWNIES	Desserts	8	8	[0, 0, 0]	n/a	catFR1	4	R1492J
928.68	0.766	1014952	WORD_OFF	n/a	n/a	BROWNIES	Desserts	8	8	[0, 0, 0]	n/a	catFR1	4	R1492J
929.446	1.6	1015712	WORD	n/a	wordpools/wordpool_categorized_EN.txt	SOCKS	Clothing	9	8	[0, 0, 0]	n/a	catFR1	4	R1492J
931.047	0.832	1017316	WORD_OFF	n/a	n/a	SOCKS	Clothing	9	8	[0, 0, 0]	n/a	catFR1	4	R1492J
931.879	1.6	1018150	WORD	n/a	wordpools/wordpool_categorized_EN.txt	SKIRT	Clothing	10	8	[0, 0, 0]	n/a	catFR1	4	R1492J
933.48	0.899	1019754	WORD_OFF	n/a	n/a	SKIRT	Clothing	10	8	[0, 0, 0]	n/a	catFR1	4	R1492J
934.379	1.6	1020651	WORD	n/a	wordpools/wordpool_categorized_EN.txt	DENIM	Fabric	11	8	[0, 0, 0]	n/a	catFR1	4	R1492J
935.979	0.918	1022255	WORD_OFF	n/a	n/a	DENIM	Fabric	11	8	[0, 0, 0]	n/a	catFR1	4	R1492J
936.897	1.6	1023173	WORD	n/a	wordpools/wordpool_categorized_EN.txt	LINEN	Fabric	12	8	[0, 0, 0]	n/a	catFR1	4	R1492J
938.512	0.001	1024782	PROB	2.95	n/a	n/a	n/a	-999	8	[1, 2, 1]	4.0	catFR1	4	R1492J
938.513	0.0	1024783	START	n/a	n/a	n/a	n/a	-999	8	[-999, -999, -999]	n/a	catFR1	4	R1492J
938.512	0.001	1024788	WORD_OFF	n/a	n/a	LINEN	Fabric	12	8	[0, 0, 0]	n/a	catFR1	4	R1492J
938.513	0.0	1024788	ENCODING_END	n/a	n/a	n/a	n/a	-999	8	[0, 0, 0]	n/a	catFR1	4	R1492J
938.513	2.966	1024788	DISTRACT_START	n/a	n/a	n/a	n/a	-999	8	[0, 0, 0]	n/a	catFR1	4	R1492J
941.479	3.867	1027749	PROB	3.85	n/a	n/a	n/a	-999	8	[8, 4, 7]	19.0	catFR1	4	R1492J
945.346	3.7	1031615	PROB	3.683	n/a	n/a	n/a	-999	8	[3, 6, 3]	12.0	catFR1	4	R1492J
949.046	2.234	1035315	PROB	2.218	n/a	n/a	n/a	-999	8	[1, 2, 2]	5.0	catFR1	4	R1492J
951.28	4.418	1037549	PROB	4.4	n/a	n/a	n/a	-999	8	[5, 4, 8]	17.0	catFR1	4	R1492J
955.698	1.933	1041967	PROB	1.914	n/a	n/a	n/a	-999	8	[1, 2, 1]	4.0	catFR1	4	R1492J
957.631	3.082	1043900	PROB	3.065	n/a	n/a	n/a	-999	8	[2, 7, 5]	14.0	catFR1	4	R1492J
960.713	0.0	1046981	DISTRACT_END	n/a	n/a	n/a	n/a	-999	8	[0, 0, 0]	n/a	catFR1	4	R1492J
960.713	2.317	1046982	STOP	n/a	n/a	n/a	n/a	-999	8	[-999, -999, -999]	n/a	catFR1	4	R1492J
963.03	0.235	1049300	REC_START	n/a	n/a	n/a	n/a	-999	8	[0, 0, 0]	n/a	catFR1	4	R1492J
963.265	0.567	1049534	REC_WORD	0.235	n/a	COOKIE	Desserts	1	8	[0, 0, 0]	n/a	catFR1	4	R1492J
963.832	8.248	1050101	REC_WORD	0.802	n/a	BROWNIES	Desserts	8	8	[0, 0, 0]	n/a	catFR1	4	R1492J
972.08	21.162	1058348	REC_WORD	9.05	n/a	REFRIGERATOR	n/a	-999	8	[0, 0, 0]	n/a	catFR1	4	R1492J
993.242	2.67	1079506	REC_END	n/a	n/a	n/a	n/a	-999	8	[0, 0, 0]	n/a	catFR1	4	R1492J
995.912	10.0	1082186	COUNTDOWN_START	n/a	n/a	n/a	n/a	-999	9	[0, 0, 0]	n/a	catFR1	4	R1492J
1006.264	0.0	1092528	COUNTDOWN_END	n/a	n/a	n/a	n/a	-999	9	[0, 0, 0]	n/a	catFR1	4	R1492J
1006.264	2.0	1092539	ENCODING_START	n/a	n/a	n/a	n/a	-999	9	[0, 0, 0]	n/a	catFR1	4	R1492J
1008.264	1.6	1094534	WORD	n/a	wordpools/wordpool_categorized_EN.txt	EYE	BodyParts	1	9	[0, 0, 0]	n/a	catFR1	4	R1492J
1009.864	0.967	1096127	WORD_OFF	n/a	n/a	EYE	BodyParts	1	9	[0, 0, 0]	n/a	catFR1	4	R1492J
1010.831	1.6	1097098	WORD	n/a	wordpools/wordpool_categorized_EN.txt	LEG	BodyParts	2	9	[0, 0, 0]	n/a	catFR1	4	R1492J
1012.446	0.851	1098713	WORD_OFF	n/a	n/a	LEG	BodyParts	2	9	[0, 0, 0]	n/a	catFR1	4	R1492J
1013.297	1.6	1099567	WORD	n/a	wordpools/wordpool_categorized_EN.txt	JACKET	Clothing	3	9	[0, 0, 0]	n/a	catFR1	4	R1492J
1014.897	0.834	1101161	WORD_OFF	n/a	n/a	JACKET	Clothing	3	9	[0, 0, 0]	n/a	catFR1	4	R1492J
1015.731	1.6	1101995	WORD	n/a	wordpools/wordpool_categorized_EN.txt	SHIRT	Clothing	4	9	[0, 0, 0]	n/a	catFR1	4	R1492J
1017.331	0.833	1103599	WORD_OFF	n/a	n/a	SHIRT	Clothing	4	9	[0, 0, 0]	n/a	catFR1	4	R1492J
1018.164	1.6	1104432	WORD	n/a	wordpools/wordpool_categorized_EN.txt	WHISK	KitchenTools	5	9	[0, 0, 0]	n/a	catFR1	4	R1492J
1019.764	0.816	1106037	WORD_OFF	n/a	n/a	WHISK	KitchenTools	5	9	[0, 0, 0]	n/a	catFR1	4	R1492J
1020.58	1.6	1106849	WORD	n/a	wordpools/wordpool_categorized_EN.txt	STRAINER	KitchenTools	6	9	[0, 0, 0]	n/a	catFR1	4	R1492J
1022.197	0.883	1108464	WORD_OFF	n/a	n/a	STRAINER	KitchenTools	6	9	[0, 0, 0]	n/a	catFR1	4	R1492J
1023.08	1.6	1109350	WORD	n/a	wordpools/wordpool_categorized_EN.txt	HAND	BodyParts	7	9	[0, 0, 0]	n/a	catFR1	4	R1492J
1024.697	0.866	1110965	WORD_OFF	n/a	n/a	HAND	BodyParts	7	9	[0, 0, 0]	n/a	catFR1	4	R1492J
1025.563	1.6	1111830	WORD	n/a	wordpools/wordpool_categorized_EN.txt	NOSE	BodyParts	8	9	[0, 0, 0]	n/a	catFR1	4	R1492J
1027.18	0.9	1113445	WORD_OFF	n/a	n/a	NOSE	BodyParts	8	9	[0, 0, 0]	n/a	catFR1	4	R1492J
1028.08	1.6	1114352	WORD	n/a	wordpools/wordpool_categorized_EN.txt	DRESS	Clothing	9	9	[0, 0, 0]	n/a	catFR1	4	R1492J
1029.696	0.967	1115967	WORD_OFF	n/a	n/a	DRESS	Clothing	9	9	[0, 0, 0]	n/a	catFR1	4	R1492J
1030.663	1.6	1116927	WORD	n/a	wordpools/wordpool_categorized_EN.txt	UNDERWEAR	Clothing	10	9	[0, 0, 0]	n/a	catFR1	4	R1492J
1032.279	1.0	1118542	WORD_OFF	n/a	n/a	UNDERWEAR	Clothing	10	9	[0, 0, 0]	n/a	catFR1	4	R1492J
1033.279	1.6	1119545	WORD	n/a	wordpools/wordpool_categorized_EN.txt	LADLE	KitchenTools	11	9	[0, 0, 0]	n/a	catFR1	4	R1492J
1034.88	0.766	1121149	WORD_OFF	n/a	n/a	LADLE	KitchenTools	11	9	[0, 0, 0]	n/a	catFR1	4	R1492J
1035.646	1.6	1121909	WORD	n/a	wordpools/wordpool_categorized_EN.txt	GRATER	KitchenTools	12	9	[0, 0, 0]	n/a	catFR1	4	R1492J
1037.247	0.001	1123513	WORD_OFF	n/a	n/a	GRATER	KitchenTools	12	9	[0, 0, 0]	n/a	catFR1	4	R1492J
1037.248	0.0	1123513	ENCODING_END	n/a	n/a	n/a	n/a	-999	9	[0, 0, 0]	n/a	catFR1	4	R1492J
1037.248	0.0	1123513	DISTRACT_START	n/a	n/a	n/a	n/a	-999	9	[0, 0, 0]	n/a	catFR1	4	R1492J
1037.248	0.0	1123514	START	n/a	n/a	n/a	n/a	-999	9	[-999, -999, -999]	n/a	catFR1	4	R1492J
1037.248	5.465	1123514	PROB	5.448	n/a	n/a	n/a	-999	9	[6, 2, 7]	15.0	catFR1	4	R1492J
1042.713	4.152	1128978	PROB	4.135	n/a	n/a	n/a	-999	9	[8, 1, 7]	16.0	catFR1	4	R1492J
1046.865	4.366	1133130	PROB	4.349	n/a	n/a	n/a	-999	9	[7, 7, 2]	16.0	catFR1	4	R1492J
1051.231	1.965	1137496	PROB	1.95	n/a	n/a	n/a	-999	9	[2, 1, 1]	4.0	catFR1	4	R1492J
1053.196	4.352	1139461	PROB	4.333	n/a	n/a	n/a	-999	9	[6, 6, 3]	15.0	catFR1	4	R1492J
1057.548	0.0	1143813	STOP	n/a	n/a	n/a	n/a	-999	9	[-999, -999, -999]	n/a	catFR1	4	R1492J
1057.548	2.314	1143817	DISTRACT_END	n/a	n/a	n/a	n/a	-999	9	[0, 0, 0]	n/a	catFR1	4	R1492J
1059.862	0.966	1146126	REC_START	n/a	n/a	n/a	n/a	-999	9	[0, 0, 0]	n/a	catFR1	4	R1492J
1060.828	1.415	1147093	REC_WORD	0.966	n/a	LEG	BodyParts	2	9	[0, 0, 0]	n/a	catFR1	4	R1492J
1062.243	4.98	1148508	REC_WORD	2.381	n/a	HAND	BodyParts	7	9	[0, 0, 0]	n/a	catFR1	4	R1492J
1067.223	22.868	1153487	REC_WORD	7.361	n/a	NOSE	BodyParts	8	9	[0, 0, 0]	n/a	catFR1	4	R1492J
1090.091	7.855	1176352	REC_END	n/a	n/a	n/a	n/a	-999	9	[0, 0, 0]	n/a	catFR1	4	R1492J
1097.946	10.0	1184215	COUNTDOWN_START	n/a	n/a	n/a	n/a	-999	10	[0, 0, 0]	n/a	catFR1	4	R1492J
1108.296	0.001	1194557	COUNTDOWN_END	n/a	n/a	n/a	n/a	-999	10	[0, 0, 0]	n/a	catFR1	4	R1492J
1108.297	1.999	1194567	ENCODING_START	n/a	n/a	n/a	n/a	-999	10	[0, 0, 0]	n/a	catFR1	4	R1492J
1110.296	1.6	1196562	WORD	n/a	wordpools/wordpool_categorized_EN.txt	PUDDING	Desserts	1	10	[0, 0, 0]	n/a	catFR1	4	R1492J
1111.914	0.882	1198187	WORD_OFF	n/a	n/a	PUDDING	Desserts	1	10	[0, 0, 0]	n/a	catFR1	4	R1492J
1112.796	1.6	1199063	WORD	n/a	wordpools/wordpool_categorized_EN.txt	CHEESECAKE	Desserts	2	10	[0, 0, 0]	n/a	catFR1	4	R1492J
1114.412	0.768	1200678	WORD_OFF	n/a	n/a	CHEESECAKE	Desserts	2	10	[0, 0, 0]	n/a	catFR1	4	R1492J
1115.18	1.6	1201448	WORD	n/a	wordpools/wordpool_categorized_EN.txt	REFRIGERATOR	Appliances	3	10	[0, 0, 0]	n/a	catFR1	4	R1492J
1116.781	0.899	1203041	WORD_OFF	n/a	n/a	REFRIGERATOR	Appliances	3	10	[0, 0, 0]	n/a	catFR1	4	R1492J
1117.68	1.6	1203949	WORD	n/a	wordpools/wordpool_categorized_EN.txt	FREEZER	Appliances	4	10	[0, 0, 0]	n/a	catFR1	4	R1492J
1119.296	0.851	1205564	WORD_OFF	n/a	n/a	FREEZER	Appliances	4	10	[0, 0, 0]	n/a	catFR1	4	R1492J
1120.147	1.6	1206408	WORD	n/a	wordpools/wordpool_categorized_EN.txt	TAPE	OfficeSupplies	5	10	[0, 0, 0]	n/a	catFR1	4	R1492J
1121.762	1.001	1208022	WORD_OFF	n/a	n/a	TAPE	OfficeSupplies	5	10	[0, 0, 0]	n/a	catFR1	4	R1492J
1122.763	1.6	1209025	WORD	n/a	wordpools/wordpool_categorized_EN.txt	PAPER	OfficeSupplies	6	10	[0, 0, 0]	n/a	catFR1	4	R1492J
1124.379	0.868	1210640	WORD_OFF	n/a	n/a	PAPER	OfficeSupplies	6	10	[0, 0, 0]	n/a	catFR1	4	R1492J
1125.247	1.6	1211505	WORD	n/a	wordpools/wordpool_categorized_EN.txt	JELLO	Desserts	7	10	[0, 0, 0]	n/a	catFR1	4	R1492J
1126.863	0.933	1213130	WORD_OFF	n/a	n/a	JELLO	Desserts	7	10	[0, 0, 0]	n/a	catFR1	4	R1492J
1127.796	1.6	1214059	WORD	n/a	wordpools/wordpool_categorized_EN.txt	CAKE	Desserts	8	10	[0, 0, 0]	n/a	catFR1	4	R1492J
1129.396	0.917	1215663	WORD_OFF	n/a	n/a	CAKE	Desserts	8	10	[0, 0, 0]	n/a	catFR1	4	R1492J
1130.313	1.6	1216581	WORD	n/a	wordpools/wordpool_categorized_EN.txt	BLENDER	Appliances	9	10	[0, 0, 0]	n/a	catFR1	4	R1492J
1131.913	1.0	1218175	WORD_OFF	n/a	n/a	BLENDER	Appliances	9	10	[0, 0, 0]	n/a	catFR1	4	R1492J
1132.913	1.6	1219177	WORD	n/a	wordpools/wordpool_categorized_EN.txt	OVEN	Appliances	10	10	[0, 0, 0]	n/a	catFR1	4	R1492J
1134.53	0.782	1220792	WORD_OFF	n/a	n/a	OVEN	Appliances	10	10	[0, 0, 0]	n/a	catFR1	4	R1492J
1135.312	1.6	1221573	WORD	n/a	wordpools/wordpool_categorized_EN.txt	BINDER	OfficeSupplies	11	10	[0, 0, 0]	n/a	catFR1	4	R1492J
1136.912	0.768	1223177	WORD_OFF	n/a	n/a	BINDER	OfficeSupplies	11	10	[0, 0, 0]	n/a	catFR1	4	R1492J
1137.68	1.6	1223947	WORD	n/a	wordpools/wordpool_categorized_EN.txt	PEN	OfficeSupplies	12	10	[0, 0, 0]	n/a	catFR1	4	R1492J
1139.296	0.0	1225557	START	n/a	n/a	n/a	n/a	-999	10	[-999, -999, -999]	n/a	catFR1	4	R1492J
1139.296	0.0	1225557	PROB	4.417	n/a	n/a	n/a	-999	10	[5, 4, 5]	14.0	catFR1	4	R1492J
1139.295	0.001	1225562	WORD_OFF	n/a	n/a	PEN	OfficeSupplies	12	10	[0, 0, 0]	n/a	catFR1	4	R1492J
1139.296	0.0	1225562	ENCODING_END	n/a	n/a	n/a	n/a	-999	10	[0, 0, 0]	n/a	catFR1	4	R1492J
1139.296	4.435	1225562	DISTRACT_START	n/a	n/a	n/a	n/a	-999	10	[0, 0, 0]	n/a	catFR1	4	R1492J
1143.731	4.033	1229992	PROB	4.015	n/a	n/a	n/a	-999	10	[7, 8, 8]	23.0	catFR1	4	R1492J
1147.764	3.316	1234025	PROB	3.3	n/a	n/a	n/a	-999	10	[5, 5, 7]	17.0	catFR1	4	R1492J
1151.08	3.351	1237341	PROB	3.333	n/a	n/a	n/a	-999	10	[7, 2, 5]	14.0	catFR1	4	R1492J
1154.431	3.916	1240692	PROB	3.9	n/a	n/a	n/a	-999	10	[1, 8, 7]	16.0	catFR1	4	R1492J
1158.347	4.15	1244608	PROB	4.133	n/a	n/a	n/a	-999	10	[8, 7, 7]	22.0	catFR1	4	R1492J
1162.497	0.0	1248757	STOP	n/a	n/a	n/a	n/a	-999	10	[-999, -999, -999]	n/a	catFR1	4	R1492J
1162.497	2.034	1248758	DISTRACT_END	n/a	n/a	n/a	n/a	-999	10	[0, 0, 0]	n/a	catFR1	4	R1492J
1164.531	1.964	1250792	REC_START	n/a	n/a	n/a	n/a	-999	10	[0, 0, 0]	n/a	catFR1	4	R1492J
1166.495	5.955	1252755	REC_WORD	1.964	n/a	FREEZER	Appliances	4	10	[0, 0, 0]	n/a	catFR1	4	R1492J
1172.45	6.85	1258710	REC_WORD	7.919	n/a	OVEN	Appliances	10	10	[0, 0, 0]	n/a	catFR1	4	R1492J
1179.3	15.434	1265560	REC_WORD	14.769	n/a	JACKET	Clothing	-999	10	[0, 0, 0]	n/a	catFR1	4	R1492J
1194.734	8.78	1280998	REC_END	n/a	n/a	n/a	n/a	-999	10	[0, 0, 0]	n/a	catFR1	4	R1492J
1203.514	10.0	1289778	COUNTDOWN_START	n/a	n/a	n/a	n/a	-999	11	[0, 0, 0]	n/a	catFR1	4	R1492J
1213.863	0.0	1300120	COUNTDOWN_END	n/a	n/a	n/a	n/a	-999	11	[0, 0, 0]	n/a	catFR1	4	R1492J
1213.863	1.885	1300120	ENCODING_START	n/a	n/a	n/a	n/a	-999	11	[0, 0, 0]	n/a	catFR1	4	R1492J
1215.748	1.6	1302009	WORD	n/a	wordpools/wordpool_categorized_EN.txt	SPRUCE	Trees	1	11	[0, 0, 0]	n/a	catFR1	4	R1492J
1217.362	0.902	1303624	WORD_OFF	n/a	n/a	SPRUCE	Trees	1	11	[0, 0, 0]	n/a	catFR1	4	R1492J
1218.264	1.6	1304531	WORD	n/a	wordpools/wordpool_categorized_EN.txt	PINE	Trees	2	11	[0, 0, 0]	n/a	catFR1	4	R1492J
1219.881	0.932	1306135	WORD_OFF	n/a	n/a	PINE	Trees	2	11	[0, 0, 0]	n/a	catFR1	4	R1492J
1220.813	1.6	1307075	WORD	n/a	wordpools/wordpool_categorized_EN.txt	SHORTS	Clothing	3	11	[0, 0, 0]	n/a	catFR1	4	R1492J
1222.414	0.95	1308668	WORD_OFF	n/a	n/a	SHORTS	Clothing	3	11	[0, 0, 0]	n/a	catFR1	4	R1492J
1223.364	1.6	1309629	WORD	n/a	wordpools/wordpool_categorized_EN.txt	COAT	Clothing	4	11	[0, 0, 0]	n/a	catFR1	4	R1492J
1224.981	0.783	1311243	WORD_OFF	n/a	n/a	COAT	Clothing	4	11	[0, 0, 0]	n/a	catFR1	4	R1492J
1225.764	1.6	1312024	WORD	n/a	wordpools/wordpool_categorized_EN.txt	FOOT	BodyParts	5	11	[0, 0, 0]	n/a	catFR1	4	R1492J
1227.381	0.95	1313639	WORD_OFF	n/a	n/a	FOOT	BodyParts	5	11	[0, 0, 0]	n/a	catFR1	4	R1492J
1228.331	1.6	1314589	WORD	n/a	wordpools/wordpool_categorized_EN.txt	ELBOW	BodyParts	6	11	[0, 0, 0]	n/a	catFR1	4	R1492J
1229.947	0.833	1316203	WORD_OFF	n/a	n/a	ELBOW	BodyParts	6	11	[0, 0, 0]	n/a	catFR1	4	R1492J
1230.78	1.6	1317037	WORD	n/a	wordpools/wordpool_categorized_EN.txt	BLOUSE	Clothing	7	11	[0, 0, 0]	n/a	catFR1	4	R1492J
1232.381	0.816	1318641	WORD_OFF	n/a	n/a	BLOUSE	Clothing	7	11	[0, 0, 0]	n/a	catFR1	4	R1492J
1233.197	1.6	1319454	WORD	n/a	wordpools/wordpool_categorized_EN.txt	JEANS	Clothing	8	11	[0, 0, 0]	n/a	catFR1	4	R1492J
1234.797	0.834	1321058	WORD_OFF	n/a	n/a	JEANS	Clothing	8	11	[0, 0, 0]	n/a	catFR1	4	R1492J
1235.631	1.6	1321891	WORD	n/a	wordpools/wordpool_categorized_EN.txt	CEDAR	Trees	9	11	[0, 0, 0]	n/a	catFR1	4	R1492J
1237.247	0.817	1323506	WORD_OFF	n/a	n/a	CEDAR	Trees	9	11	[0, 0, 0]	n/a	catFR1	4	R1492J
1238.064	1.6	1324319	WORD	n/a	wordpools/wordpool_categorized_EN.txt	OAK	Trees	10	11	[0, 0, 0]	n/a	catFR1	4	R1492J
1239.664	0.982	1325923	WORD_OFF	n/a	n/a	OAK	Trees	10	11	[0, 0, 0]	n/a	catFR1	4	R1492J
1240.646	1.6	1326904	WORD	n/a	wordpools/wordpool_categorized_EN.txt	ARM	BodyParts	11	11	[0, 0, 0]	n/a	catFR1	4	R1492J
1242.264	0.815	1328519	WORD_OFF	n/a	n/a	ARM	BodyParts	11	11	[0, 0, 0]	n/a	catFR1	4	R1492J
1243.079	1.6	1329342	WORD	n/a	wordpools/wordpool_categorized_EN.txt	HEAD	BodyParts	12	11	[0, 0, 0]	n/a	catFR1	4	R1492J
1244.68	0.001	1330935	WORD_OFF	n/a	n/a	HEAD	BodyParts	12	11	[0, 0, 0]	n/a	catFR1	4	R1492J
1244.681	0.0	1330935	ENCODING_END	n/a	n/a	n/a	n/a	-999	11	[0, 0, 0]	n/a	catFR1	4	R1492J
1244.68	0.001	1330937	PROB	5.099	n/a	n/a	n/a	-999	11	[4, 2, 2]	8.0	catFR1	4	R1492J
1244.681	0.0	1330938	START	n/a	n/a	n/a	n/a	-999	11	[-999, -999, -999]	n/a	catFR1	4	R1492J
1244.681	5.116	1330946	DISTRACT_START	n/a	n/a	n/a	n/a	-999	11	[0, 0, 0]	n/a	catFR1	4	R1492J
1249.797	4.116	1336054	PROB	4.099	n/a	n/a	n/a	-999	11	[4, 2, 7]	13.0	catFR1	4	R1492J
1253.913	3.551	1340170	PROB	3.533	n/a	n/a	n/a	-999	11	[2, 2, 3]	7.0	catFR1	4	R1492J
1257.464	3.883	1343721	PROB	3.865	n/a	n/a	n/a	-999	11	[4, 3, 2]	9.0	catFR1	4	R1492J
1261.347	3.799	1347603	PROB	3.782	n/a	n/a	n/a	-999	11	[2, 5, 7]	14.0	catFR1	4	R1492J
1265.146	0.0	1351402	STOP	n/a	n/a	n/a	n/a	-999	11	[-999, -999, -999]	n/a	catFR1	4	R1492J
1265.146	2.034	1351409	DISTRACT_END	n/a	n/a	n/a	n/a	-999	11	[0, 0, 0]	n/a	catFR1	4	R1492J
1267.18	1.204	1353443	REC_START	n/a	n/a	n/a	n/a	-999	11	[0, 0, 0]	n/a	catFR1	4	R1492J
1268.384	3.514	1354640	REC_WORD	1.204	n/a	HEAD	BodyParts	12	11	[0, 0, 0]	n/a	catFR1	4	R1492J
1271.898	8.08	1358154	REC_WORD	4.718	n/a	ARM	BodyParts	11	11	[0, 0, 0]	n/a	catFR1	4	R1492J
1279.978	17.446	1366234	REC_WORD	12.798	n/a	OAK	Trees	10	11	[0, 0, 0]	n/a	catFR1	4	R1492J
1297.424	3.824	1383680	REC_END	n/a	n/a	n/a	n/a	-999	11	[0, 0, 0]	n/a	catFR1	4	R1492J
1301.248	10.0	1387500	COUNTDOWN_START	n/a	n/a	n/a	n/a	-999	12	[0, 0, 0]	n/a	catFR1	4	R1492J
1311.597	0.0	1397853	COUNTDOWN_END	n/a	n/a	n/a	n/a	-999	12	[0, 0, 0]	n/a	catFR1	4	R1492J
1311.597	1.983	1397853	ENCODING_START	n/a	n/a	n/a	n/a	-999	12	[0, 0, 0]	n/a	catFR1	4	R1492J
1313.58	1.6	1399837	WORD	n/a	wordpools/wordpool_categorized_EN.txt	MAPLE	Trees	1	12	[0, 0, 0]	n/a	catFR1	4	R1492J
1315.181	0.833	1401441	WORD_OFF	n/a	n/a	MAPLE	Trees	1	12	[0, 0, 0]	n/a	catFR1	4	R1492J
1316.014	1.6	1402264	WORD	n/a	wordpools/wordpool_categorized_EN.txt	ELM	Trees	2	12	[0, 0, 0]	n/a	catFR1	4	R1492J
1317.615	1.0	1403868	WORD_OFF	n/a	n/a	ELM	Trees	2	12	[0, 0, 0]	n/a	catFR1	4	R1492J
1318.615	1.6	1404871	WORD	n/a	wordpools/wordpool_categorized_EN.txt	TORNADO	Weather	3	12	[0, 0, 0]	n/a	catFR1	4	R1492J
1320.231	0.85	1406486	WORD_OFF	n/a	n/a	TORNADO	Weather	3	12	[0, 0, 0]	n/a	catFR1	4	R1492J
1321.081	1.6	1407340	WORD	n/a	wordpools/wordpool_categorized_EN.txt	LIGHTNING	Weather	4	12	[0, 0, 0]	n/a	catFR1	4	R1492J
1322.698	0.833	1408955	WORD_OFF	n/a	n/a	LIGHTNING	Weather	4	12	[0, 0, 0]	n/a	catFR1	4	R1492J
1323.531	1.6	1409789	WORD	n/a	wordpools/wordpool_categorized_EN.txt	CARNATION	Flowers	5	12	[0, 0, 0]	n/a	catFR1	4	R1492J
1325.131	0.783	1411382	WORD_OFF	n/a	n/a	CARNATION	Flowers	5	12	[0, 0, 0]	n/a	catFR1	4	R1492J
1325.914	1.6	1412174	WORD	n/a	wordpools/wordpool_categorized_EN.txt	ORCHID	Flowers	6	12	[0, 0, 0]	n/a	catFR1	4	R1492J
1327.531	0.766	1413788	WORD_OFF	n/a	n/a	ORCHID	Flowers	6	12	[0, 0, 0]	n/a	catFR1	4	R1492J
1328.297	1.6	1414548	WORD	n/a	wordpools/wordpool_categorized_EN.txt	CLOUD	Weather	7	12	[0, 0, 0]	n/a	catFR1	4	R1492J
1329.898	0.949	1416152	WORD_OFF	n/a	n/a	CLOUD	Weather	7	12	[0, 0, 0]	n/a	catFR1	4	R1492J
1330.847	1.6	1417102	WORD	n/a	wordpools/wordpool_categorized_EN.txt	HURRICANE	Weather	8	12	[0, 0, 0]	n/a	catFR1	4	R1492J
1332.447	0.934	1418706	WORD_OFF	n/a	n/a	HURRICANE	Weather	8	12	[0, 0, 0]	n/a	catFR1	4	R1492J
1333.381	1.6	1419635	WORD	n/a	wordpools/wordpool_categorized_EN.txt	WILLOW	Trees	9	12	[0, 0, 0]	n/a	catFR1	4	R1492J
1334.997	0.867	1421250	WORD_OFF	n/a	n/a	WILLOW	Trees	9	12	[0, 0, 0]	n/a	catFR1	4	R1492J
1335.864	1.6	1422115	WORD	n/a	wordpools/wordpool_categorized_EN.txt	CYPRESS	Trees	10	12	[0, 0, 0]	n/a	catFR1	4	R1492J
1337.464	0.784	1423719	WORD_OFF	n/a	n/a	CYPRESS	Trees	10	12	[0, 0, 0]	n/a	catFR1	4	R1492J
1338.248	1.6	1424500	WORD	n/a	wordpools/wordpool_categorized_EN.txt	LILAC	Flowers	11	12	[0, 0, 0]	n/a	catFR1	4	R1492J
1339.863	0.817	1426115	WORD_OFF	n/a	n/a	LILAC	Flowers	11	12	[0, 0, 0]	n/a	catFR1	4	R1492J
1340.68	1.6	1426938	WORD	n/a	wordpools/wordpool_categorized_EN.txt	SUNFLOWER	Flowers	12	12	[0, 0, 0]	n/a	catFR1	4	R1492J
1342.298	0.0	1428551	PROB	3.233	n/a	n/a	n/a	-999	12	[1, 6, 1]	8.0	catFR1	4	R1492J
1342.298	0.001	1428552	WORD_OFF	n/a	n/a	SUNFLOWER	Flowers	12	12	[0, 0, 0]	n/a	catFR1	4	R1492J
1342.299	0.0	1428552	ENCODING_END	n/a	n/a	n/a	n/a	-999	12	[0, 0, 0]	n/a	catFR1	4	R1492J
1342.299	0.0	1428552	DISTRACT_START	n/a	n/a	n/a	n/a	-999	12	[0, 0, 0]	n/a	catFR1	4	R1492J
1342.299	3.248	1428552	START	n/a	n/a	n/a	n/a	-999	12	[-999, -999, -999]	n/a	catFR1	4	R1492J
1345.547	3.818	1431800	PROB	3.8	n/a	n/a	n/a	-999	12	[5, 5, 8]	18.0	catFR1	4	R1492J
1349.365	3.3	1435618	PROB	3.282	n/a	n/a	n/a	-999	12	[1, 5, 3]	9.0	catFR1	4	R1492J
1352.665	3.766	1438918	PROB	3.749	n/a	n/a	n/a	-999	12	[7, 4, 6]	17.0	catFR1	4	R1492J
1356.431	3.749	1442683	PROB	3.733	n/a	n/a	n/a	-999	12	[7, 4, 2]	13.0	catFR1	4	R1492J
1360.18	3.666	1446432	PROB	3.651	n/a	n/a	n/a	-999	12	[7, 6, 5]	18.0	catFR1	4	R1492J
1363.846	0.0	1450098	STOP	n/a	n/a	n/a	n/a	-999	12	[-999, -999, -999]	n/a	catFR1	4	R1492J
1363.846	2.2	1450102	DISTRACT_END	n/a	n/a	n/a	n/a	-999	12	[0, 0, 0]	n/a	catFR1	4	R1492J
1366.046	0.763	1452294	REC_START	n/a	n/a	n/a	n/a	-999	12	[0, 0, 0]	n/a	catFR1	4	R1492J
1366.809	9.637	1453061	REC_WORD	0.763	n/a	SUNFLOWER	Flowers	12	12	[0, 0, 0]	n/a	catFR1	4	R1492J
1376.446	15.325	1462698	REC_WORD	10.4	n/a	ELM	Trees	2	12	[0, 0, 0]	n/a	catFR1	4	R1492J
1391.771	4.5	1478022	REC_WORD	25.725	n/a	LIGHTNING	Weather	4	12	[0, 0, 0]	n/a	catFR1	4	R1492J
1396.271	0.0	1482521	REC_END	n/a	n/a	n/a	n/a	-999	12	[0, 0, 0]	n/a	catFR1	4	R1492J
