onset	duration	sample	trial_type	response_time	stim_file	item_name	category	serialpos	list	test	answer	experiment	session	subject
0.0	2.431	136560	INSTRUCT_START	n/a	n/a	n/a	n/a	-999	-999	[0, 0, 0]	n/a	catFR1	3	R1616S
2.431	2.983	138991	INSTRUCT_END	n/a	n/a	n/a	n/a	-999	-999	[0, 0, 0]	n/a	catFR1	3	R1616S
5.414	3.184	141967	INSTRUCT_START	n/a	n/a	n/a	n/a	-999	-999	[0, 0, 0]	n/a	catFR1	3	R1616S
8.598	34.716	145153	INSTRUCT_END	n/a	n/a	n/a	n/a	-999	-999	[0, 0, 0]	n/a	catFR1	3	R1616S
43.314	10.351	179873	COUNTDOWN_START	n/a	n/a	n/a	n/a	-999	-999	[0, 0, 0]	n/a	catFR1	3	R1616S
53.665	0.0	190212	COUNTDOWN_END	n/a	n/a	n/a	n/a	-999	-999	[0, 0, 0]	n/a	catFR1	3	R1616S
53.665	2.05	190212	ENCODING_START	n/a	n/a	n/a	n/a	-999	-1	[0, 0, 0]	n/a	catFR1	3	R1616S
55.715	1.616	192266	WORD	n/a	n/a	MOUNTAIN	Landscapes	1	-1	[0, 0, 0]	n/a	catFR1	3	R1616S
57.331	0.764	193886	WORD_OFF	n/a	n/a	MOUNTAIN	Landscapes	1	-1	[0, 0, 0]	n/a	catFR1	3	R1616S
58.095	1.603	194641	WORD	n/a	n/a	FOREST	Landscapes	2	-1	[0, 0, 0]	n/a	catFR1	3	R1616S
59.698	0.817	196248	WORD_OFF	n/a	n/a	FOREST	Landscapes	2	-1	[0, 0, 0]	n/a	catFR1	3	R1616S
60.515	1.616	197072	WORD	n/a	n/a	ROACH	Insects	3	-1	[0, 0, 0]	n/a	catFR1	3	R1616S
62.131	0.983	198679	WORD_OFF	n/a	n/a	ROACH	Insects	3	-1	[0, 0, 0]	n/a	catFR1	3	R1616S
63.114	1.601	199671	WORD	n/a	n/a	MOSQUITO	Insects	4	-1	[0, 0, 0]	n/a	catFR1	3	R1616S
64.715	0.916	201264	WORD_OFF	n/a	n/a	MOSQUITO	Insects	4	-1	[0, 0, 0]	n/a	catFR1	3	R1616S
65.631	1.6	202186	WORD	n/a	n/a	JELLO	Desserts	5	-1	[0, 0, 0]	n/a	catFR1	3	R1616S
67.231	0.9	203778	WORD_OFF	n/a	n/a	JELLO	Desserts	5	-1	[0, 0, 0]	n/a	catFR1	3	R1616S
68.131	1.617	204687	WORD	n/a	n/a	CUPCAKE	Desserts	6	-1	[0, 0, 0]	n/a	catFR1	3	R1616S
69.748	0.95	206293	WORD_OFF	n/a	n/a	CUPCAKE	Desserts	6	-1	[0, 0, 0]	n/a	catFR1	3	R1616S
70.698	1.616	207244	WORD	n/a	n/a	STREAM	Landscapes	7	-1	[0, 0, 0]	n/a	catFR1	3	R1616S
72.314	0.9	208864	WORD_OFF	n/a	n/a	STREAM	Landscapes	7	-1	[0, 0, 0]	n/a	catFR1	3	R1616S
73.214	1.615	209758	WORD	n/a	n/a	LAKE	Landscapes	8	-1	[0, 0, 0]	n/a	catFR1	3	R1616S
74.829	0.869	211379	WORD_OFF	n/a	n/a	LAKE	Landscapes	8	-1	[0, 0, 0]	n/a	catFR1	3	R1616S
75.698	1.616	212245	WORD	n/a	n/a	MOUSSE	Desserts	9	-1	[0, 0, 0]	n/a	catFR1	3	R1616S
77.314	0.867	213866	WORD_OFF	n/a	n/a	MOUSSE	Desserts	9	-1	[0, 0, 0]	n/a	catFR1	3	R1616S
78.181	1.616	214732	WORD	n/a	n/a	COBBLER	Desserts	10	-1	[0, 0, 0]	n/a	catFR1	3	R1616S
79.797	0.901	216353	WORD_OFF	n/a	n/a	COBBLER	Desserts	10	-1	[0, 0, 0]	n/a	catFR1	3	R1616S
80.698	1.616	217247	WORD	n/a	n/a	FLY	Insects	11	-1	[0, 0, 0]	n/a	catFR1	3	R1616S
82.314	0.933	218868	WORD_OFF	n/a	n/a	FLY	Insects	11	-1	[0, 0, 0]	n/a	catFR1	3	R1616S
83.247	1.602	219790	WORD	n/a	n/a	SPIDER	Insects	12	-1	[0, 0, 0]	n/a	catFR1	3	R1616S
84.849	0.0	221393	START	n/a	n/a	n/a	n/a	-999	-1	[-999, -999, -999]	n/a	catFR1	3	R1616S
84.849	0.0	221393	PROB	0.0	n/a	n/a	n/a	-999	-1	[5, 8, 7]	20	catFR1	3	R1616S
84.847	0.002	221397	WORD_OFF	n/a	n/a	SPIDER	Insects	12	-1	[0, 0, 0]	n/a	catFR1	3	R1616S
84.849	0.0	221397	ENCODING_END	n/a	n/a	n/a	n/a	-999	-1	[0, 0, 0]	n/a	catFR1	3	R1616S
84.849	5.399	221397	DISTRACT_START	n/a	n/a	n/a	n/a	-999	-1	[0, 0, 0]	n/a	catFR1	3	R1616S
90.248	5.367	226791	PROB	5.367	n/a	n/a	n/a	-999	-1	[8, 2, 4]	14	catFR1	3	R1616S
95.615	5.633	232158	PROB	5.633	n/a	n/a	n/a	-999	-1	[6, 2, 7]	15	catFR1	3	R1616S
101.248	3.665	237791	PROB	3.665	n/a	n/a	n/a	-999	-1	[5, 5, 2]	12	catFR1	3	R1616S
104.913	0.0	241456	STOP	n/a	n/a	n/a	n/a	-999	-1	[-999, -999, -999]	n/a	catFR1	3	R1616S
104.913	2.067	241460	DISTRACT_END	n/a	n/a	n/a	n/a	-999	-1	[0, 0, 0]	n/a	catFR1	3	R1616S
106.98	1.781	243522	REC_START	n/a	n/a	n/a	n/a	-999	-1	[0, 0, 0]	n/a	catFR1	3	R1616S
108.761	0.739	245304	REC_WORD	0.739	n/a	MOUSE	n/a	-999	-1	[0, 0, 0]	n/a	catFR1	3	R1616S
109.5	0.763	246043	REC_WORD	0.763	n/a	ROACH	Insects	3	-1	[0, 0, 0]	n/a	catFR1	3	R1616S
110.263	0.746	246805	REC_WORD	0.746	n/a	FLY	Insects	11	-1	[0, 0, 0]	n/a	catFR1	3	R1616S
111.009	2.794	247551	REC_WORD	2.794	n/a	MOSQUITO	Insects	4	-1	[0, 0, 0]	n/a	catFR1	3	R1616S
113.803	0.851	250345	REC_WORD_VV	0.851	n/a	<>	n/a	-999	-1	[0, 0, 0]	n/a	catFR1	3	R1616S
114.654	0.418	251196	REC_WORD	0.418	n/a	MOUSE	n/a	-999	-1	[0, 0, 0]	n/a	catFR1	3	R1616S
115.072	1.864	251614	REC_WORD	1.864	n/a	MOUSSE	Desserts	9	-1	[0, 0, 0]	n/a	catFR1	3	R1616S
116.936	1.937	253478	REC_WORD_VV	1.937	n/a	<>	n/a	-999	-1	[0, 0, 0]	n/a	catFR1	3	R1616S
118.873	4.961	255415	REC_WORD_VV	4.961	n/a	<>	n/a	-999	-1	[0, 0, 0]	n/a	catFR1	3	R1616S
123.834	0.976	260376	REC_WORD_VV	0.976	n/a	<>	n/a	-999	-1	[0, 0, 0]	n/a	catFR1	3	R1616S
124.81	0.952	261352	REC_WORD_VV	0.952	n/a	<>	n/a	-999	-1	[0, 0, 0]	n/a	catFR1	3	R1616S
125.762	1.254	262304	REC_WORD_VV	1.254	n/a	<>	n/a	-999	-1	[0, 0, 0]	n/a	catFR1	3	R1616S
127.016	1.044	263558	REC_WORD_VV	1.044	n/a	<>	n/a	-999	-1	[0, 0, 0]	n/a	catFR1	3	R1616S
128.06	0.906	264602	REC_WORD_VV	0.906	n/a	<>	n/a	-999	-1	[0, 0, 0]	n/a	catFR1	3	R1616S
128.966	6.879	265508	REC_WORD_VV	6.879	n/a	<>	n/a	-999	-1	[0, 0, 0]	n/a	catFR1	3	R1616S
135.845	1.323	272386	REC_WORD_VV	1.323	n/a	<>	n/a	-999	-1	[0, 0, 0]	n/a	catFR1	3	R1616S
137.168	64.43	273721	REC_END	n/a	n/a	n/a	n/a	-999	-1	[0, 0, 0]	n/a	catFR1	3	R1616S
201.598	10.349	338145	COUNTDOWN_START	n/a	n/a	n/a	n/a	-999	1	[0, 0, 0]	n/a	catFR1	3	R1616S
211.947	0.0	348485	COUNTDOWN_END	n/a	n/a	n/a	n/a	-999	1	[0, 0, 0]	n/a	catFR1	3	R1616S
211.947	2.201	348485	ENCODING_START	n/a	n/a	n/a	n/a	-999	1	[0, 0, 0]	n/a	catFR1	3	R1616S
214.148	1.6	350692	WORD	n/a	wordpools/wordpool_categorized_EN.txt	MOTH	Insects	1	1	[0, 0, 0]	n/a	catFR1	3	R1616S
215.748	0.766	352285	WORD_OFF	n/a	n/a	MOTH	Insects	1	1	[0, 0, 0]	n/a	catFR1	3	R1616S
216.514	1.616	353053	WORD	n/a	wordpools/wordpool_categorized_EN.txt	BEE	Insects	2	1	[0, 0, 0]	n/a	catFR1	3	R1616S
218.13	0.968	354674	WORD_OFF	n/a	n/a	BEE	Insects	2	1	[0, 0, 0]	n/a	catFR1	3	R1616S
219.098	1.616	355638	WORD	n/a	wordpools/wordpool_categorized_EN.txt	COAT	Clothing	3	1	[0, 0, 0]	n/a	catFR1	3	R1616S
220.714	0.917	357259	WORD_OFF	n/a	n/a	COAT	Clothing	3	1	[0, 0, 0]	n/a	catFR1	3	R1616S
221.631	1.616	358167	WORD	n/a	wordpools/wordpool_categorized_EN.txt	UNDERWEAR	Clothing	4	1	[0, 0, 0]	n/a	catFR1	3	R1616S
223.247	0.801	359788	WORD_OFF	n/a	n/a	UNDERWEAR	Clothing	4	1	[0, 0, 0]	n/a	catFR1	3	R1616S
224.048	1.6	360584	WORD	n/a	wordpools/wordpool_categorized_EN.txt	SUEDE	Fabric	5	1	[0, 0, 0]	n/a	catFR1	3	R1616S
225.648	0.95	362191	WORD_OFF	n/a	n/a	SUEDE	Fabric	5	1	[0, 0, 0]	n/a	catFR1	3	R1616S
226.598	1.616	363141	WORD	n/a	wordpools/wordpool_categorized_EN.txt	COTTON	Fabric	6	1	[0, 0, 0]	n/a	catFR1	3	R1616S
228.214	1.0	364762	WORD_OFF	n/a	n/a	COTTON	Fabric	6	1	[0, 0, 0]	n/a	catFR1	3	R1616S
229.214	1.616	365754	WORD	n/a	wordpools/wordpool_categorized_EN.txt	ANT	Insects	7	1	[0, 0, 0]	n/a	catFR1	3	R1616S
230.83	0.901	367374	WORD_OFF	n/a	n/a	ANT	Insects	7	1	[0, 0, 0]	n/a	catFR1	3	R1616S
231.731	1.617	368269	WORD	n/a	wordpools/wordpool_categorized_EN.txt	LADYBUG	Insects	8	1	[0, 0, 0]	n/a	catFR1	3	R1616S
233.348	0.982	369889	WORD_OFF	n/a	n/a	LADYBUG	Insects	8	1	[0, 0, 0]	n/a	catFR1	3	R1616S
234.33	1.618	370867	WORD	n/a	wordpools/wordpool_categorized_EN.txt	SATIN	Fabric	9	1	[0, 0, 0]	n/a	catFR1	3	R1616S
235.948	0.899	372488	WORD_OFF	n/a	n/a	SATIN	Fabric	9	1	[0, 0, 0]	n/a	catFR1	3	R1616S
236.847	1.6	373388	WORD	n/a	wordpools/wordpool_categorized_EN.txt	DENIM	Fabric	10	1	[0, 0, 0]	n/a	catFR1	3	R1616S
238.447	0.784	374989	WORD_OFF	n/a	n/a	DENIM	Fabric	10	1	[0, 0, 0]	n/a	catFR1	3	R1616S
239.231	1.617	375772	WORD	n/a	wordpools/wordpool_categorized_EN.txt	JACKET	Clothing	11	1	[0, 0, 0]	n/a	catFR1	3	R1616S
240.848	0.95	377392	WORD_OFF	n/a	n/a	JACKET	Clothing	11	1	[0, 0, 0]	n/a	catFR1	3	R1616S
241.798	1.617	378342	WORD	n/a	wordpools/wordpool_categorized_EN.txt	BLOUSE	Clothing	12	1	[0, 0, 0]	n/a	catFR1	3	R1616S
243.415	0.001	379951	PROB	0.001	n/a	n/a	n/a	-999	1	[7, 5, 6]	18	catFR1	3	R1616S
243.416	0.0	379952	START	n/a	n/a	n/a	n/a	-999	1	[-999, -999, -999]	n/a	catFR1	3	R1616S
243.415	0.001	379963	WORD_OFF	n/a	n/a	BLOUSE	Clothing	12	1	[0, 0, 0]	n/a	catFR1	3	R1616S
243.416	0.0	379963	ENCODING_END	n/a	n/a	n/a	n/a	-999	1	[0, 0, 0]	n/a	catFR1	3	R1616S
243.416	6.099	379963	DISTRACT_START	n/a	n/a	n/a	n/a	-999	1	[0, 0, 0]	n/a	catFR1	3	R1616S
249.515	3.434	386051	PROB	3.434	n/a	n/a	n/a	-999	1	[4, 5, 5]	14	catFR1	3	R1616S
252.949	3.999	389484	PROB	3.999	n/a	n/a	n/a	-999	1	[4, 6, 7]	17	catFR1	3	R1616S
256.948	3.132	393483	PROB	3.132	n/a	n/a	n/a	-999	1	[3, 7, 1]	1	catFR1	3	R1616S
260.08	5.617	396615	PROB	5.617	n/a	n/a	n/a	-999	1	[5, 2, 2]	9	catFR1	3	R1616S
265.697	0.0	402232	STOP	n/a	n/a	n/a	n/a	-999	1	[-999, -999, -999]	n/a	catFR1	3	R1616S
265.697	2.201	402234	DISTRACT_END	n/a	n/a	n/a	n/a	-999	1	[0, 0, 0]	n/a	catFR1	3	R1616S
267.898	0.887	404436	REC_START	n/a	n/a	n/a	n/a	-999	1	[0, 0, 0]	n/a	catFR1	3	R1616S
268.785	1.019	405320	REC_WORD	1.019	n/a	BLOUSE	Clothing	12	1	[0, 0, 0]	n/a	catFR1	3	R1616S
269.804	1.597	406339	REC_WORD	1.597	n/a	MOUSSE	Desserts	-999	1	[0, 0, 0]	n/a	catFR1	3	R1616S
271.401	2.737	407936	REC_WORD	2.737	n/a	JACKET	Clothing	11	1	[0, 0, 0]	n/a	catFR1	3	R1616S
274.138	2.731	410673	REC_WORD	2.731	n/a	DENIM	Fabric	10	1	[0, 0, 0]	n/a	catFR1	3	R1616S
276.869	3.24	413403	REC_WORD	3.24	n/a	SUEDE	Fabric	5	1	[0, 0, 0]	n/a	catFR1	3	R1616S
280.109	1.256	416643	REC_WORD_VV	1.256	n/a	<>	n/a	-999	1	[0, 0, 0]	n/a	catFR1	3	R1616S
281.365	2.097	417899	REC_WORD_VV	2.097	n/a	<>	n/a	-999	1	[0, 0, 0]	n/a	catFR1	3	R1616S
283.462	2.908	419996	REC_WORD_VV	2.908	n/a	<>	n/a	-999	1	[0, 0, 0]	n/a	catFR1	3	R1616S
286.37	3.02	422904	REC_WORD_VV	3.02	n/a	<>	n/a	-999	1	[0, 0, 0]	n/a	catFR1	3	R1616S
289.39	4.371	425924	REC_WORD_VV	4.371	n/a	<>	n/a	-999	1	[0, 0, 0]	n/a	catFR1	3	R1616S
293.761	3.092	430295	REC_WORD_VV	3.092	n/a	<>	n/a	-999	1	[0, 0, 0]	n/a	catFR1	3	R1616S
296.853	1.234	433386	REC_WORD_VV	1.234	n/a	<>	n/a	-999	1	[0, 0, 0]	n/a	catFR1	3	R1616S
298.087	4.044	434621	REC_END	n/a	n/a	n/a	n/a	-999	1	[0, 0, 0]	n/a	catFR1	3	R1616S
302.131	10.349	438673	COUNTDOWN_START	n/a	n/a	n/a	n/a	-999	2	[0, 0, 0]	n/a	catFR1	3	R1616S
312.48	0.0	449012	COUNTDOWN_END	n/a	n/a	n/a	n/a	-999	2	[0, 0, 0]	n/a	catFR1	3	R1616S
312.48	2.017	449026	ENCODING_START	n/a	n/a	n/a	n/a	-999	2	[0, 0, 0]	n/a	catFR1	3	R1616S
314.497	1.617	451038	WORD	n/a	wordpools/wordpool_categorized_EN.txt	BROCCOLI	Vegetables	1	2	[0, 0, 0]	n/a	catFR1	3	R1616S
316.114	0.967	452658	WORD_OFF	n/a	n/a	BROCCOLI	Vegetables	1	2	[0, 0, 0]	n/a	catFR1	3	R1616S
317.081	1.616	453623	WORD	n/a	wordpools/wordpool_categorized_EN.txt	CABBAGE	Vegetables	2	2	[0, 0, 0]	n/a	catFR1	3	R1616S
318.697	0.784	455229	WORD_OFF	n/a	n/a	CABBAGE	Vegetables	2	2	[0, 0, 0]	n/a	catFR1	3	R1616S
319.481	1.617	456026	WORD	n/a	wordpools/wordpool_categorized_EN.txt	SPATULA	KitchenTools	3	2	[0, 0, 0]	n/a	catFR1	3	R1616S
321.098	0.849	457632	WORD_OFF	n/a	n/a	SPATULA	KitchenTools	3	2	[0, 0, 0]	n/a	catFR1	3	R1616S
321.947	1.616	458485	WORD	n/a	wordpools/wordpool_categorized_EN.txt	CORKSCREW	KitchenTools	4	2	[0, 0, 0]	n/a	catFR1	3	R1616S
323.563	0.8	460105	WORD_OFF	n/a	n/a	CORKSCREW	KitchenTools	4	2	[0, 0, 0]	n/a	catFR1	3	R1616S
324.363	1.601	460902	WORD	n/a	wordpools/wordpool_categorized_EN.txt	NOTEBOOK	OfficeSupplies	5	2	[0, 0, 0]	n/a	catFR1	3	R1616S
325.964	0.8	462495	WORD_OFF	n/a	n/a	NOTEBOOK	OfficeSupplies	5	2	[0, 0, 0]	n/a	catFR1	3	R1616S
326.764	1.6	463305	WORD	n/a	wordpools/wordpool_categorized_EN.txt	RULER	OfficeSupplies	6	2	[0, 0, 0]	n/a	catFR1	3	R1616S
328.364	0.8	464898	WORD_OFF	n/a	n/a	RULER	OfficeSupplies	6	2	[0, 0, 0]	n/a	catFR1	3	R1616S
329.164	1.617	465708	WORD	n/a	wordpools/wordpool_categorized_EN.txt	LETTUCE	Vegetables	7	2	[0, 0, 0]	n/a	catFR1	3	R1616S
330.781	0.783	467315	WORD_OFF	n/a	n/a	LETTUCE	Vegetables	7	2	[0, 0, 0]	n/a	catFR1	3	R1616S
331.564	1.617	468097	WORD	n/a	wordpools/wordpool_categorized_EN.txt	CAULIFLOWER	Vegetables	8	2	[0, 0, 0]	n/a	catFR1	3	R1616S
333.181	0.799	469718	WORD_OFF	n/a	n/a	CAULIFLOWER	Vegetables	8	2	[0, 0, 0]	n/a	catFR1	3	R1616S
333.98	1.601	470514	WORD	n/a	wordpools/wordpool_categorized_EN.txt	COLANDER	KitchenTools	9	2	[0, 0, 0]	n/a	catFR1	3	R1616S
335.581	0.9	472121	WORD_OFF	n/a	n/a	COLANDER	KitchenTools	9	2	[0, 0, 0]	n/a	catFR1	3	R1616S
336.481	1.6	473015	WORD	n/a	wordpools/wordpool_categorized_EN.txt	FORK	KitchenTools	10	2	[0, 0, 0]	n/a	catFR1	3	R1616S
338.081	0.933	474622	WORD_OFF	n/a	n/a	FORK	KitchenTools	10	2	[0, 0, 0]	n/a	catFR1	3	R1616S
339.014	1.601	475558	WORD	n/a	wordpools/wordpool_categorized_EN.txt	STAPLER	OfficeSupplies	11	2	[0, 0, 0]	n/a	catFR1	3	R1616S
340.615	0.899	477151	WORD_OFF	n/a	n/a	STAPLER	OfficeSupplies	11	2	[0, 0, 0]	n/a	catFR1	3	R1616S
341.514	1.601	478045	WORD	n/a	wordpools/wordpool_categorized_EN.txt	GLUE	OfficeSupplies	12	2	[0, 0, 0]	n/a	catFR1	3	R1616S
343.115	0.003	479646	PROB	0.003	n/a	n/a	n/a	-999	2	[4, 7, 7]	18	catFR1	3	R1616S
343.118	0.0	479649	START	n/a	n/a	n/a	n/a	-999	2	[-999, -999, -999]	n/a	catFR1	3	R1616S
343.114	0.004	479652	WORD_OFF	n/a	n/a	GLUE	OfficeSupplies	12	2	[0, 0, 0]	n/a	catFR1	3	R1616S
343.118	0.0	479652	ENCODING_END	n/a	n/a	n/a	n/a	-999	2	[0, 0, 0]	n/a	catFR1	3	R1616S
343.118	4.679	479652	DISTRACT_START	n/a	n/a	n/a	n/a	-999	2	[0, 0, 0]	n/a	catFR1	3	R1616S
347.797	4.25	484328	PROB	4.25	n/a	n/a	n/a	-999	2	[1, 8, 4]	13	catFR1	3	R1616S
352.047	4.652	488578	PROB	4.652	n/a	n/a	n/a	-999	2	[2, 5, 8]	15	catFR1	3	R1616S
356.699	3.816	493229	PROB	3.816	n/a	n/a	n/a	-999	2	[1, 6, 2]	9	catFR1	3	R1616S
360.515	2.949	497045	PROB	2.949	n/a	n/a	n/a	-999	2	[6, 2, 1]	9	catFR1	3	R1616S
363.464	0.0	499994	STOP	n/a	n/a	n/a	n/a	-999	2	[-999, -999, -999]	n/a	catFR1	3	R1616S
363.464	2.034	499995	DISTRACT_END	n/a	n/a	n/a	n/a	-999	2	[0, 0, 0]	n/a	catFR1	3	R1616S
365.498	3.077	502029	REC_START	n/a	n/a	n/a	n/a	-999	2	[0, 0, 0]	n/a	catFR1	3	R1616S
368.575	1.075	505105	REC_WORD	1.075	n/a	CORKSCREW	KitchenTools	4	2	[0, 0, 0]	n/a	catFR1	3	R1616S
369.65	3.25	506180	REC_WORD	3.25	n/a	LADDER	n/a	-999	2	[0, 0, 0]	n/a	catFR1	3	R1616S
372.9	8.642	509430	REC_WORD_VV	8.642	n/a	<>	n/a	-999	2	[0, 0, 0]	n/a	catFR1	3	R1616S
381.542	1.235	518071	REC_WORD_VV	1.235	n/a	<>	n/a	-999	2	[0, 0, 0]	n/a	catFR1	3	R1616S
382.777	0.632	519306	REC_WORD	0.632	n/a	STAPLER	OfficeSupplies	11	2	[0, 0, 0]	n/a	catFR1	3	R1616S
383.409	5.964	519938	REC_WORD	5.964	n/a	LADDER	n/a	-999	2	[0, 0, 0]	n/a	catFR1	3	R1616S
389.373	6.345	525902	REC_WORD_VV	6.345	n/a	<>	n/a	-999	2	[0, 0, 0]	n/a	catFR1	3	R1616S
395.718	10.563	532256	REC_END	n/a	n/a	n/a	n/a	-999	2	[0, 0, 0]	n/a	catFR1	3	R1616S
406.281	10.349	542819	COUNTDOWN_START	n/a	n/a	n/a	n/a	-999	3	[0, 0, 0]	n/a	catFR1	3	R1616S
416.63	0.001	553158	COUNTDOWN_END	n/a	n/a	n/a	n/a	-999	3	[0, 0, 0]	n/a	catFR1	3	R1616S
416.631	2.133	553172	ENCODING_START	n/a	n/a	n/a	n/a	-999	3	[0, 0, 0]	n/a	catFR1	3	R1616S
418.764	1.6	555295	WORD	n/a	wordpools/wordpool_categorized_EN.txt	JELLYFISH	OceanAnimals	1	3	[0, 0, 0]	n/a	catFR1	3	R1616S
420.364	0.784	556902	WORD_OFF	n/a	n/a	JELLYFISH	OceanAnimals	1	3	[0, 0, 0]	n/a	catFR1	3	R1616S
421.148	1.6	557685	WORD	n/a	wordpools/wordpool_categorized_EN.txt	WHALE	OceanAnimals	2	3	[0, 0, 0]	n/a	catFR1	3	R1616S
422.748	0.766	559277	WORD_OFF	n/a	n/a	WHALE	OceanAnimals	2	3	[0, 0, 0]	n/a	catFR1	3	R1616S
423.514	1.617	560046	WORD	n/a	wordpools/wordpool_categorized_EN.txt	BOAT	Vehicles	3	3	[0, 0, 0]	n/a	catFR1	3	R1616S
425.131	0.8	561667	WORD_OFF	n/a	n/a	BOAT	Vehicles	3	3	[0, 0, 0]	n/a	catFR1	3	R1616S
425.931	1.6	562463	WORD	n/a	wordpools/wordpool_categorized_EN.txt	BUS	Vehicles	4	3	[0, 0, 0]	n/a	catFR1	3	R1616S
427.531	1.0	564070	WORD_OFF	n/a	n/a	BUS	Vehicles	4	3	[0, 0, 0]	n/a	catFR1	3	R1616S
428.531	1.616	565062	WORD	n/a	wordpools/wordpool_categorized_EN.txt	BUTTERFLY	Insects	5	3	[0, 0, 0]	n/a	catFR1	3	R1616S
430.147	0.951	566682	WORD_OFF	n/a	n/a	BUTTERFLY	Insects	5	3	[0, 0, 0]	n/a	catFR1	3	R1616S
431.098	1.6	567633	WORD	n/a	wordpools/wordpool_categorized_EN.txt	CRICKET	Insects	6	3	[0, 0, 0]	n/a	catFR1	3	R1616S
432.698	0.833	569225	WORD_OFF	n/a	n/a	CRICKET	Insects	6	3	[0, 0, 0]	n/a	catFR1	3	R1616S
433.531	1.616	570064	WORD	n/a	wordpools/wordpool_categorized_EN.txt	LOBSTER	OceanAnimals	7	3	[0, 0, 0]	n/a	catFR1	3	R1616S
435.147	0.901	571684	WORD_OFF	n/a	n/a	LOBSTER	OceanAnimals	7	3	[0, 0, 0]	n/a	catFR1	3	R1616S
436.048	1.615	572579	WORD	n/a	wordpools/wordpool_categorized_EN.txt	SQUID	OceanAnimals	8	3	[0, 0, 0]	n/a	catFR1	3	R1616S
437.663	1.0	574199	WORD_OFF	n/a	n/a	SQUID	OceanAnimals	8	3	[0, 0, 0]	n/a	catFR1	3	R1616S
438.663	1.6	575191	WORD	n/a	wordpools/wordpool_categorized_EN.txt	BEETLE	Insects	9	3	[0, 0, 0]	n/a	catFR1	3	R1616S
440.263	0.951	576798	WORD_OFF	n/a	n/a	BEETLE	Insects	9	3	[0, 0, 0]	n/a	catFR1	3	R1616S
441.214	1.617	577748	WORD	n/a	wordpools/wordpool_categorized_EN.txt	GNAT	Insects	10	3	[0, 0, 0]	n/a	catFR1	3	R1616S
442.831	0.832	579369	WORD_OFF	n/a	n/a	GNAT	Insects	10	3	[0, 0, 0]	n/a	catFR1	3	R1616S
443.663	1.601	580193	WORD	n/a	wordpools/wordpool_categorized_EN.txt	JEEP	Vehicles	11	3	[0, 0, 0]	n/a	catFR1	3	R1616S
445.264	0.816	581800	WORD_OFF	n/a	n/a	JEEP	Vehicles	11	3	[0, 0, 0]	n/a	catFR1	3	R1616S
446.08	1.602	582610	WORD	n/a	wordpools/wordpool_categorized_EN.txt	TRAIN	Vehicles	12	3	[0, 0, 0]	n/a	catFR1	3	R1616S
447.682	0.0	584208	PROB	0.0	n/a	n/a	n/a	-999	3	[1, 6, 6]	13	catFR1	3	R1616S
447.682	0.0	584208	START	n/a	n/a	n/a	n/a	-999	3	[-999, -999, -999]	n/a	catFR1	3	R1616S
447.681	0.001	584217	WORD_OFF	n/a	n/a	TRAIN	Vehicles	12	3	[0, 0, 0]	n/a	catFR1	3	R1616S
447.682	0.0	584217	ENCODING_END	n/a	n/a	n/a	n/a	-999	3	[0, 0, 0]	n/a	catFR1	3	R1616S
447.682	4.433	584217	DISTRACT_START	n/a	n/a	n/a	n/a	-999	3	[0, 0, 0]	n/a	catFR1	3	R1616S
452.115	4.099	588641	PROB	4.099	n/a	n/a	n/a	-999	3	[5, 2, 3]	10	catFR1	3	R1616S
456.214	3.3	592740	PROB	3.3	n/a	n/a	n/a	-999	3	[1, 4, 1]	6	catFR1	3	R1616S
459.514	9.184	596039	PROB	9.184	n/a	n/a	n/a	-999	3	[8, 6, 3]	15	catFR1	3	R1616S
468.698	0.0	605223	STOP	n/a	n/a	n/a	n/a	-999	3	[-999, -999, -999]	n/a	catFR1	3	R1616S
468.698	2.333	605231	DISTRACT_END	n/a	n/a	n/a	n/a	-999	3	[0, 0, 0]	n/a	catFR1	3	R1616S
471.031	3.744	607558	REC_START	n/a	n/a	n/a	n/a	-999	3	[0, 0, 0]	n/a	catFR1	3	R1616S
474.775	3.851	611300	REC_WORD_VV	3.851	n/a	<>	n/a	-999	3	[0, 0, 0]	n/a	catFR1	3	R1616S
478.626	1.96	615151	REC_WORD_VV	1.96	n/a	<>	n/a	-999	3	[0, 0, 0]	n/a	catFR1	3	R1616S
480.586	3.184	617110	REC_WORD_VV	3.184	n/a	<>	n/a	-999	3	[0, 0, 0]	n/a	catFR1	3	R1616S
483.77	1.946	620294	REC_WORD_VV	1.946	n/a	<>	n/a	-999	3	[0, 0, 0]	n/a	catFR1	3	R1616S
485.716	3.394	622240	REC_WORD	3.394	n/a	NAP	n/a	-999	3	[0, 0, 0]	n/a	catFR1	3	R1616S
489.11	2.052	625634	REC_WORD_VV	2.052	n/a	<>	n/a	-999	3	[0, 0, 0]	n/a	catFR1	3	R1616S
491.162	5.021	627686	REC_WORD_VV	5.021	n/a	<>	n/a	-999	3	[0, 0, 0]	n/a	catFR1	3	R1616S
496.183	1.945	632707	REC_WORD_VV	1.945	n/a	<>	n/a	-999	3	[0, 0, 0]	n/a	catFR1	3	R1616S
498.128	3.122	634652	REC_WORD_VV	3.122	n/a	<>	n/a	-999	3	[0, 0, 0]	n/a	catFR1	3	R1616S
501.25	4.464	637785	REC_END	n/a	n/a	n/a	n/a	-999	3	[0, 0, 0]	n/a	catFR1	3	R1616S
505.714	10.35	642242	COUNTDOWN_START	n/a	n/a	n/a	n/a	-999	4	[0, 0, 0]	n/a	catFR1	3	R1616S
516.064	0.0	652595	COUNTDOWN_END	n/a	n/a	n/a	n/a	-999	4	[0, 0, 0]	n/a	catFR1	3	R1616S
516.064	1.95	652595	ENCODING_START	n/a	n/a	n/a	n/a	-999	4	[0, 0, 0]	n/a	catFR1	3	R1616S
518.014	1.6	654537	WORD	n/a	wordpools/wordpool_categorized_EN.txt	WRENCH	Tools	1	4	[0, 0, 0]	n/a	catFR1	3	R1616S
519.614	0.867	656144	WORD_OFF	n/a	n/a	WRENCH	Tools	1	4	[0, 0, 0]	n/a	catFR1	3	R1616S
520.481	1.617	657010	WORD	n/a	wordpools/wordpool_categorized_EN.txt	SANDER	Tools	2	4	[0, 0, 0]	n/a	catFR1	3	R1616S
522.098	0.782	658631	WORD_OFF	n/a	n/a	SANDER	Tools	2	4	[0, 0, 0]	n/a	catFR1	3	R1616S
522.88	1.601	659413	WORD	n/a	wordpools/wordpool_categorized_EN.txt	VACUUM	Appliances	3	4	[0, 0, 0]	n/a	catFR1	3	R1616S
524.481	0.783	661006	WORD_OFF	n/a	n/a	VACUUM	Appliances	3	4	[0, 0, 0]	n/a	catFR1	3	R1616S
525.264	1.616	661789	WORD	n/a	wordpools/wordpool_categorized_EN.txt	DRYER	Appliances	4	4	[0, 0, 0]	n/a	catFR1	3	R1616S
526.88	0.917	663409	WORD_OFF	n/a	n/a	DRYER	Appliances	4	4	[0, 0, 0]	n/a	catFR1	3	R1616S
527.797	1.617	664332	WORD	n/a	wordpools/wordpool_categorized_EN.txt	LIME	Fruit	5	4	[0, 0, 0]	n/a	catFR1	3	R1616S
529.414	0.95	665938	WORD_OFF	n/a	n/a	LIME	Fruit	5	4	[0, 0, 0]	n/a	catFR1	3	R1616S
530.364	1.6	666888	WORD	n/a	wordpools/wordpool_categorized_EN.txt	LEMON	Fruit	6	4	[0, 0, 0]	n/a	catFR1	3	R1616S
531.964	0.934	668495	WORD_OFF	n/a	n/a	LEMON	Fruit	6	4	[0, 0, 0]	n/a	catFR1	3	R1616S
532.898	1.6	669431	WORD	n/a	wordpools/wordpool_categorized_EN.txt	FREEZER	Appliances	7	4	[0, 0, 0]	n/a	catFR1	3	R1616S
534.498	0.833	671024	WORD_OFF	n/a	n/a	FREEZER	Appliances	7	4	[0, 0, 0]	n/a	catFR1	3	R1616S
535.331	1.6	671862	WORD	n/a	wordpools/wordpool_categorized_EN.txt	DISHWASHER	Appliances	8	4	[0, 0, 0]	n/a	catFR1	3	R1616S
536.931	0.883	673455	WORD_OFF	n/a	n/a	DISHWASHER	Appliances	8	4	[0, 0, 0]	n/a	catFR1	3	R1616S
537.814	1.6	674335	WORD	n/a	wordpools/wordpool_categorized_EN.txt	PLIERS	Tools	9	4	[0, 0, 0]	n/a	catFR1	3	R1616S
539.414	1.0	675942	WORD_OFF	n/a	n/a	PLIERS	Tools	9	4	[0, 0, 0]	n/a	catFR1	3	R1616S
540.414	1.617	676948	WORD	n/a	wordpools/wordpool_categorized_EN.txt	LEVEL	Tools	10	4	[0, 0, 0]	n/a	catFR1	3	R1616S
542.031	0.983	678555	WORD_OFF	n/a	n/a	LEVEL	Tools	10	4	[0, 0, 0]	n/a	catFR1	3	R1616S
543.014	1.617	679547	WORD	n/a	wordpools/wordpool_categorized_EN.txt	BANANA	Fruit	11	4	[0, 0, 0]	n/a	catFR1	3	R1616S
544.631	0.999	681154	WORD_OFF	n/a	n/a	BANANA	Fruit	11	4	[0, 0, 0]	n/a	catFR1	3	R1616S
545.63	1.6	682160	WORD	n/a	wordpools/wordpool_categorized_EN.txt	ORANGE	Fruit	12	4	[0, 0, 0]	n/a	catFR1	3	R1616S
547.23	0.001	683752	WORD_OFF	n/a	n/a	ORANGE	Fruit	12	4	[0, 0, 0]	n/a	catFR1	3	R1616S
547.231	0.0	683752	START	n/a	n/a	n/a	n/a	-999	4	[-999, -999, -999]	n/a	catFR1	3	R1616S
547.231	0.0	683752	PROB	0.0	n/a	n/a	n/a	-999	4	[2, 4, 5]	11	catFR1	3	R1616S
547.231	0.0	683766	ENCODING_END	n/a	n/a	n/a	n/a	-999	4	[0, 0, 0]	n/a	catFR1	3	R1616S
547.231	4.234	683766	DISTRACT_START	n/a	n/a	n/a	n/a	-999	4	[0, 0, 0]	n/a	catFR1	3	R1616S
551.465	6.931	687986	PROB	6.931	n/a	n/a	n/a	-999	4	[8, 7, 8]	23	catFR1	3	R1616S
558.396	4.186	694917	PROB	4.186	n/a	n/a	n/a	-999	4	[8, 5, 2]	15	catFR1	3	R1616S
562.582	4.517	699102	PROB	4.517	n/a	n/a	n/a	-999	4	[5, 4, 3]	12	catFR1	3	R1616S
567.099	4.965	703619	PROB	4.965	n/a	n/a	n/a	-999	4	[3, 8, 7]	18	catFR1	3	R1616S
572.064	0.0	708584	STOP	n/a	n/a	n/a	n/a	-999	4	[-999, -999, -999]	n/a	catFR1	3	R1616S
572.064	2.284	708594	DISTRACT_END	n/a	n/a	n/a	n/a	-999	4	[0, 0, 0]	n/a	catFR1	3	R1616S
574.348	3.452	710880	REC_START	n/a	n/a	n/a	n/a	-999	4	[0, 0, 0]	n/a	catFR1	3	R1616S
577.8	7.157	714320	REC_WORD_VV	7.157	n/a	<>	n/a	-999	4	[0, 0, 0]	n/a	catFR1	3	R1616S
584.957	19.266	721476	REC_WORD_VV	19.266	n/a	<>	n/a	-999	4	[0, 0, 0]	n/a	catFR1	3	R1616S
604.223	0.356	740741	REC_WORD_VV	0.356	n/a	<>	n/a	-999	4	[0, 0, 0]	n/a	catFR1	3	R1616S
604.579	515.769	741107	REC_END	n/a	n/a	n/a	n/a	-999	4	[0, 0, 0]	n/a	catFR1	3	R1616S
1120.348	10.35	1256848	COUNTDOWN_START	n/a	n/a	n/a	n/a	-999	5	[0, 0, 0]	n/a	catFR1	3	R1616S
1130.698	0.0	1267201	COUNTDOWN_END	n/a	n/a	n/a	n/a	-999	5	[0, 0, 0]	n/a	catFR1	3	R1616S
1130.698	1.849	1267201	ENCODING_START	n/a	n/a	n/a	n/a	-999	5	[0, 0, 0]	n/a	catFR1	3	R1616S
1132.547	1.6	1269046	WORD	n/a	wordpools/wordpool_categorized_EN.txt	BIRCH	Trees	1	5	[0, 0, 0]	n/a	catFR1	3	R1616S
1134.147	0.966	1270653	WORD_OFF	n/a	n/a	BIRCH	Trees	1	5	[0, 0, 0]	n/a	catFR1	3	R1616S
1135.113	1.601	1271617	WORD	n/a	wordpools/wordpool_categorized_EN.txt	EVERGREEN	Trees	2	5	[0, 0, 0]	n/a	catFR1	3	R1616S
1136.714	0.866	1273209	WORD_OFF	n/a	n/a	EVERGREEN	Trees	2	5	[0, 0, 0]	n/a	catFR1	3	R1616S
1137.58	1.617	1274076	WORD	n/a	wordpools/wordpool_categorized_EN.txt	STRAINER	KitchenTools	3	5	[0, 0, 0]	n/a	catFR1	3	R1616S
1139.197	0.967	1275696	WORD_OFF	n/a	n/a	STRAINER	KitchenTools	3	5	[0, 0, 0]	n/a	catFR1	3	R1616S
1140.164	1.617	1276660	WORD	n/a	wordpools/wordpool_categorized_EN.txt	GRATER	KitchenTools	4	5	[0, 0, 0]	n/a	catFR1	3	R1616S
1141.781	0.999	1278281	WORD_OFF	n/a	n/a	GRATER	KitchenTools	4	5	[0, 0, 0]	n/a	catFR1	3	R1616S
1142.78	1.601	1279273	WORD	n/a	wordpools/wordpool_categorized_EN.txt	SEAGULL	Birds	5	5	[0, 0, 0]	n/a	catFR1	3	R1616S
1144.381	0.949	1280880	WORD_OFF	n/a	n/a	SEAGULL	Birds	5	5	[0, 0, 0]	n/a	catFR1	3	R1616S
1145.33	1.6	1281830	WORD	n/a	wordpools/wordpool_categorized_EN.txt	PIGEON	Birds	6	5	[0, 0, 0]	n/a	catFR1	3	R1616S
1146.93	0.984	1283423	WORD_OFF	n/a	n/a	PIGEON	Birds	6	5	[0, 0, 0]	n/a	catFR1	3	R1616S
1147.914	1.6	1284415	WORD	n/a	wordpools/wordpool_categorized_EN.txt	WILLOW	Trees	7	5	[0, 0, 0]	n/a	catFR1	3	R1616S
1149.514	0.8	1286008	WORD_OFF	n/a	n/a	WILLOW	Trees	7	5	[0, 0, 0]	n/a	catFR1	3	R1616S
1150.314	1.6	1286818	WORD	n/a	wordpools/wordpool_categorized_EN.txt	HICKORY	Trees	8	5	[0, 0, 0]	n/a	catFR1	3	R1616S
1151.914	0.85	1288411	WORD_OFF	n/a	n/a	HICKORY	Trees	8	5	[0, 0, 0]	n/a	catFR1	3	R1616S
1152.764	1.6	1289263	WORD	n/a	wordpools/wordpool_categorized_EN.txt	DOVE	Birds	9	5	[0, 0, 0]	n/a	catFR1	3	R1616S
1154.364	0.8	1290856	WORD_OFF	n/a	n/a	DOVE	Birds	9	5	[0, 0, 0]	n/a	catFR1	3	R1616S
1155.164	1.6	1291666	WORD	n/a	wordpools/wordpool_categorized_EN.txt	FINCH	Birds	10	5	[0, 0, 0]	n/a	catFR1	3	R1616S
1156.764	0.984	1293259	WORD_OFF	n/a	n/a	FINCH	Birds	10	5	[0, 0, 0]	n/a	catFR1	3	R1616S
1157.748	1.615	1294251	WORD	n/a	wordpools/wordpool_categorized_EN.txt	PEELER	KitchenTools	11	5	[0, 0, 0]	n/a	catFR1	3	R1616S
1159.363	0.785	1295858	WORD_OFF	n/a	n/a	PEELER	KitchenTools	11	5	[0, 0, 0]	n/a	catFR1	3	R1616S
1160.148	1.601	1296640	WORD	n/a	wordpools/wordpool_categorized_EN.txt	TONGS	KitchenTools	12	5	[0, 0, 0]	n/a	catFR1	3	R1616S
1161.749	0.0	1298240	START	n/a	n/a	n/a	n/a	-999	5	[-999, -999, -999]	n/a	catFR1	3	R1616S
1161.749	0.0	1298240	PROB	0.0	n/a	n/a	n/a	-999	5	[5, 5, 2]	12	catFR1	3	R1616S
1161.748	0.001	1298247	WORD_OFF	n/a	n/a	TONGS	KitchenTools	12	5	[0, 0, 0]	n/a	catFR1	3	R1616S
1161.749	0.0	1298247	ENCODING_END	n/a	n/a	n/a	n/a	-999	5	[0, 0, 0]	n/a	catFR1	3	R1616S
1161.749	3.632	1298247	DISTRACT_START	n/a	n/a	n/a	n/a	-999	5	[0, 0, 0]	n/a	catFR1	3	R1616S
1165.381	5.867	1301872	PROB	5.867	n/a	n/a	n/a	-999	5	[6, 3, 3]	12	catFR1	3	R1616S
1171.248	5.867	1307739	PROB	5.867	n/a	n/a	n/a	-999	5	[8, 8, 8]	24	catFR1	3	R1616S
1177.115	9.099	1313605	PROB	9.099	n/a	n/a	n/a	-999	5	[5, 8, 8]	21	catFR1	3	R1616S
1186.214	0.0	1322704	STOP	n/a	n/a	n/a	n/a	-999	5	[-999, -999, -999]	n/a	catFR1	3	R1616S
1186.214	2.299	1322712	DISTRACT_END	n/a	n/a	n/a	n/a	-999	5	[0, 0, 0]	n/a	catFR1	3	R1616S
1188.513	1.879	1325011	REC_START	n/a	n/a	n/a	n/a	-999	5	[0, 0, 0]	n/a	catFR1	3	R1616S
1190.392	2.257	1326882	REC_WORD_VV	2.257	n/a	<>	n/a	-999	5	[0, 0, 0]	n/a	catFR1	3	R1616S
1192.649	1.356	1329139	REC_WORD	1.356	n/a	WILLOW	Trees	7	5	[0, 0, 0]	n/a	catFR1	3	R1616S
1194.005	3.544	1330495	REC_WORD	3.544	n/a	GRATER	KitchenTools	4	5	[0, 0, 0]	n/a	catFR1	3	R1616S
1197.549	2.105	1334039	REC_WORD	2.105	n/a	FINCH	Birds	10	5	[0, 0, 0]	n/a	catFR1	3	R1616S
1199.654	3.651	1336143	REC_WORD	3.651	n/a	BIRCH	Trees	1	5	[0, 0, 0]	n/a	catFR1	3	R1616S
1203.305	6.095	1339794	REC_WORD_VV	6.095	n/a	<>	n/a	-999	5	[0, 0, 0]	n/a	catFR1	3	R1616S
1209.4	1.768	1345889	REC_WORD_VV	1.768	n/a	<>	n/a	-999	5	[0, 0, 0]	n/a	catFR1	3	R1616S
1211.168	7.583	1347657	REC_WORD_VV	7.583	n/a	<>	n/a	-999	5	[0, 0, 0]	n/a	catFR1	3	R1616S
1218.751	10.13	1355252	REC_END	n/a	n/a	n/a	n/a	-999	5	[0, 0, 0]	n/a	catFR1	3	R1616S
1228.881	10.35	1365381	COUNTDOWN_START	n/a	n/a	n/a	n/a	-999	6	[0, 0, 0]	n/a	catFR1	3	R1616S
1239.231	0.0	1375721	COUNTDOWN_END	n/a	n/a	n/a	n/a	-999	6	[0, 0, 0]	n/a	catFR1	3	R1616S
1239.231	1.949	1375721	ENCODING_START	n/a	n/a	n/a	n/a	-999	6	[0, 0, 0]	n/a	catFR1	3	R1616S
1241.18	1.601	1377677	WORD	n/a	wordpools/wordpool_categorized_EN.txt	GOOSE	Birds	1	6	[0, 0, 0]	n/a	catFR1	3	R1616S
1242.781	0.933	1379269	WORD_OFF	n/a	n/a	GOOSE	Birds	1	6	[0, 0, 0]	n/a	catFR1	3	R1616S
1243.714	1.6	1380206	WORD	n/a	wordpools/wordpool_categorized_EN.txt	CARDINAL	Birds	2	6	[0, 0, 0]	n/a	catFR1	3	R1616S
1245.314	0.782	1381812	WORD_OFF	n/a	n/a	CARDINAL	Birds	2	6	[0, 0, 0]	n/a	catFR1	3	R1616S
1246.096	1.601	1382595	WORD	n/a	wordpools/wordpool_categorized_EN.txt	TAPE	OfficeSupplies	3	6	[0, 0, 0]	n/a	catFR1	3	R1616S
1247.697	0.9	1384188	WORD_OFF	n/a	n/a	TAPE	OfficeSupplies	3	6	[0, 0, 0]	n/a	catFR1	3	R1616S
1248.597	1.6	1385096	WORD	n/a	wordpools/wordpool_categorized_EN.txt	PEN	OfficeSupplies	4	6	[0, 0, 0]	n/a	catFR1	3	R1616S
1250.197	0.85	1386688	WORD_OFF	n/a	n/a	PEN	OfficeSupplies	4	6	[0, 0, 0]	n/a	catFR1	3	R1616S
1251.047	1.601	1387541	WORD	n/a	wordpools/wordpool_categorized_EN.txt	RUM	Beverages	5	6	[0, 0, 0]	n/a	catFR1	3	R1616S
1252.648	0.933	1389148	WORD_OFF	n/a	n/a	RUM	Beverages	5	6	[0, 0, 0]	n/a	catFR1	3	R1616S
1253.581	1.6	1390070	WORD	n/a	wordpools/wordpool_categorized_EN.txt	COLA	Beverages	6	6	[0, 0, 0]	n/a	catFR1	3	R1616S
1255.181	0.766	1391676	WORD_OFF	n/a	n/a	COLA	Beverages	6	6	[0, 0, 0]	n/a	catFR1	3	R1616S
1255.947	1.601	1392445	WORD	n/a	wordpools/wordpool_categorized_EN.txt	HAWK	Birds	7	6	[0, 0, 0]	n/a	catFR1	3	R1616S
1257.548	0.982	1394038	WORD_OFF	n/a	n/a	HAWK	Birds	7	6	[0, 0, 0]	n/a	catFR1	3	R1616S
1258.53	1.601	1395016	WORD	n/a	wordpools/wordpool_categorized_EN.txt	DUCK	Birds	8	6	[0, 0, 0]	n/a	catFR1	3	R1616S
1260.131	0.85	1396622	WORD_OFF	n/a	n/a	DUCK	Birds	8	6	[0, 0, 0]	n/a	catFR1	3	R1616S
1260.981	1.6	1397475	WORD	n/a	wordpools/wordpool_categorized_EN.txt	WINE	Beverages	9	6	[0, 0, 0]	n/a	catFR1	3	R1616S
1262.581	0.817	1399068	WORD_OFF	n/a	n/a	WINE	Beverages	9	6	[0, 0, 0]	n/a	catFR1	3	R1616S
1263.398	1.6	1399892	WORD	n/a	wordpools/wordpool_categorized_EN.txt	COFFEE	Beverages	10	6	[0, 0, 0]	n/a	catFR1	3	R1616S
1264.998	0.799	1401485	WORD_OFF	n/a	n/a	COFFEE	Beverages	10	6	[0, 0, 0]	n/a	catFR1	3	R1616S
1265.797	1.601	1402295	WORD	n/a	wordpools/wordpool_categorized_EN.txt	PAPER	OfficeSupplies	11	6	[0, 0, 0]	n/a	catFR1	3	R1616S
1267.398	0.766	1403888	WORD_OFF	n/a	n/a	PAPER	OfficeSupplies	11	6	[0, 0, 0]	n/a	catFR1	3	R1616S
1268.164	1.617	1404656	WORD	n/a	wordpools/wordpool_categorized_EN.txt	MARKER	OfficeSupplies	12	6	[0, 0, 0]	n/a	catFR1	3	R1616S
1269.781	0.002	1406267	PROB	0.002	n/a	n/a	n/a	-999	6	[6, 3, 7]	15	catFR1	3	R1616S
1269.783	0.0	1406269	START	n/a	n/a	n/a	n/a	-999	6	[-999, -999, -999]	n/a	catFR1	3	R1616S
1269.781	0.002	1406277	WORD_OFF	n/a	n/a	MARKER	OfficeSupplies	12	6	[0, 0, 0]	n/a	catFR1	3	R1616S
1269.783	0.0	1406277	ENCODING_END	n/a	n/a	n/a	n/a	-999	6	[0, 0, 0]	n/a	catFR1	3	R1616S
1269.783	20.298	1406277	DISTRACT_START	n/a	n/a	n/a	n/a	-999	6	[0, 0, 0]	n/a	catFR1	3	R1616S
1290.081	0.0	1426566	STOP	n/a	n/a	n/a	n/a	-999	6	[-999, -999, -999]	n/a	catFR1	3	R1616S
1290.081	2.3	1426578	DISTRACT_END	n/a	n/a	n/a	n/a	-999	6	[0, 0, 0]	n/a	catFR1	3	R1616S
1292.381	0.369	1428877	REC_START	n/a	n/a	n/a	n/a	-999	6	[0, 0, 0]	n/a	catFR1	3	R1616S
1292.75	2.531	1429235	REC_WORD_VV	2.531	n/a	<>	n/a	-999	6	[0, 0, 0]	n/a	catFR1	3	R1616S
1295.281	2.098	1431766	REC_WORD_VV	2.098	n/a	<>	n/a	-999	6	[0, 0, 0]	n/a	catFR1	3	R1616S
1297.379	7.429	1433864	REC_WORD_VV	7.429	n/a	<>	n/a	-999	6	[0, 0, 0]	n/a	catFR1	3	R1616S
1304.808	2.635	1441292	REC_WORD_VV	2.635	n/a	<>	n/a	-999	6	[0, 0, 0]	n/a	catFR1	3	R1616S
1307.443	2.515	1443927	REC_WORD	2.515	n/a	HAWK	Birds	7	6	[0, 0, 0]	n/a	catFR1	3	R1616S
1309.958	1.199	1446442	REC_WORD	1.199	n/a	CHEESE GRATER	n/a	-999	6	[0, 0, 0]	n/a	catFR1	3	R1616S
1311.157	2.9	1447641	REC_WORD_VV	2.9	n/a	<>	n/a	-999	6	[0, 0, 0]	n/a	catFR1	3	R1616S
1314.057	5.845	1450541	REC_WORD	5.845	n/a	GRATER	KitchenTools	-999	6	[0, 0, 0]	n/a	catFR1	3	R1616S
1319.902	2.713	1456386	REC_WORD_VV	2.713	n/a	<>	n/a	-999	6	[0, 0, 0]	n/a	catFR1	3	R1616S
1322.615	2.216	1459104	REC_END	n/a	n/a	n/a	n/a	-999	6	[0, 0, 0]	n/a	catFR1	3	R1616S
1324.831	10.349	1461326	COUNTDOWN_START	n/a	n/a	n/a	n/a	-999	7	[0, 0, 0]	n/a	catFR1	3	R1616S
1335.18	0.0	1471665	COUNTDOWN_END	n/a	n/a	n/a	n/a	-999	7	[0, 0, 0]	n/a	catFR1	3	R1616S
1335.18	2.05	1471665	ENCODING_START	n/a	n/a	n/a	n/a	-999	7	[0, 0, 0]	n/a	catFR1	3	R1616S
1337.23	1.601	1473719	WORD	n/a	wordpools/wordpool_categorized_EN.txt	FOUNDATION	Building	1	7	[0, 0, 0]	n/a	catFR1	3	R1616S
1338.831	0.883	1475326	WORD_OFF	n/a	n/a	FOUNDATION	Building	1	7	[0, 0, 0]	n/a	catFR1	3	R1616S
1339.714	1.6	1476206	WORD	n/a	wordpools/wordpool_categorized_EN.txt	CEILING	Building	2	7	[0, 0, 0]	n/a	catFR1	3	R1616S
1341.314	0.866	1477799	WORD_OFF	n/a	n/a	CEILING	Building	2	7	[0, 0, 0]	n/a	catFR1	3	R1616S
1342.18	1.6	1478665	WORD	n/a	wordpools/wordpool_categorized_EN.txt	ORCHID	Flowers	3	7	[0, 0, 0]	n/a	catFR1	3	R1616S
1343.78	0.934	1480272	WORD_OFF	n/a	n/a	ORCHID	Flowers	3	7	[0, 0, 0]	n/a	catFR1	3	R1616S
1344.714	1.6	1481208	WORD	n/a	wordpools/wordpool_categorized_EN.txt	CARNATION	Flowers	4	7	[0, 0, 0]	n/a	catFR1	3	R1616S
1346.314	0.9	1482801	WORD_OFF	n/a	n/a	CARNATION	Flowers	4	7	[0, 0, 0]	n/a	catFR1	3	R1616S
1347.214	1.6	1483709	WORD	n/a	wordpools/wordpool_categorized_EN.txt	JUICE	Beverages	5	7	[0, 0, 0]	n/a	catFR1	3	R1616S
1348.814	0.817	1485302	WORD_OFF	n/a	n/a	JUICE	Beverages	5	7	[0, 0, 0]	n/a	catFR1	3	R1616S
1349.631	1.6	1486112	WORD	n/a	wordpools/wordpool_categorized_EN.txt	TEA	Beverages	6	7	[0, 0, 0]	n/a	catFR1	3	R1616S
1351.231	0.917	1487719	WORD_OFF	n/a	n/a	TEA	Beverages	6	7	[0, 0, 0]	n/a	catFR1	3	R1616S
1352.148	1.6	1488641	WORD	n/a	wordpools/wordpool_categorized_EN.txt	MARIGOLD	Flowers	7	7	[0, 0, 0]	n/a	catFR1	3	R1616S
1353.748	0.883	1490234	WORD_OFF	n/a	n/a	MARIGOLD	Flowers	7	7	[0, 0, 0]	n/a	catFR1	3	R1616S
1354.631	1.6	1491114	WORD	n/a	wordpools/wordpool_categorized_EN.txt	ROSE	Flowers	8	7	[0, 0, 0]	n/a	catFR1	3	R1616S
1356.231	0.949	1492721	WORD_OFF	n/a	n/a	ROSE	Flowers	8	7	[0, 0, 0]	n/a	catFR1	3	R1616S
1357.18	1.6	1493671	WORD	n/a	wordpools/wordpool_categorized_EN.txt	MILK	Beverages	9	7	[0, 0, 0]	n/a	catFR1	3	R1616S
1358.78	0.834	1495264	WORD_OFF	n/a	n/a	MILK	Beverages	9	7	[0, 0, 0]	n/a	catFR1	3	R1616S
1359.614	1.6	1496102	WORD	n/a	wordpools/wordpool_categorized_EN.txt	BEER	Beverages	10	7	[0, 0, 0]	n/a	catFR1	3	R1616S
1361.214	0.784	1497695	WORD_OFF	n/a	n/a	BEER	Beverages	10	7	[0, 0, 0]	n/a	catFR1	3	R1616S
1361.998	1.6	1498491	WORD	n/a	wordpools/wordpool_categorized_EN.txt	HALLWAY	Building	11	7	[0, 0, 0]	n/a	catFR1	3	R1616S
1363.598	0.915	1500084	WORD_OFF	n/a	n/a	HALLWAY	Building	11	7	[0, 0, 0]	n/a	catFR1	3	R1616S
1364.513	1.602	1501006	WORD	n/a	wordpools/wordpool_categorized_EN.txt	WALL	Building	12	7	[0, 0, 0]	n/a	catFR1	3	R1616S
1366.115	0.001	1502596	PROB	0.001	n/a	n/a	n/a	-999	7	[3, 3, 2]	8	catFR1	3	R1616S
1366.116	0.0	1502597	START	n/a	n/a	n/a	n/a	-999	7	[-999, -999, -999]	n/a	catFR1	3	R1616S
1366.114	0.002	1502599	WORD_OFF	n/a	n/a	WALL	Building	12	7	[0, 0, 0]	n/a	catFR1	3	R1616S
1366.116	0.0	1502599	ENCODING_END	n/a	n/a	n/a	n/a	-999	7	[0, 0, 0]	n/a	catFR1	3	R1616S
1366.116	4.732	1502613	DISTRACT_START	n/a	n/a	n/a	n/a	-999	7	[0, 0, 0]	n/a	catFR1	3	R1616S
1370.848	2.85	1507329	PROB	2.85	n/a	n/a	n/a	-999	7	[1, 2, 2]	5	catFR1	3	R1616S
1373.698	7.2	1510179	PROB	7.2	n/a	n/a	n/a	-999	7	[4, 6, 6]	16	catFR1	3	R1616S
1380.898	4.801	1517379	PROB	4.801	n/a	n/a	n/a	-999	7	[3, 6, 1]	10	catFR1	3	R1616S
1385.699	3.015	1522179	PROB	3.015	n/a	n/a	n/a	-999	7	[4, 4, 3]	11	catFR1	3	R1616S
1388.714	0.0	1525194	STOP	n/a	n/a	n/a	n/a	-999	7	[-999, -999, -999]	n/a	catFR1	3	R1616S
1388.714	2.15	1525205	DISTRACT_END	n/a	n/a	n/a	n/a	-999	7	[0, 0, 0]	n/a	catFR1	3	R1616S
1390.864	1.414	1527351	REC_START	n/a	n/a	n/a	n/a	-999	7	[0, 0, 0]	n/a	catFR1	3	R1616S
1392.278	1.006	1528758	REC_WORD	1.006	n/a	CARNATION	Flowers	4	7	[0, 0, 0]	n/a	catFR1	3	R1616S
1393.284	2.35	1529764	REC_WORD	2.35	n/a	MARIGOLD	Flowers	7	7	[0, 0, 0]	n/a	catFR1	3	R1616S
1395.634	0.764	1532114	REC_WORD_VV	0.764	n/a	<>	n/a	-999	7	[0, 0, 0]	n/a	catFR1	3	R1616S
1396.398	3.893	1532878	REC_WORD	3.893	n/a	ORCHID	Flowers	3	7	[0, 0, 0]	n/a	catFR1	3	R1616S
1400.291	2.963	1536771	REC_WORD_VV	2.963	n/a	<>	n/a	-999	7	[0, 0, 0]	n/a	catFR1	3	R1616S
1403.254	1.516	1539734	REC_WORD	1.516	n/a	FOUNDATION	Building	1	7	[0, 0, 0]	n/a	catFR1	3	R1616S
1404.77	5.261	1541249	REC_WORD_VV	5.261	n/a	<>	n/a	-999	7	[0, 0, 0]	n/a	catFR1	3	R1616S
1410.031	1.195	1546510	REC_WORD	1.195	n/a	FOUNDATION	Building	1	7	[0, 0, 0]	n/a	catFR1	3	R1616S
1411.226	3.365	1547705	REC_WORD	3.365	n/a	CEILING	Building	2	7	[0, 0, 0]	n/a	catFR1	3	R1616S
1414.591	1.575	1551070	REC_WORD	1.575	n/a	HOUSE	n/a	-999	7	[0, 0, 0]	n/a	catFR1	3	R1616S
1416.166	3.258	1552645	REC_WORD	3.258	n/a	ORCHID	Flowers	3	7	[0, 0, 0]	n/a	catFR1	3	R1616S
1419.424	1.673	1555903	REC_WORD	1.673	n/a	FENCE	n/a	-999	7	[0, 0, 0]	n/a	catFR1	3	R1616S
1421.097	9.584	1557578	REC_END	n/a	n/a	n/a	n/a	-999	7	[0, 0, 0]	n/a	catFR1	3	R1616S
1430.681	10.349	1567162	COUNTDOWN_START	n/a	n/a	n/a	n/a	-999	8	[0, 0, 0]	n/a	catFR1	3	R1616S
1441.03	0.001	1577516	COUNTDOWN_END	n/a	n/a	n/a	n/a	-999	8	[0, 0, 0]	n/a	catFR1	3	R1616S
1441.031	2.05	1577516	ENCODING_START	n/a	n/a	n/a	n/a	-999	8	[0, 0, 0]	n/a	catFR1	3	R1616S
1443.081	1.6	1579569	WORD	n/a	wordpools/wordpool_categorized_EN.txt	SHELF	Furniture	1	8	[0, 0, 0]	n/a	catFR1	3	R1616S
1444.681	0.967	1581162	WORD_OFF	n/a	n/a	SHELF	Furniture	1	8	[0, 0, 0]	n/a	catFR1	3	R1616S
1445.648	1.6	1582126	WORD	n/a	wordpools/wordpool_categorized_EN.txt	CHAIR	Furniture	2	8	[0, 0, 0]	n/a	catFR1	3	R1616S
1447.248	0.85	1583733	WORD_OFF	n/a	n/a	CHAIR	Furniture	2	8	[0, 0, 0]	n/a	catFR1	3	R1616S
1448.098	1.6	1584585	WORD	n/a	wordpools/wordpool_categorized_EN.txt	WHISK	KitchenTools	3	8	[0, 0, 0]	n/a	catFR1	3	R1616S
1449.698	1.0	1586178	WORD_OFF	n/a	n/a	WHISK	KitchenTools	3	8	[0, 0, 0]	n/a	catFR1	3	R1616S
1450.698	1.6	1587184	WORD	n/a	wordpools/wordpool_categorized_EN.txt	LADLE	KitchenTools	4	8	[0, 0, 0]	n/a	catFR1	3	R1616S
1452.298	0.783	1588777	WORD_OFF	n/a	n/a	LADLE	KitchenTools	4	8	[0, 0, 0]	n/a	catFR1	3	R1616S
1453.081	1.6	1589559	WORD	n/a	wordpools/wordpool_categorized_EN.txt	CROW	Birds	5	8	[0, 0, 0]	n/a	catFR1	3	R1616S
1454.681	0.95	1591166	WORD_OFF	n/a	n/a	CROW	Birds	5	8	[0, 0, 0]	n/a	catFR1	3	R1616S
1455.631	1.6	1592116	WORD	n/a	wordpools/wordpool_categorized_EN.txt	BLUEBIRD	Birds	6	8	[0, 0, 0]	n/a	catFR1	3	R1616S
1457.231	0.916	1593709	WORD_OFF	n/a	n/a	BLUEBIRD	Birds	6	8	[0, 0, 0]	n/a	catFR1	3	R1616S
1458.147	1.6	1594631	WORD	n/a	wordpools/wordpool_categorized_EN.txt	SPOON	KitchenTools	7	8	[0, 0, 0]	n/a	catFR1	3	R1616S
1459.747	0.851	1596224	WORD_OFF	n/a	n/a	SPOON	KitchenTools	7	8	[0, 0, 0]	n/a	catFR1	3	R1616S
1460.598	1.617	1597076	WORD	n/a	wordpools/wordpool_categorized_EN.txt	KNIFE	KitchenTools	8	8	[0, 0, 0]	n/a	catFR1	3	R1616S
1462.215	0.882	1598697	WORD_OFF	n/a	n/a	KNIFE	KitchenTools	8	8	[0, 0, 0]	n/a	catFR1	3	R1616S
1463.097	1.6	1599577	WORD	n/a	wordpools/wordpool_categorized_EN.txt	BOOKCASE	Furniture	9	8	[0, 0, 0]	n/a	catFR1	3	R1616S
1464.697	0.784	1601184	WORD_OFF	n/a	n/a	BOOKCASE	Furniture	9	8	[0, 0, 0]	n/a	catFR1	3	R1616S
1465.481	1.6	1601966	WORD	n/a	wordpools/wordpool_categorized_EN.txt	BED	Furniture	10	8	[0, 0, 0]	n/a	catFR1	3	R1616S
1467.081	0.983	1603559	WORD_OFF	n/a	n/a	BED	Furniture	10	8	[0, 0, 0]	n/a	catFR1	3	R1616S
1468.064	1.617	1604551	WORD	n/a	wordpools/wordpool_categorized_EN.txt	SPARROW	Birds	11	8	[0, 0, 0]	n/a	catFR1	3	R1616S
1469.681	0.817	1606158	WORD_OFF	n/a	n/a	SPARROW	Birds	11	8	[0, 0, 0]	n/a	catFR1	3	R1616S
1470.498	1.617	1606982	WORD	n/a	wordpools/wordpool_categorized_EN.txt	ROBIN	Birds	12	8	[0, 0, 0]	n/a	catFR1	3	R1616S
1472.115	0.001	1608591	PROB	0.001	n/a	n/a	n/a	-999	8	[6, 4, 3]	13	catFR1	3	R1616S
1472.116	0.0	1608592	START	n/a	n/a	n/a	n/a	-999	8	[-999, -999, -999]	n/a	catFR1	3	R1616S
1472.114	0.002	1608603	WORD_OFF	n/a	n/a	ROBIN	Birds	12	8	[0, 0, 0]	n/a	catFR1	3	R1616S
1472.116	0.0	1608603	ENCODING_END	n/a	n/a	n/a	n/a	-999	8	[0, 0, 0]	n/a	catFR1	3	R1616S
1472.116	4.165	1608603	DISTRACT_START	n/a	n/a	n/a	n/a	-999	8	[0, 0, 0]	n/a	catFR1	3	R1616S
1476.281	3.501	1612757	PROB	3.501	n/a	n/a	n/a	-999	8	[1, 6, 3]	10	catFR1	3	R1616S
1479.782	2.866	1616258	PROB	2.866	n/a	n/a	n/a	-999	8	[5, 3, 2]	10	catFR1	3	R1616S
1482.648	4.534	1619124	PROB	4.534	n/a	n/a	n/a	-999	8	[2, 4, 1]	7	catFR1	3	R1616S
1487.182	4.032	1623657	PROB	4.032	n/a	n/a	n/a	-999	8	[6, 4, 5]	15	catFR1	3	R1616S
1491.214	4.3	1627689	PROB	4.3	n/a	n/a	n/a	-999	8	[5, 1, 3]	9	catFR1	3	R1616S
1495.514	0.0	1631989	STOP	n/a	n/a	n/a	n/a	-999	8	[-999, -999, -999]	n/a	catFR1	3	R1616S
1495.514	2.217	1631992	DISTRACT_END	n/a	n/a	n/a	n/a	-999	8	[0, 0, 0]	n/a	catFR1	3	R1616S
1497.731	1.33	1634207	REC_START	n/a	n/a	n/a	n/a	-999	8	[0, 0, 0]	n/a	catFR1	3	R1616S
1499.061	1.126	1635536	REC_WORD	1.126	n/a	LADLE	KitchenTools	4	8	[0, 0, 0]	n/a	catFR1	3	R1616S
1500.187	1.019	1636662	REC_WORD	1.019	n/a	BOOKSHELF	n/a	-999	8	[0, 0, 0]	n/a	catFR1	3	R1616S
1501.206	1.198	1637681	REC_WORD	1.198	n/a	BOOKCASE	Furniture	9	8	[0, 0, 0]	n/a	catFR1	3	R1616S
1502.404	1.91	1638879	REC_WORD	1.91	n/a	BOOK	n/a	-999	8	[0, 0, 0]	n/a	catFR1	3	R1616S
1504.314	2.442	1640789	REC_WORD_VV	2.442	n/a	<>	n/a	-999	8	[0, 0, 0]	n/a	catFR1	3	R1616S
1506.756	2.066	1643230	REC_WORD_VV	2.066	n/a	<>	n/a	-999	8	[0, 0, 0]	n/a	catFR1	3	R1616S
1508.822	0.782	1645296	REC_WORD_VV	0.782	n/a	<>	n/a	-999	8	[0, 0, 0]	n/a	catFR1	3	R1616S
1509.604	2.024	1646078	REC_WORD	2.024	n/a	WHISK	KitchenTools	3	8	[0, 0, 0]	n/a	catFR1	3	R1616S
1511.628	3.027	1648102	REC_WORD_VV	3.027	n/a	<>	n/a	-999	8	[0, 0, 0]	n/a	catFR1	3	R1616S
1514.655	1.184	1651129	REC_WORD	1.184	n/a	ORCHID	Flowers	-999	8	[0, 0, 0]	n/a	catFR1	3	R1616S
1515.839	4.302	1652313	REC_WORD	4.302	n/a	SPARROW	Birds	11	8	[0, 0, 0]	n/a	catFR1	3	R1616S
1520.141	4.18	1656615	REC_WORD_VV	4.18	n/a	<>	n/a	-999	8	[0, 0, 0]	n/a	catFR1	3	R1616S
1524.321	2.629	1660795	REC_WORD_VV	2.629	n/a	<>	n/a	-999	8	[0, 0, 0]	n/a	catFR1	3	R1616S
1526.95	1.021	1663424	REC_WORD_VV	1.021	n/a	<>	n/a	-999	8	[0, 0, 0]	n/a	catFR1	3	R1616S
1527.971	4.41	1664448	REC_END	n/a	n/a	n/a	n/a	-999	8	[0, 0, 0]	n/a	catFR1	3	R1616S
1532.381	10.349	1668863	COUNTDOWN_START	n/a	n/a	n/a	n/a	-999	9	[0, 0, 0]	n/a	catFR1	3	R1616S
1542.73	0.0	1679216	COUNTDOWN_END	n/a	n/a	n/a	n/a	-999	9	[0, 0, 0]	n/a	catFR1	3	R1616S
1542.73	2.218	1679216	ENCODING_START	n/a	n/a	n/a	n/a	-999	9	[0, 0, 0]	n/a	catFR1	3	R1616S
1544.948	1.6	1681424	WORD	n/a	wordpools/wordpool_categorized_EN.txt	LILY	Flowers	1	9	[0, 0, 0]	n/a	catFR1	3	R1616S
1546.548	0.949	1683031	WORD_OFF	n/a	n/a	LILY	Flowers	1	9	[0, 0, 0]	n/a	catFR1	3	R1616S
1547.497	1.601	1683981	WORD	n/a	wordpools/wordpool_categorized_EN.txt	DAFFODIL	Flowers	2	9	[0, 0, 0]	n/a	catFR1	3	R1616S
1549.098	0.783	1685574	WORD_OFF	n/a	n/a	DAFFODIL	Flowers	2	9	[0, 0, 0]	n/a	catFR1	3	R1616S
1549.881	1.6	1686356	WORD	n/a	wordpools/wordpool_categorized_EN.txt	ROOSTER	FarmAnimals	3	9	[0, 0, 0]	n/a	catFR1	3	R1616S
1551.481	0.767	1687963	WORD_OFF	n/a	n/a	ROOSTER	FarmAnimals	3	9	[0, 0, 0]	n/a	catFR1	3	R1616S
1552.248	1.6	1688731	WORD	n/a	wordpools/wordpool_categorized_EN.txt	PIG	FarmAnimals	4	9	[0, 0, 0]	n/a	catFR1	3	R1616S
1553.848	0.9	1690324	WORD_OFF	n/a	n/a	PIG	FarmAnimals	4	9	[0, 0, 0]	n/a	catFR1	3	R1616S
1554.748	1.616	1691232	WORD	n/a	wordpools/wordpool_categorized_EN.txt	NIGHTSTAND	Furniture	5	9	[0, 0, 0]	n/a	catFR1	3	R1616S
1556.364	0.784	1692839	WORD_OFF	n/a	n/a	NIGHTSTAND	Furniture	5	9	[0, 0, 0]	n/a	catFR1	3	R1616S
1557.148	1.616	1693621	WORD	n/a	wordpools/wordpool_categorized_EN.txt	COUCH	Furniture	6	9	[0, 0, 0]	n/a	catFR1	3	R1616S
1558.764	0.9	1695242	WORD_OFF	n/a	n/a	COUCH	Furniture	6	9	[0, 0, 0]	n/a	catFR1	3	R1616S
1559.664	1.6	1696136	WORD	n/a	wordpools/wordpool_categorized_EN.txt	TURKEY	FarmAnimals	7	9	[0, 0, 0]	n/a	catFR1	3	R1616S
1561.264	0.867	1697743	WORD_OFF	n/a	n/a	TURKEY	FarmAnimals	7	9	[0, 0, 0]	n/a	catFR1	3	R1616S
1562.131	1.616	1698609	WORD	n/a	wordpools/wordpool_categorized_EN.txt	GOAT	FarmAnimals	8	9	[0, 0, 0]	n/a	catFR1	3	R1616S
1563.747	0.933	1700230	WORD_OFF	n/a	n/a	GOAT	FarmAnimals	8	9	[0, 0, 0]	n/a	catFR1	3	R1616S
1564.68	1.601	1701152	WORD	n/a	wordpools/wordpool_categorized_EN.txt	LILAC	Flowers	9	9	[0, 0, 0]	n/a	catFR1	3	R1616S
1566.281	0.85	1702759	WORD_OFF	n/a	n/a	LILAC	Flowers	9	9	[0, 0, 0]	n/a	catFR1	3	R1616S
1567.131	1.6	1703611	WORD	n/a	wordpools/wordpool_categorized_EN.txt	SUNFLOWER	Flowers	10	9	[0, 0, 0]	n/a	catFR1	3	R1616S
1568.731	0.95	1705204	WORD_OFF	n/a	n/a	SUNFLOWER	Flowers	10	9	[0, 0, 0]	n/a	catFR1	3	R1616S
1569.681	1.6	1706154	WORD	n/a	wordpools/wordpool_categorized_EN.txt	TABLE	Furniture	11	9	[0, 0, 0]	n/a	catFR1	3	R1616S
1571.281	0.867	1707761	WORD_OFF	n/a	n/a	TABLE	Furniture	11	9	[0, 0, 0]	n/a	catFR1	3	R1616S
1572.148	1.6	1708627	WORD	n/a	wordpools/wordpool_categorized_EN.txt	DESK	Furniture	12	9	[0, 0, 0]	n/a	catFR1	3	R1616S
1573.748	0.0	1710219	PROB	0.0	n/a	n/a	n/a	-999	9	[1, 3, 8]	12	catFR1	3	R1616S
1573.747	0.002	1710220	WORD_OFF	n/a	n/a	DESK	Furniture	12	9	[0, 0, 0]	n/a	catFR1	3	R1616S
1573.749	0.0	1710220	START	n/a	n/a	n/a	n/a	-999	9	[-999, -999, -999]	n/a	catFR1	3	R1616S
1573.749	0.0	1710234	ENCODING_END	n/a	n/a	n/a	n/a	-999	9	[0, 0, 0]	n/a	catFR1	3	R1616S
1573.749	4.833	1710234	DISTRACT_START	n/a	n/a	n/a	n/a	-999	9	[0, 0, 0]	n/a	catFR1	3	R1616S
1578.582	3.532	1715053	PROB	3.532	n/a	n/a	n/a	-999	9	[1, 6, 1]	8	catFR1	3	R1616S
1582.114	7.418	1718585	PROB	7.418	n/a	n/a	n/a	-999	9	[3, 5, 6]	14	catFR1	3	R1616S
1589.532	4.216	1726002	PROB	4.216	n/a	n/a	n/a	-999	9	[5, 4, 3]	12	catFR1	3	R1616S
1593.748	0.0	1730218	STOP	n/a	n/a	n/a	n/a	-999	9	[-999, -999, -999]	n/a	catFR1	3	R1616S
1593.748	2.316	1730228	DISTRACT_END	n/a	n/a	n/a	n/a	-999	9	[0, 0, 0]	n/a	catFR1	3	R1616S
1596.064	1.013	1732541	REC_START	n/a	n/a	n/a	n/a	-999	9	[0, 0, 0]	n/a	catFR1	3	R1616S
1597.077	7.679	1733547	REC_WORD_VV	7.679	n/a	<>	n/a	-999	9	[0, 0, 0]	n/a	catFR1	3	R1616S
1604.756	2.06	1741226	REC_WORD_VV	2.06	n/a	<>	n/a	-999	9	[0, 0, 0]	n/a	catFR1	3	R1616S
1606.816	17.434	1743286	REC_WORD_VV	17.434	n/a	<>	n/a	-999	9	[0, 0, 0]	n/a	catFR1	3	R1616S
1624.25	2.061	1760719	REC_WORD_VV	2.061	n/a	<>	n/a	-999	9	[0, 0, 0]	n/a	catFR1	3	R1616S
1626.311	4.42	1762782	REC_END	n/a	n/a	n/a	n/a	-999	9	[0, 0, 0]	n/a	catFR1	3	R1616S
1630.731	10.35	1767211	COUNTDOWN_START	n/a	n/a	n/a	n/a	-999	10	[0, 0, 0]	n/a	catFR1	3	R1616S
1641.081	0.0	1777550	COUNTDOWN_END	n/a	n/a	n/a	n/a	-999	10	[0, 0, 0]	n/a	catFR1	3	R1616S
1641.081	2.115	1777551	ENCODING_START	n/a	n/a	n/a	n/a	-999	10	[0, 0, 0]	n/a	catFR1	3	R1616S
1643.196	1.618	1779674	WORD	n/a	wordpools/wordpool_categorized_EN.txt	HAMMER	Tools	1	10	[0, 0, 0]	n/a	catFR1	3	R1616S
1644.814	0.798	1781295	WORD_OFF	n/a	n/a	HAMMER	Tools	1	10	[0, 0, 0]	n/a	catFR1	3	R1616S
1645.612	1.602	1782091	WORD	n/a	wordpools/wordpool_categorized_EN.txt	SAW	Tools	2	10	[0, 0, 0]	n/a	catFR1	3	R1616S
1647.214	0.883	1783684	WORD_OFF	n/a	n/a	SAW	Tools	2	10	[0, 0, 0]	n/a	catFR1	3	R1616S
1648.097	1.601	1784578	WORD	n/a	wordpools/wordpool_categorized_EN.txt	SHORTS	Clothing	3	10	[0, 0, 0]	n/a	catFR1	3	R1616S
1649.698	0.9	1786171	WORD_OFF	n/a	n/a	SHORTS	Clothing	3	10	[0, 0, 0]	n/a	catFR1	3	R1616S
1650.598	1.6	1787065	WORD	n/a	wordpools/wordpool_categorized_EN.txt	SHOES	Clothing	4	10	[0, 0, 0]	n/a	catFR1	3	R1616S
1652.198	0.85	1788672	WORD_OFF	n/a	n/a	SHOES	Clothing	4	10	[0, 0, 0]	n/a	catFR1	3	R1616S
1653.048	1.6	1789524	WORD	n/a	wordpools/wordpool_categorized_EN.txt	ERASER	OfficeSupplies	5	10	[0, 0, 0]	n/a	catFR1	3	R1616S
1654.648	0.883	1791117	WORD_OFF	n/a	n/a	ERASER	OfficeSupplies	5	10	[0, 0, 0]	n/a	catFR1	3	R1616S
1655.531	1.617	1792011	WORD	n/a	wordpools/wordpool_categorized_EN.txt	FOLDER	OfficeSupplies	6	10	[0, 0, 0]	n/a	catFR1	3	R1616S
1657.148	0.967	1793618	WORD_OFF	n/a	n/a	FOLDER	OfficeSupplies	6	10	[0, 0, 0]	n/a	catFR1	3	R1616S
1658.115	1.616	1794582	WORD	n/a	wordpools/wordpool_categorized_EN.txt	SHIRT	Clothing	7	10	[0, 0, 0]	n/a	catFR1	3	R1616S
1659.731	0.814	1796202	WORD_OFF	n/a	n/a	SHIRT	Clothing	7	10	[0, 0, 0]	n/a	catFR1	3	R1616S
1660.545	1.603	1797013	WORD	n/a	wordpools/wordpool_categorized_EN.txt	DRESS	Clothing	8	10	[0, 0, 0]	n/a	catFR1	3	R1616S
1662.148	0.966	1798620	WORD_OFF	n/a	n/a	DRESS	Clothing	8	10	[0, 0, 0]	n/a	catFR1	3	R1616S
1663.114	1.617	1799584	WORD	n/a	wordpools/wordpool_categorized_EN.txt	SCREWDRIVER	Tools	9	10	[0, 0, 0]	n/a	catFR1	3	R1616S
1664.731	0.916	1801204	WORD_OFF	n/a	n/a	SCREWDRIVER	Tools	9	10	[0, 0, 0]	n/a	catFR1	3	R1616S
1665.647	1.617	1802126	WORD	n/a	wordpools/wordpool_categorized_EN.txt	CROWBAR	Tools	10	10	[0, 0, 0]	n/a	catFR1	3	R1616S
1667.264	1.0	1803733	WORD_OFF	n/a	n/a	CROWBAR	Tools	10	10	[0, 0, 0]	n/a	catFR1	3	R1616S
1668.264	1.616	1804739	WORD	n/a	wordpools/wordpool_categorized_EN.txt	BINDER	OfficeSupplies	11	10	[0, 0, 0]	n/a	catFR1	3	R1616S
1669.88	0.984	1806346	WORD_OFF	n/a	n/a	BINDER	OfficeSupplies	11	10	[0, 0, 0]	n/a	catFR1	3	R1616S
1670.864	1.6	1807338	WORD	n/a	wordpools/wordpool_categorized_EN.txt	PENCIL	OfficeSupplies	12	10	[0, 0, 0]	n/a	catFR1	3	R1616S
1672.464	0.001	1808930	PROB	0.001	n/a	n/a	n/a	-999	10	[1, 1, 4]	6	catFR1	3	R1616S
1672.465	0.003	1808931	WORD_OFF	n/a	n/a	PENCIL	OfficeSupplies	12	10	[0, 0, 0]	n/a	catFR1	3	R1616S
1672.468	0.0	1808934	START	n/a	n/a	n/a	n/a	-999	10	[-999, -999, -999]	n/a	catFR1	3	R1616S
1672.468	0.0	1808945	ENCODING_END	n/a	n/a	n/a	n/a	-999	10	[0, 0, 0]	n/a	catFR1	3	R1616S
1672.468	3.014	1808945	DISTRACT_START	n/a	n/a	n/a	n/a	-999	10	[0, 0, 0]	n/a	catFR1	3	R1616S
1675.482	4.116	1811948	PROB	4.116	n/a	n/a	n/a	-999	10	[1, 6, 3]	10	catFR1	3	R1616S
1679.598	2.783	1816064	PROB	2.783	n/a	n/a	n/a	-999	10	[4, 5, 5]	14	catFR1	3	R1616S
1682.381	5.2	1818847	PROB	5.2	n/a	n/a	n/a	-999	10	[4, 5, 4]	13	catFR1	3	R1616S
1687.581	6.417	1824047	PROB	6.417	n/a	n/a	n/a	-999	10	[6, 2, 7]	15	catFR1	3	R1616S
1693.998	0.0	1830463	STOP	n/a	n/a	n/a	n/a	-999	10	[-999, -999, -999]	n/a	catFR1	3	R1616S
1693.998	2.25	1830475	DISTRACT_END	n/a	n/a	n/a	n/a	-999	10	[0, 0, 0]	n/a	catFR1	3	R1616S
1696.248	2.271	1832719	REC_START	n/a	n/a	n/a	n/a	-999	10	[0, 0, 0]	n/a	catFR1	3	R1616S
1698.519	0.839	1834984	REC_WORD	0.839	n/a	LILAC	Flowers	-999	10	[0, 0, 0]	n/a	catFR1	3	R1616S
1699.358	1.848	1835823	REC_WORD	1.848	n/a	HAMMER	Tools	1	10	[0, 0, 0]	n/a	catFR1	3	R1616S
1701.206	6.485	1837671	REC_WORD	6.485	n/a	BOOKSHELF	n/a	-999	10	[0, 0, 0]	n/a	catFR1	3	R1616S
1707.691	2.456	1844156	REC_WORD_VV	2.456	n/a	<>	n/a	-999	10	[0, 0, 0]	n/a	catFR1	3	R1616S
1710.147	1.583	1846612	REC_WORD_VV	1.583	n/a	<>	n/a	-999	10	[0, 0, 0]	n/a	catFR1	3	R1616S
1711.73	2.927	1848195	REC_WORD_VV	2.927	n/a	<>	n/a	-999	10	[0, 0, 0]	n/a	catFR1	3	R1616S
1714.657	4.346	1851121	REC_WORD_VV	4.346	n/a	<>	n/a	-999	10	[0, 0, 0]	n/a	catFR1	3	R1616S
1719.003	4.905	1855467	REC_WORD_VV	4.905	n/a	<>	n/a	-999	10	[0, 0, 0]	n/a	catFR1	3	R1616S
1723.908	1.899	1860372	REC_WORD_VV	1.899	n/a	<>	n/a	-999	10	[0, 0, 0]	n/a	catFR1	3	R1616S
1725.807	0.674	1862271	REC_WORD_VV	0.674	n/a	<>	n/a	-999	10	[0, 0, 0]	n/a	catFR1	3	R1616S
1726.481	5.2	1862946	REC_END	n/a	n/a	n/a	n/a	-999	10	[0, 0, 0]	n/a	catFR1	3	R1616S
1731.681	10.349	1868157	COUNTDOWN_START	n/a	n/a	n/a	n/a	-999	11	[0, 0, 0]	n/a	catFR1	3	R1616S
1742.03	0.0	1878496	COUNTDOWN_END	n/a	n/a	n/a	n/a	-999	11	[0, 0, 0]	n/a	catFR1	3	R1616S
1742.03	1.918	1878496	ENCODING_START	n/a	n/a	n/a	n/a	-999	11	[0, 0, 0]	n/a	catFR1	3	R1616S
1743.948	1.6	1880411	WORD	n/a	wordpools/wordpool_categorized_EN.txt	VIOLIN	Instruments	1	11	[0, 0, 0]	n/a	catFR1	3	R1616S
1745.548	0.983	1882017	WORD_OFF	n/a	n/a	VIOLIN	Instruments	1	11	[0, 0, 0]	n/a	catFR1	3	R1616S
1746.531	1.6	1882995	WORD	n/a	wordpools/wordpool_categorized_EN.txt	TROMBONE	Instruments	2	11	[0, 0, 0]	n/a	catFR1	3	R1616S
1748.131	0.799	1884602	WORD_OFF	n/a	n/a	TROMBONE	Instruments	2	11	[0, 0, 0]	n/a	catFR1	3	R1616S
1748.93	1.601	1885399	WORD	n/a	wordpools/wordpool_categorized_EN.txt	CELERY	Vegetables	3	11	[0, 0, 0]	n/a	catFR1	3	R1616S
1750.531	0.984	1887005	WORD_OFF	n/a	n/a	CELERY	Vegetables	3	11	[0, 0, 0]	n/a	catFR1	3	R1616S
1751.515	1.615	1887983	WORD	n/a	wordpools/wordpool_categorized_EN.txt	POTATO	Vegetables	4	11	[0, 0, 0]	n/a	catFR1	3	R1616S
1753.13	0.901	1889604	WORD_OFF	n/a	n/a	POTATO	Vegetables	4	11	[0, 0, 0]	n/a	catFR1	3	R1616S
1754.031	1.616	1890498	WORD	n/a	wordpools/wordpool_categorized_EN.txt	BULL	FarmAnimals	5	11	[0, 0, 0]	n/a	catFR1	3	R1616S
1755.647	0.85	1892119	WORD_OFF	n/a	n/a	BULL	FarmAnimals	5	11	[0, 0, 0]	n/a	catFR1	3	R1616S
1756.497	1.601	1892971	WORD	n/a	wordpools/wordpool_categorized_EN.txt	CHICKEN	FarmAnimals	6	11	[0, 0, 0]	n/a	catFR1	3	R1616S
1758.098	0.815	1894564	WORD_OFF	n/a	n/a	CHICKEN	FarmAnimals	6	11	[0, 0, 0]	n/a	catFR1	3	R1616S
1758.913	1.601	1895388	WORD	n/a	wordpools/wordpool_categorized_EN.txt	BASS	Instruments	7	11	[0, 0, 0]	n/a	catFR1	3	R1616S
1760.514	0.884	1896981	WORD_OFF	n/a	n/a	BASS	Instruments	7	11	[0, 0, 0]	n/a	catFR1	3	R1616S
1761.398	1.616	1897861	WORD	n/a	wordpools/wordpool_categorized_EN.txt	BANJO	Instruments	8	11	[0, 0, 0]	n/a	catFR1	3	R1616S
1763.014	0.767	1899482	WORD_OFF	n/a	n/a	BANJO	Instruments	8	11	[0, 0, 0]	n/a	catFR1	3	R1616S
1763.781	1.6	1900251	WORD	n/a	wordpools/wordpool_categorized_EN.txt	CUCUMBER	Vegetables	9	11	[0, 0, 0]	n/a	catFR1	3	R1616S
1765.381	1.0	1901843	WORD_OFF	n/a	n/a	CUCUMBER	Vegetables	9	11	[0, 0, 0]	n/a	catFR1	3	R1616S
1766.381	1.616	1902849	WORD	n/a	wordpools/wordpool_categorized_EN.txt	PEAS	Vegetables	10	11	[0, 0, 0]	n/a	catFR1	3	R1616S
1767.997	1.0	1904470	WORD_OFF	n/a	n/a	PEAS	Vegetables	10	11	[0, 0, 0]	n/a	catFR1	3	R1616S
1768.997	1.601	1905462	WORD	n/a	wordpools/wordpool_categorized_EN.txt	SHEEP	FarmAnimals	11	11	[0, 0, 0]	n/a	catFR1	3	R1616S
1770.598	0.816	1907069	WORD_OFF	n/a	n/a	SHEEP	FarmAnimals	11	11	[0, 0, 0]	n/a	catFR1	3	R1616S
1771.414	1.617	1907879	WORD	n/a	wordpools/wordpool_categorized_EN.txt	LAMB	FarmAnimals	12	11	[0, 0, 0]	n/a	catFR1	3	R1616S
1773.031	0.002	1909492	PROB	0.002	n/a	n/a	n/a	-999	11	[2, 6, 8]	16	catFR1	3	R1616S
1773.033	0.0	1909494	START	n/a	n/a	n/a	n/a	-999	11	[-999, -999, -999]	n/a	catFR1	3	R1616S
1773.031	0.002	1909500	WORD_OFF	n/a	n/a	LAMB	FarmAnimals	12	11	[0, 0, 0]	n/a	catFR1	3	R1616S
1773.033	0.0	1909500	ENCODING_END	n/a	n/a	n/a	n/a	-999	11	[0, 0, 0]	n/a	catFR1	3	R1616S
1773.033	4.549	1909500	DISTRACT_START	n/a	n/a	n/a	n/a	-999	11	[0, 0, 0]	n/a	catFR1	3	R1616S
1777.582	2.982	1914043	PROB	2.982	n/a	n/a	n/a	-999	11	[1, 1, 1]	3	catFR1	3	R1616S
1780.564	3.518	1917025	PROB	3.518	n/a	n/a	n/a	-999	11	[2, 1, 8]	11	catFR1	3	R1616S
1784.082	4.817	1920543	PROB	4.817	n/a	n/a	n/a	-999	11	[8, 3, 6]	17	catFR1	3	R1616S
1788.899	5.949	1925360	PROB	5.949	n/a	n/a	n/a	-999	11	[5, 8, 4]	17	catFR1	3	R1616S
1794.848	0.0	1931308	STOP	n/a	n/a	n/a	n/a	-999	11	[-999, -999, -999]	n/a	catFR1	3	R1616S
1794.848	2.049	1931310	DISTRACT_END	n/a	n/a	n/a	n/a	-999	11	[0, 0, 0]	n/a	catFR1	3	R1616S
1796.897	4.671	1933358	REC_START	n/a	n/a	n/a	n/a	-999	11	[0, 0, 0]	n/a	catFR1	3	R1616S
1801.568	2.23	1938028	REC_WORD_VV	2.23	n/a	<>	n/a	-999	11	[0, 0, 0]	n/a	catFR1	3	R1616S
1803.798	4.585	1940258	REC_WORD_VV	4.585	n/a	<>	n/a	-999	11	[0, 0, 0]	n/a	catFR1	3	R1616S
1808.383	2.875	1944843	REC_WORD_VV	2.875	n/a	<>	n/a	-999	11	[0, 0, 0]	n/a	catFR1	3	R1616S
1811.258	0.723	1947718	REC_WORD	0.723	n/a	LI	n/a	-999	11	[0, 0, 0]	n/a	catFR1	3	R1616S
1811.981	0.716	1948441	REC_WORD	0.716	n/a	HAMM	n/a	-999	11	[0, 0, 0]	n/a	catFR1	3	R1616S
1812.697	4.158	1949157	REC_WORD_VV	4.158	n/a	<>	n/a	-999	11	[0, 0, 0]	n/a	catFR1	3	R1616S
1816.855	8.97	1953314	REC_WORD_VV	8.97	n/a	<>	n/a	-999	11	[0, 0, 0]	n/a	catFR1	3	R1616S
1825.825	1.311	1962284	REC_WORD_VV	1.311	n/a	<>	n/a	-999	11	[0, 0, 0]	n/a	catFR1	3	R1616S
1827.136	3.962	1963599	REC_END	n/a	n/a	n/a	n/a	-999	11	[0, 0, 0]	n/a	catFR1	3	R1616S
1831.098	10.349	1967567	COUNTDOWN_START	n/a	n/a	n/a	n/a	-999	12	[0, 0, 0]	n/a	catFR1	3	R1616S
1841.447	0.001	1977906	COUNTDOWN_END	n/a	n/a	n/a	n/a	-999	12	[0, 0, 0]	n/a	catFR1	3	R1616S
1841.448	1.999	1977920	ENCODING_START	n/a	n/a	n/a	n/a	-999	12	[0, 0, 0]	n/a	catFR1	3	R1616S
1843.447	1.617	1979918	WORD	n/a	wordpools/wordpool_categorized_EN.txt	AXE	Tools	1	12	[0, 0, 0]	n/a	catFR1	3	R1616S
1845.064	1.0	1981525	WORD_OFF	n/a	n/a	AXE	Tools	1	12	[0, 0, 0]	n/a	catFR1	3	R1616S
1846.064	1.617	1982531	WORD	n/a	wordpools/wordpool_categorized_EN.txt	SHOVEL	Tools	2	12	[0, 0, 0]	n/a	catFR1	3	R1616S
1847.681	1.0	1984137	WORD_OFF	n/a	n/a	SHOVEL	Tools	2	12	[0, 0, 0]	n/a	catFR1	3	R1616S
1848.681	1.601	1985143	WORD	n/a	wordpools/wordpool_categorized_EN.txt	HEN	FarmAnimals	3	12	[0, 0, 0]	n/a	catFR1	3	R1616S
1850.282	0.982	1986750	WORD_OFF	n/a	n/a	HEN	FarmAnimals	3	12	[0, 0, 0]	n/a	catFR1	3	R1616S
1851.264	1.6	1987728	WORD	n/a	wordpools/wordpool_categorized_EN.txt	HORSE	FarmAnimals	4	12	[0, 0, 0]	n/a	catFR1	3	R1616S
1852.864	0.933	1989321	WORD_OFF	n/a	n/a	HORSE	FarmAnimals	4	12	[0, 0, 0]	n/a	catFR1	3	R1616S
1853.797	1.601	1990257	WORD	n/a	wordpools/wordpool_categorized_EN.txt	CORN	Vegetables	5	12	[0, 0, 0]	n/a	catFR1	3	R1616S
1855.398	0.832	1991864	WORD_OFF	n/a	n/a	CORN	Vegetables	5	12	[0, 0, 0]	n/a	catFR1	3	R1616S
1856.23	1.601	1992688	WORD	n/a	wordpools/wordpool_categorized_EN.txt	ONION	Vegetables	6	12	[0, 0, 0]	n/a	catFR1	3	R1616S
1857.831	0.85	1994295	WORD_OFF	n/a	n/a	ONION	Vegetables	6	12	[0, 0, 0]	n/a	catFR1	3	R1616S
1858.681	1.616	1995147	WORD	n/a	wordpools/wordpool_categorized_EN.txt	CALF	FarmAnimals	7	12	[0, 0, 0]	n/a	catFR1	3	R1616S
1860.297	0.949	1996754	WORD_OFF	n/a	n/a	CALF	FarmAnimals	7	12	[0, 0, 0]	n/a	catFR1	3	R1616S
1861.246	1.601	1997704	WORD	n/a	wordpools/wordpool_categorized_EN.txt	COW	FarmAnimals	8	12	[0, 0, 0]	n/a	catFR1	3	R1616S
1862.847	0.967	1999311	WORD_OFF	n/a	n/a	COW	FarmAnimals	8	12	[0, 0, 0]	n/a	catFR1	3	R1616S
1863.814	1.6	2000275	WORD	n/a	wordpools/wordpool_categorized_EN.txt	DRILL	Tools	9	12	[0, 0, 0]	n/a	catFR1	3	R1616S
1865.414	0.916	2001882	WORD_OFF	n/a	n/a	DRILL	Tools	9	12	[0, 0, 0]	n/a	catFR1	3	R1616S
1866.33	1.601	2002790	WORD	n/a	wordpools/wordpool_categorized_EN.txt	RATCHET	Tools	10	12	[0, 0, 0]	n/a	catFR1	3	R1616S
1867.931	0.867	2004397	WORD_OFF	n/a	n/a	RATCHET	Tools	10	12	[0, 0, 0]	n/a	catFR1	3	R1616S
1868.798	1.6	2005263	WORD	n/a	wordpools/wordpool_categorized_EN.txt	SPINACH	Vegetables	11	12	[0, 0, 0]	n/a	catFR1	3	R1616S
1870.398	0.816	2006856	WORD_OFF	n/a	n/a	SPINACH	Vegetables	11	12	[0, 0, 0]	n/a	catFR1	3	R1616S
1871.214	1.601	2007680	WORD	n/a	wordpools/wordpool_categorized_EN.txt	CARROT	Vegetables	12	12	[0, 0, 0]	n/a	catFR1	3	R1616S
1872.815	0.0	2009272	PROB	0.0	n/a	n/a	n/a	-999	12	[8, 6, 7]	19	catFR1	3	R1616S
1872.814	0.004	2009273	WORD_OFF	n/a	n/a	CARROT	Vegetables	12	12	[0, 0, 0]	n/a	catFR1	3	R1616S
1872.818	0.0	2009275	START	n/a	n/a	n/a	n/a	-999	12	[-999, -999, -999]	n/a	catFR1	3	R1616S
1872.818	0.0	2009287	ENCODING_END	n/a	n/a	n/a	n/a	-999	12	[0, 0, 0]	n/a	catFR1	3	R1616S
1872.818	10.146	2009287	DISTRACT_START	n/a	n/a	n/a	n/a	-999	12	[0, 0, 0]	n/a	catFR1	3	R1616S
1882.964	4.518	2019420	PROB	4.518	n/a	n/a	n/a	-999	12	[6, 2, 3]	11	catFR1	3	R1616S
1887.482	3.733	2023938	PROB	3.733	n/a	n/a	n/a	-999	12	[5, 8, 5]	18	catFR1	3	R1616S
1891.215	6.232	2027671	PROB	6.232	n/a	n/a	n/a	-999	12	[5, 6, 8]	19	catFR1	3	R1616S
1897.447	0.0	2033902	STOP	n/a	n/a	n/a	n/a	-999	12	[-999, -999, -999]	n/a	catFR1	3	R1616S
1897.447	2.282	2033905	DISTRACT_END	n/a	n/a	n/a	n/a	-999	12	[0, 0, 0]	n/a	catFR1	3	R1616S
1899.729	1.426	2036190	REC_START	n/a	n/a	n/a	n/a	-999	12	[0, 0, 0]	n/a	catFR1	3	R1616S
1901.155	2.075	2037610	REC_WORD_VV	2.075	n/a	<>	n/a	-999	12	[0, 0, 0]	n/a	catFR1	3	R1616S
1903.23	1.735	2039685	REC_WORD_VV	1.735	n/a	<>	n/a	-999	12	[0, 0, 0]	n/a	catFR1	3	R1616S
1904.965	0.7	2041420	REC_WORD_VV	0.7	n/a	<>	n/a	-999	12	[0, 0, 0]	n/a	catFR1	3	R1616S
1905.665	0.869	2042120	REC_WORD	0.869	n/a	LILAC	Flowers	-999	12	[0, 0, 0]	n/a	catFR1	3	R1616S
1906.534	5.839	2042989	REC_WORD	5.839	n/a	HAMMER	Tools	-999	12	[0, 0, 0]	n/a	catFR1	3	R1616S
1912.373	1.296	2048828	REC_WORD_VV	1.296	n/a	<>	n/a	-999	12	[0, 0, 0]	n/a	catFR1	3	R1616S
1913.669	0.572	2050124	REC_WORD	0.572	n/a	LILAC	Flowers	-999	12	[0, 0, 0]	n/a	catFR1	3	R1616S
1914.241	1.025	2050696	REC_WORD	1.025	n/a	HAMMER	Tools	-999	12	[0, 0, 0]	n/a	catFR1	3	R1616S
1915.266	14.697	2051721	REC_WORD_VV	14.697	n/a	<>	n/a	-999	12	[0, 0, 0]	n/a	catFR1	3	R1616S
1929.963	0.0	2066417	REC_END	n/a	n/a	n/a	n/a	-999	12	[0, 0, 0]	n/a	catFR1	3	R1616S
