onset	duration	sample	trial_type	response_time	stim_file	item_name	category	serialpos	list	test	answer	experiment	session	subject
0.0	1.703	290610	INSTRUCT_START	n/a	n/a	n/a	n/a	-999	-999	[0, 0, 0]	n/a	catFR1	6	R1658S
1.703	25.172	292312	INSTRUCT_END	n/a	n/a	n/a	n/a	-999	-999	[0, 0, 0]	n/a	catFR1	6	R1658S
26.875	10.36	317484	COUNTDOWN_START	n/a	n/a	n/a	n/a	-999	-999	[0, 0, 0]	n/a	catFR1	6	R1658S
37.235	0.001	327844	COUNTDOWN_END	n/a	n/a	n/a	n/a	-999	-999	[0, 0, 0]	n/a	catFR1	6	R1658S
37.236	2.041	327844	ENCODING_START	n/a	n/a	n/a	n/a	-999	-1	[0, 0, 0]	n/a	catFR1	6	R1658S
39.277	1.605	329884	WORD	n/a	n/a	DRUM	Instruments	1	-1	[0, 0, 0]	n/a	catFR1	6	R1658S
40.882	0.892	331496	WORD_OFF	n/a	n/a	DRUM	Instruments	1	-1	[0, 0, 0]	n/a	catFR1	6	R1658S
41.774	1.599	332387	WORD	n/a	n/a	CELLO	Instruments	2	-1	[0, 0, 0]	n/a	catFR1	6	R1658S
43.373	0.966	333988	WORD_OFF	n/a	n/a	CELLO	Instruments	2	-1	[0, 0, 0]	n/a	catFR1	6	R1658S
44.339	1.61	334946	WORD	n/a	n/a	RATCHET	Tools	3	-1	[0, 0, 0]	n/a	catFR1	6	R1658S
45.949	0.758	336558	WORD_OFF	n/a	n/a	RATCHET	Tools	3	-1	[0, 0, 0]	n/a	catFR1	6	R1658S
46.707	1.608	337313	WORD	n/a	n/a	HAMMER	Tools	4	-1	[0, 0, 0]	n/a	catFR1	6	R1658S
48.315	0.981	338925	WORD_OFF	n/a	n/a	HAMMER	Tools	4	-1	[0, 0, 0]	n/a	catFR1	6	R1658S
49.296	1.602	339906	WORD	n/a	n/a	SPRUCE	Trees	5	-1	[0, 0, 0]	n/a	catFR1	6	R1658S
50.898	0.936	341507	WORD_OFF	n/a	n/a	SPRUCE	Trees	5	-1	[0, 0, 0]	n/a	catFR1	6	R1658S
51.834	1.606	342442	WORD	n/a	n/a	HICKORY	Trees	6	-1	[0, 0, 0]	n/a	catFR1	6	R1658S
53.44	0.873	344054	WORD_OFF	n/a	n/a	HICKORY	Trees	6	-1	[0, 0, 0]	n/a	catFR1	6	R1658S
54.313	1.601	344922	WORD	n/a	n/a	TRUMPET	Instruments	7	-1	[0, 0, 0]	n/a	catFR1	6	R1658S
55.914	0.759	346523	WORD_OFF	n/a	n/a	TRUMPET	Instruments	7	-1	[0, 0, 0]	n/a	catFR1	6	R1658S
56.673	1.608	347289	WORD	n/a	n/a	TROMBONE	Instruments	8	-1	[0, 0, 0]	n/a	catFR1	6	R1658S
58.281	0.841	348890	WORD_OFF	n/a	n/a	TROMBONE	Instruments	8	-1	[0, 0, 0]	n/a	catFR1	6	R1658S
59.122	1.6	349736	WORD	n/a	n/a	WRENCH	Tools	9	-1	[0, 0, 0]	n/a	catFR1	6	R1658S
60.722	0.993	351336	WORD_OFF	n/a	n/a	WRENCH	Tools	9	-1	[0, 0, 0]	n/a	catFR1	6	R1658S
61.715	1.608	352328	WORD	n/a	n/a	AXE	Tools	10	-1	[0, 0, 0]	n/a	catFR1	6	R1658S
63.323	0.875	353929	WORD_OFF	n/a	n/a	AXE	Tools	10	-1	[0, 0, 0]	n/a	catFR1	6	R1658S
64.198	1.601	354808	WORD	n/a	n/a	EVERGREEN	Trees	11	-1	[0, 0, 0]	n/a	catFR1	6	R1658S
65.799	0.899	356409	WORD_OFF	n/a	n/a	EVERGREEN	Trees	11	-1	[0, 0, 0]	n/a	catFR1	6	R1658S
66.698	1.609	357311	WORD	n/a	n/a	PINE	Trees	12	-1	[0, 0, 0]	n/a	catFR1	6	R1658S
68.307	0.004	358912	WORD_OFF	n/a	n/a	PINE	Trees	12	-1	[0, 0, 0]	n/a	catFR1	6	R1658S
68.311	0.0	358917	START	n/a	n/a	n/a	n/a	-999	-1	[-999, -999, -999]	n/a	catFR1	6	R1658S
68.311	0.0	358917	PROB	0.0	n/a	n/a	n/a	-999	-1	[6, 1, 5]	12	catFR1	6	R1658S
68.31	0.001	358923	ENCODING_END	n/a	n/a	n/a	n/a	-999	-1	[0, 0, 0]	n/a	catFR1	6	R1658S
68.311	13.003	358923	DISTRACT_START	n/a	n/a	n/a	n/a	-999	-1	[0, 0, 0]	n/a	catFR1	6	R1658S
81.314	5.033	371920	PROB	5.033	n/a	n/a	n/a	-999	-1	[2, 1, 6]	9	catFR1	6	R1658S
86.347	6.605	376953	PROB	6.605	n/a	n/a	n/a	-999	-1	[8, 3, 2]	13	catFR1	6	R1658S
92.952	0.0	383558	STOP	n/a	n/a	n/a	n/a	-999	-1	[-999, -999, -999]	n/a	catFR1	6	R1658S
92.952	2.374	383565	DISTRACT_END	n/a	n/a	n/a	n/a	-999	-1	[0, 0, 0]	n/a	catFR1	6	R1658S
95.326	0.039	385932	REC_START	n/a	n/a	n/a	n/a	-999	-1	[0, 0, 0]	n/a	catFR1	6	R1658S
95.365	0.977	385971	REC_WORD	0.977	n/a	AXE	Tools	10	-1	[0, 0, 0]	n/a	catFR1	6	R1658S
96.342	1.366	386948	REC_WORD	1.366	n/a	TROMBONE	Instruments	8	-1	[0, 0, 0]	n/a	catFR1	6	R1658S
97.708	1.836	388314	REC_WORD	1.836	n/a	VIOLIN	n/a	-999	-1	[0, 0, 0]	n/a	catFR1	6	R1658S
99.544	16.446	390150	REC_WORD	16.446	n/a	EVERGREEN	Trees	11	-1	[0, 0, 0]	n/a	catFR1	6	R1658S
115.99	9.487	406596	REC_WORD	9.487	n/a	HAMMER	Tools	4	-1	[0, 0, 0]	n/a	catFR1	6	R1658S
125.477	26.495	416087	REC_END	n/a	n/a	n/a	n/a	-999	-1	[0, 0, 0]	n/a	catFR1	6	R1658S
151.972	10.342	442578	COUNTDOWN_START	n/a	n/a	n/a	n/a	-999	1	[0, 0, 0]	n/a	catFR1	6	R1658S
162.314	0.001	452926	COUNTDOWN_END	n/a	n/a	n/a	n/a	-999	1	[0, 0, 0]	n/a	catFR1	6	R1658S
162.315	2.266	452926	ENCODING_START	n/a	n/a	n/a	n/a	-999	1	[0, 0, 0]	n/a	catFR1	6	R1658S
164.581	1.609	455192	WORD	n/a	wordpools/wordpool_categorized_EN.txt	JEANS	Clothing	1	1	[0, 0, 0]	n/a	catFR1	6	R1658S
166.19	0.816	456804	WORD_OFF	n/a	n/a	JEANS	Clothing	1	1	[0, 0, 0]	n/a	catFR1	6	R1658S
167.006	1.601	457616	WORD	n/a	wordpools/wordpool_categorized_EN.txt	DRESS	Clothing	2	1	[0, 0, 0]	n/a	catFR1	6	R1658S
168.607	0.933	459216	WORD_OFF	n/a	n/a	DRESS	Clothing	2	1	[0, 0, 0]	n/a	catFR1	6	R1658S
169.54	1.611	460152	WORD	n/a	wordpools/wordpool_categorized_EN.txt	CHAIR	Furniture	3	1	[0, 0, 0]	n/a	catFR1	6	R1658S
171.151	0.956	461764	WORD_OFF	n/a	n/a	CHAIR	Furniture	3	1	[0, 0, 0]	n/a	catFR1	6	R1658S
172.107	1.608	462711	WORD	n/a	wordpools/wordpool_categorized_EN.txt	BOOKCASE	Furniture	4	1	[0, 0, 0]	n/a	catFR1	6	R1658S
173.715	0.966	464323	WORD_OFF	n/a	n/a	BOOKCASE	Furniture	4	1	[0, 0, 0]	n/a	catFR1	6	R1658S
174.681	1.61	465292	WORD	n/a	wordpools/wordpool_categorized_EN.txt	SPINACH	Vegetables	5	1	[0, 0, 0]	n/a	catFR1	6	R1658S
176.291	0.773	466904	WORD_OFF	n/a	n/a	SPINACH	Vegetables	5	1	[0, 0, 0]	n/a	catFR1	6	R1658S
177.064	1.602	467671	WORD	n/a	wordpools/wordpool_categorized_EN.txt	BROCCOLI	Vegetables	6	1	[0, 0, 0]	n/a	catFR1	6	R1658S
178.666	0.89	469272	WORD_OFF	n/a	n/a	BROCCOLI	Vegetables	6	1	[0, 0, 0]	n/a	catFR1	6	R1658S
179.556	1.601	470162	WORD	n/a	wordpools/wordpool_categorized_EN.txt	SHIRT	Clothing	7	1	[0, 0, 0]	n/a	catFR1	6	R1658S
181.157	0.875	471763	WORD_OFF	n/a	n/a	SHIRT	Clothing	7	1	[0, 0, 0]	n/a	catFR1	6	R1658S
182.032	1.601	472642	WORD	n/a	wordpools/wordpool_categorized_EN.txt	JACKET	Clothing	8	1	[0, 0, 0]	n/a	catFR1	6	R1658S
183.633	0.848	474243	WORD_OFF	n/a	n/a	JACKET	Clothing	8	1	[0, 0, 0]	n/a	catFR1	6	R1658S
184.481	1.619	475088	WORD	n/a	wordpools/wordpool_categorized_EN.txt	COUCH	Furniture	9	1	[0, 0, 0]	n/a	catFR1	6	R1658S
186.1	0.923	476712	WORD_OFF	n/a	n/a	COUCH	Furniture	9	1	[0, 0, 0]	n/a	catFR1	6	R1658S
187.023	1.602	477636	WORD	n/a	wordpools/wordpool_categorized_EN.txt	NIGHTSTAND	Furniture	10	1	[0, 0, 0]	n/a	catFR1	6	R1658S
188.625	0.882	479237	WORD_OFF	n/a	n/a	NIGHTSTAND	Furniture	10	1	[0, 0, 0]	n/a	catFR1	6	R1658S
189.507	1.6	480116	WORD	n/a	wordpools/wordpool_categorized_EN.txt	POTATO	Vegetables	11	1	[0, 0, 0]	n/a	catFR1	6	R1658S
191.107	0.767	481717	WORD_OFF	n/a	n/a	POTATO	Vegetables	11	1	[0, 0, 0]	n/a	catFR1	6	R1658S
191.874	1.601	482483	WORD	n/a	wordpools/wordpool_categorized_EN.txt	CABBAGE	Vegetables	12	1	[0, 0, 0]	n/a	catFR1	6	R1658S
193.475	0.0	484080	PROB	0.0	n/a	n/a	n/a	-999	1	[6, 6, 6]	18	catFR1	6	R1658S
193.473	0.008	484084	WORD_OFF	n/a	n/a	CABBAGE	Vegetables	12	1	[0, 0, 0]	n/a	catFR1	6	R1658S
193.481	0.0	484084	ENCODING_END	n/a	n/a	n/a	n/a	-999	1	[0, 0, 0]	n/a	catFR1	6	R1658S
193.481	0.0	484086	START	n/a	n/a	n/a	n/a	-999	1	[-999, -999, -999]	n/a	catFR1	6	R1658S
193.481	11.901	484095	DISTRACT_START	n/a	n/a	n/a	n/a	-999	1	[0, 0, 0]	n/a	catFR1	6	R1658S
205.382	9.843	495987	PROB	9.843	n/a	n/a	n/a	-999	1	[8, 4, 5]	17	catFR1	6	R1658S
215.225	0.0	505829	DISTRACT_END	n/a	n/a	n/a	n/a	-999	1	[0, 0, 0]	n/a	catFR1	6	R1658S
215.225	2.299	505830	STOP	n/a	n/a	n/a	n/a	-999	1	[-999, -999, -999]	n/a	catFR1	6	R1658S
217.524	0.454	508129	REC_START	n/a	n/a	n/a	n/a	-999	1	[0, 0, 0]	n/a	catFR1	6	R1658S
217.978	2.415	508583	REC_WORD	2.415	n/a	JEANS	Clothing	1	1	[0, 0, 0]	n/a	catFR1	6	R1658S
220.393	2.051	510998	REC_WORD	2.051	n/a	CABBAGE	Vegetables	12	1	[0, 0, 0]	n/a	catFR1	6	R1658S
222.444	8.61	513049	REC_WORD	8.61	n/a	SHIRT	Clothing	7	1	[0, 0, 0]	n/a	catFR1	6	R1658S
231.054	4.873	521659	REC_WORD	4.873	n/a	DRESS	Clothing	2	1	[0, 0, 0]	n/a	catFR1	6	R1658S
235.927	11.74	526532	REC_WORD	11.74	n/a	BROCCOLI	Vegetables	6	1	[0, 0, 0]	n/a	catFR1	6	R1658S
247.667	2.781	538272	REC_END	n/a	n/a	n/a	n/a	-999	1	[0, 0, 0]	n/a	catFR1	6	R1658S
250.448	10.343	541056	COUNTDOWN_START	n/a	n/a	n/a	n/a	-999	2	[0, 0, 0]	n/a	catFR1	6	R1658S
260.791	0.0	551405	COUNTDOWN_END	n/a	n/a	n/a	n/a	-999	2	[0, 0, 0]	n/a	catFR1	6	R1658S
260.791	1.983	551405	ENCODING_START	n/a	n/a	n/a	n/a	-999	2	[0, 0, 0]	n/a	catFR1	6	R1658S
262.774	1.609	553377	WORD	n/a	wordpools/wordpool_categorized_EN.txt	GLUE	OfficeSupplies	1	2	[0, 0, 0]	n/a	catFR1	6	R1658S
264.383	0.774	554989	WORD_OFF	n/a	n/a	GLUE	OfficeSupplies	1	2	[0, 0, 0]	n/a	catFR1	6	R1658S
265.157	1.6	555767	WORD	n/a	wordpools/wordpool_categorized_EN.txt	PAPER	OfficeSupplies	2	2	[0, 0, 0]	n/a	catFR1	6	R1658S
266.757	0.926	557368	WORD_OFF	n/a	n/a	PAPER	OfficeSupplies	2	2	[0, 0, 0]	n/a	catFR1	6	R1658S
267.683	1.606	558292	WORD	n/a	wordpools/wordpool_categorized_EN.txt	ROOM	Building	3	2	[0, 0, 0]	n/a	catFR1	6	R1658S
269.289	0.91	559893	WORD_OFF	n/a	n/a	ROOM	Building	3	2	[0, 0, 0]	n/a	catFR1	6	R1658S
270.199	1.602	560806	WORD	n/a	wordpools/wordpool_categorized_EN.txt	ROOF	Building	4	2	[0, 0, 0]	n/a	catFR1	6	R1658S
271.801	0.89	562407	WORD_OFF	n/a	n/a	ROOF	Building	4	2	[0, 0, 0]	n/a	catFR1	6	R1658S
272.691	1.608	563297	WORD	n/a	wordpools/wordpool_categorized_EN.txt	BEAR	Zoo	5	2	[0, 0, 0]	n/a	catFR1	6	R1658S
274.299	0.908	564909	WORD_OFF	n/a	n/a	BEAR	Zoo	5	2	[0, 0, 0]	n/a	catFR1	6	R1658S
275.207	1.601	565822	WORD	n/a	wordpools/wordpool_categorized_EN.txt	LION	Zoo	6	2	[0, 0, 0]	n/a	catFR1	6	R1658S
276.808	0.775	567423	WORD_OFF	n/a	n/a	LION	Zoo	6	2	[0, 0, 0]	n/a	catFR1	6	R1658S
277.583	1.6	568190	WORD	n/a	wordpools/wordpool_categorized_EN.txt	FLOOR	Building	7	2	[0, 0, 0]	n/a	catFR1	6	R1658S
279.183	0.882	569790	WORD_OFF	n/a	n/a	FLOOR	Building	7	2	[0, 0, 0]	n/a	catFR1	6	R1658S
280.065	1.601	570670	WORD	n/a	wordpools/wordpool_categorized_EN.txt	BATHROOM	Building	8	2	[0, 0, 0]	n/a	catFR1	6	R1658S
281.666	0.993	572270	WORD_OFF	n/a	n/a	BATHROOM	Building	8	2	[0, 0, 0]	n/a	catFR1	6	R1658S
282.659	1.601	573262	WORD	n/a	wordpools/wordpool_categorized_EN.txt	CHIMPANZEE	Zoo	9	2	[0, 0, 0]	n/a	catFR1	6	R1658S
284.26	0.864	574874	WORD_OFF	n/a	n/a	CHIMPANZEE	Zoo	9	2	[0, 0, 0]	n/a	catFR1	6	R1658S
285.124	1.618	575731	WORD	n/a	wordpools/wordpool_categorized_EN.txt	ELEPHANT	Zoo	10	2	[0, 0, 0]	n/a	catFR1	6	R1658S
286.742	0.774	577354	WORD_OFF	n/a	n/a	ELEPHANT	Zoo	10	2	[0, 0, 0]	n/a	catFR1	6	R1658S
287.516	1.6	578121	WORD	n/a	wordpools/wordpool_categorized_EN.txt	RULER	OfficeSupplies	11	2	[0, 0, 0]	n/a	catFR1	6	R1658S
289.116	0.791	579722	WORD_OFF	n/a	n/a	RULER	OfficeSupplies	11	2	[0, 0, 0]	n/a	catFR1	6	R1658S
289.907	1.6	580511	WORD	n/a	wordpools/wordpool_categorized_EN.txt	TAPE	OfficeSupplies	12	2	[0, 0, 0]	n/a	catFR1	6	R1658S
291.507	0.002	582111	WORD_OFF	n/a	n/a	TAPE	OfficeSupplies	12	2	[0, 0, 0]	n/a	catFR1	6	R1658S
291.509	0.0	582111	ENCODING_END	n/a	n/a	n/a	n/a	-999	2	[0, 0, 0]	n/a	catFR1	6	R1658S
291.507	0.002	582112	PROB	0.002	n/a	n/a	n/a	-999	2	[7, 5, 2]	14	catFR1	6	R1658S
291.509	0.0	582114	START	n/a	n/a	n/a	n/a	-999	2	[-999, -999, -999]	n/a	catFR1	6	R1658S
291.509	18.064	582123	DISTRACT_START	n/a	n/a	n/a	n/a	-999	2	[0, 0, 0]	n/a	catFR1	6	R1658S
309.573	15.025	600178	PROB	15.025	n/a	n/a	n/a	-999	2	[5, 2, 2]	9	catFR1	6	R1658S
324.598	0.0	615202	STOP	n/a	n/a	n/a	n/a	-999	2	[-999, -999, -999]	n/a	catFR1	6	R1658S
324.598	2.393	615208	DISTRACT_END	n/a	n/a	n/a	n/a	-999	2	[0, 0, 0]	n/a	catFR1	6	R1658S
326.991	0.74	617598	REC_START	n/a	n/a	n/a	n/a	-999	2	[0, 0, 0]	n/a	catFR1	6	R1658S
327.731	5.108	618335	REC_WORD	5.108	n/a	CHIMPANZEE	Zoo	9	2	[0, 0, 0]	n/a	catFR1	6	R1658S
332.839	3.259	623443	REC_WORD	3.259	n/a	GIRAFFE	n/a	-999	2	[0, 0, 0]	n/a	catFR1	6	R1658S
336.098	4.17	626702	REC_WORD	4.17	n/a	PAPER	OfficeSupplies	2	2	[0, 0, 0]	n/a	catFR1	6	R1658S
340.268	2.593	630872	REC_WORD	2.593	n/a	MARKER	n/a	-999	2	[0, 0, 0]	n/a	catFR1	6	R1658S
342.861	3.739	633465	REC_WORD	3.739	n/a	RULER	OfficeSupplies	11	2	[0, 0, 0]	n/a	catFR1	6	R1658S
346.6	7.0	637204	REC_WORD	7.0	n/a	SCISSOR	n/a	-999	2	[0, 0, 0]	n/a	catFR1	6	R1658S
353.6	1.0	644204	REC_WORD	1.0	n/a	CHIMPANZEE	Zoo	9	2	[0, 0, 0]	n/a	catFR1	6	R1658S
354.6	1.999	645204	REC_WORD_VV	1.999	n/a	<>	n/a	-999	2	[0, 0, 0]	n/a	catFR1	6	R1658S
356.599	0.537	647203	REC_WORD	0.537	n/a	LION	Zoo	6	2	[0, 0, 0]	n/a	catFR1	6	R1658S
357.136	3.271	647741	REC_END	n/a	n/a	n/a	n/a	-999	2	[0, 0, 0]	n/a	catFR1	6	R1658S
360.407	10.344	651010	COUNTDOWN_START	n/a	n/a	n/a	n/a	-999	3	[0, 0, 0]	n/a	catFR1	6	R1658S
370.751	0.0	661359	COUNTDOWN_END	n/a	n/a	n/a	n/a	-999	3	[0, 0, 0]	n/a	catFR1	6	R1658S
370.751	2.0	661359	ENCODING_START	n/a	n/a	n/a	n/a	-999	3	[0, 0, 0]	n/a	catFR1	6	R1658S
372.751	1.6	663354	WORD	n/a	wordpools/wordpool_categorized_EN.txt	DISHWASHER	Appliances	1	3	[0, 0, 0]	n/a	catFR1	6	R1658S
374.351	0.798	664955	WORD_OFF	n/a	n/a	DISHWASHER	Appliances	1	3	[0, 0, 0]	n/a	catFR1	6	R1658S
375.149	1.601	665755	WORD	n/a	wordpools/wordpool_categorized_EN.txt	TOASTER	Appliances	2	3	[0, 0, 0]	n/a	catFR1	6	R1658S
376.75	0.799	667356	WORD_OFF	n/a	n/a	TOASTER	Appliances	2	3	[0, 0, 0]	n/a	catFR1	6	R1658S
377.549	1.602	668156	WORD	n/a	wordpools/wordpool_categorized_EN.txt	TABLE	Furniture	3	3	[0, 0, 0]	n/a	catFR1	6	R1658S
379.151	0.8	669757	WORD_OFF	n/a	n/a	TABLE	Furniture	3	3	[0, 0, 0]	n/a	catFR1	6	R1658S
379.951	1.615	670557	WORD	n/a	wordpools/wordpool_categorized_EN.txt	CABINET	Furniture	4	3	[0, 0, 0]	n/a	catFR1	6	R1658S
381.566	0.933	672180	WORD_OFF	n/a	n/a	CABINET	Furniture	4	3	[0, 0, 0]	n/a	catFR1	6	R1658S
382.499	1.601	673105	WORD	n/a	wordpools/wordpool_categorized_EN.txt	FRISBEE	Toys	5	3	[0, 0, 0]	n/a	catFR1	6	R1658S
384.1	0.767	674706	WORD_OFF	n/a	n/a	FRISBEE	Toys	5	3	[0, 0, 0]	n/a	catFR1	6	R1658S
384.867	1.6	675472	WORD	n/a	wordpools/wordpool_categorized_EN.txt	BALL	Toys	6	3	[0, 0, 0]	n/a	catFR1	6	R1658S
386.467	0.983	677073	WORD_OFF	n/a	n/a	BALL	Toys	6	3	[0, 0, 0]	n/a	catFR1	6	R1658S
387.45	1.6	678054	WORD	n/a	wordpools/wordpool_categorized_EN.txt	STOVE	Appliances	7	3	[0, 0, 0]	n/a	catFR1	6	R1658S
389.05	0.834	679654	WORD_OFF	n/a	n/a	STOVE	Appliances	7	3	[0, 0, 0]	n/a	catFR1	6	R1658S
389.884	1.607	680488	WORD	n/a	wordpools/wordpool_categorized_EN.txt	WASHER	Appliances	8	3	[0, 0, 0]	n/a	catFR1	6	R1658S
391.491	0.976	682100	WORD_OFF	n/a	n/a	WASHER	Appliances	8	3	[0, 0, 0]	n/a	catFR1	6	R1658S
392.467	1.608	683081	WORD	n/a	wordpools/wordpool_categorized_EN.txt	MARBLES	Toys	9	3	[0, 0, 0]	n/a	catFR1	6	R1658S
394.075	0.899	684682	WORD_OFF	n/a	n/a	MARBLES	Toys	9	3	[0, 0, 0]	n/a	catFR1	6	R1658S
394.974	1.601	685584	WORD	n/a	wordpools/wordpool_categorized_EN.txt	SLINKY	Toys	10	3	[0, 0, 0]	n/a	catFR1	6	R1658S
396.575	0.767	687184	WORD_OFF	n/a	n/a	SLINKY	Toys	10	3	[0, 0, 0]	n/a	catFR1	6	R1658S
397.342	1.607	687951	WORD	n/a	wordpools/wordpool_categorized_EN.txt	DRESSER	Furniture	11	3	[0, 0, 0]	n/a	catFR1	6	R1658S
398.949	0.876	689552	WORD_OFF	n/a	n/a	DRESSER	Furniture	11	3	[0, 0, 0]	n/a	catFR1	6	R1658S
399.825	1.6	690431	WORD	n/a	wordpools/wordpool_categorized_EN.txt	RECLINER	Furniture	12	3	[0, 0, 0]	n/a	catFR1	6	R1658S
401.425	0.001	692029	PROB	0.001	n/a	n/a	n/a	-999	3	[2, 8, 5]	15	catFR1	6	R1658S
401.426	0.002	692032	WORD_OFF	n/a	n/a	RECLINER	Furniture	12	3	[0, 0, 0]	n/a	catFR1	6	R1658S
401.428	0.0	692032	ENCODING_END	n/a	n/a	n/a	n/a	-999	3	[0, 0, 0]	n/a	catFR1	6	R1658S
401.428	0.0	692032	START	n/a	n/a	n/a	n/a	-999	3	[-999, -999, -999]	n/a	catFR1	6	R1658S
401.428	5.113	692043	DISTRACT_START	n/a	n/a	n/a	n/a	-999	3	[0, 0, 0]	n/a	catFR1	6	R1658S
406.541	4.269	697145	PROB	4.269	n/a	n/a	n/a	-999	3	[8, 1, 1]	10	catFR1	6	R1658S
410.81	5.866	701414	PROB	5.866	n/a	n/a	n/a	-999	3	[1, 3, 6]	10	catFR1	6	R1658S
416.676	8.848	707280	PROB	8.848	n/a	n/a	n/a	-999	3	[8, 7, 5]	20	catFR1	6	R1658S
425.524	0.0	716128	STOP	n/a	n/a	n/a	n/a	-999	3	[-999, -999, -999]	n/a	catFR1	6	R1658S
425.524	2.12	716133	DISTRACT_END	n/a	n/a	n/a	n/a	-999	3	[0, 0, 0]	n/a	catFR1	6	R1658S
427.644	0.084	718252	REC_START	n/a	n/a	n/a	n/a	-999	3	[0, 0, 0]	n/a	catFR1	6	R1658S
427.728	1.6	718332	REC_WORD	1.6	n/a	DRESSER	Furniture	11	3	[0, 0, 0]	n/a	catFR1	6	R1658S
429.328	2.126	719932	REC_WORD	2.126	n/a	BED	n/a	-999	3	[0, 0, 0]	n/a	catFR1	6	R1658S
431.454	2.042	722058	REC_WORD	2.042	n/a	KITCHEN	n/a	-999	3	[0, 0, 0]	n/a	catFR1	6	R1658S
433.496	2.2	724100	REC_WORD	2.2	n/a	STOVE	Appliances	7	3	[0, 0, 0]	n/a	catFR1	6	R1658S
435.696	1.915	726300	REC_WORD	1.915	n/a	WASHER	Appliances	8	3	[0, 0, 0]	n/a	catFR1	6	R1658S
437.611	4.354	728215	REC_WORD	4.354	n/a	DISHWASHER	Appliances	1	3	[0, 0, 0]	n/a	catFR1	6	R1658S
441.965	5.132	732569	REC_WORD	5.132	n/a	CHAIR	Furniture	-999	3	[0, 0, 0]	n/a	catFR1	6	R1658S
447.097	10.687	737701	REC_WORD	10.687	n/a	COUCH	Furniture	-999	3	[0, 0, 0]	n/a	catFR1	6	R1658S
457.784	3.082	748395	REC_END	n/a	n/a	n/a	n/a	-999	3	[0, 0, 0]	n/a	catFR1	6	R1658S
460.866	10.341	751473	COUNTDOWN_START	n/a	n/a	n/a	n/a	-999	4	[0, 0, 0]	n/a	catFR1	6	R1658S
471.207	0.001	761810	COUNTDOWN_END	n/a	n/a	n/a	n/a	-999	4	[0, 0, 0]	n/a	catFR1	6	R1658S
471.208	2.11	761821	ENCODING_START	n/a	n/a	n/a	n/a	-999	4	[0, 0, 0]	n/a	catFR1	6	R1658S
473.318	1.607	763929	WORD	n/a	wordpools/wordpool_categorized_EN.txt	PANDA	Zoo	1	4	[0, 0, 0]	n/a	catFR1	6	R1658S
474.925	0.85	765530	WORD_OFF	n/a	n/a	PANDA	Zoo	1	4	[0, 0, 0]	n/a	catFR1	6	R1658S
475.775	1.61	766387	WORD	n/a	wordpools/wordpool_categorized_EN.txt	TIGER	Zoo	2	4	[0, 0, 0]	n/a	catFR1	6	R1658S
477.385	0.882	767999	WORD_OFF	n/a	n/a	TIGER	Zoo	2	4	[0, 0, 0]	n/a	catFR1	6	R1658S
478.267	1.609	768878	WORD	n/a	wordpools/wordpool_categorized_EN.txt	COFFEE	Beverages	3	4	[0, 0, 0]	n/a	catFR1	6	R1658S
479.876	0.882	770479	WORD_OFF	n/a	n/a	COFFEE	Beverages	3	4	[0, 0, 0]	n/a	catFR1	6	R1658S
480.758	1.6	771369	WORD	n/a	wordpools/wordpool_categorized_EN.txt	WINE	Beverages	4	4	[0, 0, 0]	n/a	catFR1	6	R1658S
482.358	0.935	772970	WORD_OFF	n/a	n/a	WINE	Beverages	4	4	[0, 0, 0]	n/a	catFR1	6	R1658S
483.293	1.609	773906	WORD	n/a	wordpools/wordpool_categorized_EN.txt	VIOLIN	Instruments	5	4	[0, 0, 0]	n/a	catFR1	6	R1658S
484.902	0.866	775518	WORD_OFF	n/a	n/a	VIOLIN	Instruments	5	4	[0, 0, 0]	n/a	catFR1	6	R1658S
485.768	1.607	776374	WORD	n/a	wordpools/wordpool_categorized_EN.txt	GUITAR	Instruments	6	4	[0, 0, 0]	n/a	catFR1	6	R1658S
487.375	0.967	777986	WORD_OFF	n/a	n/a	GUITAR	Instruments	6	4	[0, 0, 0]	n/a	catFR1	6	R1658S
488.342	1.6	778944	WORD	n/a	wordpools/wordpool_categorized_EN.txt	CHEETAH	Zoo	7	4	[0, 0, 0]	n/a	catFR1	6	R1658S
489.942	0.983	780545	WORD_OFF	n/a	n/a	CHEETAH	Zoo	7	4	[0, 0, 0]	n/a	catFR1	6	R1658S
490.925	1.601	781537	WORD	n/a	wordpools/wordpool_categorized_EN.txt	GORILLA	Zoo	8	4	[0, 0, 0]	n/a	catFR1	6	R1658S
492.526	0.851	783138	WORD_OFF	n/a	n/a	GORILLA	Zoo	8	4	[0, 0, 0]	n/a	catFR1	6	R1658S
493.377	1.605	783983	WORD	n/a	wordpools/wordpool_categorized_EN.txt	WATER	Beverages	9	4	[0, 0, 0]	n/a	catFR1	6	R1658S
494.982	0.769	785584	WORD_OFF	n/a	n/a	WATER	Beverages	9	4	[0, 0, 0]	n/a	catFR1	6	R1658S
495.751	1.6	786362	WORD	n/a	wordpools/wordpool_categorized_EN.txt	MILK	Beverages	10	4	[0, 0, 0]	n/a	catFR1	6	R1658S
497.351	0.823	787963	WORD_OFF	n/a	n/a	MILK	Beverages	10	4	[0, 0, 0]	n/a	catFR1	6	R1658S
498.174	1.6	788785	WORD	n/a	wordpools/wordpool_categorized_EN.txt	FLUTE	Instruments	11	4	[0, 0, 0]	n/a	catFR1	6	R1658S
499.774	0.793	790375	WORD_OFF	n/a	n/a	FLUTE	Instruments	11	4	[0, 0, 0]	n/a	catFR1	6	R1658S
500.567	1.6	791175	WORD	n/a	wordpools/wordpool_categorized_EN.txt	TUBA	Instruments	12	4	[0, 0, 0]	n/a	catFR1	6	R1658S
502.167	0.003	792771	PROB	0.003	n/a	n/a	n/a	-999	4	[4, 7, 1]	12	catFR1	6	R1658S
502.17	0.0	792774	START	n/a	n/a	n/a	n/a	-999	4	[-999, -999, -999]	n/a	catFR1	6	R1658S
502.167	0.003	792776	WORD_OFF	n/a	n/a	TUBA	Instruments	12	4	[0, 0, 0]	n/a	catFR1	6	R1658S
502.17	0.0	792776	ENCODING_END	n/a	n/a	n/a	n/a	-999	4	[0, 0, 0]	n/a	catFR1	6	R1658S
502.17	12.338	792776	DISTRACT_START	n/a	n/a	n/a	n/a	-999	4	[0, 0, 0]	n/a	catFR1	6	R1658S
514.508	9.958	805111	PROB	9.958	n/a	n/a	n/a	-999	4	[7, 2, 8]	17	catFR1	6	R1658S
524.466	0.0	815069	STOP	n/a	n/a	n/a	n/a	-999	4	[-999, -999, -999]	n/a	catFR1	6	R1658S
524.466	2.026	815073	DISTRACT_END	n/a	n/a	n/a	n/a	-999	4	[0, 0, 0]	n/a	catFR1	6	R1658S
526.492	1.425	817103	REC_START	n/a	n/a	n/a	n/a	-999	4	[0, 0, 0]	n/a	catFR1	6	R1658S
527.917	2.121	818520	REC_WORD	2.121	n/a	VIOLIN	Instruments	5	4	[0, 0, 0]	n/a	catFR1	6	R1658S
530.038	1.464	820641	REC_WORD	1.464	n/a	MILK	Beverages	10	4	[0, 0, 0]	n/a	catFR1	6	R1658S
531.502	19.954	822105	REC_WORD	19.954	n/a	WATER	Beverages	9	4	[0, 0, 0]	n/a	catFR1	6	R1658S
551.456	1.0	842059	REC_WORD_VV	1.0	n/a	<>	n/a	-999	4	[0, 0, 0]	n/a	catFR1	6	R1658S
552.456	2.173	843059	REC_WORD_VV	2.173	n/a	<>	n/a	-999	4	[0, 0, 0]	n/a	catFR1	6	R1658S
554.629	1.0	845232	REC_WORD_VV	1.0	n/a	<>	n/a	-999	4	[0, 0, 0]	n/a	catFR1	6	R1658S
555.629	1.006	846232	REC_WORD_VV	1.006	n/a	<>	n/a	-999	4	[0, 0, 0]	n/a	catFR1	6	R1658S
556.635	400.695	847246	REC_END	n/a	n/a	n/a	n/a	-999	4	[0, 0, 0]	n/a	catFR1	6	R1658S
957.33	10.339	1247935	COUNTDOWN_START	n/a	n/a	n/a	n/a	-999	5	[0, 0, 0]	n/a	catFR1	6	R1658S
967.669	0.001	1258272	COUNTDOWN_END	n/a	n/a	n/a	n/a	-999	5	[0, 0, 0]	n/a	catFR1	6	R1658S
967.67	2.033	1258272	ENCODING_START	n/a	n/a	n/a	n/a	-999	5	[0, 0, 0]	n/a	catFR1	6	R1658S
969.703	1.608	1260312	WORD	n/a	wordpools/wordpool_categorized_EN.txt	COOKIE	Desserts	1	5	[0, 0, 0]	n/a	catFR1	6	R1658S
971.311	0.9	1261913	WORD_OFF	n/a	n/a	COOKIE	Desserts	1	5	[0, 0, 0]	n/a	catFR1	6	R1658S
972.211	1.6	1262815	WORD	n/a	wordpools/wordpool_categorized_EN.txt	PUDDING	Desserts	2	5	[0, 0, 0]	n/a	catFR1	6	R1658S
973.811	0.867	1264415	WORD_OFF	n/a	n/a	PUDDING	Desserts	2	5	[0, 0, 0]	n/a	catFR1	6	R1658S
974.678	1.609	1265283	WORD	n/a	wordpools/wordpool_categorized_EN.txt	CAR	Vehicles	3	5	[0, 0, 0]	n/a	catFR1	6	R1658S
976.287	0.932	1266895	WORD_OFF	n/a	n/a	CAR	Vehicles	3	5	[0, 0, 0]	n/a	catFR1	6	R1658S
977.219	1.6	1267820	WORD	n/a	wordpools/wordpool_categorized_EN.txt	JEEP	Vehicles	4	5	[0, 0, 0]	n/a	catFR1	6	R1658S
978.819	0.834	1269420	WORD_OFF	n/a	n/a	JEEP	Vehicles	4	5	[0, 0, 0]	n/a	catFR1	6	R1658S
979.653	1.6	1270255	WORD	n/a	wordpools/wordpool_categorized_EN.txt	LAKE	Landscapes	5	5	[0, 0, 0]	n/a	catFR1	6	R1658S
981.253	0.775	1271855	WORD_OFF	n/a	n/a	LAKE	Landscapes	5	5	[0, 0, 0]	n/a	catFR1	6	R1658S
982.028	1.601	1272633	WORD	n/a	wordpools/wordpool_categorized_EN.txt	STREAM	Landscapes	6	5	[0, 0, 0]	n/a	catFR1	6	R1658S
983.629	0.949	1274234	WORD_OFF	n/a	n/a	STREAM	Landscapes	6	5	[0, 0, 0]	n/a	catFR1	6	R1658S
984.578	1.6	1275181	WORD	n/a	wordpools/wordpool_categorized_EN.txt	VAN	Vehicles	7	5	[0, 0, 0]	n/a	catFR1	6	R1658S
986.178	0.791	1276781	WORD_OFF	n/a	n/a	VAN	Vehicles	7	5	[0, 0, 0]	n/a	catFR1	6	R1658S
986.969	1.601	1277571	WORD	n/a	wordpools/wordpool_categorized_EN.txt	MOPED	Vehicles	8	5	[0, 0, 0]	n/a	catFR1	6	R1658S
988.57	0.983	1279171	WORD_OFF	n/a	n/a	MOPED	Vehicles	8	5	[0, 0, 0]	n/a	catFR1	6	R1658S
989.553	1.6	1280163	WORD	n/a	wordpools/wordpool_categorized_EN.txt	JELLO	Desserts	9	5	[0, 0, 0]	n/a	catFR1	6	R1658S
991.153	0.9	1281753	WORD_OFF	n/a	n/a	JELLO	Desserts	9	5	[0, 0, 0]	n/a	catFR1	6	R1658S
992.053	1.6	1282655	WORD	n/a	wordpools/wordpool_categorized_EN.txt	FUDGE	Desserts	10	5	[0, 0, 0]	n/a	catFR1	6	R1658S
993.653	0.974	1284255	WORD_OFF	n/a	n/a	FUDGE	Desserts	10	5	[0, 0, 0]	n/a	catFR1	6	R1658S
994.627	1.61	1285236	WORD	n/a	wordpools/wordpool_categorized_EN.txt	CREEK	Landscapes	11	5	[0, 0, 0]	n/a	catFR1	6	R1658S
996.237	0.924	1286848	WORD_OFF	n/a	n/a	CREEK	Landscapes	11	5	[0, 0, 0]	n/a	catFR1	6	R1658S
997.161	1.6	1287772	WORD	n/a	wordpools/wordpool_categorized_EN.txt	BEACH	Landscapes	12	5	[0, 0, 0]	n/a	catFR1	6	R1658S
998.761	0.003	1289362	WORD_OFF	n/a	n/a	BEACH	Landscapes	12	5	[0, 0, 0]	n/a	catFR1	6	R1658S
998.764	0.0	1289362	ENCODING_END	n/a	n/a	n/a	n/a	-999	5	[0, 0, 0]	n/a	catFR1	6	R1658S
998.764	0.0	1289365	START	n/a	n/a	n/a	n/a	-999	5	[-999, -999, -999]	n/a	catFR1	6	R1658S
998.764	0.0	1289373	DISTRACT_START	n/a	n/a	n/a	n/a	-999	5	[0, 0, 0]	n/a	catFR1	6	R1658S
