onset	duration	sample	trial_type	response_time	stim_file	item_name	category	serialpos	list	test	answer	experiment	session	subject
0.0	164.798	2367	INSTRUCT_START	n/a	n/a	n/a	n/a	-999	-999	[0, 0, 0]	n/a	catFR1	2	R1443D
164.798	27.433	167158	INSTRUCT_END	n/a	n/a	n/a	n/a	-999	-999	[0, 0, 0]	n/a	catFR1	2	R1443D
192.231	10.0	194590	COUNTDOWN_START	n/a	n/a	n/a	n/a	-999	-999	[0, 0, 0]	n/a	catFR1	2	R1443D
202.58	0.0	204933	COUNTDOWN_END	n/a	n/a	n/a	n/a	-999	-999	[0, 0, 0]	n/a	catFR1	2	R1443D
202.58	2.218	204933	ENCODING_START	n/a	n/a	n/a	n/a	-999	-1	[0, 0, 0]	n/a	catFR1	2	R1443D
204.798	1.6	207155	WORD	n/a	n/a	SNOW	Weather	1	-1	[0, 0, 0]	n/a	catFR1	2	R1443D
206.414	0.951	208782	WORD_OFF	n/a	n/a	SNOW	Weather	1	-1	[0, 0, 0]	n/a	catFR1	2	R1443D
207.365	1.6	209721	WORD	n/a	n/a	THUNDERSTORM	Weather	2	-1	[0, 0, 0]	n/a	catFR1	2	R1443D
208.965	0.916	211322	WORD_OFF	n/a	n/a	THUNDERSTORM	Weather	2	-1	[0, 0, 0]	n/a	catFR1	2	R1443D
209.881	1.6	212234	WORD	n/a	n/a	PLANE	Vehicles	3	-1	[0, 0, 0]	n/a	catFR1	2	R1443D
211.498	0.932	213861	WORD_OFF	n/a	n/a	PLANE	Vehicles	3	-1	[0, 0, 0]	n/a	catFR1	2	R1443D
212.43	1.6	214787	WORD	n/a	n/a	CAR	Vehicles	4	-1	[0, 0, 0]	n/a	catFR1	2	R1443D
214.03	0.801	216388	WORD_OFF	n/a	n/a	CAR	Vehicles	4	-1	[0, 0, 0]	n/a	catFR1	2	R1443D
214.831	1.6	217181	WORD	n/a	n/a	BLUEBERRY	Fruit	5	-1	[0, 0, 0]	n/a	catFR1	2	R1443D
216.431	1.0	218782	WORD_OFF	n/a	n/a	BLUEBERRY	Fruit	5	-1	[0, 0, 0]	n/a	catFR1	2	R1443D
217.431	1.6	219787	WORD	n/a	n/a	BANANA	Fruit	6	-1	[0, 0, 0]	n/a	catFR1	2	R1443D
219.048	0.949	221401	WORD_OFF	n/a	n/a	BANANA	Fruit	6	-1	[0, 0, 0]	n/a	catFR1	2	R1443D
219.997	1.6	222353	WORD	n/a	n/a	HUMIDITY	Weather	7	-1	[0, 0, 0]	n/a	catFR1	2	R1443D
221.614	0.816	223966	WORD_OFF	n/a	n/a	HUMIDITY	Weather	7	-1	[0, 0, 0]	n/a	catFR1	2	R1443D
222.43	1.6	224787	WORD	n/a	n/a	TORNADO	Weather	8	-1	[0, 0, 0]	n/a	catFR1	2	R1443D
224.03	0.816	226387	WORD_OFF	n/a	n/a	TORNADO	Weather	8	-1	[0, 0, 0]	n/a	catFR1	2	R1443D
224.846	1.6	227207	WORD	n/a	n/a	BIKE	Vehicles	9	-1	[0, 0, 0]	n/a	catFR1	2	R1443D
226.447	0.984	228807	WORD_OFF	n/a	n/a	BIKE	Vehicles	9	-1	[0, 0, 0]	n/a	catFR1	2	R1443D
227.431	1.6	229786	WORD	n/a	n/a	BUS	Vehicles	10	-1	[0, 0, 0]	n/a	catFR1	2	R1443D
229.045	0.819	231400	WORD_OFF	n/a	n/a	BUS	Vehicles	10	-1	[0, 0, 0]	n/a	catFR1	2	R1443D
229.864	1.6	232220	WORD	n/a	n/a	APPLE	Fruit	11	-1	[0, 0, 0]	n/a	catFR1	2	R1443D
231.465	0.783	233820	WORD_OFF	n/a	n/a	APPLE	Fruit	11	-1	[0, 0, 0]	n/a	catFR1	2	R1443D
232.248	1.6	234601	WORD	n/a	n/a	ORANGE	Fruit	12	-1	[0, 0, 0]	n/a	catFR1	2	R1443D
233.865	0.001	236214	WORD_OFF	n/a	n/a	ORANGE	Fruit	12	-1	[0, 0, 0]	n/a	catFR1	2	R1443D
233.866	0.002	236221	PROB	6.882	n/a	n/a	n/a	-999	-1	[7, 3, 4]	14.0	catFR1	2	R1443D
233.868	0.0	236223	START	n/a	n/a	n/a	n/a	-999	-1	[-999, -999, -999]	n/a	catFR1	2	R1443D
233.868	0.0	236228	ENCODING_END	n/a	n/a	n/a	n/a	-999	-1	[0, 0, 0]	n/a	catFR1	2	R1443D
233.868	6.898	236228	DISTRACT_START	n/a	n/a	n/a	n/a	-999	-1	[0, 0, 0]	n/a	catFR1	2	R1443D
240.766	6.066	243121	PROB	6.049	n/a	n/a	n/a	-999	-1	[4, 1, 8]	13.0	catFR1	2	R1443D
246.832	4.55	249186	PROB	4.533	n/a	n/a	n/a	-999	-1	[5, 2, 4]	11.0	catFR1	2	R1443D
251.382	4.499	253736	PROB	4.482	n/a	n/a	n/a	-999	-1	[5, 5, 3]	13.0	catFR1	2	R1443D
255.881	0.0	258235	STOP	n/a	n/a	n/a	n/a	-999	-1	[-999, -999, -999]	n/a	catFR1	2	R1443D
255.881	2.099	258237	DISTRACT_END	n/a	n/a	n/a	n/a	-999	-1	[0, 0, 0]	n/a	catFR1	2	R1443D
257.98	1.737	260335	REC_START	n/a	n/a	n/a	n/a	-999	-1	[0, 0, 0]	n/a	catFR1	2	R1443D
259.717	0.768	262071	REC_WORD_VV	1.737	n/a	<>	n/a	-999	-1	[0, 0, 0]	n/a	catFR1	2	R1443D
260.485	1.135	262839	REC_WORD	2.505	n/a	APPLE	Fruit	11	-1	[0, 0, 0]	n/a	catFR1	2	R1443D
261.62	3.301	263974	REC_WORD	3.64	n/a	SNOW	Weather	1	-1	[0, 0, 0]	n/a	catFR1	2	R1443D
264.921	2.755	267274	REC_WORD_VV	6.941	n/a	<>	n/a	-999	-1	[0, 0, 0]	n/a	catFR1	2	R1443D
267.676	2.46	270029	REC_WORD	9.696	n/a	PLANE	Vehicles	3	-1	[0, 0, 0]	n/a	catFR1	2	R1443D
270.136	3.125	272489	REC_WORD	12.156	n/a	TRAIN	n/a	-999	-1	[0, 0, 0]	n/a	catFR1	2	R1443D
273.261	9.841	275614	REC_WORD	15.281	n/a	BIKE	Vehicles	9	-1	[0, 0, 0]	n/a	catFR1	2	R1443D
283.102	2.009	285455	REC_WORD	25.122	n/a	MOUNTAIN	n/a	-999	-1	[0, 0, 0]	n/a	catFR1	2	R1443D
285.111	3.07	287463	REC_WORD	27.131	n/a	TORNADO	Weather	8	-1	[0, 0, 0]	n/a	catFR1	2	R1443D
288.181	6.317	290536	REC_END	n/a	n/a	n/a	n/a	-999	-1	[0, 0, 0]	n/a	catFR1	2	R1443D
294.498	10.0	296859	COUNTDOWN_START	n/a	n/a	n/a	n/a	-999	1	[0, 0, 0]	n/a	catFR1	2	R1443D
304.847	0.0	307202	COUNTDOWN_END	n/a	n/a	n/a	n/a	-999	1	[0, 0, 0]	n/a	catFR1	2	R1443D
304.847	2.069	307202	ENCODING_START	n/a	n/a	n/a	n/a	-999	1	[0, 0, 0]	n/a	catFR1	2	R1443D
306.916	1.6	309265	WORD	n/a	wordpools/wordpool_categorized_EN.txt	PETUNIA	Flowers	1	1	[0, 0, 0]	n/a	catFR1	2	R1443D
308.531	0.933	310879	WORD_OFF	n/a	n/a	PETUNIA	Flowers	1	1	[0, 0, 0]	n/a	catFR1	2	R1443D
309.464	1.6	311818	WORD	n/a	wordpools/wordpool_categorized_EN.txt	DAISY	Flowers	2	1	[0, 0, 0]	n/a	catFR1	2	R1443D
311.065	0.782	313418	WORD_OFF	n/a	n/a	DAISY	Flowers	2	1	[0, 0, 0]	n/a	catFR1	2	R1443D
311.847	1.6	314199	WORD	n/a	wordpools/wordpool_categorized_EN.txt	PEACH	Fruit	3	1	[0, 0, 0]	n/a	catFR1	2	R1443D
313.448	0.832	315799	WORD_OFF	n/a	n/a	PEACH	Fruit	3	1	[0, 0, 0]	n/a	catFR1	2	R1443D
314.28	1.6	316632	WORD	n/a	wordpools/wordpool_categorized_EN.txt	CHERRY	Fruit	4	1	[0, 0, 0]	n/a	catFR1	2	R1443D
315.881	0.883	318233	WORD_OFF	n/a	n/a	CHERRY	Fruit	4	1	[0, 0, 0]	n/a	catFR1	2	R1443D
316.764	1.6	319119	WORD	n/a	wordpools/wordpool_categorized_EN.txt	LOBSTER	OceanAnimals	5	1	[0, 0, 0]	n/a	catFR1	2	R1443D
318.364	0.95	320719	WORD_OFF	n/a	n/a	LOBSTER	OceanAnimals	5	1	[0, 0, 0]	n/a	catFR1	2	R1443D
319.314	1.6	321672	WORD	n/a	wordpools/wordpool_categorized_EN.txt	SHRIMP	OceanAnimals	6	1	[0, 0, 0]	n/a	catFR1	2	R1443D
320.916	0.932	323272	WORD_OFF	n/a	n/a	SHRIMP	OceanAnimals	6	1	[0, 0, 0]	n/a	catFR1	2	R1443D
321.848	1.6	324198	WORD	n/a	wordpools/wordpool_categorized_EN.txt	TULIP	Flowers	7	1	[0, 0, 0]	n/a	catFR1	2	R1443D
323.448	0.783	325798	WORD_OFF	n/a	n/a	TULIP	Flowers	7	1	[0, 0, 0]	n/a	catFR1	2	R1443D
324.231	1.6	326579	WORD	n/a	wordpools/wordpool_categorized_EN.txt	MARIGOLD	Flowers	8	1	[0, 0, 0]	n/a	catFR1	2	R1443D
325.831	0.85	328179	WORD_OFF	n/a	n/a	MARIGOLD	Flowers	8	1	[0, 0, 0]	n/a	catFR1	2	R1443D
326.681	1.6	329026	WORD	n/a	wordpools/wordpool_categorized_EN.txt	GRAPE	Fruit	9	1	[0, 0, 0]	n/a	catFR1	2	R1443D
328.281	0.85	330626	WORD_OFF	n/a	n/a	GRAPE	Fruit	9	1	[0, 0, 0]	n/a	catFR1	2	R1443D
329.131	1.6	331486	WORD	n/a	wordpools/wordpool_categorized_EN.txt	PEAR	Fruit	10	1	[0, 0, 0]	n/a	catFR1	2	R1443D
330.731	0.817	333086	WORD_OFF	n/a	n/a	PEAR	Fruit	10	1	[0, 0, 0]	n/a	catFR1	2	R1443D
331.548	1.6	333893	WORD	n/a	wordpools/wordpool_categorized_EN.txt	FISH	OceanAnimals	11	1	[0, 0, 0]	n/a	catFR1	2	R1443D
333.164	0.8	335520	WORD_OFF	n/a	n/a	FISH	OceanAnimals	11	1	[0, 0, 0]	n/a	catFR1	2	R1443D
333.964	1.6	336314	WORD	n/a	wordpools/wordpool_categorized_EN.txt	SQUID	OceanAnimals	12	1	[0, 0, 0]	n/a	catFR1	2	R1443D
335.581	0.001	337927	WORD_OFF	n/a	n/a	SQUID	OceanAnimals	12	1	[0, 0, 0]	n/a	catFR1	2	R1443D
335.582	0.0	337927	ENCODING_END	n/a	n/a	n/a	n/a	-999	1	[0, 0, 0]	n/a	catFR1	2	R1443D
335.581	0.001	337931	PROB	5.467	n/a	n/a	n/a	-999	1	[1, 2, 5]	8.0	catFR1	2	R1443D
335.582	0.0	337932	START	n/a	n/a	n/a	n/a	-999	1	[-999, -999, -999]	n/a	catFR1	2	R1443D
335.582	5.483	337941	DISTRACT_START	n/a	n/a	n/a	n/a	-999	1	[0, 0, 0]	n/a	catFR1	2	R1443D
341.065	4.983	343415	PROB	4.965	n/a	n/a	n/a	-999	1	[4, 8, 1]	13.0	catFR1	2	R1443D
346.048	5.817	348397	PROB	5.8	n/a	n/a	n/a	-999	1	[4, 1, 8]	13.0	catFR1	2	R1443D
351.865	5.382	354214	PROB	5.366	n/a	n/a	n/a	-999	1	[3, 7, 6]	16.0	catFR1	2	R1443D
357.247	0.0	359593	DISTRACT_END	n/a	n/a	n/a	n/a	-999	1	[0, 0, 0]	n/a	catFR1	2	R1443D
357.247	2.2	359596	STOP	n/a	n/a	n/a	n/a	-999	1	[-999, -999, -999]	n/a	catFR1	2	R1443D
359.447	0.718	361796	REC_START	n/a	n/a	n/a	n/a	-999	1	[0, 0, 0]	n/a	catFR1	2	R1443D
360.165	1.11	362514	REC_WORD_VV	0.718	n/a	<>	n/a	-999	1	[0, 0, 0]	n/a	catFR1	2	R1443D
361.275	1.941	363624	REC_WORD	1.828	n/a	SQUID	OceanAnimals	12	1	[0, 0, 0]	n/a	catFR1	2	R1443D
363.216	0.325	365564	REC_WORD_VV	3.769	n/a	<>	n/a	-999	1	[0, 0, 0]	n/a	catFR1	2	R1443D
363.541	3.111	365889	REC_WORD	4.094	n/a	FISH	OceanAnimals	11	1	[0, 0, 0]	n/a	catFR1	2	R1443D
366.652	0.895	369000	REC_WORD_VV	7.205	n/a	<>	n/a	-999	1	[0, 0, 0]	n/a	catFR1	2	R1443D
367.547	3.867	369895	REC_WORD	8.1	n/a	LAKE	n/a	-999	1	[0, 0, 0]	n/a	catFR1	2	R1443D
371.414	1.227	373762	REC_WORD_VV	11.967	n/a	<>	n/a	-999	1	[0, 0, 0]	n/a	catFR1	2	R1443D
372.641	1.984	374989	REC_WORD	13.194	n/a	OCTOPUS	n/a	-999	1	[0, 0, 0]	n/a	catFR1	2	R1443D
374.625	5.544	376973	REC_WORD	15.178	n/a	LOBSTER	OceanAnimals	5	1	[0, 0, 0]	n/a	catFR1	2	R1443D
380.169	1.0	382517	REC_WORD	20.722	n/a	SNOW	Weather	-999	1	[0, 0, 0]	n/a	catFR1	2	R1443D
381.169	5.978	383517	REC_WORD_VV	21.722	n/a	<>	n/a	-999	1	[0, 0, 0]	n/a	catFR1	2	R1443D
387.147	2.51	389494	REC_WORD_VV	27.7	n/a	<>	n/a	-999	1	[0, 0, 0]	n/a	catFR1	2	R1443D
389.657	4.406	391998	REC_END	n/a	n/a	n/a	n/a	-999	1	[0, 0, 0]	n/a	catFR1	2	R1443D
394.063	10.0	396416	COUNTDOWN_START	n/a	n/a	n/a	n/a	-999	2	[0, 0, 0]	n/a	catFR1	2	R1443D
404.414	0.0	406759	COUNTDOWN_END	n/a	n/a	n/a	n/a	-999	2	[0, 0, 0]	n/a	catFR1	2	R1443D
404.414	2.367	406759	ENCODING_START	n/a	n/a	n/a	n/a	-999	2	[0, 0, 0]	n/a	catFR1	2	R1443D
406.781	1.6	409126	WORD	n/a	wordpools/wordpool_categorized_EN.txt	JUICE	Beverages	1	2	[0, 0, 0]	n/a	catFR1	2	R1443D
408.398	0.766	410740	WORD_OFF	n/a	n/a	JUICE	Beverages	1	2	[0, 0, 0]	n/a	catFR1	2	R1443D
409.164	1.6	411507	WORD	n/a	wordpools/wordpool_categorized_EN.txt	WATER	Beverages	2	2	[0, 0, 0]	n/a	catFR1	2	R1443D
410.781	0.817	413121	WORD_OFF	n/a	n/a	WATER	Beverages	2	2	[0, 0, 0]	n/a	catFR1	2	R1443D
411.598	1.6	413941	WORD	n/a	wordpools/wordpool_categorized_EN.txt	SHELF	Furniture	3	2	[0, 0, 0]	n/a	catFR1	2	R1443D
413.214	0.967	415555	WORD_OFF	n/a	n/a	SHELF	Furniture	3	2	[0, 0, 0]	n/a	catFR1	2	R1443D
414.181	1.6	416533	WORD	n/a	wordpools/wordpool_categorized_EN.txt	RECLINER	Furniture	4	2	[0, 0, 0]	n/a	catFR1	2	R1443D
415.798	0.983	418147	WORD_OFF	n/a	n/a	RECLINER	Furniture	4	2	[0, 0, 0]	n/a	catFR1	2	R1443D
416.781	1.6	419126	WORD	n/a	wordpools/wordpool_categorized_EN.txt	HAWK	Birds	5	2	[0, 0, 0]	n/a	catFR1	2	R1443D
418.398	0.95	420739	WORD_OFF	n/a	n/a	HAWK	Birds	5	2	[0, 0, 0]	n/a	catFR1	2	R1443D
419.348	1.6	421692	WORD	n/a	wordpools/wordpool_categorized_EN.txt	BLUEBIRD	Birds	6	2	[0, 0, 0]	n/a	catFR1	2	R1443D
420.965	0.899	423305	WORD_OFF	n/a	n/a	BLUEBIRD	Birds	6	2	[0, 0, 0]	n/a	catFR1	2	R1443D
421.864	1.6	424205	WORD	n/a	wordpools/wordpool_categorized_EN.txt	CABINET	Furniture	7	2	[0, 0, 0]	n/a	catFR1	2	R1443D
423.481	0.917	425832	WORD_OFF	n/a	n/a	CABINET	Furniture	7	2	[0, 0, 0]	n/a	catFR1	2	R1443D
424.398	1.6	426744	WORD	n/a	wordpools/wordpool_categorized_EN.txt	COUCH	Furniture	8	2	[0, 0, 0]	n/a	catFR1	2	R1443D
426.014	1.0	428358	WORD_OFF	n/a	n/a	COUCH	Furniture	8	2	[0, 0, 0]	n/a	catFR1	2	R1443D
427.014	1.6	429363	WORD	n/a	wordpools/wordpool_categorized_EN.txt	FINCH	Birds	9	2	[0, 0, 0]	n/a	catFR1	2	R1443D
428.615	0.816	430964	WORD_OFF	n/a	n/a	FINCH	Birds	9	2	[0, 0, 0]	n/a	catFR1	2	R1443D
429.431	1.6	431770	WORD	n/a	wordpools/wordpool_categorized_EN.txt	SPARROW	Birds	10	2	[0, 0, 0]	n/a	catFR1	2	R1443D
431.031	0.8	433371	WORD_OFF	n/a	n/a	SPARROW	Birds	10	2	[0, 0, 0]	n/a	catFR1	2	R1443D
431.831	1.6	434178	WORD	n/a	wordpools/wordpool_categorized_EN.txt	BEER	Beverages	11	2	[0, 0, 0]	n/a	catFR1	2	R1443D
433.431	0.883	435778	WORD_OFF	n/a	n/a	BEER	Beverages	11	2	[0, 0, 0]	n/a	catFR1	2	R1443D
434.314	1.6	436664	WORD	n/a	wordpools/wordpool_categorized_EN.txt	COLA	Beverages	12	2	[0, 0, 0]	n/a	catFR1	2	R1443D
435.915	0.001	438260	PROB	5.833	n/a	n/a	n/a	-999	2	[6, 4, 8]	18.0	catFR1	2	R1443D
435.916	0.0	438261	START	n/a	n/a	n/a	n/a	-999	2	[-999, -999, -999]	n/a	catFR1	2	R1443D
435.914	0.002	438265	WORD_OFF	n/a	n/a	COLA	Beverages	12	2	[0, 0, 0]	n/a	catFR1	2	R1443D
435.916	0.0	438265	ENCODING_END	n/a	n/a	n/a	n/a	-999	2	[0, 0, 0]	n/a	catFR1	2	R1443D
435.916	5.848	438265	DISTRACT_START	n/a	n/a	n/a	n/a	-999	2	[0, 0, 0]	n/a	catFR1	2	R1443D
441.764	6.384	444108	PROB	6.366	n/a	n/a	n/a	-999	2	[2, 7, 1]	10.0	catFR1	2	R1443D
448.148	4.833	450492	PROB	4.816	n/a	n/a	n/a	-999	2	[3, 6, 2]	11.0	catFR1	2	R1443D
452.981	4.15	455325	PROB	4.133	n/a	n/a	n/a	-999	2	[3, 3, 2]	8.0	catFR1	2	R1443D
457.131	0.0	459475	STOP	n/a	n/a	n/a	n/a	-999	2	[-999, -999, -999]	n/a	catFR1	2	R1443D
457.131	2.266	459480	DISTRACT_END	n/a	n/a	n/a	n/a	-999	2	[0, 0, 0]	n/a	catFR1	2	R1443D
459.397	1.353	461737	REC_START	n/a	n/a	n/a	n/a	-999	2	[0, 0, 0]	n/a	catFR1	2	R1443D
460.75	1.653	463094	REC_WORD	1.353	n/a	COUCH	Furniture	8	2	[0, 0, 0]	n/a	catFR1	2	R1443D
462.403	1.565	464746	REC_WORD_VV	3.006	n/a	<>	n/a	-999	2	[0, 0, 0]	n/a	catFR1	2	R1443D
463.968	2.616	466311	REC_WORD	4.571	n/a	FINCH	Birds	9	2	[0, 0, 0]	n/a	catFR1	2	R1443D
466.584	0.483	468927	REC_WORD	7.187	n/a	BIRD	n/a	-999	2	[0, 0, 0]	n/a	catFR1	2	R1443D
467.067	3.505	469410	REC_WORD	7.67	n/a	BLUEBIRD	Birds	6	2	[0, 0, 0]	n/a	catFR1	2	R1443D
470.572	2.862	472915	REC_WORD_VV	11.175	n/a	<>	n/a	-999	2	[0, 0, 0]	n/a	catFR1	2	R1443D
473.434	3.882	475777	REC_WORD	14.037	n/a	PLANE	Vehicles	-999	2	[0, 0, 0]	n/a	catFR1	2	R1443D
477.316	12.256	479659	REC_WORD_VV	17.919	n/a	<>	n/a	-999	2	[0, 0, 0]	n/a	catFR1	2	R1443D
489.572	5.009	491912	REC_END	n/a	n/a	n/a	n/a	-999	2	[0, 0, 0]	n/a	catFR1	2	R1443D
494.581	10.0	496925	COUNTDOWN_START	n/a	n/a	n/a	n/a	-999	3	[0, 0, 0]	n/a	catFR1	2	R1443D
504.932	0.0	507268	COUNTDOWN_END	n/a	n/a	n/a	n/a	-999	3	[0, 0, 0]	n/a	catFR1	2	R1443D
504.932	2.148	507281	ENCODING_START	n/a	n/a	n/a	n/a	-999	3	[0, 0, 0]	n/a	catFR1	2	R1443D
507.08	1.6	509424	WORD	n/a	wordpools/wordpool_categorized_EN.txt	SODA	Beverages	1	3	[0, 0, 0]	n/a	catFR1	2	R1443D
508.681	0.799	511025	WORD_OFF	n/a	n/a	SODA	Beverages	1	3	[0, 0, 0]	n/a	catFR1	2	R1443D
509.48	1.6	511818	WORD	n/a	wordpools/wordpool_categorized_EN.txt	RUM	Beverages	2	3	[0, 0, 0]	n/a	catFR1	2	R1443D
511.081	0.884	513419	WORD_OFF	n/a	n/a	RUM	Beverages	2	3	[0, 0, 0]	n/a	catFR1	2	R1443D
511.965	1.6	514305	WORD	n/a	wordpools/wordpool_categorized_EN.txt	FOG	Weather	3	3	[0, 0, 0]	n/a	catFR1	2	R1443D
513.581	0.867	515918	WORD_OFF	n/a	n/a	FOG	Weather	3	3	[0, 0, 0]	n/a	catFR1	2	R1443D
514.448	1.6	516791	WORD	n/a	wordpools/wordpool_categorized_EN.txt	WIND	Weather	4	3	[0, 0, 0]	n/a	catFR1	2	R1443D
516.048	0.767	518392	WORD_OFF	n/a	n/a	WIND	Weather	4	3	[0, 0, 0]	n/a	catFR1	2	R1443D
516.815	1.6	519159	WORD	n/a	wordpools/wordpool_categorized_EN.txt	WALNUT	Trees	5	3	[0, 0, 0]	n/a	catFR1	2	R1443D
518.431	0.933	520773	WORD_OFF	n/a	n/a	WALNUT	Trees	5	3	[0, 0, 0]	n/a	catFR1	2	R1443D
519.364	1.6	521698	WORD	n/a	wordpools/wordpool_categorized_EN.txt	OAK	Trees	6	3	[0, 0, 0]	n/a	catFR1	2	R1443D
520.965	0.766	523312	WORD_OFF	n/a	n/a	OAK	Trees	6	3	[0, 0, 0]	n/a	catFR1	2	R1443D
521.731	1.6	524066	WORD	n/a	wordpools/wordpool_categorized_EN.txt	HURRICANE	Weather	7	3	[0, 0, 0]	n/a	catFR1	2	R1443D
523.347	1.001	525693	WORD_OFF	n/a	n/a	HURRICANE	Weather	7	3	[0, 0, 0]	n/a	catFR1	2	R1443D
524.348	1.6	526685	WORD	n/a	wordpools/wordpool_categorized_EN.txt	RAIN	Weather	8	3	[0, 0, 0]	n/a	catFR1	2	R1443D
525.948	0.866	528285	WORD_OFF	n/a	n/a	RAIN	Weather	8	3	[0, 0, 0]	n/a	catFR1	2	R1443D
526.814	1.6	529158	WORD	n/a	wordpools/wordpool_categorized_EN.txt	PINE	Trees	9	3	[0, 0, 0]	n/a	catFR1	2	R1443D
528.431	1.0	530772	WORD_OFF	n/a	n/a	PINE	Trees	9	3	[0, 0, 0]	n/a	catFR1	2	R1443D
529.431	1.6	531777	WORD	n/a	wordpools/wordpool_categorized_EN.txt	EVERGREEN	Trees	10	3	[0, 0, 0]	n/a	catFR1	2	R1443D
531.031	0.917	533378	WORD_OFF	n/a	n/a	EVERGREEN	Trees	10	3	[0, 0, 0]	n/a	catFR1	2	R1443D
531.948	1.6	534290	WORD	n/a	wordpools/wordpool_categorized_EN.txt	LEMONADE	Beverages	11	3	[0, 0, 0]	n/a	catFR1	2	R1443D
533.548	0.999	535891	WORD_OFF	n/a	n/a	LEMONADE	Beverages	11	3	[0, 0, 0]	n/a	catFR1	2	R1443D
534.547	1.6	536883	WORD	n/a	wordpools/wordpool_categorized_EN.txt	TEA	Beverages	12	3	[0, 0, 0]	n/a	catFR1	2	R1443D
536.147	0.001	538483	WORD_OFF	n/a	n/a	TEA	Beverages	12	3	[0, 0, 0]	n/a	catFR1	2	R1443D
536.148	0.0	538488	PROB	7.149	n/a	n/a	n/a	-999	3	[8, 4, 8]	20.0	catFR1	2	R1443D
536.148	0.0	538488	START	n/a	n/a	n/a	n/a	-999	3	[-999, -999, -999]	n/a	catFR1	2	R1443D
536.148	0.0	538496	ENCODING_END	n/a	n/a	n/a	n/a	-999	3	[0, 0, 0]	n/a	catFR1	2	R1443D
536.148	7.166	538496	DISTRACT_START	n/a	n/a	n/a	n/a	-999	3	[0, 0, 0]	n/a	catFR1	2	R1443D
543.314	7.101	545653	PROB	7.084	n/a	n/a	n/a	-999	3	[7, 4, 6]	17.0	catFR1	2	R1443D
550.415	3.4	552754	PROB	3.383	n/a	n/a	n/a	-999	3	[4, 2, 1]	7.0	catFR1	2	R1443D
553.815	6.783	556154	PROB	6.766	n/a	n/a	n/a	-999	3	[4, 4, 7]	15.0	catFR1	2	R1443D
560.598	0.0	562936	STOP	n/a	n/a	n/a	n/a	-999	3	[-999, -999, -999]	n/a	catFR1	2	R1443D
560.598	2.249	562939	DISTRACT_END	n/a	n/a	n/a	n/a	-999	3	[0, 0, 0]	n/a	catFR1	2	R1443D
562.847	0.51	565182	REC_START	n/a	n/a	n/a	n/a	-999	3	[0, 0, 0]	n/a	catFR1	2	R1443D
563.357	0.815	565695	REC_WORD_VV	0.51	n/a	<>	n/a	-999	3	[0, 0, 0]	n/a	catFR1	2	R1443D
564.172	1.202	566510	REC_WORD	1.325	n/a	GREEN	n/a	-999	3	[0, 0, 0]	n/a	catFR1	2	R1443D
565.374	2.977	567712	REC_WORD	2.527	n/a	EVERGREEN	Trees	10	3	[0, 0, 0]	n/a	catFR1	2	R1443D
568.351	2.716	570689	REC_WORD	5.504	n/a	TORNADO	Weather	-999	3	[0, 0, 0]	n/a	catFR1	2	R1443D
571.067	2.876	573405	REC_WORD	8.22	n/a	HURRICANE	Weather	7	3	[0, 0, 0]	n/a	catFR1	2	R1443D
573.943	0.801	576281	REC_WORD	11.096	n/a	WIND	Weather	4	3	[0, 0, 0]	n/a	catFR1	2	R1443D
574.744	3.728	577082	REC_WORD	11.897	n/a	RAIN	Weather	8	3	[0, 0, 0]	n/a	catFR1	2	R1443D
578.472	2.983	580810	REC_WORD_VV	15.625	n/a	<>	n/a	-999	3	[0, 0, 0]	n/a	catFR1	2	R1443D
581.455	3.843	583792	REC_WORD_VV	18.608	n/a	<>	n/a	-999	3	[0, 0, 0]	n/a	catFR1	2	R1443D
585.298	1.0	587635	REC_WORD	22.451	n/a	TREE	n/a	-999	3	[0, 0, 0]	n/a	catFR1	2	R1443D
586.298	2.677	588635	REC_WORD	23.451	n/a	EVERGREEN	Trees	10	3	[0, 0, 0]	n/a	catFR1	2	R1443D
588.975	2.735	591312	REC_WORD	26.128	n/a	GREEN	n/a	-999	3	[0, 0, 0]	n/a	catFR1	2	R1443D
591.71	1.369	594047	REC_WORD	28.863	n/a	BIRD	n/a	-999	3	[0, 0, 0]	n/a	catFR1	2	R1443D
593.079	3.102	595411	REC_END	n/a	n/a	n/a	n/a	-999	3	[0, 0, 0]	n/a	catFR1	2	R1443D
596.181	10.0	598519	COUNTDOWN_START	n/a	n/a	n/a	n/a	-999	4	[0, 0, 0]	n/a	catFR1	2	R1443D
606.53	0.001	608862	COUNTDOWN_END	n/a	n/a	n/a	n/a	-999	4	[0, 0, 0]	n/a	catFR1	2	R1443D
606.531	2.367	608875	ENCODING_START	n/a	n/a	n/a	n/a	-999	4	[0, 0, 0]	n/a	catFR1	2	R1443D
608.898	1.6	611230	WORD	n/a	wordpools/wordpool_categorized_EN.txt	CORN	Vegetables	1	4	[0, 0, 0]	n/a	catFR1	2	R1443D
610.514	0.817	612857	WORD_OFF	n/a	n/a	CORN	Vegetables	1	4	[0, 0, 0]	n/a	catFR1	2	R1443D
611.331	1.6	613663	WORD	n/a	wordpools/wordpool_categorized_EN.txt	SPINACH	Vegetables	2	4	[0, 0, 0]	n/a	catFR1	2	R1443D
612.931	0.8	615264	WORD_OFF	n/a	n/a	SPINACH	Vegetables	2	4	[0, 0, 0]	n/a	catFR1	2	R1443D
613.731	1.6	616071	WORD	n/a	wordpools/wordpool_categorized_EN.txt	TAPE	OfficeSupplies	3	4	[0, 0, 0]	n/a	catFR1	2	R1443D
615.331	0.999	617671	WORD_OFF	n/a	n/a	TAPE	OfficeSupplies	3	4	[0, 0, 0]	n/a	catFR1	2	R1443D
616.33	1.6	618663	WORD	n/a	wordpools/wordpool_categorized_EN.txt	RULER	OfficeSupplies	4	4	[0, 0, 0]	n/a	catFR1	2	R1443D
617.931	0.984	620264	WORD_OFF	n/a	n/a	RULER	OfficeSupplies	4	4	[0, 0, 0]	n/a	catFR1	2	R1443D
618.915	1.6	621256	WORD	n/a	wordpools/wordpool_categorized_EN.txt	DRILL	Tools	5	4	[0, 0, 0]	n/a	catFR1	2	R1443D
620.531	0.967	622869	WORD_OFF	n/a	n/a	DRILL	Tools	5	4	[0, 0, 0]	n/a	catFR1	2	R1443D
621.498	1.6	623835	WORD	n/a	wordpools/wordpool_categorized_EN.txt	HAMMER	Tools	6	4	[0, 0, 0]	n/a	catFR1	2	R1443D
623.098	0.95	625435	WORD_OFF	n/a	n/a	HAMMER	Tools	6	4	[0, 0, 0]	n/a	catFR1	2	R1443D
624.048	1.6	626387	WORD	n/a	wordpools/wordpool_categorized_EN.txt	PAPER	OfficeSupplies	7	4	[0, 0, 0]	n/a	catFR1	2	R1443D
625.664	0.966	628001	WORD_OFF	n/a	n/a	PAPER	OfficeSupplies	7	4	[0, 0, 0]	n/a	catFR1	2	R1443D
626.63	1.6	628967	WORD	n/a	wordpools/wordpool_categorized_EN.txt	BINDER	OfficeSupplies	8	4	[0, 0, 0]	n/a	catFR1	2	R1443D
628.23	0.884	630567	WORD_OFF	n/a	n/a	BINDER	OfficeSupplies	8	4	[0, 0, 0]	n/a	catFR1	2	R1443D
629.114	1.6	631453	WORD	n/a	wordpools/wordpool_categorized_EN.txt	PLIERS	Tools	9	4	[0, 0, 0]	n/a	catFR1	2	R1443D
630.73	0.918	633067	WORD_OFF	n/a	n/a	PLIERS	Tools	9	4	[0, 0, 0]	n/a	catFR1	2	R1443D
631.648	1.6	633980	WORD	n/a	wordpools/wordpool_categorized_EN.txt	WRENCH	Tools	10	4	[0, 0, 0]	n/a	catFR1	2	R1443D
633.264	0.8	635593	WORD_OFF	n/a	n/a	WRENCH	Tools	10	4	[0, 0, 0]	n/a	catFR1	2	R1443D
634.064	1.6	636400	WORD	n/a	wordpools/wordpool_categorized_EN.txt	CAULIFLOWER	Vegetables	11	4	[0, 0, 0]	n/a	catFR1	2	R1443D
635.664	1.0	638000	WORD_OFF	n/a	n/a	CAULIFLOWER	Vegetables	11	4	[0, 0, 0]	n/a	catFR1	2	R1443D
636.664	1.6	638992	WORD	n/a	wordpools/wordpool_categorized_EN.txt	CELERY	Vegetables	12	4	[0, 0, 0]	n/a	catFR1	2	R1443D
638.282	0.001	640616	PROB	5.716	n/a	n/a	n/a	-999	4	[8, 5, 8]	21.0	catFR1	2	R1443D
638.283	0.0	640617	START	n/a	n/a	n/a	n/a	-999	4	[-999, -999, -999]	n/a	catFR1	2	R1443D
638.281	0.002	640619	WORD_OFF	n/a	n/a	CELERY	Vegetables	12	4	[0, 0, 0]	n/a	catFR1	2	R1443D
638.283	0.0	640619	ENCODING_END	n/a	n/a	n/a	n/a	-999	4	[0, 0, 0]	n/a	catFR1	2	R1443D
638.283	5.732	640619	DISTRACT_START	n/a	n/a	n/a	n/a	-999	4	[0, 0, 0]	n/a	catFR1	2	R1443D
644.015	4.25	646349	PROB	4.233	n/a	n/a	n/a	-999	4	[5, 5, 4]	14.0	catFR1	2	R1443D
648.265	4.367	650599	PROB	4.349	n/a	n/a	n/a	-999	4	[1, 3, 8]	12.0	catFR1	2	R1443D
652.632	6.699	654966	PROB	6.683	n/a	n/a	n/a	-999	4	[4, 8, 7]	19.0	catFR1	2	R1443D
659.331	0.0	661663	DISTRACT_END	n/a	n/a	n/a	n/a	-999	4	[0, 0, 0]	n/a	catFR1	2	R1443D
659.331	2.184	661664	STOP	n/a	n/a	n/a	n/a	-999	4	[-999, -999, -999]	n/a	catFR1	2	R1443D
661.515	1.216	663853	REC_START	n/a	n/a	n/a	n/a	-999	4	[0, 0, 0]	n/a	catFR1	2	R1443D
662.731	0.384	665064	REC_WORD_VV	1.216	n/a	<>	n/a	-999	4	[0, 0, 0]	n/a	catFR1	2	R1443D
663.115	0.792	665448	REC_WORD	1.6	n/a	RULER	OfficeSupplies	4	4	[0, 0, 0]	n/a	catFR1	2	R1443D
663.907	1.171	666240	REC_WORD	2.392	n/a	TAPE	OfficeSupplies	3	4	[0, 0, 0]	n/a	catFR1	2	R1443D
665.078	1.281	667411	REC_WORD	3.563	n/a	HAMMER	Tools	6	4	[0, 0, 0]	n/a	catFR1	2	R1443D
666.359	2.074	668692	REC_WORD	4.844	n/a	WRENCH	Tools	10	4	[0, 0, 0]	n/a	catFR1	2	R1443D
668.433	3.137	670766	REC_WORD	6.918	n/a	CAULIFLOWER	Vegetables	11	4	[0, 0, 0]	n/a	catFR1	2	R1443D
671.57	1.0	673903	REC_WORD_VV	10.055	n/a	<>	n/a	-999	4	[0, 0, 0]	n/a	catFR1	2	R1443D
672.57	1.549	674903	REC_WORD_VV	11.055	n/a	<>	n/a	-999	4	[0, 0, 0]	n/a	catFR1	2	R1443D
674.119	4.639	676452	REC_WORD	12.604	n/a	CORN	Vegetables	1	4	[0, 0, 0]	n/a	catFR1	2	R1443D
678.758	1.499	681090	REC_WORD_VV	17.243	n/a	<>	n/a	-999	4	[0, 0, 0]	n/a	catFR1	2	R1443D
680.257	0.58	682589	REC_WORD	18.742	n/a	HAMMER	Tools	6	4	[0, 0, 0]	n/a	catFR1	2	R1443D
680.837	1.726	683169	REC_WORD	19.322	n/a	SCREWDRIVER	n/a	-999	4	[0, 0, 0]	n/a	catFR1	2	R1443D
682.563	0.679	684895	REC_WORD	21.048	n/a	NAIL	n/a	-999	4	[0, 0, 0]	n/a	catFR1	2	R1443D
683.242	2.871	685574	REC_WORD	21.727	n/a	SCREW	n/a	-999	4	[0, 0, 0]	n/a	catFR1	2	R1443D
686.113	2.314	688445	REC_WORD	24.598	n/a	RULER	OfficeSupplies	4	4	[0, 0, 0]	n/a	catFR1	2	R1443D
688.427	1.132	690759	REC_WORD	26.912	n/a	CAULIFLOWER	Vegetables	11	4	[0, 0, 0]	n/a	catFR1	2	R1443D
689.559	2.206	691891	REC_WORD	28.044	n/a	CORN	Vegetables	1	4	[0, 0, 0]	n/a	catFR1	2	R1443D
691.765	3.133	694095	REC_END	n/a	n/a	n/a	n/a	-999	4	[0, 0, 0]	n/a	catFR1	2	R1443D
694.898	10.0	697229	COUNTDOWN_START	n/a	n/a	n/a	n/a	-999	5	[0, 0, 0]	n/a	catFR1	2	R1443D
705.248	0.0	707573	COUNTDOWN_END	n/a	n/a	n/a	n/a	-999	5	[0, 0, 0]	n/a	catFR1	2	R1443D
705.248	2.35	707586	ENCODING_START	n/a	n/a	n/a	n/a	-999	5	[0, 0, 0]	n/a	catFR1	2	R1443D
707.598	1.6	709927	WORD	n/a	wordpools/wordpool_categorized_EN.txt	DOVE	Birds	1	5	[0, 0, 0]	n/a	catFR1	2	R1443D
709.198	0.983	711527	WORD_OFF	n/a	n/a	DOVE	Birds	1	5	[0, 0, 0]	n/a	catFR1	2	R1443D
710.181	1.6	712519	WORD	n/a	wordpools/wordpool_categorized_EN.txt	CARDINAL	Birds	2	5	[0, 0, 0]	n/a	catFR1	2	R1443D
711.781	0.85	714107	WORD_OFF	n/a	n/a	CARDINAL	Birds	2	5	[0, 0, 0]	n/a	catFR1	2	R1443D
712.631	1.6	714966	WORD	n/a	wordpools/wordpool_categorized_EN.txt	LAKE	Landscapes	3	5	[0, 0, 0]	n/a	catFR1	2	R1443D
714.248	0.983	716580	WORD_OFF	n/a	n/a	LAKE	Landscapes	3	5	[0, 0, 0]	n/a	catFR1	2	R1443D
715.231	1.6	717559	WORD	n/a	wordpools/wordpool_categorized_EN.txt	OCEAN	Landscapes	4	5	[0, 0, 0]	n/a	catFR1	2	R1443D
716.847	0.833	719172	WORD_OFF	n/a	n/a	OCEAN	Landscapes	4	5	[0, 0, 0]	n/a	catFR1	2	R1443D
717.68	1.6	720006	WORD	n/a	wordpools/wordpool_categorized_EN.txt	SPIDER	Insects	5	5	[0, 0, 0]	n/a	catFR1	2	R1443D
719.28	0.9	721606	WORD_OFF	n/a	n/a	SPIDER	Insects	5	5	[0, 0, 0]	n/a	catFR1	2	R1443D
720.18	1.6	722506	WORD	n/a	wordpools/wordpool_categorized_EN.txt	MOTH	Insects	6	5	[0, 0, 0]	n/a	catFR1	2	R1443D
721.78	0.883	724106	WORD_OFF	n/a	n/a	MOTH	Insects	6	5	[0, 0, 0]	n/a	catFR1	2	R1443D
722.663	1.6	724992	WORD	n/a	wordpools/wordpool_categorized_EN.txt	GOOSE	Birds	7	5	[0, 0, 0]	n/a	catFR1	2	R1443D
724.281	0.85	726606	WORD_OFF	n/a	n/a	GOOSE	Birds	7	5	[0, 0, 0]	n/a	catFR1	2	R1443D
725.131	1.6	727466	WORD	n/a	wordpools/wordpool_categorized_EN.txt	ROBIN	Birds	8	5	[0, 0, 0]	n/a	catFR1	2	R1443D
726.748	0.833	729079	WORD_OFF	n/a	n/a	ROBIN	Birds	8	5	[0, 0, 0]	n/a	catFR1	2	R1443D
727.581	1.6	729912	WORD	n/a	wordpools/wordpool_categorized_EN.txt	ISLAND	Landscapes	9	5	[0, 0, 0]	n/a	catFR1	2	R1443D
729.198	0.933	731526	WORD_OFF	n/a	n/a	ISLAND	Landscapes	9	5	[0, 0, 0]	n/a	catFR1	2	R1443D
730.131	1.6	732465	WORD	n/a	wordpools/wordpool_categorized_EN.txt	HILLS	Landscapes	10	5	[0, 0, 0]	n/a	catFR1	2	R1443D
731.731	0.968	734066	WORD_OFF	n/a	n/a	HILLS	Landscapes	10	5	[0, 0, 0]	n/a	catFR1	2	R1443D
732.699	1.6	735031	WORD	n/a	wordpools/wordpool_categorized_EN.txt	ANT	Insects	11	5	[0, 0, 0]	n/a	catFR1	2	R1443D
734.314	1.001	736645	WORD_OFF	n/a	n/a	ANT	Insects	11	5	[0, 0, 0]	n/a	catFR1	2	R1443D
735.315	1.6	737650	WORD	n/a	wordpools/wordpool_categorized_EN.txt	BUTTERFLY	Insects	12	5	[0, 0, 0]	n/a	catFR1	2	R1443D
736.932	0.001	739261	PROB	5.066	n/a	n/a	n/a	-999	5	[1, 2, 2]	5.0	catFR1	2	R1443D
736.933	0.0	739262	START	n/a	n/a	n/a	n/a	-999	5	[-999, -999, -999]	n/a	catFR1	2	R1443D
736.931	0.002	739264	WORD_OFF	n/a	n/a	BUTTERFLY	Insects	12	5	[0, 0, 0]	n/a	catFR1	2	R1443D
736.933	0.0	739264	ENCODING_END	n/a	n/a	n/a	n/a	-999	5	[0, 0, 0]	n/a	catFR1	2	R1443D
736.933	5.082	739264	DISTRACT_START	n/a	n/a	n/a	n/a	-999	5	[0, 0, 0]	n/a	catFR1	2	R1443D
742.015	5.018	744344	PROB	5.0	n/a	n/a	n/a	-999	5	[1, 6, 3]	10.0	catFR1	2	R1443D
747.033	4.68	749362	PROB	4.666	n/a	n/a	n/a	-999	5	[6, 2, 4]	12.0	catFR1	2	R1443D
751.713	3.969	754042	PROB	3.951	n/a	n/a	n/a	-999	5	[7, 4, 2]	13.0	catFR1	2	R1443D
755.682	3.549	758011	PROB	3.533	n/a	n/a	n/a	-999	5	[5, 1, 5]	11.0	catFR1	2	R1443D
759.231	0.0	761559	STOP	n/a	n/a	n/a	n/a	-999	5	[-999, -999, -999]	n/a	catFR1	2	R1443D
759.231	2.233	761564	DISTRACT_END	n/a	n/a	n/a	n/a	-999	5	[0, 0, 0]	n/a	catFR1	2	R1443D
761.464	1.084	763794	REC_START	n/a	n/a	n/a	n/a	-999	5	[0, 0, 0]	n/a	catFR1	2	R1443D
762.548	0.993	764876	REC_WORD	1.084	n/a	ANT	Insects	11	5	[0, 0, 0]	n/a	catFR1	2	R1443D
763.541	1.0	765869	REC_WORD	2.077	n/a	BUTTERFLY	Insects	12	5	[0, 0, 0]	n/a	catFR1	2	R1443D
764.541	0.64	766869	REC_WORD_VV	3.077	n/a	<>	n/a	-999	5	[0, 0, 0]	n/a	catFR1	2	R1443D
765.181	0.46	767509	REC_WORD_VV	3.717	n/a	<>	n/a	-999	5	[0, 0, 0]	n/a	catFR1	2	R1443D
765.641	1.0	767969	REC_WORD	4.177	n/a	HILLS	Landscapes	10	5	[0, 0, 0]	n/a	catFR1	2	R1443D
766.641	0.574	768969	REC_WORD_VV	5.177	n/a	<>	n/a	-999	5	[0, 0, 0]	n/a	catFR1	2	R1443D
767.215	0.853	769543	REC_WORD	5.751	n/a	LAKE	Landscapes	3	5	[0, 0, 0]	n/a	catFR1	2	R1443D
768.068	2.597	770396	REC_WORD	6.604	n/a	ISLAND	Landscapes	9	5	[0, 0, 0]	n/a	catFR1	2	R1443D
770.665	1.605	772993	REC_WORD_VV	9.201	n/a	<>	n/a	-999	5	[0, 0, 0]	n/a	catFR1	2	R1443D
772.27	1.39	774598	REC_WORD_VV	10.806	n/a	<>	n/a	-999	5	[0, 0, 0]	n/a	catFR1	2	R1443D
773.66	3.252	775988	REC_WORD	12.196	n/a	SNAKE	n/a	-999	5	[0, 0, 0]	n/a	catFR1	2	R1443D
776.912	0.867	779239	REC_WORD	15.448	n/a	OCEAN	Landscapes	4	5	[0, 0, 0]	n/a	catFR1	2	R1443D
777.779	2.921	780106	REC_WORD	16.315	n/a	LAKE	Landscapes	3	5	[0, 0, 0]	n/a	catFR1	2	R1443D
780.7	3.949	783027	REC_WORD	19.236	n/a	RIVER	n/a	-999	5	[0, 0, 0]	n/a	catFR1	2	R1443D
784.649	1.003	786976	REC_WORD	23.185	n/a	MOTH	Insects	6	5	[0, 0, 0]	n/a	catFR1	2	R1443D
785.652	3.962	787979	REC_WORD	24.188	n/a	BUTTERFLY	Insects	12	5	[0, 0, 0]	n/a	catFR1	2	R1443D
789.614	2.089	791941	REC_WORD	28.15	n/a	ANT	Insects	11	5	[0, 0, 0]	n/a	catFR1	2	R1443D
791.703	2.178	794035	REC_END	n/a	n/a	n/a	n/a	-999	5	[0, 0, 0]	n/a	catFR1	2	R1443D
793.881	10.0	796204	COUNTDOWN_START	n/a	n/a	n/a	n/a	-999	6	[0, 0, 0]	n/a	catFR1	2	R1443D
804.232	0.0	806561	COUNTDOWN_END	n/a	n/a	n/a	n/a	-999	6	[0, 0, 0]	n/a	catFR1	2	R1443D
804.232	2.098	806561	ENCODING_START	n/a	n/a	n/a	n/a	-999	6	[0, 0, 0]	n/a	catFR1	2	R1443D
806.33	1.6	808651	WORD	n/a	wordpools/wordpool_categorized_EN.txt	WILLOW	Trees	1	6	[0, 0, 0]	n/a	catFR1	2	R1443D
807.948	0.999	810278	WORD_OFF	n/a	n/a	WILLOW	Trees	1	6	[0, 0, 0]	n/a	catFR1	2	R1443D
808.947	1.6	811270	WORD	n/a	wordpools/wordpool_categorized_EN.txt	HICKORY	Trees	2	6	[0, 0, 0]	n/a	catFR1	2	R1443D
810.564	0.766	812883	WORD_OFF	n/a	n/a	HICKORY	Trees	2	6	[0, 0, 0]	n/a	catFR1	2	R1443D
811.33	1.6	813650	WORD	n/a	wordpools/wordpool_categorized_EN.txt	FOUNDATION	Building	3	6	[0, 0, 0]	n/a	catFR1	2	R1443D
812.93	0.834	815251	WORD_OFF	n/a	n/a	FOUNDATION	Building	3	6	[0, 0, 0]	n/a	catFR1	2	R1443D
813.764	1.6	816084	WORD	n/a	wordpools/wordpool_categorized_EN.txt	WINDOW	Building	4	6	[0, 0, 0]	n/a	catFR1	2	R1443D
815.381	0.867	817711	WORD_OFF	n/a	n/a	WINDOW	Building	4	6	[0, 0, 0]	n/a	catFR1	2	R1443D
816.248	1.6	818571	WORD	n/a	wordpools/wordpool_categorized_EN.txt	PEAS	Vegetables	5	6	[0, 0, 0]	n/a	catFR1	2	R1443D
817.848	0.766	820171	WORD_OFF	n/a	n/a	PEAS	Vegetables	5	6	[0, 0, 0]	n/a	catFR1	2	R1443D
818.614	1.6	820938	WORD	n/a	wordpools/wordpool_categorized_EN.txt	ONION	Vegetables	6	6	[0, 0, 0]	n/a	catFR1	2	R1443D
820.231	0.85	822552	WORD_OFF	n/a	n/a	ONION	Vegetables	6	6	[0, 0, 0]	n/a	catFR1	2	R1443D
821.081	1.6	823412	WORD	n/a	wordpools/wordpool_categorized_EN.txt	HALLWAY	Building	7	6	[0, 0, 0]	n/a	catFR1	2	R1443D
822.698	0.832	825025	WORD_OFF	n/a	n/a	HALLWAY	Building	7	6	[0, 0, 0]	n/a	catFR1	2	R1443D
823.53	1.6	825859	WORD	n/a	wordpools/wordpool_categorized_EN.txt	WALL	Building	8	6	[0, 0, 0]	n/a	catFR1	2	R1443D
825.131	0.967	827459	WORD_OFF	n/a	n/a	WALL	Building	8	6	[0, 0, 0]	n/a	catFR1	2	R1443D
826.098	1.6	828425	WORD	n/a	wordpools/wordpool_categorized_EN.txt	CABBAGE	Vegetables	9	6	[0, 0, 0]	n/a	catFR1	2	R1443D
827.714	0.8	830038	WORD_OFF	n/a	n/a	CABBAGE	Vegetables	9	6	[0, 0, 0]	n/a	catFR1	2	R1443D
828.514	1.6	830845	WORD	n/a	wordpools/wordpool_categorized_EN.txt	LETTUCE	Vegetables	10	6	[0, 0, 0]	n/a	catFR1	2	R1443D
830.115	0.932	832446	WORD_OFF	n/a	n/a	LETTUCE	Vegetables	10	6	[0, 0, 0]	n/a	catFR1	2	R1443D
831.047	1.6	833371	WORD	n/a	wordpools/wordpool_categorized_EN.txt	BIRCH	Trees	11	6	[0, 0, 0]	n/a	catFR1	2	R1443D
832.648	0.933	834972	WORD_OFF	n/a	n/a	BIRCH	Trees	11	6	[0, 0, 0]	n/a	catFR1	2	R1443D
833.581	1.6	835911	WORD	n/a	wordpools/wordpool_categorized_EN.txt	SPRUCE	Trees	12	6	[0, 0, 0]	n/a	catFR1	2	R1443D
835.181	0.001	837505	PROB	9.7	n/a	n/a	n/a	-999	6	[2, 4, 7]	13.0	catFR1	2	R1443D
835.182	0.0	837506	START	n/a	n/a	n/a	n/a	-999	6	[-999, -999, -999]	n/a	catFR1	2	R1443D
835.181	0.001	837511	WORD_OFF	n/a	n/a	SPRUCE	Trees	12	6	[0, 0, 0]	n/a	catFR1	2	R1443D
835.182	0.0	837511	ENCODING_END	n/a	n/a	n/a	n/a	-999	6	[0, 0, 0]	n/a	catFR1	2	R1443D
835.182	9.716	837511	DISTRACT_START	n/a	n/a	n/a	n/a	-999	6	[0, 0, 0]	n/a	catFR1	2	R1443D
844.898	6.651	847222	PROB	6.633	n/a	n/a	n/a	-999	6	[4, 7, 7]	18.0	catFR1	2	R1443D
851.549	4.282	853873	PROB	4.266	n/a	n/a	n/a	-999	6	[6, 2, 4]	14.0	catFR1	2	R1443D
855.831	0.0	858154	STOP	n/a	n/a	n/a	n/a	-999	6	[-999, -999, -999]	n/a	catFR1	2	R1443D
855.831	2.299	858158	DISTRACT_END	n/a	n/a	n/a	n/a	-999	6	[0, 0, 0]	n/a	catFR1	2	R1443D
858.13	0.2	860454	REC_START	n/a	n/a	n/a	n/a	-999	6	[0, 0, 0]	n/a	catFR1	2	R1443D
858.33	1.0	860653	REC_WORD_VV	0.2	n/a	<>	n/a	-999	6	[0, 0, 0]	n/a	catFR1	2	R1443D
859.33	1.0	861653	REC_WORD_VV	1.2	n/a	<>	n/a	-999	6	[0, 0, 0]	n/a	catFR1	2	R1443D
860.33	1.0	862653	REC_WORD_VV	2.2	n/a	<>	n/a	-999	6	[0, 0, 0]	n/a	catFR1	2	R1443D
861.33	1.0	863653	REC_WORD_VV	3.2	n/a	<>	n/a	-999	6	[0, 0, 0]	n/a	catFR1	2	R1443D
862.33	1.0	864653	REC_WORD_VV	4.2	n/a	<>	n/a	-999	6	[0, 0, 0]	n/a	catFR1	2	R1443D
863.33	1.0	865653	REC_WORD_VV	5.2	n/a	<>	n/a	-999	6	[0, 0, 0]	n/a	catFR1	2	R1443D
864.33	6.954	866653	REC_WORD_VV	6.2	n/a	<>	n/a	-999	6	[0, 0, 0]	n/a	catFR1	2	R1443D
871.284	2.344	873607	REC_WORD	13.154	n/a	BIRDS	n/a	-999	6	[0, 0, 0]	n/a	catFR1	2	R1443D
873.628	1.0	875951	REC_WORD_VV	15.498	n/a	<>	n/a	-999	6	[0, 0, 0]	n/a	catFR1	2	R1443D
874.628	1.0	876951	REC_WORD_VV	16.498	n/a	<>	n/a	-999	6	[0, 0, 0]	n/a	catFR1	2	R1443D
875.628	1.0	877950	REC_WORD_VV	17.498	n/a	<>	n/a	-999	6	[0, 0, 0]	n/a	catFR1	2	R1443D
876.628	3.406	878950	REC_WORD_VV	18.498	n/a	<>	n/a	-999	6	[0, 0, 0]	n/a	catFR1	2	R1443D
880.034	1.0	882356	REC_WORD_VV	21.904	n/a	<>	n/a	-999	6	[0, 0, 0]	n/a	catFR1	2	R1443D
881.034	3.273	883356	REC_WORD_VV	22.904	n/a	<>	n/a	-999	6	[0, 0, 0]	n/a	catFR1	2	R1443D
884.307	1.0	886629	REC_WORD_VV	26.177	n/a	<>	n/a	-999	6	[0, 0, 0]	n/a	catFR1	2	R1443D
885.307	3.066	887629	REC_WORD_VV	27.177	n/a	<>	n/a	-999	6	[0, 0, 0]	n/a	catFR1	2	R1443D
888.373	3.975	890696	REC_END	n/a	n/a	n/a	n/a	-999	6	[0, 0, 0]	n/a	catFR1	2	R1443D
892.348	10.0	894677	COUNTDOWN_START	n/a	n/a	n/a	n/a	-999	7	[0, 0, 0]	n/a	catFR1	2	R1443D
902.697	0.0	905020	COUNTDOWN_END	n/a	n/a	n/a	n/a	-999	7	[0, 0, 0]	n/a	catFR1	2	R1443D
902.697	2.051	905020	ENCODING_START	n/a	n/a	n/a	n/a	-999	7	[0, 0, 0]	n/a	catFR1	2	R1443D
904.748	1.6	907070	WORD	n/a	wordpools/wordpool_categorized_EN.txt	ARM	BodyParts	1	7	[0, 0, 0]	n/a	catFR1	2	R1443D
906.364	0.767	908684	WORD_OFF	n/a	n/a	ARM	BodyParts	1	7	[0, 0, 0]	n/a	catFR1	2	R1443D
907.131	1.6	909451	WORD	n/a	wordpools/wordpool_categorized_EN.txt	NOSE	BodyParts	2	7	[0, 0, 0]	n/a	catFR1	2	R1443D
908.747	0.751	911065	WORD_OFF	n/a	n/a	NOSE	BodyParts	2	7	[0, 0, 0]	n/a	catFR1	2	R1443D
909.498	1.6	911819	WORD	n/a	wordpools/wordpool_categorized_EN.txt	SUNFLOWER	Flowers	3	7	[0, 0, 0]	n/a	catFR1	2	R1443D
911.098	0.866	913419	WORD_OFF	n/a	n/a	SUNFLOWER	Flowers	3	7	[0, 0, 0]	n/a	catFR1	2	R1443D
911.964	1.6	914279	WORD	n/a	wordpools/wordpool_categorized_EN.txt	ORCHID	Flowers	4	7	[0, 0, 0]	n/a	catFR1	2	R1443D
913.565	1.0	915879	WORD_OFF	n/a	n/a	ORCHID	Flowers	4	7	[0, 0, 0]	n/a	catFR1	2	R1443D
914.565	1.6	916884	WORD	n/a	wordpools/wordpool_categorized_EN.txt	BROCCOLI	Vegetables	5	7	[0, 0, 0]	n/a	catFR1	2	R1443D
916.181	0.933	918498	WORD_OFF	n/a	n/a	BROCCOLI	Vegetables	5	7	[0, 0, 0]	n/a	catFR1	2	R1443D
917.114	1.6	919437	WORD	n/a	wordpools/wordpool_categorized_EN.txt	POTATO	Vegetables	6	7	[0, 0, 0]	n/a	catFR1	2	R1443D
918.715	0.966	921038	WORD_OFF	n/a	n/a	POTATO	Vegetables	6	7	[0, 0, 0]	n/a	catFR1	2	R1443D
919.681	1.6	922003	WORD	n/a	wordpools/wordpool_categorized_EN.txt	HAND	BodyParts	7	7	[0, 0, 0]	n/a	catFR1	2	R1443D
921.298	0.816	923617	WORD_OFF	n/a	n/a	HAND	BodyParts	7	7	[0, 0, 0]	n/a	catFR1	2	R1443D
922.114	1.6	924437	WORD	n/a	wordpools/wordpool_categorized_EN.txt	ELBOW	BodyParts	8	7	[0, 0, 0]	n/a	catFR1	2	R1443D
923.714	0.8	926037	WORD_OFF	n/a	n/a	ELBOW	BodyParts	8	7	[0, 0, 0]	n/a	catFR1	2	R1443D
924.514	1.6	926831	WORD	n/a	wordpools/wordpool_categorized_EN.txt	ROSE	Flowers	9	7	[0, 0, 0]	n/a	catFR1	2	R1443D
926.115	0.883	928431	WORD_OFF	n/a	n/a	ROSE	Flowers	9	7	[0, 0, 0]	n/a	catFR1	2	R1443D
926.998	1.6	929318	WORD	n/a	wordpools/wordpool_categorized_EN.txt	DAFFODIL	Flowers	10	7	[0, 0, 0]	n/a	catFR1	2	R1443D
928.615	0.999	930931	WORD_OFF	n/a	n/a	DAFFODIL	Flowers	10	7	[0, 0, 0]	n/a	catFR1	2	R1443D
929.614	1.6	931936	WORD	n/a	wordpools/wordpool_categorized_EN.txt	CUCUMBER	Vegetables	11	7	[0, 0, 0]	n/a	catFR1	2	R1443D
931.215	0.866	933537	WORD_OFF	n/a	n/a	CUCUMBER	Vegetables	11	7	[0, 0, 0]	n/a	catFR1	2	R1443D
932.081	1.6	934397	WORD	n/a	wordpools/wordpool_categorized_EN.txt	CARROT	Vegetables	12	7	[0, 0, 0]	n/a	catFR1	2	R1443D
933.698	0.001	936017	PROB	8.633	n/a	n/a	n/a	-999	7	[5, 6, 8]	19.0	catFR1	2	R1443D
933.699	0.0	936018	START	n/a	n/a	n/a	n/a	-999	7	[-999, -999, -999]	n/a	catFR1	2	R1443D
933.697	0.002	936023	WORD_OFF	n/a	n/a	CARROT	Vegetables	12	7	[0, 0, 0]	n/a	catFR1	2	R1443D
933.699	0.0	936023	ENCODING_END	n/a	n/a	n/a	n/a	-999	7	[0, 0, 0]	n/a	catFR1	2	R1443D
933.699	8.649	936023	DISTRACT_START	n/a	n/a	n/a	n/a	-999	7	[0, 0, 0]	n/a	catFR1	2	R1443D
942.348	6.149	944667	PROB	6.133	n/a	n/a	n/a	-999	7	[6, 3, 7]	16.0	catFR1	2	R1443D
948.497	3.867	950816	PROB	3.85	n/a	n/a	n/a	-999	7	[1, 7, 2]	10.0	catFR1	2	R1443D
952.364	5.117	954683	PROB	5.099	n/a	n/a	n/a	-999	7	[1, 6, 7]	14.0	catFR1	2	R1443D
957.481	0.0	959799	STOP	n/a	n/a	n/a	n/a	-999	7	[-999, -999, -999]	n/a	catFR1	2	R1443D
957.481	2.315	959805	DISTRACT_END	n/a	n/a	n/a	n/a	-999	7	[0, 0, 0]	n/a	catFR1	2	R1443D
959.796	0.05	962114	REC_START	n/a	n/a	n/a	n/a	-999	7	[0, 0, 0]	n/a	catFR1	2	R1443D
959.846	1.0	962164	REC_WORD_VV	0.05	n/a	<>	n/a	-999	7	[0, 0, 0]	n/a	catFR1	2	R1443D
960.846	1.0	963164	REC_WORD_VV	1.05	n/a	<>	n/a	-999	7	[0, 0, 0]	n/a	catFR1	2	R1443D
961.846	0.948	964164	REC_WORD_VV	2.05	n/a	<>	n/a	-999	7	[0, 0, 0]	n/a	catFR1	2	R1443D
962.794	0.621	965112	REC_WORD	2.998	n/a	ROSE	Flowers	9	7	[0, 0, 0]	n/a	catFR1	2	R1443D
963.415	2.08	965733	REC_WORD	3.619	n/a	DAFFODIL	Flowers	10	7	[0, 0, 0]	n/a	catFR1	2	R1443D
965.495	0.833	967813	REC_WORD	5.699	n/a	BROCCOLI	Vegetables	5	7	[0, 0, 0]	n/a	catFR1	2	R1443D
966.328	1.0	968646	REC_WORD	6.532	n/a	CARROT	Vegetables	12	7	[0, 0, 0]	n/a	catFR1	2	R1443D
967.328	1.334	969646	REC_WORD_VV	7.532	n/a	<>	n/a	-999	7	[0, 0, 0]	n/a	catFR1	2	R1443D
968.662	1.0	970980	REC_WORD	8.866	n/a	CUCUMBER	Vegetables	11	7	[0, 0, 0]	n/a	catFR1	2	R1443D
969.662	2.468	971980	REC_WORD_VV	9.866	n/a	<>	n/a	-999	7	[0, 0, 0]	n/a	catFR1	2	R1443D
972.13	1.872	974448	REC_WORD_VV	12.334	n/a	<>	n/a	-999	7	[0, 0, 0]	n/a	catFR1	2	R1443D
974.002	0.637	976319	REC_WORD	14.206	n/a	ROSE	Flowers	9	7	[0, 0, 0]	n/a	catFR1	2	R1443D
974.639	2.377	976956	REC_WORD	14.843	n/a	THORN	n/a	-999	7	[0, 0, 0]	n/a	catFR1	2	R1443D
977.016	2.729	979333	REC_WORD	17.22	n/a	DAFFODIL	Flowers	10	7	[0, 0, 0]	n/a	catFR1	2	R1443D
979.745	3.683	982062	REC_WORD_VV	19.949	n/a	<>	n/a	-999	7	[0, 0, 0]	n/a	catFR1	2	R1443D
983.428	1.725	985745	REC_WORD_VV	23.632	n/a	<>	n/a	-999	7	[0, 0, 0]	n/a	catFR1	2	R1443D
985.153	1.0	987470	REC_WORD	25.357	n/a	CUCUMBER	Vegetables	11	7	[0, 0, 0]	n/a	catFR1	2	R1443D
986.153	0.447	988470	REC_WORD_VV	26.357	n/a	<>	n/a	-999	7	[0, 0, 0]	n/a	catFR1	2	R1443D
986.6	1.0	988917	REC_WORD	26.804	n/a	CARROT	Vegetables	12	7	[0, 0, 0]	n/a	catFR1	2	R1443D
987.6	2.437	989917	REC_WORD_VV	27.804	n/a	<>	n/a	-999	7	[0, 0, 0]	n/a	catFR1	2	R1443D
990.037	2.677	992356	REC_END	n/a	n/a	n/a	n/a	-999	7	[0, 0, 0]	n/a	catFR1	2	R1443D
992.714	10.0	995028	COUNTDOWN_START	n/a	n/a	n/a	n/a	-999	8	[0, 0, 0]	n/a	catFR1	2	R1443D
1003.065	0.0	1005384	COUNTDOWN_END	n/a	n/a	n/a	n/a	-999	8	[0, 0, 0]	n/a	catFR1	2	R1443D
1003.065	1.999	1005384	ENCODING_START	n/a	n/a	n/a	n/a	-999	8	[0, 0, 0]	n/a	catFR1	2	R1443D
1005.064	1.6	1007381	WORD	n/a	wordpools/wordpool_categorized_EN.txt	UNDERWEAR	Clothing	1	8	[0, 0, 0]	n/a	catFR1	2	R1443D
1006.665	0.8	1008982	WORD_OFF	n/a	n/a	UNDERWEAR	Clothing	1	8	[0, 0, 0]	n/a	catFR1	2	R1443D
1007.465	1.6	1009775	WORD	n/a	wordpools/wordpool_categorized_EN.txt	JEANS	Clothing	2	8	[0, 0, 0]	n/a	catFR1	2	R1443D
1009.065	0.815	1011389	WORD_OFF	n/a	n/a	JEANS	Clothing	2	8	[0, 0, 0]	n/a	catFR1	2	R1443D
1009.88	1.6	1012196	WORD	n/a	wordpools/wordpool_categorized_EN.txt	GIRAFFE	Zoo	3	8	[0, 0, 0]	n/a	catFR1	2	R1443D
1011.481	0.983	1013796	WORD_OFF	n/a	n/a	GIRAFFE	Zoo	3	8	[0, 0, 0]	n/a	catFR1	2	R1443D
1012.464	1.6	1014775	WORD	n/a	wordpools/wordpool_categorized_EN.txt	ELEPHANT	Zoo	4	8	[0, 0, 0]	n/a	catFR1	2	R1443D
1014.065	0.833	1016375	WORD_OFF	n/a	n/a	ELEPHANT	Zoo	4	8	[0, 0, 0]	n/a	catFR1	2	R1443D
1014.898	1.6	1017209	WORD	n/a	wordpools/wordpool_categorized_EN.txt	WINE	Beverages	5	8	[0, 0, 0]	n/a	catFR1	2	R1443D
1016.498	0.917	1018809	WORD_OFF	n/a	n/a	WINE	Beverages	5	8	[0, 0, 0]	n/a	catFR1	2	R1443D
1017.415	1.6	1019735	WORD	n/a	wordpools/wordpool_categorized_EN.txt	CIDER	Beverages	6	8	[0, 0, 0]	n/a	catFR1	2	R1443D
1019.015	0.916	1021335	WORD_OFF	n/a	n/a	CIDER	Beverages	6	8	[0, 0, 0]	n/a	catFR1	2	R1443D
1019.931	1.6	1022248	WORD	n/a	wordpools/wordpool_categorized_EN.txt	SKIRT	Clothing	7	8	[0, 0, 0]	n/a	catFR1	2	R1443D
1021.531	0.984	1023848	WORD_OFF	n/a	n/a	SKIRT	Clothing	7	8	[0, 0, 0]	n/a	catFR1	2	R1443D
1022.515	1.6	1024827	WORD	n/a	wordpools/wordpool_categorized_EN.txt	SOCKS	Clothing	8	8	[0, 0, 0]	n/a	catFR1	2	R1443D
1024.13	0.851	1026441	WORD_OFF	n/a	n/a	SOCKS	Clothing	8	8	[0, 0, 0]	n/a	catFR1	2	R1443D
1024.981	1.6	1027301	WORD	n/a	wordpools/wordpool_categorized_EN.txt	GORILLA	Zoo	9	8	[0, 0, 0]	n/a	catFR1	2	R1443D
1026.597	0.901	1028914	WORD_OFF	n/a	n/a	GORILLA	Zoo	9	8	[0, 0, 0]	n/a	catFR1	2	R1443D
1027.498	1.6	1029814	WORD	n/a	wordpools/wordpool_categorized_EN.txt	ZEBRA	Zoo	10	8	[0, 0, 0]	n/a	catFR1	2	R1443D
1029.114	0.867	1031427	WORD_OFF	n/a	n/a	ZEBRA	Zoo	10	8	[0, 0, 0]	n/a	catFR1	2	R1443D
1029.981	1.6	1032300	WORD	n/a	wordpools/wordpool_categorized_EN.txt	COFFEE	Beverages	11	8	[0, 0, 0]	n/a	catFR1	2	R1443D
1031.581	0.816	1033901	WORD_OFF	n/a	n/a	COFFEE	Beverages	11	8	[0, 0, 0]	n/a	catFR1	2	R1443D
1032.397	1.6	1034708	WORD	n/a	wordpools/wordpool_categorized_EN.txt	MILK	Beverages	12	8	[0, 0, 0]	n/a	catFR1	2	R1443D
1033.998	0.0	1036308	WORD_OFF	n/a	n/a	MILK	Beverages	12	8	[0, 0, 0]	n/a	catFR1	2	R1443D
1033.998	0.001	1036312	PROB	5.55	n/a	n/a	n/a	-999	8	[5, 2, 7]	14.0	catFR1	2	R1443D
1033.999	0.0	1036313	START	n/a	n/a	n/a	n/a	-999	8	[-999, -999, -999]	n/a	catFR1	2	R1443D
1033.999	0.0	1036321	ENCODING_END	n/a	n/a	n/a	n/a	-999	8	[0, 0, 0]	n/a	catFR1	2	R1443D
1033.999	5.566	1036321	DISTRACT_START	n/a	n/a	n/a	n/a	-999	8	[0, 0, 0]	n/a	catFR1	2	R1443D
1039.565	4.05	1041879	PROB	4.033	n/a	n/a	n/a	-999	8	[7, 1, 2]	10.0	catFR1	2	R1443D
1043.615	4.984	1045929	PROB	4.966	n/a	n/a	n/a	-999	8	[5, 4, 6]	15.0	catFR1	2	R1443D
1048.599	3.732	1050913	PROB	3.716	n/a	n/a	n/a	-999	8	[2, 7, 2]	11.0	catFR1	2	R1443D
1052.331	4.764	1054644	PROB	4.75	n/a	n/a	n/a	-999	8	[1, 6, 8]	15.0	catFR1	2	R1443D
1057.095	0.0	1059408	STOP	n/a	n/a	n/a	n/a	-999	8	[-999, -999, -999]	n/a	catFR1	2	R1443D
1057.095	2.186	1059415	DISTRACT_END	n/a	n/a	n/a	n/a	-999	8	[0, 0, 0]	n/a	catFR1	2	R1443D
1059.281	0.66	1061592	REC_START	n/a	n/a	n/a	n/a	-999	8	[0, 0, 0]	n/a	catFR1	2	R1443D
1059.941	1.0	1062254	REC_WORD_VV	0.66	n/a	<>	n/a	-999	8	[0, 0, 0]	n/a	catFR1	2	R1443D
1060.941	0.43	1063254	REC_WORD_VV	1.66	n/a	<>	n/a	-999	8	[0, 0, 0]	n/a	catFR1	2	R1443D
1061.371	2.331	1063684	REC_WORD	2.09	n/a	GORILLA	Zoo	9	8	[0, 0, 0]	n/a	catFR1	2	R1443D
1063.702	1.209	1066015	REC_WORD	4.421	n/a	ELEPHANT	Zoo	4	8	[0, 0, 0]	n/a	catFR1	2	R1443D
1064.911	3.998	1067224	REC_WORD	5.63	n/a	ZEBRA	Zoo	10	8	[0, 0, 0]	n/a	catFR1	2	R1443D
1068.909	1.0	1071222	REC_WORD_VV	9.628	n/a	<>	n/a	-999	8	[0, 0, 0]	n/a	catFR1	2	R1443D
1069.909	1.473	1072222	REC_WORD_VV	10.628	n/a	<>	n/a	-999	8	[0, 0, 0]	n/a	catFR1	2	R1443D
1071.382	1.0	1073695	REC_WORD_VV	12.101	n/a	<>	n/a	-999	8	[0, 0, 0]	n/a	catFR1	2	R1443D
1072.382	4.159	1074694	REC_WORD_VV	13.101	n/a	<>	n/a	-999	8	[0, 0, 0]	n/a	catFR1	2	R1443D
1076.541	1.0	1078853	REC_WORD_VV	17.26	n/a	<>	n/a	-999	8	[0, 0, 0]	n/a	catFR1	2	R1443D
1077.541	4.363	1079853	REC_WORD_VV	18.26	n/a	<>	n/a	-999	8	[0, 0, 0]	n/a	catFR1	2	R1443D
1081.904	0.663	1084216	REC_WORD	22.623	n/a	GORILLA	Zoo	9	8	[0, 0, 0]	n/a	catFR1	2	R1443D
1082.567	2.975	1084879	REC_WORD	23.286	n/a	GIRAFFE	Zoo	3	8	[0, 0, 0]	n/a	catFR1	2	R1443D
1085.542	1.0	1087854	REC_WORD_VV	26.261	n/a	<>	n/a	-999	8	[0, 0, 0]	n/a	catFR1	2	R1443D
1086.542	1.0	1088854	REC_WORD_VV	27.261	n/a	<>	n/a	-999	8	[0, 0, 0]	n/a	catFR1	2	R1443D
1087.542	1.0	1089854	REC_WORD_VV	28.261	n/a	<>	n/a	-999	8	[0, 0, 0]	n/a	catFR1	2	R1443D
1088.542	0.968	1090854	REC_WORD_VV	29.261	n/a	<>	n/a	-999	8	[0, 0, 0]	n/a	catFR1	2	R1443D
1089.51	2.187	1091820	REC_END	n/a	n/a	n/a	n/a	-999	8	[0, 0, 0]	n/a	catFR1	2	R1443D
1091.697	10.0	1094016	COUNTDOWN_START	n/a	n/a	n/a	n/a	-999	9	[0, 0, 0]	n/a	catFR1	2	R1443D
1102.047	0.0	1104359	COUNTDOWN_END	n/a	n/a	n/a	n/a	-999	9	[0, 0, 0]	n/a	catFR1	2	R1443D
1102.047	2.018	1104359	ENCODING_START	n/a	n/a	n/a	n/a	-999	9	[0, 0, 0]	n/a	catFR1	2	R1443D
1104.065	1.6	1106370	WORD	n/a	wordpools/wordpool_categorized_EN.txt	MONKEY	Zoo	1	9	[0, 0, 0]	n/a	catFR1	2	R1443D
1105.681	0.799	1107996	WORD_OFF	n/a	n/a	MONKEY	Zoo	1	9	[0, 0, 0]	n/a	catFR1	2	R1443D
1106.48	1.6	1108790	WORD	n/a	wordpools/wordpool_categorized_EN.txt	ORANGUTAN	Zoo	2	9	[0, 0, 0]	n/a	catFR1	2	R1443D
1108.081	0.95	1110390	WORD_OFF	n/a	n/a	ORANGUTAN	Zoo	2	9	[0, 0, 0]	n/a	catFR1	2	R1443D
1109.031	1.6	1111343	WORD	n/a	wordpools/wordpool_categorized_EN.txt	BOOKCASE	Furniture	3	9	[0, 0, 0]	n/a	catFR1	2	R1443D
1110.648	0.783	1112956	WORD_OFF	n/a	n/a	BOOKCASE	Furniture	3	9	[0, 0, 0]	n/a	catFR1	2	R1443D
1111.431	1.6	1113737	WORD	n/a	wordpools/wordpool_categorized_EN.txt	CHAIR	Furniture	4	9	[0, 0, 0]	n/a	catFR1	2	R1443D
1113.031	0.967	1115337	WORD_OFF	n/a	n/a	CHAIR	Furniture	4	9	[0, 0, 0]	n/a	catFR1	2	R1443D
1113.998	1.6	1116303	WORD	n/a	wordpools/wordpool_categorized_EN.txt	EYE	BodyParts	5	9	[0, 0, 0]	n/a	catFR1	2	R1443D
1115.598	0.782	1117903	WORD_OFF	n/a	n/a	EYE	BodyParts	5	9	[0, 0, 0]	n/a	catFR1	2	R1443D
1116.38	1.6	1118697	WORD	n/a	wordpools/wordpool_categorized_EN.txt	HEAD	BodyParts	6	9	[0, 0, 0]	n/a	catFR1	2	R1443D
1117.981	0.95	1120297	WORD_OFF	n/a	n/a	HEAD	BodyParts	6	9	[0, 0, 0]	n/a	catFR1	2	R1443D
1118.931	1.6	1121236	WORD	n/a	wordpools/wordpool_categorized_EN.txt	BEAR	Zoo	7	9	[0, 0, 0]	n/a	catFR1	2	R1443D
1120.548	0.95	1122863	WORD_OFF	n/a	n/a	BEAR	Zoo	7	9	[0, 0, 0]	n/a	catFR1	2	R1443D
1121.498	1.6	1123802	WORD	n/a	wordpools/wordpool_categorized_EN.txt	TIGER	Zoo	8	9	[0, 0, 0]	n/a	catFR1	2	R1443D
1123.098	0.816	1125403	WORD_OFF	n/a	n/a	TIGER	Zoo	8	9	[0, 0, 0]	n/a	catFR1	2	R1443D
1123.914	1.6	1126223	WORD	n/a	wordpools/wordpool_categorized_EN.txt	NIGHTSTAND	Furniture	9	9	[0, 0, 0]	n/a	catFR1	2	R1443D
1125.515	0.966	1127823	WORD_OFF	n/a	n/a	NIGHTSTAND	Furniture	9	9	[0, 0, 0]	n/a	catFR1	2	R1443D
1126.481	1.6	1128789	WORD	n/a	wordpools/wordpool_categorized_EN.txt	BED	Furniture	10	9	[0, 0, 0]	n/a	catFR1	2	R1443D
1128.081	0.884	1130389	WORD_OFF	n/a	n/a	BED	Furniture	10	9	[0, 0, 0]	n/a	catFR1	2	R1443D
1128.965	1.6	1131275	WORD	n/a	wordpools/wordpool_categorized_EN.txt	TOE	BodyParts	11	9	[0, 0, 0]	n/a	catFR1	2	R1443D
1130.581	0.85	1132889	WORD_OFF	n/a	n/a	TOE	BodyParts	11	9	[0, 0, 0]	n/a	catFR1	2	R1443D
1131.431	1.6	1133736	WORD	n/a	wordpools/wordpool_categorized_EN.txt	FOOT	BodyParts	12	9	[0, 0, 0]	n/a	catFR1	2	R1443D
1133.031	0.001	1135336	WORD_OFF	n/a	n/a	FOOT	BodyParts	12	9	[0, 0, 0]	n/a	catFR1	2	R1443D
1133.032	0.0	1135341	START	n/a	n/a	n/a	n/a	-999	9	[-999, -999, -999]	n/a	catFR1	2	R1443D
1133.032	0.0	1135341	PROB	7.366	n/a	n/a	n/a	-999	9	[8, 5, 6]	19.0	catFR1	2	R1443D
1133.032	0.0	1135349	ENCODING_END	n/a	n/a	n/a	n/a	-999	9	[0, 0, 0]	n/a	catFR1	2	R1443D
1133.032	7.382	1135349	DISTRACT_START	n/a	n/a	n/a	n/a	-999	9	[0, 0, 0]	n/a	catFR1	2	R1443D
1140.414	4.602	1142723	PROB	4.584	n/a	n/a	n/a	-999	9	[4, 2, 5]	11.0	catFR1	2	R1443D
1145.016	3.633	1147325	PROB	3.615	n/a	n/a	n/a	-999	9	[1, 6, 1]	8.0	catFR1	2	R1443D
1148.649	3.433	1150958	PROB	3.416	n/a	n/a	n/a	-999	9	[3, 1, 2]	6.0	catFR1	2	R1443D
1152.082	3.866	1154390	PROB	3.849	n/a	n/a	n/a	-999	9	[1, 2, 3]	6.0	catFR1	2	R1443D
1155.948	0.0	1158256	STOP	n/a	n/a	n/a	n/a	-999	9	[-999, -999, -999]	n/a	catFR1	2	R1443D
1155.948	2.033	1158258	DISTRACT_END	n/a	n/a	n/a	n/a	-999	9	[0, 0, 0]	n/a	catFR1	2	R1443D
1157.981	1.557	1160289	REC_START	n/a	n/a	n/a	n/a	-999	9	[0, 0, 0]	n/a	catFR1	2	R1443D
1159.538	1.0	1161846	REC_WORD_VV	1.557	n/a	<>	n/a	-999	9	[0, 0, 0]	n/a	catFR1	2	R1443D
1160.538	1.0	1162846	REC_WORD_VV	2.557	n/a	<>	n/a	-999	9	[0, 0, 0]	n/a	catFR1	2	R1443D
1161.538	0.79	1163846	REC_WORD_VV	3.557	n/a	<>	n/a	-999	9	[0, 0, 0]	n/a	catFR1	2	R1443D
1162.328	1.383	1164636	REC_WORD	4.347	n/a	GORILLA	Zoo	-999	9	[0, 0, 0]	n/a	catFR1	2	R1443D
1163.711	1.0	1166019	REC_WORD	5.73	n/a	GIRAFFE	Zoo	-999	9	[0, 0, 0]	n/a	catFR1	2	R1443D
1164.711	6.844	1167019	REC_WORD_VV	6.73	n/a	<>	n/a	-999	9	[0, 0, 0]	n/a	catFR1	2	R1443D
1171.555	1.101	1173862	REC_WORD	13.574	n/a	NIGHTSTAND	Furniture	9	9	[0, 0, 0]	n/a	catFR1	2	R1443D
1172.656	3.409	1174963	REC_WORD	14.675	n/a	BEDSTAND	n/a	-999	9	[0, 0, 0]	n/a	catFR1	2	R1443D
1176.065	1.0	1178372	REC_WORD_VV	18.084	n/a	<>	n/a	-999	9	[0, 0, 0]	n/a	catFR1	2	R1443D
1177.065	1.288	1179372	REC_WORD_VV	19.084	n/a	<>	n/a	-999	9	[0, 0, 0]	n/a	catFR1	2	R1443D
1178.353	0.365	1180660	REC_WORD	20.372	n/a	TOE	BodyParts	11	9	[0, 0, 0]	n/a	catFR1	2	R1443D
1178.718	5.796	1181025	REC_WORD	20.737	n/a	FOOT	BodyParts	12	9	[0, 0, 0]	n/a	catFR1	2	R1443D
1184.514	0.944	1186821	REC_WORD	26.533	n/a	HAND	BodyParts	-999	9	[0, 0, 0]	n/a	catFR1	2	R1443D
1185.458	2.759	1187765	REC_WORD	27.477	n/a	ARM	BodyParts	-999	9	[0, 0, 0]	n/a	catFR1	2	R1443D
1188.217	2.313	1190518	REC_END	n/a	n/a	n/a	n/a	-999	9	[0, 0, 0]	n/a	catFR1	2	R1443D
1190.53	10.0	1192845	COUNTDOWN_START	n/a	n/a	n/a	n/a	-999	10	[0, 0, 0]	n/a	catFR1	2	R1443D
1200.881	0.0	1203189	COUNTDOWN_END	n/a	n/a	n/a	n/a	-999	10	[0, 0, 0]	n/a	catFR1	2	R1443D
1200.881	1.85	1203189	ENCODING_START	n/a	n/a	n/a	n/a	-999	10	[0, 0, 0]	n/a	catFR1	2	R1443D
1202.731	1.6	1205040	WORD	n/a	wordpools/wordpool_categorized_EN.txt	FOREST	Landscapes	1	10	[0, 0, 0]	n/a	catFR1	2	R1443D
1204.348	0.983	1206654	WORD_OFF	n/a	n/a	FOREST	Landscapes	1	10	[0, 0, 0]	n/a	catFR1	2	R1443D
1205.331	1.6	1207633	WORD	n/a	wordpools/wordpool_categorized_EN.txt	STREAM	Landscapes	2	10	[0, 0, 0]	n/a	catFR1	2	R1443D
1206.948	1.0	1209260	WORD_OFF	n/a	n/a	STREAM	Landscapes	2	10	[0, 0, 0]	n/a	catFR1	2	R1443D
1207.948	1.6	1210252	WORD	n/a	wordpools/wordpool_categorized_EN.txt	LADYBUG	Insects	3	10	[0, 0, 0]	n/a	catFR1	2	R1443D
1209.548	0.833	1211852	WORD_OFF	n/a	n/a	LADYBUG	Insects	3	10	[0, 0, 0]	n/a	catFR1	2	R1443D
1210.381	1.6	1212685	WORD	n/a	wordpools/wordpool_categorized_EN.txt	CRICKET	Insects	4	10	[0, 0, 0]	n/a	catFR1	2	R1443D
1211.981	0.932	1214286	WORD_OFF	n/a	n/a	CRICKET	Insects	4	10	[0, 0, 0]	n/a	catFR1	2	R1443D
1212.913	1.6	1215225	WORD	n/a	wordpools/wordpool_categorized_EN.txt	STAIRS	Building	5	10	[0, 0, 0]	n/a	catFR1	2	R1443D
1214.514	0.917	1216825	WORD_OFF	n/a	n/a	STAIRS	Building	5	10	[0, 0, 0]	n/a	catFR1	2	R1443D
1215.431	1.6	1217738	WORD	n/a	wordpools/wordpool_categorized_EN.txt	BATHROOM	Building	6	10	[0, 0, 0]	n/a	catFR1	2	R1443D
1217.047	0.884	1219352	WORD_OFF	n/a	n/a	BATHROOM	Building	6	10	[0, 0, 0]	n/a	catFR1	2	R1443D
1217.931	1.6	1220238	WORD	n/a	wordpools/wordpool_categorized_EN.txt	CREEK	Landscapes	7	10	[0, 0, 0]	n/a	catFR1	2	R1443D
1219.547	0.934	1221851	WORD_OFF	n/a	n/a	CREEK	Landscapes	7	10	[0, 0, 0]	n/a	catFR1	2	R1443D
1220.481	1.6	1222791	WORD	n/a	wordpools/wordpool_categorized_EN.txt	WOODS	Landscapes	8	10	[0, 0, 0]	n/a	catFR1	2	R1443D
1222.098	1.0	1224404	WORD_OFF	n/a	n/a	WOODS	Landscapes	8	10	[0, 0, 0]	n/a	catFR1	2	R1443D
1223.098	1.6	1225409	WORD	n/a	wordpools/wordpool_categorized_EN.txt	FLOOR	Building	9	10	[0, 0, 0]	n/a	catFR1	2	R1443D
1224.715	0.966	1227023	WORD_OFF	n/a	n/a	FLOOR	Building	9	10	[0, 0, 0]	n/a	catFR1	2	R1443D
1225.681	1.6	1227989	WORD	n/a	wordpools/wordpool_categorized_EN.txt	ROOF	Building	10	10	[0, 0, 0]	n/a	catFR1	2	R1443D
1227.281	0.967	1229589	WORD_OFF	n/a	n/a	ROOF	Building	10	10	[0, 0, 0]	n/a	catFR1	2	R1443D
1228.248	1.6	1230555	WORD	n/a	wordpools/wordpool_categorized_EN.txt	FLY	Insects	11	10	[0, 0, 0]	n/a	catFR1	2	R1443D
1229.848	0.849	1232155	WORD_OFF	n/a	n/a	FLY	Insects	11	10	[0, 0, 0]	n/a	catFR1	2	R1443D
1230.697	1.6	1233002	WORD	n/a	wordpools/wordpool_categorized_EN.txt	BEE	Insects	12	10	[0, 0, 0]	n/a	catFR1	2	R1443D
1232.298	0.001	1234602	WORD_OFF	n/a	n/a	BEE	Insects	12	10	[0, 0, 0]	n/a	catFR1	2	R1443D
1232.299	0.0	1234602	ENCODING_END	n/a	n/a	n/a	n/a	-999	10	[0, 0, 0]	n/a	catFR1	2	R1443D
1232.299	0.0	1234602	DISTRACT_START	n/a	n/a	n/a	n/a	-999	10	[0, 0, 0]	n/a	catFR1	2	R1443D
1232.298	0.001	1234602	PROB	7.283	n/a	n/a	n/a	-999	10	[4, 1, 8]	13.0	catFR1	2	R1443D
1232.299	7.299	1234603	START	n/a	n/a	n/a	n/a	-999	10	[-999, -999, -999]	n/a	catFR1	2	R1443D
1239.598	5.765	1241902	PROB	5.748	n/a	n/a	n/a	-999	10	[5, 7, 1]	13.0	catFR1	2	R1443D
1245.363	4.669	1247667	PROB	4.651	n/a	n/a	n/a	-999	10	[1, 4, 3]	8.0	catFR1	2	R1443D
1250.032	4.081	1252335	PROB	4.066	n/a	n/a	n/a	-999	10	[7, 5, 5]	17.0	catFR1	2	R1443D
1254.113	0.0	1256413	DISTRACT_END	n/a	n/a	n/a	n/a	-999	10	[0, 0, 0]	n/a	catFR1	2	R1443D
1254.113	2.018	1256416	STOP	n/a	n/a	n/a	n/a	-999	10	[-999, -999, -999]	n/a	catFR1	2	R1443D
1256.131	1.025	1258431	REC_START	n/a	n/a	n/a	n/a	-999	10	[0, 0, 0]	n/a	catFR1	2	R1443D
1257.156	1.0	1259459	REC_WORD_VV	1.025	n/a	<>	n/a	-999	10	[0, 0, 0]	n/a	catFR1	2	R1443D
1258.156	1.0	1260459	REC_WORD_VV	2.025	n/a	<>	n/a	-999	10	[0, 0, 0]	n/a	catFR1	2	R1443D
1259.156	1.639	1261459	REC_WORD_VV	3.025	n/a	<>	n/a	-999	10	[0, 0, 0]	n/a	catFR1	2	R1443D
1260.795	2.776	1263098	REC_WORD	4.664	n/a	LADYBUG	Insects	3	10	[0, 0, 0]	n/a	catFR1	2	R1443D
1263.571	6.287	1265874	REC_WORD	7.44	n/a	FLY	Insects	11	10	[0, 0, 0]	n/a	catFR1	2	R1443D
1269.858	2.298	1272160	REC_WORD	13.727	n/a	ANT	Insects	-999	10	[0, 0, 0]	n/a	catFR1	2	R1443D
1272.156	4.032	1274458	REC_WORD_VV	16.025	n/a	<>	n/a	-999	10	[0, 0, 0]	n/a	catFR1	2	R1443D
1276.188	4.921	1278490	REC_WORD	20.057	n/a	BATHROOM	Building	6	10	[0, 0, 0]	n/a	catFR1	2	R1443D
1281.109	1.0	1283411	REC_WORD_VV	24.978	n/a	<>	n/a	-999	10	[0, 0, 0]	n/a	catFR1	2	R1443D
1282.109	4.252	1284411	REC_WORD_VV	25.978	n/a	<>	n/a	-999	10	[0, 0, 0]	n/a	catFR1	2	R1443D
1286.361	2.12	1288659	REC_END	n/a	n/a	n/a	n/a	-999	10	[0, 0, 0]	n/a	catFR1	2	R1443D
1288.481	10.0	1290789	COUNTDOWN_START	n/a	n/a	n/a	n/a	-999	11	[0, 0, 0]	n/a	catFR1	2	R1443D
1298.831	0.0	1301132	COUNTDOWN_END	n/a	n/a	n/a	n/a	-999	11	[0, 0, 0]	n/a	catFR1	2	R1443D
1298.831	2.334	1301132	ENCODING_START	n/a	n/a	n/a	n/a	-999	11	[0, 0, 0]	n/a	catFR1	2	R1443D
1301.165	1.6	1303460	WORD	n/a	wordpools/wordpool_categorized_EN.txt	LIME	Fruit	1	11	[0, 0, 0]	n/a	catFR1	2	R1443D
1302.765	0.85	1305060	WORD_OFF	n/a	n/a	LIME	Fruit	1	11	[0, 0, 0]	n/a	catFR1	2	R1443D
1303.615	1.6	1305920	WORD	n/a	wordpools/wordpool_categorized_EN.txt	STRAWBERRY	Fruit	2	11	[0, 0, 0]	n/a	catFR1	2	R1443D
1305.215	0.782	1307521	WORD_OFF	n/a	n/a	STRAWBERRY	Fruit	2	11	[0, 0, 0]	n/a	catFR1	2	R1443D
1305.997	1.6	1308301	WORD	n/a	wordpools/wordpool_categorized_EN.txt	PANDA	Zoo	3	11	[0, 0, 0]	n/a	catFR1	2	R1443D
1307.615	0.9	1309915	WORD_OFF	n/a	n/a	PANDA	Zoo	3	11	[0, 0, 0]	n/a	catFR1	2	R1443D
1308.515	1.6	1310814	WORD	n/a	wordpools/wordpool_categorized_EN.txt	CHIMPANZEE	Zoo	4	11	[0, 0, 0]	n/a	catFR1	2	R1443D
1310.131	0.866	1312428	WORD_OFF	n/a	n/a	CHIMPANZEE	Zoo	4	11	[0, 0, 0]	n/a	catFR1	2	R1443D
1310.997	1.6	1313301	WORD	n/a	wordpools/wordpool_categorized_EN.txt	VIOLET	Flowers	5	11	[0, 0, 0]	n/a	catFR1	2	R1443D
1312.597	0.818	1314901	WORD_OFF	n/a	n/a	VIOLET	Flowers	5	11	[0, 0, 0]	n/a	catFR1	2	R1443D
1313.415	1.6	1315721	WORD	n/a	wordpools/wordpool_categorized_EN.txt	LILAC	Flowers	6	11	[0, 0, 0]	n/a	catFR1	2	R1443D
1315.015	0.864	1317321	WORD_OFF	n/a	n/a	LILAC	Flowers	6	11	[0, 0, 0]	n/a	catFR1	2	R1443D
1315.879	1.6	1318181	WORD	n/a	wordpools/wordpool_categorized_EN.txt	CHEETAH	Zoo	7	11	[0, 0, 0]	n/a	catFR1	2	R1443D
1317.481	0.934	1319782	WORD_OFF	n/a	n/a	CHEETAH	Zoo	7	11	[0, 0, 0]	n/a	catFR1	2	R1443D
1318.415	1.6	1320721	WORD	n/a	wordpools/wordpool_categorized_EN.txt	LION	Zoo	8	11	[0, 0, 0]	n/a	catFR1	2	R1443D
1320.031	0.833	1322334	WORD_OFF	n/a	n/a	LION	Zoo	8	11	[0, 0, 0]	n/a	catFR1	2	R1443D
1320.864	1.6	1323168	WORD	n/a	wordpools/wordpool_categorized_EN.txt	PLUM	Fruit	9	11	[0, 0, 0]	n/a	catFR1	2	R1443D
1322.464	0.917	1324768	WORD_OFF	n/a	n/a	PLUM	Fruit	9	11	[0, 0, 0]	n/a	catFR1	2	R1443D
1323.381	1.6	1325681	WORD	n/a	wordpools/wordpool_categorized_EN.txt	LEMON	Fruit	10	11	[0, 0, 0]	n/a	catFR1	2	R1443D
1324.998	0.883	1327294	WORD_OFF	n/a	n/a	LEMON	Fruit	10	11	[0, 0, 0]	n/a	catFR1	2	R1443D
1325.881	1.6	1328181	WORD	n/a	wordpools/wordpool_categorized_EN.txt	CARNATION	Flowers	11	11	[0, 0, 0]	n/a	catFR1	2	R1443D
1327.481	0.983	1329781	WORD_OFF	n/a	n/a	CARNATION	Flowers	11	11	[0, 0, 0]	n/a	catFR1	2	R1443D
1328.464	1.6	1330760	WORD	n/a	wordpools/wordpool_categorized_EN.txt	LILY	Flowers	12	11	[0, 0, 0]	n/a	catFR1	2	R1443D
1330.065	0.001	1332360	WORD_OFF	n/a	n/a	LILY	Flowers	12	11	[0, 0, 0]	n/a	catFR1	2	R1443D
1330.066	0.0	1332360	ENCODING_END	n/a	n/a	n/a	n/a	-999	11	[0, 0, 0]	n/a	catFR1	2	R1443D
1330.065	0.001	1332364	PROB	4.616	n/a	n/a	n/a	-999	11	[2, 4, 2]	8.0	catFR1	2	R1443D
1330.066	0.0	1332365	START	n/a	n/a	n/a	n/a	-999	11	[-999, -999, -999]	n/a	catFR1	2	R1443D
1330.066	4.632	1332373	DISTRACT_START	n/a	n/a	n/a	n/a	-999	11	[0, 0, 0]	n/a	catFR1	2	R1443D
1334.698	5.883	1336997	PROB	5.867	n/a	n/a	n/a	-999	11	[4, 3, 6]	13.0	catFR1	2	R1443D
1340.581	5.85	1342880	PROB	5.833	n/a	n/a	n/a	-999	11	[8, 3, 6]	17.0	catFR1	2	R1443D
1346.431	5.167	1348730	PROB	5.149	n/a	n/a	n/a	-999	11	[3, 8, 7]	18.0	catFR1	2	R1443D
1351.598	0.0	1353893	DISTRACT_END	n/a	n/a	n/a	n/a	-999	11	[0, 0, 0]	n/a	catFR1	2	R1443D
1351.598	2.366	1353896	STOP	n/a	n/a	n/a	n/a	-999	11	[-999, -999, -999]	n/a	catFR1	2	R1443D
1353.964	0.412	1356269	REC_START	n/a	n/a	n/a	n/a	-999	11	[0, 0, 0]	n/a	catFR1	2	R1443D
1354.376	4.964	1356674	REC_WORD_VV	0.412	n/a	<>	n/a	-999	11	[0, 0, 0]	n/a	catFR1	2	R1443D
1359.34	1.141	1361638	REC_WORD	5.376	n/a	CARNATION	Flowers	11	11	[0, 0, 0]	n/a	catFR1	2	R1443D
1360.481	2.212	1362779	REC_WORD_VV	6.517	n/a	<>	n/a	-999	11	[0, 0, 0]	n/a	catFR1	2	R1443D
1362.693	3.122	1364991	REC_WORD	8.729	n/a	LILY	Flowers	12	11	[0, 0, 0]	n/a	catFR1	2	R1443D
1365.815	1.0	1368113	REC_WORD	11.851	n/a	LION	Zoo	8	11	[0, 0, 0]	n/a	catFR1	2	R1443D
1366.815	3.926	1369113	REC_WORD_VV	12.851	n/a	<>	n/a	-999	11	[0, 0, 0]	n/a	catFR1	2	R1443D
1370.741	1.223	1373038	REC_WORD	16.777	n/a	TIRE	n/a	-999	11	[0, 0, 0]	n/a	catFR1	2	R1443D
1371.964	2.647	1374261	REC_WORD	18.0	n/a	ROSE	Flowers	-999	11	[0, 0, 0]	n/a	catFR1	2	R1443D
1374.611	1.621	1376908	REC_WORD	20.647	n/a	ROSE	Flowers	-999	11	[0, 0, 0]	n/a	catFR1	2	R1443D
1376.232	1.655	1378529	REC_WORD	22.268	n/a	CARNATION	Flowers	11	11	[0, 0, 0]	n/a	catFR1	2	R1443D
1377.887	0.804	1380184	REC_WORD	23.923	n/a	GORILLA	Zoo	-999	11	[0, 0, 0]	n/a	catFR1	2	R1443D
1378.691	3.213	1380988	REC_WORD	24.727	n/a	ORANGUTAN	Zoo	-999	11	[0, 0, 0]	n/a	catFR1	2	R1443D
1381.904	2.284	1384201	REC_WORD	27.94	n/a	ORANGE	Fruit	-999	11	[0, 0, 0]	n/a	catFR1	2	R1443D
1384.188	2.626	1386484	REC_END	n/a	n/a	n/a	n/a	-999	11	[0, 0, 0]	n/a	catFR1	2	R1443D
1386.814	10.0	1389116	COUNTDOWN_START	n/a	n/a	n/a	n/a	-999	12	[0, 0, 0]	n/a	catFR1	2	R1443D
1397.165	0.0	1399459	COUNTDOWN_END	n/a	n/a	n/a	n/a	-999	12	[0, 0, 0]	n/a	catFR1	2	R1443D
1397.165	2.033	1399459	ENCODING_START	n/a	n/a	n/a	n/a	-999	12	[0, 0, 0]	n/a	catFR1	2	R1443D
1399.198	1.6	1401496	WORD	n/a	wordpools/wordpool_categorized_EN.txt	VALLEY	Landscapes	1	12	[0, 0, 0]	n/a	catFR1	2	R1443D
1400.815	0.983	1403110	WORD_OFF	n/a	n/a	VALLEY	Landscapes	1	12	[0, 0, 0]	n/a	catFR1	2	R1443D
1401.798	1.6	1404088	WORD	n/a	wordpools/wordpool_categorized_EN.txt	MOUNTAIN	Landscapes	2	12	[0, 0, 0]	n/a	catFR1	2	R1443D
1403.415	0.866	1405715	WORD_OFF	n/a	n/a	MOUNTAIN	Landscapes	2	12	[0, 0, 0]	n/a	catFR1	2	R1443D
1404.281	1.6	1406575	WORD	n/a	wordpools/wordpool_categorized_EN.txt	DUCK	Birds	3	12	[0, 0, 0]	n/a	catFR1	2	R1443D
1405.897	0.817	1408189	WORD_OFF	n/a	n/a	DUCK	Birds	3	12	[0, 0, 0]	n/a	catFR1	2	R1443D
1406.714	1.6	1409009	WORD	n/a	wordpools/wordpool_categorized_EN.txt	CROW	Birds	4	12	[0, 0, 0]	n/a	catFR1	2	R1443D
1408.315	1.0	1410609	WORD_OFF	n/a	n/a	CROW	Birds	4	12	[0, 0, 0]	n/a	catFR1	2	R1443D
1409.315	1.6	1411614	WORD	n/a	wordpools/wordpool_categorized_EN.txt	DRESSER	Furniture	5	12	[0, 0, 0]	n/a	catFR1	2	R1443D
1410.931	1.0	1413228	WORD_OFF	n/a	n/a	DRESSER	Furniture	5	12	[0, 0, 0]	n/a	catFR1	2	R1443D
1411.931	1.6	1414233	WORD	n/a	wordpools/wordpool_categorized_EN.txt	DESK	Furniture	6	12	[0, 0, 0]	n/a	catFR1	2	R1443D
1413.531	0.984	1415820	WORD_OFF	n/a	n/a	DESK	Furniture	6	12	[0, 0, 0]	n/a	catFR1	2	R1443D
1414.515	1.6	1416812	WORD	n/a	wordpools/wordpool_categorized_EN.txt	RIVER	Landscapes	7	12	[0, 0, 0]	n/a	catFR1	2	R1443D
1416.131	0.85	1418426	WORD_OFF	n/a	n/a	RIVER	Landscapes	7	12	[0, 0, 0]	n/a	catFR1	2	R1443D
1416.981	1.6	1419273	WORD	n/a	wordpools/wordpool_categorized_EN.txt	BEACH	Landscapes	8	12	[0, 0, 0]	n/a	catFR1	2	R1443D
1418.597	0.918	1420899	WORD_OFF	n/a	n/a	BEACH	Landscapes	8	12	[0, 0, 0]	n/a	catFR1	2	R1443D
1419.515	1.6	1421812	WORD	n/a	wordpools/wordpool_categorized_EN.txt	SOFA	Furniture	9	12	[0, 0, 0]	n/a	catFR1	2	R1443D
1421.115	0.933	1423412	WORD_OFF	n/a	n/a	SOFA	Furniture	9	12	[0, 0, 0]	n/a	catFR1	2	R1443D
1422.048	1.6	1424338	WORD	n/a	wordpools/wordpool_categorized_EN.txt	TABLE	Furniture	10	12	[0, 0, 0]	n/a	catFR1	2	R1443D
1423.665	0.866	1425965	WORD_OFF	n/a	n/a	TABLE	Furniture	10	12	[0, 0, 0]	n/a	catFR1	2	R1443D
1424.531	1.6	1426825	WORD	n/a	wordpools/wordpool_categorized_EN.txt	SEAGULL	Birds	11	12	[0, 0, 0]	n/a	catFR1	2	R1443D
1426.131	0.834	1428425	WORD_OFF	n/a	n/a	SEAGULL	Birds	11	12	[0, 0, 0]	n/a	catFR1	2	R1443D
1426.965	1.6	1429259	WORD	n/a	wordpools/wordpool_categorized_EN.txt	PIGEON	Birds	12	12	[0, 0, 0]	n/a	catFR1	2	R1443D
1428.581	0.002	1430872	WORD_OFF	n/a	n/a	PIGEON	Birds	12	12	[0, 0, 0]	n/a	catFR1	2	R1443D
1428.583	0.0	1430872	ENCODING_END	n/a	n/a	n/a	n/a	-999	12	[0, 0, 0]	n/a	catFR1	2	R1443D
1428.582	0.001	1430876	PROB	5.765	n/a	n/a	n/a	-999	12	[3, 2, 5]	10.0	catFR1	2	R1443D
1428.583	0.0	1430877	START	n/a	n/a	n/a	n/a	-999	12	[-999, -999, -999]	n/a	catFR1	2	R1443D
1428.583	5.782	1430886	DISTRACT_START	n/a	n/a	n/a	n/a	-999	12	[0, 0, 0]	n/a	catFR1	2	R1443D
1434.365	4.817	1436659	PROB	4.799	n/a	n/a	n/a	-999	12	[5, 3, 7]	15.0	catFR1	2	R1443D
1439.182	5.816	1441476	PROB	5.799	n/a	n/a	n/a	-999	12	[6, 7, 4]	17.0	catFR1	2	R1443D
1444.998	4.483	1447292	PROB	4.467	n/a	n/a	n/a	-999	12	[6, 5, 3]	14.0	catFR1	2	R1443D
1449.481	0.0	1451770	DISTRACT_END	n/a	n/a	n/a	n/a	-999	12	[0, 0, 0]	n/a	catFR1	2	R1443D
1449.481	2.2	1451774	STOP	n/a	n/a	n/a	n/a	-999	12	[-999, -999, -999]	n/a	catFR1	2	R1443D
1451.681	0.497	1453974	REC_START	n/a	n/a	n/a	n/a	-999	12	[0, 0, 0]	n/a	catFR1	2	R1443D
1452.178	0.802	1454471	REC_WORD	0.497	n/a	PIGEON	Birds	12	12	[0, 0, 0]	n/a	catFR1	2	R1443D
1452.98	1.0	1455273	REC_WORD	1.299	n/a	SEAGULL	Birds	11	12	[0, 0, 0]	n/a	catFR1	2	R1443D
1453.98	1.0	1456273	REC_WORD_VV	2.299	n/a	<>	n/a	-999	12	[0, 0, 0]	n/a	catFR1	2	R1443D
1454.98	0.472	1457273	REC_WORD_VV	3.299	n/a	<>	n/a	-999	12	[0, 0, 0]	n/a	catFR1	2	R1443D
1455.452	0.553	1457745	REC_WORD	3.771	n/a	RIVER	Landscapes	7	12	[0, 0, 0]	n/a	catFR1	2	R1443D
1456.005	0.946	1458298	REC_WORD	4.324	n/a	VALLEY	Landscapes	1	12	[0, 0, 0]	n/a	catFR1	2	R1443D
1456.951	2.489	1459244	REC_WORD	5.27	n/a	LAKE	Landscapes	-999	12	[0, 0, 0]	n/a	catFR1	2	R1443D
1459.44	0.842	1461733	REC_WORD	7.759	n/a	HILLS	Landscapes	-999	12	[0, 0, 0]	n/a	catFR1	2	R1443D
1460.282	1.981	1462575	REC_WORD	8.601	n/a	MOUNTAIN	Landscapes	2	12	[0, 0, 0]	n/a	catFR1	2	R1443D
1462.263	5.521	1464556	REC_WORD_VV	10.582	n/a	<>	n/a	-999	12	[0, 0, 0]	n/a	catFR1	2	R1443D
1467.784	1.0	1470076	REC_WORD_VV	16.103	n/a	<>	n/a	-999	12	[0, 0, 0]	n/a	catFR1	2	R1443D
1468.784	8.079	1471076	REC_WORD_VV	17.103	n/a	<>	n/a	-999	12	[0, 0, 0]	n/a	catFR1	2	R1443D
1476.863	1.537	1479155	REC_WORD	25.182	n/a	CANYON	n/a	-999	12	[0, 0, 0]	n/a	catFR1	2	R1443D
1478.4	0.687	1480692	REC_WORD	26.719	n/a	VALLEY	Landscapes	1	12	[0, 0, 0]	n/a	catFR1	2	R1443D
1479.087	2.075	1481379	REC_WORD	27.406	n/a	RIVER	Landscapes	7	12	[0, 0, 0]	n/a	catFR1	2	R1443D
1481.162	0.769	1483454	REC_WORD	29.481	n/a	LAKE	Landscapes	-999	12	[0, 0, 0]	n/a	catFR1	2	R1443D
1481.931	0.0	1484229	REC_END	n/a	n/a	n/a	n/a	-999	12	[0, 0, 0]	n/a	catFR1	2	R1443D
