onset	duration	sample	trial_type	response_time	stim_file	item_name	category	serialpos	list	test	answer	experiment	session	subject
0.0	13.499	1198	INSTRUCT_START	n/a	n/a	n/a	n/a	-999	-999	[0, 0, 0]	n/a	catFR1	1	R1364C
13.499	4.884	14696	INSTRUCT_END	n/a	n/a	n/a	n/a	-999	-999	[0, 0, 0]	n/a	catFR1	1	R1364C
18.383	17.638	19580	MIC TEST_START	n/a	n/a	n/a	n/a	-999	-999	[0, 0, 0]	n/a	catFR1	1	R1364C
36.021	0.014	37217	MIC TEST_END	n/a	n/a	n/a	n/a	-999	-999	[0, 0, 0]	n/a	catFR1	1	R1364C
36.035	0.0	37231	TRIAL_START	n/a	n/a	n/a	n/a	-999	-1	[0, 0, 0]	n/a	catFR1	1	R1364C
36.035	0.0	37231	TRIAL	n/a	n/a	n/a	n/a	-999	-1	[0, 0, 0]	n/a	catFR1	1	R1364C
36.035	4.669	37231	WAITING_START	n/a	n/a	n/a	n/a	-999	-1	[0, 0, 0]	n/a	catFR1	1	R1364C
40.704	0.0	41900	WAITING_END	n/a	n/a	n/a	n/a	-999	-1	[0, 0, 0]	n/a	catFR1	1	R1364C
40.704	10.43	41900	COUNTDOWN_START	n/a	n/a	n/a	n/a	-999	-1	[0, 0, 0]	n/a	catFR1	1	R1364C
51.134	0.0	52329	ORIENT_START	n/a	n/a	n/a	n/a	-999	-1	[0, 0, 0]	n/a	catFR1	1	R1364C
51.134	1.205	52329	COUNTDOWN_END	n/a	n/a	n/a	n/a	-999	-1	[0, 0, 0]	n/a	catFR1	1	R1364C
52.339	0.001	53534	ORIENT_END	n/a	n/a	n/a	n/a	-999	-1	[0, 0, 0]	n/a	catFR1	1	R1364C
52.34	0.766	53535	ENCODING_START	n/a	n/a	n/a	n/a	-999	-1	[0, 0, 0]	n/a	catFR1	1	R1364C
53.106	1.634	54301	WORD	n/a	n/a	PLUMBER	n/a	1	-1	[0, 0, 0]	n/a	catFR1	1	R1364C
54.74	1.057	55935	WORD_OFF	n/a	n/a	PLUMBER	n/a	1	-1	[0, 0, 0]	n/a	catFR1	1	R1364C
55.797	1.627	56992	WORD	n/a	n/a	FIREMAN	n/a	2	-1	[0, 0, 0]	n/a	catFR1	1	R1364C
57.424	0.947	58619	WORD_OFF	n/a	n/a	FIREMAN	n/a	2	-1	[0, 0, 0]	n/a	catFR1	1	R1364C
58.371	1.636	59566	WORD	n/a	n/a	SECOND	n/a	3	-1	[0, 0, 0]	n/a	catFR1	1	R1364C
60.007	0.819	61202	WORD_OFF	n/a	n/a	SECOND	n/a	3	-1	[0, 0, 0]	n/a	catFR1	1	R1364C
60.826	1.632	62021	WORD	n/a	n/a	MINUTE	n/a	4	-1	[0, 0, 0]	n/a	catFR1	1	R1364C
62.458	1.03	63653	WORD_OFF	n/a	n/a	MINUTE	n/a	4	-1	[0, 0, 0]	n/a	catFR1	1	R1364C
63.488	1.637	64683	WORD	n/a	n/a	FARMER	n/a	5	-1	[0, 0, 0]	n/a	catFR1	1	R1364C
65.125	0.802	66320	WORD_OFF	n/a	n/a	FARMER	n/a	5	-1	[0, 0, 0]	n/a	catFR1	1	R1364C
65.927	1.632	67122	WORD	n/a	n/a	WOOL	n/a	6	-1	[0, 0, 0]	n/a	catFR1	1	R1364C
67.559	1.0	68753	WORD_OFF	n/a	n/a	WOOL	n/a	6	-1	[0, 0, 0]	n/a	catFR1	1	R1364C
68.559	1.633	69753	WORD	n/a	n/a	SILK	n/a	7	-1	[0, 0, 0]	n/a	catFR1	1	R1364C
70.192	1.111	71386	WORD_OFF	n/a	n/a	SILK	n/a	7	-1	[0, 0, 0]	n/a	catFR1	1	R1364C
71.303	1.623	72497	WORD	n/a	n/a	DAY	n/a	8	-1	[0, 0, 0]	n/a	catFR1	1	R1364C
72.926	0.947	74120	WORD_OFF	n/a	n/a	DAY	n/a	8	-1	[0, 0, 0]	n/a	catFR1	1	R1364C
73.873	1.62	75067	WORD	n/a	n/a	LEATHER	n/a	9	-1	[0, 0, 0]	n/a	catFR1	1	R1364C
75.493	0.949	76687	WORD_OFF	n/a	n/a	LEATHER	n/a	9	-1	[0, 0, 0]	n/a	catFR1	1	R1364C
76.442	1.635	77636	WORD	n/a	n/a	HOUR	n/a	10	-1	[0, 0, 0]	n/a	catFR1	1	R1364C
78.077	0.768	79271	WORD_OFF	n/a	n/a	HOUR	n/a	10	-1	[0, 0, 0]	n/a	catFR1	1	R1364C
78.845	1.633	80039	WORD	n/a	n/a	DENIM	n/a	11	-1	[0, 0, 0]	n/a	catFR1	1	R1364C
80.478	1.025	81672	WORD_OFF	n/a	n/a	DENIM	n/a	11	-1	[0, 0, 0]	n/a	catFR1	1	R1364C
81.503	1.625	82697	WORD	n/a	n/a	TEACHER	n/a	12	-1	[0, 0, 0]	n/a	catFR1	1	R1364C
83.128	0.001	84322	WORD_OFF	n/a	n/a	TEACHER	n/a	12	-1	[0, 0, 0]	n/a	catFR1	1	R1364C
83.129	0.0	84323	ENCODING_END	n/a	n/a	n/a	n/a	-999	-1	[0, 0, 0]	n/a	catFR1	1	R1364C
83.129	0.001	84323	DISTRACT_START	n/a	n/a	n/a	n/a	-999	-1	[0, 0, 0]	n/a	catFR1	1	R1364C
83.13	0.015	84324	START	n/a	n/a	n/a	n/a	-999	-1	[-999, -999, -999]	n/a	catFR1	1	R1364C
83.145	5.451	84339	PROB	5.424	n/a	n/a	n/a	-999	-1	[5, 3, 7]	15.0	catFR1	1	R1364C
88.596	3.299	89789	PROB	3.268	n/a	n/a	n/a	-999	-1	[8, 2, 6]	16.0	catFR1	1	R1364C
91.895	2.885	93088	PROB	2.85	n/a	n/a	n/a	-999	-1	[3, 4, 1]	8.0	catFR1	1	R1364C
94.78	2.301	95973	PROB	2.269	n/a	n/a	n/a	-999	-1	[1, 4, 1]	6.0	catFR1	1	R1364C
97.081	2.517	98274	PROB	2.488	n/a	n/a	n/a	-999	-1	[1, 8, 7]	16.0	catFR1	1	R1364C
99.598	3.283	100791	PROB	3.259	n/a	n/a	n/a	-999	-1	[8, 5, 8]	21.0	catFR1	1	R1364C
102.881	5.175	104074	PROB	5.175	n/a	n/a	n/a	-999	-1	[4, 3, 2]	9.0	catFR1	1	R1364C
108.056	0.01	109248	STOP	n/a	n/a	n/a	n/a	-999	-1	[-999, -999, -999]	n/a	catFR1	1	R1364C
108.066	0.522	109258	DISTRACT_END	n/a	n/a	n/a	n/a	-999	-1	[0, 0, 0]	n/a	catFR1	1	R1364C
108.588	1.595	109780	RETRIEVAL_ORIENT_START	n/a	n/a	n/a	n/a	-999	-1	[0, 0, 0]	n/a	catFR1	1	R1364C
110.183	0.001	111375	RETRIEVAL_ORIENT_END	n/a	n/a	n/a	n/a	-999	-1	[0, 0, 0]	n/a	catFR1	1	R1364C
110.184	0.793	111376	REC_START	n/a	n/a	n/a	n/a	-999	-1	[0, 0, 0]	n/a	catFR1	1	R1364C
110.977	0.977	112169	REC_WORD	0.793	n/a	FARMER	n/a	5	-1	[0, 0, 0]	n/a	catFR1	1	R1364C
111.954	1.895	113146	REC_WORD	1.77	n/a	PLUMBER	n/a	1	-1	[0, 0, 0]	n/a	catFR1	1	R1364C
113.849	2.117	115041	REC_WORD	3.665	n/a	FIREMAN	n/a	2	-1	[0, 0, 0]	n/a	catFR1	1	R1364C
115.966	0.611	117158	REC_WORD	5.782	n/a	MINUTE	n/a	4	-1	[0, 0, 0]	n/a	catFR1	1	R1364C
116.577	2.568	117769	REC_WORD	6.393	n/a	HOUR	n/a	10	-1	[0, 0, 0]	n/a	catFR1	1	R1364C
119.145	1.678	120337	REC_WORD	8.961	n/a	SILK	n/a	7	-1	[0, 0, 0]	n/a	catFR1	1	R1364C
120.823	0.878	122015	REC_WORD	10.639	n/a	DENIM	n/a	11	-1	[0, 0, 0]	n/a	catFR1	1	R1364C
121.701	3.889	122893	REC_WORD	11.517	n/a	WOOL	n/a	6	-1	[0, 0, 0]	n/a	catFR1	1	R1364C
125.59	14.607	126782	REC_WORD	15.406	n/a	LEATHER	n/a	9	-1	[0, 0, 0]	n/a	catFR1	1	R1364C
140.197	0.0	141388	REC_END	n/a	n/a	n/a	n/a	-999	-1	[0, 0, 0]	n/a	catFR1	1	R1364C
140.197	9.693	141388	PRACTICE_POST_INSTRUCT_START	n/a	n/a	n/a	n/a	-999	-1	[0, 0, 0]	n/a	catFR1	1	R1364C
149.89	0.001	151080	PRACTICE_POST_INSTRUCT_END	n/a	n/a	n/a	n/a	-999	-1	[0, 0, 0]	n/a	catFR1	1	R1364C
149.891	0.026	151081	TRIAL_END	n/a	n/a	n/a	n/a	-999	-1	[0, 0, 0]	n/a	catFR1	1	R1364C
149.917	0.0	151107	TRIAL_START	n/a	n/a	n/a	n/a	-999	1	[0, 0, 0]	n/a	catFR1	1	R1364C
149.917	0.0	151107	TRIAL	n/a	n/a	n/a	n/a	-999	1	[0, 0, 0]	n/a	catFR1	1	R1364C
149.917	6.642	151107	WAITING_START	n/a	n/a	n/a	n/a	-999	1	[0, 0, 0]	n/a	catFR1	1	R1364C
156.559	0.0	157749	COUNTDOWN_START	n/a	n/a	n/a	n/a	-999	1	[0, 0, 0]	n/a	catFR1	1	R1364C
156.559	10.43	157749	WAITING_END	n/a	n/a	n/a	n/a	-999	1	[0, 0, 0]	n/a	catFR1	1	R1364C
166.989	0.0	168178	COUNTDOWN_END	n/a	n/a	n/a	n/a	-999	1	[0, 0, 0]	n/a	catFR1	1	R1364C
166.989	1.205	168178	ORIENT_START	n/a	n/a	n/a	n/a	-999	1	[0, 0, 0]	n/a	catFR1	1	R1364C
168.194	0.001	169383	ORIENT_END	n/a	n/a	n/a	n/a	-999	1	[0, 0, 0]	n/a	catFR1	1	R1364C
168.195	0.826	169384	ENCODING_START	n/a	n/a	n/a	n/a	-999	1	[0, 0, 0]	n/a	catFR1	1	R1364C
169.021	1.624	170210	WORD	n/a	wordpools/wordpool_categorized_EN.txt	WINDOW	Building	1	1	[0, 0, 0]	n/a	catFR1	1	R1364C
170.645	0.801	171834	WORD_OFF	n/a	n/a	WINDOW	Building	1	1	[0, 0, 0]	n/a	catFR1	1	R1364C
171.446	1.633	172635	WORD	n/a	wordpools/wordpool_categorized_EN.txt	HALLWAY	Building	2	1	[0, 0, 0]	n/a	catFR1	1	R1364C
173.079	0.846	174268	WORD_OFF	n/a	n/a	HALLWAY	Building	2	1	[0, 0, 0]	n/a	catFR1	1	R1364C
173.925	1.637	175114	WORD	n/a	wordpools/wordpool_categorized_EN.txt	STRAINER	KitchenTools	3	1	[0, 0, 0]	n/a	catFR1	1	R1364C
175.562	0.937	176751	WORD_OFF	n/a	n/a	STRAINER	KitchenTools	3	1	[0, 0, 0]	n/a	catFR1	1	R1364C
176.499	1.63	177688	WORD	n/a	wordpools/wordpool_categorized_EN.txt	SPATULA	KitchenTools	4	1	[0, 0, 0]	n/a	catFR1	1	R1364C
178.129	1.115	179318	WORD_OFF	n/a	n/a	SPATULA	KitchenTools	4	1	[0, 0, 0]	n/a	catFR1	1	R1364C
179.244	1.635	180433	WORD	n/a	wordpools/wordpool_categorized_EN.txt	RULER	OfficeSupplies	5	1	[0, 0, 0]	n/a	catFR1	1	R1364C
180.879	0.808	182068	WORD_OFF	n/a	n/a	RULER	OfficeSupplies	5	1	[0, 0, 0]	n/a	catFR1	1	R1364C
181.687	1.627	182876	WORD	n/a	wordpools/wordpool_categorized_EN.txt	GLUE	OfficeSupplies	6	1	[0, 0, 0]	n/a	catFR1	1	R1364C
183.314	0.904	184503	WORD_OFF	n/a	n/a	GLUE	OfficeSupplies	6	1	[0, 0, 0]	n/a	catFR1	1	R1364C
184.218	1.63	185407	WORD	n/a	wordpools/wordpool_categorized_EN.txt	KNIFE	KitchenTools	7	1	[0, 0, 0]	n/a	catFR1	1	R1364C
185.848	1.098	187036	WORD_OFF	n/a	n/a	KNIFE	KitchenTools	7	1	[0, 0, 0]	n/a	catFR1	1	R1364C
186.946	1.635	188134	WORD	n/a	wordpools/wordpool_categorized_EN.txt	LADLE	KitchenTools	8	1	[0, 0, 0]	n/a	catFR1	1	R1364C
188.581	0.933	189769	WORD_OFF	n/a	n/a	LADLE	KitchenTools	8	1	[0, 0, 0]	n/a	catFR1	1	R1364C
189.514	1.635	190702	WORD	n/a	wordpools/wordpool_categorized_EN.txt	PAPER	OfficeSupplies	9	1	[0, 0, 0]	n/a	catFR1	1	R1364C
191.149	0.867	192337	WORD_OFF	n/a	n/a	PAPER	OfficeSupplies	9	1	[0, 0, 0]	n/a	catFR1	1	R1364C
192.016	1.633	193204	WORD	n/a	wordpools/wordpool_categorized_EN.txt	TAPE	OfficeSupplies	10	1	[0, 0, 0]	n/a	catFR1	1	R1364C
193.649	0.898	194837	WORD_OFF	n/a	n/a	TAPE	OfficeSupplies	10	1	[0, 0, 0]	n/a	catFR1	1	R1364C
194.547	1.636	195735	WORD	n/a	wordpools/wordpool_categorized_EN.txt	CEILING	Building	11	1	[0, 0, 0]	n/a	catFR1	1	R1364C
196.183	1.129	197371	WORD_OFF	n/a	n/a	CEILING	Building	11	1	[0, 0, 0]	n/a	catFR1	1	R1364C
197.312	1.638	198500	WORD	n/a	wordpools/wordpool_categorized_EN.txt	FLOOR	Building	12	1	[0, 0, 0]	n/a	catFR1	1	R1364C
198.95	0.001	200138	WORD_OFF	n/a	n/a	FLOOR	Building	12	1	[0, 0, 0]	n/a	catFR1	1	R1364C
198.951	0.0	200139	ENCODING_END	n/a	n/a	n/a	n/a	-999	1	[0, 0, 0]	n/a	catFR1	1	R1364C
198.951	0.0	200139	DISTRACT_START	n/a	n/a	n/a	n/a	-999	1	[0, 0, 0]	n/a	catFR1	1	R1364C
198.951	0.015	200139	START	n/a	n/a	n/a	n/a	-999	1	[-999, -999, -999]	n/a	catFR1	1	R1364C
198.966	3.501	200154	PROB	3.474	n/a	n/a	n/a	-999	1	[9, 1, 2]	12.0	catFR1	1	R1364C
202.467	4.367	203655	PROB	4.333	n/a	n/a	n/a	-999	1	[8, 5, 7]	20.0	catFR1	1	R1364C
206.834	3.201	208021	PROB	3.173	n/a	n/a	n/a	-999	1	[6, 8, 7]	21.0	catFR1	1	R1364C
210.035	4.201	211222	PROB	4.173	n/a	n/a	n/a	-999	1	[7, 3, 6]	16.0	catFR1	1	R1364C
214.236	3.017	215423	PROB	2.987	n/a	n/a	n/a	-999	1	[7, 7, 7]	21.0	catFR1	1	R1364C
217.253	3.043	218440	PROB	3.043	n/a	n/a	n/a	-999	1	[9, 7, 2]	18.0	catFR1	1	R1364C
220.296	0.008	221483	STOP	n/a	n/a	n/a	n/a	-999	1	[-999, -999, -999]	n/a	catFR1	1	R1364C
220.304	0.655	221491	DISTRACT_END	n/a	n/a	n/a	n/a	-999	1	[0, 0, 0]	n/a	catFR1	1	R1364C
220.959	1.562	222146	RETRIEVAL_ORIENT_START	n/a	n/a	n/a	n/a	-999	1	[0, 0, 0]	n/a	catFR1	1	R1364C
222.521	0.0	223708	RETRIEVAL_ORIENT_END	n/a	n/a	n/a	n/a	-999	1	[0, 0, 0]	n/a	catFR1	1	R1364C
222.521	0.567	223708	REC_START	n/a	n/a	n/a	n/a	-999	1	[0, 0, 0]	n/a	catFR1	1	R1364C
223.088	1.136	224275	REC_WORD	0.567	n/a	CEILING	Building	11	1	[0, 0, 0]	n/a	catFR1	1	R1364C
224.224	2.68	225410	REC_WORD	1.703	n/a	HALLWAY	Building	2	1	[0, 0, 0]	n/a	catFR1	1	R1364C
226.904	1.048	228090	REC_WORD	4.383	n/a	WINDOWX	n/a	-999	1	[0, 0, 0]	n/a	catFR1	1	R1364C
227.952	2.218	229138	REC_WORD	5.431	n/a	FLOOR	Building	12	1	[0, 0, 0]	n/a	catFR1	1	R1364C
230.17	0.152	231356	REC_WORD	7.649	n/a	STRAINER	KitchenTools	3	1	[0, 0, 0]	n/a	catFR1	1	R1364C
230.322	3.256	231508	REC_WORD_VV	7.801	n/a	<>	n/a	-999	1	[0, 0, 0]	n/a	catFR1	1	R1364C
233.578	0.761	234764	REC_WORD	11.057	n/a	SPATULA	KitchenTools	4	1	[0, 0, 0]	n/a	catFR1	1	R1364C
234.339	1.227	235525	REC_WORD	11.818	n/a	LADLE	KitchenTools	8	1	[0, 0, 0]	n/a	catFR1	1	R1364C
235.566	3.62	236752	REC_WORD	13.045	n/a	KNIFE	KitchenTools	7	1	[0, 0, 0]	n/a	catFR1	1	R1364C
239.186	3.895	240372	REC_WORD	16.665	n/a	RULER	OfficeSupplies	5	1	[0, 0, 0]	n/a	catFR1	1	R1364C
243.081	2.895	244267	REC_WORD	20.56	n/a	PAPER	OfficeSupplies	9	1	[0, 0, 0]	n/a	catFR1	1	R1364C
245.976	3.953	247161	REC_WORD	23.455	n/a	GLUE	OfficeSupplies	6	1	[0, 0, 0]	n/a	catFR1	1	R1364C
249.929	2.606	251114	REC_WORD	27.408	n/a	TAPE	OfficeSupplies	10	1	[0, 0, 0]	n/a	catFR1	1	R1364C
252.535	0.0	253720	REC_END	n/a	n/a	n/a	n/a	-999	1	[0, 0, 0]	n/a	catFR1	1	R1364C
252.535	0.026	253720	TRIAL_END	n/a	n/a	n/a	n/a	-999	1	[0, 0, 0]	n/a	catFR1	1	R1364C
252.561	0.0	253746	WAITING_START	n/a	n/a	n/a	n/a	-999	2	[0, 0, 0]	n/a	catFR1	1	R1364C
252.561	0.0	253746	TRIAL	n/a	n/a	n/a	n/a	-999	2	[0, 0, 0]	n/a	catFR1	1	R1364C
252.561	2.365	253746	TRIAL_START	n/a	n/a	n/a	n/a	-999	2	[0, 0, 0]	n/a	catFR1	1	R1364C
254.926	0.001	256111	WAITING_END	n/a	n/a	n/a	n/a	-999	2	[0, 0, 0]	n/a	catFR1	1	R1364C
254.927	10.429	256112	COUNTDOWN_START	n/a	n/a	n/a	n/a	-999	2	[0, 0, 0]	n/a	catFR1	1	R1364C
265.356	0.0	266540	COUNTDOWN_END	n/a	n/a	n/a	n/a	-999	2	[0, 0, 0]	n/a	catFR1	1	R1364C
265.356	1.173	266540	ORIENT_START	n/a	n/a	n/a	n/a	-999	2	[0, 0, 0]	n/a	catFR1	1	R1364C
266.529	0.001	267713	ORIENT_END	n/a	n/a	n/a	n/a	-999	2	[0, 0, 0]	n/a	catFR1	1	R1364C
266.53	0.991	267714	ENCODING_START	n/a	n/a	n/a	n/a	-999	2	[0, 0, 0]	n/a	catFR1	1	R1364C
267.521	1.626	268705	WORD	n/a	wordpools/wordpool_categorized_EN.txt	GRATER	KitchenTools	1	2	[0, 0, 0]	n/a	catFR1	1	R1364C
269.147	1.02	270331	WORD_OFF	n/a	n/a	GRATER	KitchenTools	1	2	[0, 0, 0]	n/a	catFR1	1	R1364C
270.167	1.63	271351	WORD	n/a	wordpools/wordpool_categorized_EN.txt	COLANDER	KitchenTools	2	2	[0, 0, 0]	n/a	catFR1	1	R1364C
271.797	0.863	272981	WORD_OFF	n/a	n/a	COLANDER	KitchenTools	2	2	[0, 0, 0]	n/a	catFR1	1	R1364C
272.66	1.637	273844	WORD	n/a	wordpools/wordpool_categorized_EN.txt	NOTEBOOK	OfficeSupplies	3	2	[0, 0, 0]	n/a	catFR1	1	R1364C
274.297	0.864	275481	WORD_OFF	n/a	n/a	NOTEBOOK	OfficeSupplies	3	2	[0, 0, 0]	n/a	catFR1	1	R1364C
275.161	1.637	276345	WORD	n/a	wordpools/wordpool_categorized_EN.txt	STAPLER	OfficeSupplies	4	2	[0, 0, 0]	n/a	catFR1	1	R1364C
276.798	1.002	277982	WORD_OFF	n/a	n/a	STAPLER	OfficeSupplies	4	2	[0, 0, 0]	n/a	catFR1	1	R1364C
277.8	1.632	278984	WORD	n/a	wordpools/wordpool_categorized_EN.txt	TIGER	Zoo	5	2	[0, 0, 0]	n/a	catFR1	1	R1364C
279.432	0.901	280616	WORD_OFF	n/a	n/a	TIGER	Zoo	5	2	[0, 0, 0]	n/a	catFR1	1	R1364C
280.333	1.633	281517	WORD	n/a	wordpools/wordpool_categorized_EN.txt	GIRAFFE	Zoo	6	2	[0, 0, 0]	n/a	catFR1	1	R1364C
281.966	0.826	283150	WORD_OFF	n/a	n/a	GIRAFFE	Zoo	6	2	[0, 0, 0]	n/a	catFR1	1	R1364C
282.792	1.624	283975	WORD	n/a	wordpools/wordpool_categorized_EN.txt	ERASER	OfficeSupplies	7	2	[0, 0, 0]	n/a	catFR1	1	R1364C
284.416	0.83	285599	WORD_OFF	n/a	n/a	ERASER	OfficeSupplies	7	2	[0, 0, 0]	n/a	catFR1	1	R1364C
285.246	1.636	286429	WORD	n/a	wordpools/wordpool_categorized_EN.txt	BINDER	OfficeSupplies	8	2	[0, 0, 0]	n/a	catFR1	1	R1364C
286.882	0.932	288065	WORD_OFF	n/a	n/a	BINDER	OfficeSupplies	8	2	[0, 0, 0]	n/a	catFR1	1	R1364C
287.814	1.636	288997	WORD	n/a	wordpools/wordpool_categorized_EN.txt	LION	Zoo	9	2	[0, 0, 0]	n/a	catFR1	1	R1364C
289.45	1.046	290633	WORD_OFF	n/a	n/a	LION	Zoo	9	2	[0, 0, 0]	n/a	catFR1	1	R1364C
290.496	1.638	291679	WORD	n/a	wordpools/wordpool_categorized_EN.txt	ORANGUTAN	Zoo	10	2	[0, 0, 0]	n/a	catFR1	1	R1364C
292.134	1.098	293317	WORD_OFF	n/a	n/a	ORANGUTAN	Zoo	10	2	[0, 0, 0]	n/a	catFR1	1	R1364C
293.232	1.635	294415	WORD	n/a	wordpools/wordpool_categorized_EN.txt	WHISK	KitchenTools	11	2	[0, 0, 0]	n/a	catFR1	1	R1364C
294.867	0.855	296050	WORD_OFF	n/a	n/a	WHISK	KitchenTools	11	2	[0, 0, 0]	n/a	catFR1	1	R1364C
295.722	1.63	296905	WORD	n/a	wordpools/wordpool_categorized_EN.txt	TONGS	KitchenTools	12	2	[0, 0, 0]	n/a	catFR1	1	R1364C
297.352	0.0	298535	DISTRACT_START	n/a	n/a	n/a	n/a	-999	2	[0, 0, 0]	n/a	catFR1	1	R1364C
297.352	0.0	298535	WORD_OFF	n/a	n/a	TONGS	KitchenTools	12	2	[0, 0, 0]	n/a	catFR1	1	R1364C
297.352	0.001	298535	ENCODING_END	n/a	n/a	n/a	n/a	-999	2	[0, 0, 0]	n/a	catFR1	1	R1364C
297.353	0.015	298536	START	n/a	n/a	n/a	n/a	-999	2	[-999, -999, -999]	n/a	catFR1	1	R1364C
297.368	4.051	298551	PROB	4.02	n/a	n/a	n/a	-999	2	[1, 4, 2]	7.0	catFR1	1	R1364C
301.419	2.834	302602	PROB	2.81	n/a	n/a	n/a	-999	2	[3, 1, 5]	9.0	catFR1	1	R1364C
304.253	8.035	305435	PROB	7.998	n/a	n/a	n/a	-999	2	[6, 7, 4]	17.0	catFR1	1	R1364C
312.288	4.25	313470	PROB	4.219	n/a	n/a	n/a	-999	2	[9, 9, 1]	19.0	catFR1	1	R1364C
316.538	6.017	317720	PROB	6.017	n/a	n/a	n/a	-999	2	[1, 3, 8]	12.0	catFR1	1	R1364C
322.555	0.018	323736	STOP	n/a	n/a	n/a	n/a	-999	2	[-999, -999, -999]	n/a	catFR1	1	R1364C
322.573	0.643	323754	DISTRACT_END	n/a	n/a	n/a	n/a	-999	2	[0, 0, 0]	n/a	catFR1	1	R1364C
323.216	1.69	324397	RETRIEVAL_ORIENT_START	n/a	n/a	n/a	n/a	-999	2	[0, 0, 0]	n/a	catFR1	1	R1364C
324.906	0.0	326087	RETRIEVAL_ORIENT_END	n/a	n/a	n/a	n/a	-999	2	[0, 0, 0]	n/a	catFR1	1	R1364C
324.906	2.037	326087	REC_START	n/a	n/a	n/a	n/a	-999	2	[0, 0, 0]	n/a	catFR1	1	R1364C
326.943	3.17	328124	REC_WORD_VV	2.037	n/a	<>	n/a	-999	2	[0, 0, 0]	n/a	catFR1	1	R1364C
330.113	1.11	331294	REC_WORD	5.207	n/a	ORANGUTAN	Zoo	10	2	[0, 0, 0]	n/a	catFR1	1	R1364C
331.223	0.784	332404	REC_WORD	6.317	n/a	LION	Zoo	9	2	[0, 0, 0]	n/a	catFR1	1	R1364C
332.007	4.973	333188	REC_WORD	7.101	n/a	GIRAFFE	Zoo	6	2	[0, 0, 0]	n/a	catFR1	1	R1364C
336.98	5.182	338161	REC_WORD	12.074	n/a	WHISK	KitchenTools	11	2	[0, 0, 0]	n/a	catFR1	1	R1364C
342.162	2.731	343342	REC_WORD	17.256	n/a	COLANDER	KitchenTools	2	2	[0, 0, 0]	n/a	catFR1	1	R1364C
344.893	0.921	346073	REC_WORD	19.987	n/a	STAPLER	OfficeSupplies	4	2	[0, 0, 0]	n/a	catFR1	1	R1364C
345.814	0.637	346994	REC_WORD	20.908	n/a	BINDER	OfficeSupplies	8	2	[0, 0, 0]	n/a	catFR1	1	R1364C
346.451	8.469	347631	REC_WORD	21.545	n/a	NOTEBOOK	OfficeSupplies	3	2	[0, 0, 0]	n/a	catFR1	1	R1364C
354.92	0.0	356100	REC_END	n/a	n/a	n/a	n/a	-999	2	[0, 0, 0]	n/a	catFR1	1	R1364C
354.92	0.023	356100	TRIAL_END	n/a	n/a	n/a	n/a	-999	2	[0, 0, 0]	n/a	catFR1	1	R1364C
354.943	0.0	356123	TRIAL	n/a	n/a	n/a	n/a	-999	3	[0, 0, 0]	n/a	catFR1	1	R1364C
354.943	0.0	356123	TRIAL_START	n/a	n/a	n/a	n/a	-999	3	[0, 0, 0]	n/a	catFR1	1	R1364C
354.943	2.703	356123	WAITING_START	n/a	n/a	n/a	n/a	-999	3	[0, 0, 0]	n/a	catFR1	1	R1364C
357.646	0.001	358826	WAITING_END	n/a	n/a	n/a	n/a	-999	3	[0, 0, 0]	n/a	catFR1	1	R1364C
357.647	10.429	358827	COUNTDOWN_START	n/a	n/a	n/a	n/a	-999	3	[0, 0, 0]	n/a	catFR1	1	R1364C
368.076	0.001	369255	COUNTDOWN_END	n/a	n/a	n/a	n/a	-999	3	[0, 0, 0]	n/a	catFR1	1	R1364C
368.077	1.072	369256	ORIENT_START	n/a	n/a	n/a	n/a	-999	3	[0, 0, 0]	n/a	catFR1	1	R1364C
369.149	0.0	370328	ORIENT_END	n/a	n/a	n/a	n/a	-999	3	[0, 0, 0]	n/a	catFR1	1	R1364C
369.149	1.116	370328	ENCODING_START	n/a	n/a	n/a	n/a	-999	3	[0, 0, 0]	n/a	catFR1	1	R1364C
370.265	1.633	371444	WORD	n/a	wordpools/wordpool_categorized_EN.txt	PIG	FarmAnimals	1	3	[0, 0, 0]	n/a	catFR1	1	R1364C
371.898	1.095	373077	WORD_OFF	n/a	n/a	PIG	FarmAnimals	1	3	[0, 0, 0]	n/a	catFR1	1	R1364C
372.993	1.623	374172	WORD	n/a	wordpools/wordpool_categorized_EN.txt	LAMB	FarmAnimals	2	3	[0, 0, 0]	n/a	catFR1	1	R1364C
374.616	1.147	375795	WORD_OFF	n/a	n/a	LAMB	FarmAnimals	2	3	[0, 0, 0]	n/a	catFR1	1	R1364C
375.763	1.637	376942	WORD	n/a	wordpools/wordpool_categorized_EN.txt	CRICKET	Insects	3	3	[0, 0, 0]	n/a	catFR1	1	R1364C
377.4	1.138	378579	WORD_OFF	n/a	n/a	CRICKET	Insects	3	3	[0, 0, 0]	n/a	catFR1	1	R1364C
378.538	1.629	379717	WORD	n/a	wordpools/wordpool_categorized_EN.txt	BEETLE	Insects	4	3	[0, 0, 0]	n/a	catFR1	1	R1364C
380.167	0.974	381346	WORD_OFF	n/a	n/a	BEETLE	Insects	4	3	[0, 0, 0]	n/a	catFR1	1	R1364C
381.141	1.627	382319	WORD	n/a	wordpools/wordpool_categorized_EN.txt	ORGAN	Instruments	5	3	[0, 0, 0]	n/a	catFR1	1	R1364C
382.768	0.945	383946	WORD_OFF	n/a	n/a	ORGAN	Instruments	5	3	[0, 0, 0]	n/a	catFR1	1	R1364C
383.713	1.639	384891	WORD	n/a	wordpools/wordpool_categorized_EN.txt	BASS	Instruments	6	3	[0, 0, 0]	n/a	catFR1	1	R1364C
385.352	0.767	386530	WORD_OFF	n/a	n/a	BASS	Instruments	6	3	[0, 0, 0]	n/a	catFR1	1	R1364C
386.119	1.633	387297	WORD	n/a	wordpools/wordpool_categorized_EN.txt	COW	FarmAnimals	7	3	[0, 0, 0]	n/a	catFR1	1	R1364C
387.752	1.069	388930	WORD_OFF	n/a	n/a	COW	FarmAnimals	7	3	[0, 0, 0]	n/a	catFR1	1	R1364C
388.821	1.632	389999	WORD	n/a	wordpools/wordpool_categorized_EN.txt	TURKEY	FarmAnimals	8	3	[0, 0, 0]	n/a	catFR1	1	R1364C
390.453	1.12	391631	WORD_OFF	n/a	n/a	TURKEY	FarmAnimals	8	3	[0, 0, 0]	n/a	catFR1	1	R1364C
391.573	1.63	392751	WORD	n/a	wordpools/wordpool_categorized_EN.txt	FLY	Insects	9	3	[0, 0, 0]	n/a	catFR1	1	R1364C
393.203	1.138	394381	WORD_OFF	n/a	n/a	FLY	Insects	9	3	[0, 0, 0]	n/a	catFR1	1	R1364C
394.341	1.629	395519	WORD	n/a	wordpools/wordpool_categorized_EN.txt	BUTTERFLY	Insects	10	3	[0, 0, 0]	n/a	catFR1	1	R1364C
395.97	0.777	397148	WORD_OFF	n/a	n/a	BUTTERFLY	Insects	10	3	[0, 0, 0]	n/a	catFR1	1	R1364C
396.747	1.624	397925	WORD	n/a	wordpools/wordpool_categorized_EN.txt	GUITAR	Instruments	11	3	[0, 0, 0]	n/a	catFR1	1	R1364C
398.371	0.922	399549	WORD_OFF	n/a	n/a	GUITAR	Instruments	11	3	[0, 0, 0]	n/a	catFR1	1	R1364C
399.293	1.627	400471	WORD	n/a	wordpools/wordpool_categorized_EN.txt	FLUTE	Instruments	12	3	[0, 0, 0]	n/a	catFR1	1	R1364C
400.92	0.001	402097	WORD_OFF	n/a	n/a	FLUTE	Instruments	12	3	[0, 0, 0]	n/a	catFR1	1	R1364C
400.921	0.0	402098	DISTRACT_START	n/a	n/a	n/a	n/a	-999	3	[0, 0, 0]	n/a	catFR1	1	R1364C
400.921	0.0	402098	ENCODING_END	n/a	n/a	n/a	n/a	-999	3	[0, 0, 0]	n/a	catFR1	1	R1364C
400.921	0.015	402098	START	n/a	n/a	n/a	n/a	-999	3	[-999, -999, -999]	n/a	catFR1	1	R1364C
400.936	5.786	402113	PROB	5.748	n/a	n/a	n/a	-999	3	[1, 7, 6]	14.0	catFR1	1	R1364C
406.722	3.567	407899	PROB	3.538	n/a	n/a	n/a	-999	3	[6, 5, 2]	13.0	catFR1	1	R1364C
410.289	6.668	411466	PROB	6.638	n/a	n/a	n/a	-999	3	[8, 5, 3]	16.0	catFR1	1	R1364C
416.957	1.884	418134	PROB	1.851	n/a	n/a	n/a	-999	3	[5, 5, 2]	12.0	catFR1	1	R1364C
418.841	2.863	420018	PROB	2.863	n/a	n/a	n/a	-999	3	[1, 9, 9]	19.0	catFR1	1	R1364C
421.704	0.021	422880	STOP	n/a	n/a	n/a	n/a	-999	3	[-999, -999, -999]	n/a	catFR1	1	R1364C
421.725	0.592	422901	DISTRACT_END	n/a	n/a	n/a	n/a	-999	3	[0, 0, 0]	n/a	catFR1	1	R1364C
422.317	1.591	423493	RETRIEVAL_ORIENT_START	n/a	n/a	n/a	n/a	-999	3	[0, 0, 0]	n/a	catFR1	1	R1364C
423.908	0.0	425084	RETRIEVAL_ORIENT_END	n/a	n/a	n/a	n/a	-999	3	[0, 0, 0]	n/a	catFR1	1	R1364C
423.908	1.312	425084	REC_START	n/a	n/a	n/a	n/a	-999	3	[0, 0, 0]	n/a	catFR1	1	R1364C
425.22	0.65	426396	REC_WORD	1.312	n/a	GUITAR	Instruments	11	3	[0, 0, 0]	n/a	catFR1	1	R1364C
425.87	2.28	427046	REC_WORD	1.962	n/a	FLUTE	Instruments	12	3	[0, 0, 0]	n/a	catFR1	1	R1364C
428.15	3.359	429326	REC_WORD	4.242	n/a	CRICKET	Insects	3	3	[0, 0, 0]	n/a	catFR1	1	R1364C
431.509	4.551	432685	REC_WORD	7.601	n/a	FLY	Insects	9	3	[0, 0, 0]	n/a	catFR1	1	R1364C
436.06	0.836	437236	REC_WORD	12.152	n/a	PIG	FarmAnimals	1	3	[0, 0, 0]	n/a	catFR1	1	R1364C
436.896	1.394	438072	REC_WORD	12.988	n/a	TURKEY	FarmAnimals	8	3	[0, 0, 0]	n/a	catFR1	1	R1364C
438.29	1.227	439466	REC_WORD	14.382	n/a	LAMB	FarmAnimals	2	3	[0, 0, 0]	n/a	catFR1	1	R1364C
439.517	2.787	440693	REC_WORD	15.609	n/a	COW	FarmAnimals	7	3	[0, 0, 0]	n/a	catFR1	1	R1364C
442.304	11.617	443479	REC_WORD	18.396	n/a	ORGAN	Instruments	5	3	[0, 0, 0]	n/a	catFR1	1	R1364C
453.921	0.0	455096	REC_END	n/a	n/a	n/a	n/a	-999	3	[0, 0, 0]	n/a	catFR1	1	R1364C
453.921	0.023	455096	TRIAL_END	n/a	n/a	n/a	n/a	-999	3	[0, 0, 0]	n/a	catFR1	1	R1364C
453.944	0.0	455119	TRIAL_START	n/a	n/a	n/a	n/a	-999	4	[0, 0, 0]	n/a	catFR1	1	R1364C
453.944	0.0	455119	TRIAL	n/a	n/a	n/a	n/a	-999	4	[0, 0, 0]	n/a	catFR1	1	R1364C
453.944	2.254	455119	WAITING_START	n/a	n/a	n/a	n/a	-999	4	[0, 0, 0]	n/a	catFR1	1	R1364C
456.198	0.001	457373	WAITING_END	n/a	n/a	n/a	n/a	-999	4	[0, 0, 0]	n/a	catFR1	1	R1364C
456.199	10.429	457374	COUNTDOWN_START	n/a	n/a	n/a	n/a	-999	4	[0, 0, 0]	n/a	catFR1	1	R1364C
466.628	0.0	467802	COUNTDOWN_END	n/a	n/a	n/a	n/a	-999	4	[0, 0, 0]	n/a	catFR1	1	R1364C
466.628	1.255	467802	ORIENT_START	n/a	n/a	n/a	n/a	-999	4	[0, 0, 0]	n/a	catFR1	1	R1364C
467.883	0.0	469057	ORIENT_END	n/a	n/a	n/a	n/a	-999	4	[0, 0, 0]	n/a	catFR1	1	R1364C
467.883	1.112	469057	ENCODING_START	n/a	n/a	n/a	n/a	-999	4	[0, 0, 0]	n/a	catFR1	1	R1364C
468.995	1.623	470169	WORD	n/a	wordpools/wordpool_categorized_EN.txt	GNAT	Insects	1	4	[0, 0, 0]	n/a	catFR1	1	R1364C
470.618	0.904	471792	WORD_OFF	n/a	n/a	GNAT	Insects	1	4	[0, 0, 0]	n/a	catFR1	1	R1364C
471.522	1.629	472696	WORD	n/a	wordpools/wordpool_categorized_EN.txt	BEE	Insects	2	4	[0, 0, 0]	n/a	catFR1	1	R1364C
473.151	0.795	474325	WORD_OFF	n/a	n/a	BEE	Insects	2	4	[0, 0, 0]	n/a	catFR1	1	R1364C
473.946	1.623	475120	WORD	n/a	wordpools/wordpool_categorized_EN.txt	TUBA	Instruments	3	4	[0, 0, 0]	n/a	catFR1	1	R1364C
475.569	0.972	476743	WORD_OFF	n/a	n/a	TUBA	Instruments	3	4	[0, 0, 0]	n/a	catFR1	1	R1364C
476.541	1.628	477715	WORD	n/a	wordpools/wordpool_categorized_EN.txt	VIOLIN	Instruments	4	4	[0, 0, 0]	n/a	catFR1	1	R1364C
478.169	0.78	479343	WORD_OFF	n/a	n/a	VIOLIN	Instruments	4	4	[0, 0, 0]	n/a	catFR1	1	R1364C
478.949	1.637	480122	WORD	n/a	wordpools/wordpool_categorized_EN.txt	CABBAGE	Vegetables	5	4	[0, 0, 0]	n/a	catFR1	1	R1364C
480.586	0.882	481759	WORD_OFF	n/a	n/a	CABBAGE	Vegetables	5	4	[0, 0, 0]	n/a	catFR1	1	R1364C
481.468	1.635	482641	WORD	n/a	wordpools/wordpool_categorized_EN.txt	CELERY	Vegetables	6	4	[0, 0, 0]	n/a	catFR1	1	R1364C
483.103	1.134	484276	WORD_OFF	n/a	n/a	CELERY	Vegetables	6	4	[0, 0, 0]	n/a	catFR1	1	R1364C
484.237	1.632	485410	WORD	n/a	wordpools/wordpool_categorized_EN.txt	MOSQUITO	Insects	7	4	[0, 0, 0]	n/a	catFR1	1	R1364C
485.869	1.127	487042	WORD_OFF	n/a	n/a	MOSQUITO	Insects	7	4	[0, 0, 0]	n/a	catFR1	1	R1364C
486.996	1.625	488169	WORD	n/a	wordpools/wordpool_categorized_EN.txt	LADYBUG	Insects	8	4	[0, 0, 0]	n/a	catFR1	1	R1364C
488.621	0.885	489794	WORD_OFF	n/a	n/a	LADYBUG	Insects	8	4	[0, 0, 0]	n/a	catFR1	1	R1364C
489.506	1.632	490679	WORD	n/a	wordpools/wordpool_categorized_EN.txt	PEAS	Vegetables	9	4	[0, 0, 0]	n/a	catFR1	1	R1364C
491.138	0.939	492311	WORD_OFF	n/a	n/a	PEAS	Vegetables	9	4	[0, 0, 0]	n/a	catFR1	1	R1364C
492.077	1.628	493250	WORD	n/a	wordpools/wordpool_categorized_EN.txt	CARROT	Vegetables	10	4	[0, 0, 0]	n/a	catFR1	1	R1364C
493.705	0.925	494878	WORD_OFF	n/a	n/a	CARROT	Vegetables	10	4	[0, 0, 0]	n/a	catFR1	1	R1364C
494.63	1.626	495803	WORD	n/a	wordpools/wordpool_categorized_EN.txt	DRUM	Instruments	11	4	[0, 0, 0]	n/a	catFR1	1	R1364C
496.256	0.809	497429	WORD_OFF	n/a	n/a	DRUM	Instruments	11	4	[0, 0, 0]	n/a	catFR1	1	R1364C
497.065	1.625	498238	WORD	n/a	wordpools/wordpool_categorized_EN.txt	CELLO	Instruments	12	4	[0, 0, 0]	n/a	catFR1	1	R1364C
498.69	0.0	499862	WORD_OFF	n/a	n/a	CELLO	Instruments	12	4	[0, 0, 0]	n/a	catFR1	1	R1364C
498.69	0.0	499862	ENCODING_END	n/a	n/a	n/a	n/a	-999	4	[0, 0, 0]	n/a	catFR1	1	R1364C
498.69	0.001	499862	DISTRACT_START	n/a	n/a	n/a	n/a	-999	4	[0, 0, 0]	n/a	catFR1	1	R1364C
498.691	0.015	499863	START	n/a	n/a	n/a	n/a	-999	4	[-999, -999, -999]	n/a	catFR1	1	R1364C
498.706	5.851	499878	PROB	5.817	n/a	n/a	n/a	-999	4	[1, 2, 6]	9.0	catFR1	1	R1364C
504.557	8.485	505729	PROB	8.448	n/a	n/a	n/a	-999	4	[7, 9, 2]	18.0	catFR1	1	R1364C
513.042	6.22	514214	PROB	6.22	n/a	n/a	n/a	-999	4	[5, 7, 3]	15.0	catFR1	1	R1364C
519.262	0.015	520433	STOP	n/a	n/a	n/a	n/a	-999	4	[-999, -999, -999]	n/a	catFR1	1	R1364C
519.277	0.546	520448	DISTRACT_END	n/a	n/a	n/a	n/a	-999	4	[0, 0, 0]	n/a	catFR1	1	R1364C
519.823	1.538	520994	RETRIEVAL_ORIENT_START	n/a	n/a	n/a	n/a	-999	4	[0, 0, 0]	n/a	catFR1	1	R1364C
521.361	0.001	522532	RETRIEVAL_ORIENT_END	n/a	n/a	n/a	n/a	-999	4	[0, 0, 0]	n/a	catFR1	1	R1364C
521.362	2.762	522533	REC_START	n/a	n/a	n/a	n/a	-999	4	[0, 0, 0]	n/a	catFR1	1	R1364C
524.124	3.369	525295	REC_WORD	2.762	n/a	DRUM	Instruments	11	4	[0, 0, 0]	n/a	catFR1	1	R1364C
527.493	3.168	528664	REC_WORD	6.131	n/a	VIOLIN	Instruments	4	4	[0, 0, 0]	n/a	catFR1	1	R1364C
530.661	3.567	531832	REC_WORD	9.299	n/a	GUITAR	Instruments	-999	4	[0, 0, 0]	n/a	catFR1	1	R1364C
534.228	2.209	535399	REC_WORD	12.866	n/a	GUITARFLUTEVIOLIN	n/a	-999	4	[0, 0, 0]	n/a	catFR1	1	R1364C
536.437	1.221	537608	REC_WORD	15.075	n/a	CABBAGE	Vegetables	5	4	[0, 0, 0]	n/a	catFR1	1	R1364C
537.658	4.411	538828	REC_WORD	16.296	n/a	PEAS	Vegetables	9	4	[0, 0, 0]	n/a	catFR1	1	R1364C
542.069	1.193	543239	REC_WORD	20.707	n/a	GNAT	Insects	1	4	[0, 0, 0]	n/a	catFR1	1	R1364C
543.262	0.669	544432	REC_WORD	21.9	n/a	BEE	Insects	2	4	[0, 0, 0]	n/a	catFR1	1	R1364C
543.931	7.441	545101	REC_WORD	22.569	n/a	MOSQUITO	Insects	7	4	[0, 0, 0]	n/a	catFR1	1	R1364C
551.372	0.001	552542	REC_END	n/a	n/a	n/a	n/a	-999	4	[0, 0, 0]	n/a	catFR1	1	R1364C
551.373	0.022	552543	TRIAL_END	n/a	n/a	n/a	n/a	-999	4	[0, 0, 0]	n/a	catFR1	1	R1364C
551.395	0.0	552565	TRIAL_START	n/a	n/a	n/a	n/a	-999	5	[0, 0, 0]	n/a	catFR1	1	R1364C
551.395	0.001	552565	TRIAL	n/a	n/a	n/a	n/a	-999	5	[0, 0, 0]	n/a	catFR1	1	R1364C
551.396	2.704	552566	WAITING_START	n/a	n/a	n/a	n/a	-999	5	[0, 0, 0]	n/a	catFR1	1	R1364C
554.1	0.0	555270	WAITING_END	n/a	n/a	n/a	n/a	-999	5	[0, 0, 0]	n/a	catFR1	1	R1364C
554.1	10.428	555270	COUNTDOWN_START	n/a	n/a	n/a	n/a	-999	5	[0, 0, 0]	n/a	catFR1	1	R1364C
564.528	0.001	565697	COUNTDOWN_END	n/a	n/a	n/a	n/a	-999	5	[0, 0, 0]	n/a	catFR1	1	R1364C
564.529	1.056	565698	ORIENT_START	n/a	n/a	n/a	n/a	-999	5	[0, 0, 0]	n/a	catFR1	1	R1364C
565.585	0.001	566754	ORIENT_END	n/a	n/a	n/a	n/a	-999	5	[0, 0, 0]	n/a	catFR1	1	R1364C
565.586	0.777	566755	ENCODING_START	n/a	n/a	n/a	n/a	-999	5	[0, 0, 0]	n/a	catFR1	1	R1364C
566.363	1.639	567532	WORD	n/a	wordpools/wordpool_categorized_EN.txt	DISHWASHER	Appliances	1	5	[0, 0, 0]	n/a	catFR1	1	R1364C
568.002	1.103	569171	WORD_OFF	n/a	n/a	DISHWASHER	Appliances	1	5	[0, 0, 0]	n/a	catFR1	1	R1364C
569.105	1.631	570274	WORD	n/a	wordpools/wordpool_categorized_EN.txt	WASHER	Appliances	2	5	[0, 0, 0]	n/a	catFR1	1	R1364C
570.736	0.956	571905	WORD_OFF	n/a	n/a	WASHER	Appliances	2	5	[0, 0, 0]	n/a	catFR1	1	R1364C
571.692	1.628	572861	WORD	n/a	wordpools/wordpool_categorized_EN.txt	NOSE	BodyParts	3	5	[0, 0, 0]	n/a	catFR1	1	R1364C
573.32	1.113	574489	WORD_OFF	n/a	n/a	NOSE	BodyParts	3	5	[0, 0, 0]	n/a	catFR1	1	R1364C
574.433	1.638	575602	WORD	n/a	wordpools/wordpool_categorized_EN.txt	TOE	BodyParts	4	5	[0, 0, 0]	n/a	catFR1	1	R1364C
576.071	1.133	577240	WORD_OFF	n/a	n/a	TOE	BodyParts	4	5	[0, 0, 0]	n/a	catFR1	1	R1364C
577.204	1.634	578372	WORD	n/a	wordpools/wordpool_categorized_EN.txt	PEELER	KitchenTools	5	5	[0, 0, 0]	n/a	catFR1	1	R1364C
578.838	0.985	580006	WORD_OFF	n/a	n/a	PEELER	KitchenTools	5	5	[0, 0, 0]	n/a	catFR1	1	R1364C
579.823	1.633	580991	WORD	n/a	wordpools/wordpool_categorized_EN.txt	FORK	KitchenTools	6	5	[0, 0, 0]	n/a	catFR1	1	R1364C
581.456	0.755	582624	WORD_OFF	n/a	n/a	FORK	KitchenTools	6	5	[0, 0, 0]	n/a	catFR1	1	R1364C
582.211	1.628	583379	WORD	n/a	wordpools/wordpool_categorized_EN.txt	OVEN	Appliances	7	5	[0, 0, 0]	n/a	catFR1	1	R1364C
583.839	1.087	585007	WORD_OFF	n/a	n/a	OVEN	Appliances	7	5	[0, 0, 0]	n/a	catFR1	1	R1364C
584.926	1.63	586094	WORD	n/a	wordpools/wordpool_categorized_EN.txt	TOASTER	Appliances	8	5	[0, 0, 0]	n/a	catFR1	1	R1364C
586.556	1.075	587724	WORD_OFF	n/a	n/a	TOASTER	Appliances	8	5	[0, 0, 0]	n/a	catFR1	1	R1364C
587.631	1.626	588799	WORD	n/a	wordpools/wordpool_categorized_EN.txt	FINGERS	BodyParts	9	5	[0, 0, 0]	n/a	catFR1	1	R1364C
589.257	0.95	590425	WORD_OFF	n/a	n/a	FINGERS	BodyParts	9	5	[0, 0, 0]	n/a	catFR1	1	R1364C
590.207	1.633	591375	WORD	n/a	wordpools/wordpool_categorized_EN.txt	ELBOW	BodyParts	10	5	[0, 0, 0]	n/a	catFR1	1	R1364C
591.84	1.141	593008	WORD_OFF	n/a	n/a	ELBOW	BodyParts	10	5	[0, 0, 0]	n/a	catFR1	1	R1364C
592.981	1.627	594149	WORD	n/a	wordpools/wordpool_categorized_EN.txt	CORKSCREW	KitchenTools	11	5	[0, 0, 0]	n/a	catFR1	1	R1364C
594.608	1.069	595776	WORD_OFF	n/a	n/a	CORKSCREW	KitchenTools	11	5	[0, 0, 0]	n/a	catFR1	1	R1364C
595.677	1.631	596845	WORD	n/a	wordpools/wordpool_categorized_EN.txt	SPOON	KitchenTools	12	5	[0, 0, 0]	n/a	catFR1	1	R1364C
597.308	0.0	598475	WORD_OFF	n/a	n/a	SPOON	KitchenTools	12	5	[0, 0, 0]	n/a	catFR1	1	R1364C
597.308	0.001	598475	ENCODING_END	n/a	n/a	n/a	n/a	-999	5	[0, 0, 0]	n/a	catFR1	1	R1364C
597.309	0.0	598476	DISTRACT_START	n/a	n/a	n/a	n/a	-999	5	[0, 0, 0]	n/a	catFR1	1	R1364C
597.309	0.015	598476	START	n/a	n/a	n/a	n/a	-999	5	[-999, -999, -999]	n/a	catFR1	1	R1364C
597.324	6.985	598491	PROB	6.952	n/a	n/a	n/a	-999	5	[6, 9, 5]	20.0	catFR1	1	R1364C
604.309	4.417	605476	PROB	4.383	n/a	n/a	n/a	-999	5	[6, 6, 9]	21.0	catFR1	1	R1364C
608.726	3.935	609893	PROB	3.91	n/a	n/a	n/a	-999	5	[9, 7, 4]	20.0	catFR1	1	R1364C
612.661	3.5	613828	PROB	3.471	n/a	n/a	n/a	-999	5	[4, 9, 3]	16.0	catFR1	1	R1364C
616.161	2.891	617327	PROB	2.891	n/a	n/a	n/a	-999	5	[5, 5, 7]	17.0	catFR1	1	R1364C
619.052	0.01	620218	STOP	n/a	n/a	n/a	n/a	-999	5	[-999, -999, -999]	n/a	catFR1	1	R1364C
619.062	0.539	620228	DISTRACT_END	n/a	n/a	n/a	n/a	-999	5	[0, 0, 0]	n/a	catFR1	1	R1364C
619.601	1.611	620767	RETRIEVAL_ORIENT_START	n/a	n/a	n/a	n/a	-999	5	[0, 0, 0]	n/a	catFR1	1	R1364C
621.212	0.001	622378	RETRIEVAL_ORIENT_END	n/a	n/a	n/a	n/a	-999	5	[0, 0, 0]	n/a	catFR1	1	R1364C
621.213	1.02	622379	REC_START	n/a	n/a	n/a	n/a	-999	5	[0, 0, 0]	n/a	catFR1	1	R1364C
622.233	0.892	623399	REC_WORD	1.02	n/a	CORKSCREW	KitchenTools	11	5	[0, 0, 0]	n/a	catFR1	1	R1364C
623.125	4.318	624291	REC_WORD	1.912	n/a	SPOON	KitchenTools	12	5	[0, 0, 0]	n/a	catFR1	1	R1364C
627.443	3.601	628609	REC_WORD	6.23	n/a	FORK	KitchenTools	6	5	[0, 0, 0]	n/a	catFR1	1	R1364C
631.044	2.167	632210	REC_WORD	9.831	n/a	ELBOW	BodyParts	10	5	[0, 0, 0]	n/a	catFR1	1	R1364C
633.211	3.175	634377	REC_WORD	11.998	n/a	TOE	BodyParts	4	5	[0, 0, 0]	n/a	catFR1	1	R1364C
636.386	2.165	637551	REC_WORD	15.173	n/a	FINGERS	BodyParts	9	5	[0, 0, 0]	n/a	catFR1	1	R1364C
638.551	0.869	639716	REC_WORD	17.338	n/a	WASHER	Appliances	2	5	[0, 0, 0]	n/a	catFR1	1	R1364C
639.42	2.115	640585	REC_WORD	18.207	n/a	DISHWASHER	Appliances	1	5	[0, 0, 0]	n/a	catFR1	1	R1364C
641.535	0.972	642700	REC_WORD	20.322	n/a	OVEN	Appliances	7	5	[0, 0, 0]	n/a	catFR1	1	R1364C
642.507	8.718	643672	REC_WORD	21.294	n/a	TOASTER	Appliances	8	5	[0, 0, 0]	n/a	catFR1	1	R1364C
651.225	0.0	652390	REC_END	n/a	n/a	n/a	n/a	-999	5	[0, 0, 0]	n/a	catFR1	1	R1364C
651.225	0.022	652390	TRIAL_END	n/a	n/a	n/a	n/a	-999	5	[0, 0, 0]	n/a	catFR1	1	R1364C
651.247	0.0	652412	TRIAL_START	n/a	n/a	n/a	n/a	-999	6	[0, 0, 0]	n/a	catFR1	1	R1364C
651.247	0.001	652412	TRIAL	n/a	n/a	n/a	n/a	-999	6	[0, 0, 0]	n/a	catFR1	1	R1364C
651.248	2.021	652413	WAITING_START	n/a	n/a	n/a	n/a	-999	6	[0, 0, 0]	n/a	catFR1	1	R1364C
653.269	0.0	654434	WAITING_END	n/a	n/a	n/a	n/a	-999	6	[0, 0, 0]	n/a	catFR1	1	R1364C
653.269	10.428	654434	COUNTDOWN_START	n/a	n/a	n/a	n/a	-999	6	[0, 0, 0]	n/a	catFR1	1	R1364C
663.697	0.001	664861	COUNTDOWN_END	n/a	n/a	n/a	n/a	-999	6	[0, 0, 0]	n/a	catFR1	1	R1364C
663.698	1.222	664862	ORIENT_START	n/a	n/a	n/a	n/a	-999	6	[0, 0, 0]	n/a	catFR1	1	R1364C
664.92	0.0	666084	ORIENT_END	n/a	n/a	n/a	n/a	-999	6	[0, 0, 0]	n/a	catFR1	1	R1364C
664.92	1.12	666084	ENCODING_START	n/a	n/a	n/a	n/a	-999	6	[0, 0, 0]	n/a	catFR1	1	R1364C
666.04	1.631	667204	WORD	n/a	wordpools/wordpool_categorized_EN.txt	FUDGE	Desserts	1	6	[0, 0, 0]	n/a	catFR1	1	R1364C
667.671	1.008	668835	WORD_OFF	n/a	n/a	FUDGE	Desserts	1	6	[0, 0, 0]	n/a	catFR1	1	R1364C
668.679	1.626	669843	WORD	n/a	wordpools/wordpool_categorized_EN.txt	CUPCAKE	Desserts	2	6	[0, 0, 0]	n/a	catFR1	1	R1364C
670.305	0.801	671469	WORD_OFF	n/a	n/a	CUPCAKE	Desserts	2	6	[0, 0, 0]	n/a	catFR1	1	R1364C
671.106	1.633	672270	WORD	n/a	wordpools/wordpool_categorized_EN.txt	SPIDER	Insects	3	6	[0, 0, 0]	n/a	catFR1	1	R1364C
672.739	1.139	673903	WORD_OFF	n/a	n/a	SPIDER	Insects	3	6	[0, 0, 0]	n/a	catFR1	1	R1364C
673.878	1.628	675042	WORD	n/a	wordpools/wordpool_categorized_EN.txt	ROACH	Insects	4	6	[0, 0, 0]	n/a	catFR1	1	R1364C
675.506	0.913	676669	WORD_OFF	n/a	n/a	ROACH	Insects	4	6	[0, 0, 0]	n/a	catFR1	1	R1364C
676.419	1.638	677582	WORD	n/a	wordpools/wordpool_categorized_EN.txt	VAN	Vehicles	5	6	[0, 0, 0]	n/a	catFR1	1	R1364C
678.057	1.011	679220	WORD_OFF	n/a	n/a	VAN	Vehicles	5	6	[0, 0, 0]	n/a	catFR1	1	R1364C
679.068	1.622	680231	WORD	n/a	wordpools/wordpool_categorized_EN.txt	PLANE	Vehicles	6	6	[0, 0, 0]	n/a	catFR1	1	R1364C
680.69	0.824	681853	WORD_OFF	n/a	n/a	PLANE	Vehicles	6	6	[0, 0, 0]	n/a	catFR1	1	R1364C
681.514	1.627	682677	WORD	n/a	wordpools/wordpool_categorized_EN.txt	ANT	Insects	7	6	[0, 0, 0]	n/a	catFR1	1	R1364C
683.141	0.97	684304	WORD_OFF	n/a	n/a	ANT	Insects	7	6	[0, 0, 0]	n/a	catFR1	1	R1364C
684.111	1.63	685274	WORD	n/a	wordpools/wordpool_categorized_EN.txt	MOTH	Insects	8	6	[0, 0, 0]	n/a	catFR1	1	R1364C
685.741	1.009	686904	WORD_OFF	n/a	n/a	MOTH	Insects	8	6	[0, 0, 0]	n/a	catFR1	1	R1364C
686.75	1.625	687913	WORD	n/a	wordpools/wordpool_categorized_EN.txt	JELLO	Desserts	9	6	[0, 0, 0]	n/a	catFR1	1	R1364C
688.375	0.887	689538	WORD_OFF	n/a	n/a	JELLO	Desserts	9	6	[0, 0, 0]	n/a	catFR1	1	R1364C
689.262	1.629	690425	WORD	n/a	wordpools/wordpool_categorized_EN.txt	PUDDING	Desserts	10	6	[0, 0, 0]	n/a	catFR1	1	R1364C
690.891	0.986	692054	WORD_OFF	n/a	n/a	PUDDING	Desserts	10	6	[0, 0, 0]	n/a	catFR1	1	R1364C
691.877	1.632	693040	WORD	n/a	wordpools/wordpool_categorized_EN.txt	BIKE	Vehicles	11	6	[0, 0, 0]	n/a	catFR1	1	R1364C
693.509	0.865	694672	WORD_OFF	n/a	n/a	BIKE	Vehicles	11	6	[0, 0, 0]	n/a	catFR1	1	R1364C
694.374	1.636	695537	WORD	n/a	wordpools/wordpool_categorized_EN.txt	JEEP	Vehicles	12	6	[0, 0, 0]	n/a	catFR1	1	R1364C
696.01	0.001	697172	WORD_OFF	n/a	n/a	JEEP	Vehicles	12	6	[0, 0, 0]	n/a	catFR1	1	R1364C
696.011	0.0	697173	ENCODING_END	n/a	n/a	n/a	n/a	-999	6	[0, 0, 0]	n/a	catFR1	1	R1364C
696.011	0.0	697173	DISTRACT_START	n/a	n/a	n/a	n/a	-999	6	[0, 0, 0]	n/a	catFR1	1	R1364C
696.011	0.015	697173	START	n/a	n/a	n/a	n/a	-999	6	[-999, -999, -999]	n/a	catFR1	1	R1364C
696.026	4.368	697188	PROB	4.334	n/a	n/a	n/a	-999	6	[2, 9, 9]	20.0	catFR1	1	R1364C
700.394	3.267	701556	PROB	3.238	n/a	n/a	n/a	-999	6	[4, 9, 4]	17.0	catFR1	1	R1364C
703.661	3.751	704823	PROB	3.715	n/a	n/a	n/a	-999	6	[1, 5, 4]	10.0	catFR1	1	R1364C
707.412	3.617	708574	PROB	3.588	n/a	n/a	n/a	-999	6	[4, 3, 6]	13.0	catFR1	1	R1364C
711.029	4.9	712191	PROB	4.874	n/a	n/a	n/a	-999	6	[1, 5, 8]	14.0	catFR1	1	R1364C
715.929	3.463	717090	PROB	3.463	n/a	n/a	n/a	-999	6	[8, 4, 1]	13.0	catFR1	1	R1364C
719.392	0.022	720553	STOP	n/a	n/a	n/a	n/a	-999	6	[-999, -999, -999]	n/a	catFR1	1	R1364C
719.414	0.63	720575	DISTRACT_END	n/a	n/a	n/a	n/a	-999	6	[0, 0, 0]	n/a	catFR1	1	R1364C
720.044	1.571	721205	RETRIEVAL_ORIENT_START	n/a	n/a	n/a	n/a	-999	6	[0, 0, 0]	n/a	catFR1	1	R1364C
721.615	0.0	722776	RETRIEVAL_ORIENT_END	n/a	n/a	n/a	n/a	-999	6	[0, 0, 0]	n/a	catFR1	1	R1364C
721.615	2.802	722776	REC_START	n/a	n/a	n/a	n/a	-999	6	[0, 0, 0]	n/a	catFR1	1	R1364C
724.417	0.775	725578	REC_WORD	2.802	n/a	VAN	Vehicles	5	6	[0, 0, 0]	n/a	catFR1	1	R1364C
725.192	2.072	726353	REC_WORD	3.577	n/a	JEEP	Vehicles	12	6	[0, 0, 0]	n/a	catFR1	1	R1364C
727.264	1.485	728425	REC_WORD	5.649	n/a	PLANE	Vehicles	6	6	[0, 0, 0]	n/a	catFR1	1	R1364C
728.749	1.69	729910	REC_WORD	7.134	n/a	PUDDING	Desserts	10	6	[0, 0, 0]	n/a	catFR1	1	R1364C
730.439	4.085	731600	REC_WORD	8.824	n/a	JELLO	Desserts	9	6	[0, 0, 0]	n/a	catFR1	1	R1364C
734.524	0.915	735684	REC_WORD	12.909	n/a	FUDGE	Desserts	1	6	[0, 0, 0]	n/a	catFR1	1	R1364C
735.439	3.904	736599	REC_WORD	13.824	n/a	CUPCAKE	Desserts	2	6	[0, 0, 0]	n/a	catFR1	1	R1364C
739.343	2.521	740503	REC_WORD	17.728	n/a	MOTH	Insects	8	6	[0, 0, 0]	n/a	catFR1	1	R1364C
741.864	6.316	743024	REC_WORD	20.249	n/a	ROACH	Insects	4	6	[0, 0, 0]	n/a	catFR1	1	R1364C
748.18	0.779	749340	REC_WORD	26.565	n/a	BEETLE	Insects	-999	6	[0, 0, 0]	n/a	catFR1	1	R1364C
748.959	2.669	750119	REC_WORD	27.344	n/a	ANT	Insects	7	6	[0, 0, 0]	n/a	catFR1	1	R1364C
751.628	0.0	752788	REC_END	n/a	n/a	n/a	n/a	-999	6	[0, 0, 0]	n/a	catFR1	1	R1364C
751.628	0.022	752788	TRIAL_END	n/a	n/a	n/a	n/a	-999	6	[0, 0, 0]	n/a	catFR1	1	R1364C
751.65	0.0	752810	TRIAL_START	n/a	n/a	n/a	n/a	-999	7	[0, 0, 0]	n/a	catFR1	1	R1364C
751.65	0.0	752810	TRIAL	n/a	n/a	n/a	n/a	-999	7	[0, 0, 0]	n/a	catFR1	1	R1364C
751.65	2.286	752810	WAITING_START	n/a	n/a	n/a	n/a	-999	7	[0, 0, 0]	n/a	catFR1	1	R1364C
753.936	0.002	755095	WAITING_END	n/a	n/a	n/a	n/a	-999	7	[0, 0, 0]	n/a	catFR1	1	R1364C
753.938	10.428	755097	COUNTDOWN_START	n/a	n/a	n/a	n/a	-999	7	[0, 0, 0]	n/a	catFR1	1	R1364C
764.366	0.001	765525	COUNTDOWN_END	n/a	n/a	n/a	n/a	-999	7	[0, 0, 0]	n/a	catFR1	1	R1364C
764.367	1.155	765526	ORIENT_START	n/a	n/a	n/a	n/a	-999	7	[0, 0, 0]	n/a	catFR1	1	R1364C
765.522	0.001	766681	ORIENT_END	n/a	n/a	n/a	n/a	-999	7	[0, 0, 0]	n/a	catFR1	1	R1364C
765.523	0.899	766682	ENCODING_START	n/a	n/a	n/a	n/a	-999	7	[0, 0, 0]	n/a	catFR1	1	R1364C
766.422	1.635	767581	WORD	n/a	wordpools/wordpool_categorized_EN.txt	SODA	Beverages	1	7	[0, 0, 0]	n/a	catFR1	1	R1364C
768.057	0.798	769216	WORD_OFF	n/a	n/a	SODA	Beverages	1	7	[0, 0, 0]	n/a	catFR1	1	R1364C
768.855	1.636	770014	WORD	n/a	wordpools/wordpool_categorized_EN.txt	LEMONADE	Beverages	2	7	[0, 0, 0]	n/a	catFR1	1	R1364C
770.491	0.783	771650	WORD_OFF	n/a	n/a	LEMONADE	Beverages	2	7	[0, 0, 0]	n/a	catFR1	1	R1364C
771.274	1.632	772433	WORD	n/a	wordpools/wordpool_categorized_EN.txt	MARKER	OfficeSupplies	3	7	[0, 0, 0]	n/a	catFR1	1	R1364C
772.906	0.756	774065	WORD_OFF	n/a	n/a	MARKER	OfficeSupplies	3	7	[0, 0, 0]	n/a	catFR1	1	R1364C
773.662	1.629	774820	WORD	n/a	wordpools/wordpool_categorized_EN.txt	FOLDER	OfficeSupplies	4	7	[0, 0, 0]	n/a	catFR1	1	R1364C
775.291	0.756	776449	WORD_OFF	n/a	n/a	FOLDER	OfficeSupplies	4	7	[0, 0, 0]	n/a	catFR1	1	R1364C
776.047	1.628	777205	WORD	n/a	wordpools/wordpool_categorized_EN.txt	FOG	Weather	5	7	[0, 0, 0]	n/a	catFR1	1	R1364C
777.675	1.04	778833	WORD_OFF	n/a	n/a	FOG	Weather	5	7	[0, 0, 0]	n/a	catFR1	1	R1364C
778.715	1.627	779873	WORD	n/a	wordpools/wordpool_categorized_EN.txt	TORNADO	Weather	6	7	[0, 0, 0]	n/a	catFR1	1	R1364C
780.342	0.811	781500	WORD_OFF	n/a	n/a	TORNADO	Weather	6	7	[0, 0, 0]	n/a	catFR1	1	R1364C
781.153	1.623	782311	WORD	n/a	wordpools/wordpool_categorized_EN.txt	PEN	OfficeSupplies	7	7	[0, 0, 0]	n/a	catFR1	1	R1364C
782.776	0.873	783934	WORD_OFF	n/a	n/a	PEN	OfficeSupplies	7	7	[0, 0, 0]	n/a	catFR1	1	R1364C
783.649	1.628	784807	WORD	n/a	wordpools/wordpool_categorized_EN.txt	PENCIL	OfficeSupplies	8	7	[0, 0, 0]	n/a	catFR1	1	R1364C
785.277	0.857	786435	WORD_OFF	n/a	n/a	PENCIL	OfficeSupplies	8	7	[0, 0, 0]	n/a	catFR1	1	R1364C
786.134	1.626	787292	WORD	n/a	wordpools/wordpool_categorized_EN.txt	THUNDER	Weather	9	7	[0, 0, 0]	n/a	catFR1	1	R1364C
787.76	1.021	788918	WORD_OFF	n/a	n/a	THUNDER	Weather	9	7	[0, 0, 0]	n/a	catFR1	1	R1364C
788.781	1.63	789939	WORD	n/a	wordpools/wordpool_categorized_EN.txt	DRIZZLE	Weather	10	7	[0, 0, 0]	n/a	catFR1	1	R1364C
790.411	0.827	791569	WORD_OFF	n/a	n/a	DRIZZLE	Weather	10	7	[0, 0, 0]	n/a	catFR1	1	R1364C
791.238	1.623	792396	WORD	n/a	wordpools/wordpool_categorized_EN.txt	CIDER	Beverages	11	7	[0, 0, 0]	n/a	catFR1	1	R1364C
792.861	0.784	794018	WORD_OFF	n/a	n/a	CIDER	Beverages	11	7	[0, 0, 0]	n/a	catFR1	1	R1364C
793.645	1.633	794802	WORD	n/a	wordpools/wordpool_categorized_EN.txt	COLA	Beverages	12	7	[0, 0, 0]	n/a	catFR1	1	R1364C
795.278	0.001	796435	WORD_OFF	n/a	n/a	COLA	Beverages	12	7	[0, 0, 0]	n/a	catFR1	1	R1364C
795.279	0.0	796436	ENCODING_END	n/a	n/a	n/a	n/a	-999	7	[0, 0, 0]	n/a	catFR1	1	R1364C
795.279	0.001	796436	DISTRACT_START	n/a	n/a	n/a	n/a	-999	7	[0, 0, 0]	n/a	catFR1	1	R1364C
795.28	0.015	796437	START	n/a	n/a	n/a	n/a	-999	7	[-999, -999, -999]	n/a	catFR1	1	R1364C
795.295	4.801	796452	PROB	4.771	n/a	n/a	n/a	-999	7	[1, 2, 4]	7.0	catFR1	1	R1364C
800.096	4.617	801253	PROB	4.58	n/a	n/a	n/a	-999	7	[5, 6, 3]	14.0	catFR1	1	R1364C
804.713	4.868	805870	PROB	4.835	n/a	n/a	n/a	-999	7	[3, 8, 8]	19.0	catFR1	1	R1364C
809.581	3.084	810738	PROB	3.047	n/a	n/a	n/a	-999	7	[1, 8, 1]	10.0	catFR1	1	R1364C
812.665	2.467	813821	PROB	2.435	n/a	n/a	n/a	-999	7	[2, 1, 2]	5.0	catFR1	1	R1364C
815.132	4.072	816288	PROB	4.072	n/a	n/a	n/a	-999	7	[4, 8, 7]	19.0	catFR1	1	R1364C
819.204	0.012	820360	STOP	n/a	n/a	n/a	n/a	-999	7	[-999, -999, -999]	n/a	catFR1	1	R1364C
819.216	0.682	820372	DISTRACT_END	n/a	n/a	n/a	n/a	-999	7	[0, 0, 0]	n/a	catFR1	1	R1364C
819.898	1.586	821054	RETRIEVAL_ORIENT_START	n/a	n/a	n/a	n/a	-999	7	[0, 0, 0]	n/a	catFR1	1	R1364C
821.484	0.0	822640	RETRIEVAL_ORIENT_END	n/a	n/a	n/a	n/a	-999	7	[0, 0, 0]	n/a	catFR1	1	R1364C
821.484	1.047	822640	REC_START	n/a	n/a	n/a	n/a	-999	7	[0, 0, 0]	n/a	catFR1	1	R1364C
822.531	1.351	823687	REC_WORD	1.047	n/a	FOG	Weather	5	7	[0, 0, 0]	n/a	catFR1	1	R1364C
823.882	3.311	825038	REC_WORD	2.398	n/a	TORNADO	Weather	6	7	[0, 0, 0]	n/a	catFR1	1	R1364C
827.193	6.922	828349	REC_WORD	5.709	n/a	DRIZZLE	Weather	10	7	[0, 0, 0]	n/a	catFR1	1	R1364C
834.115	2.539	835270	REC_WORD	12.631	n/a	THUNDER	Weather	9	7	[0, 0, 0]	n/a	catFR1	1	R1364C
836.654	1.327	837809	REC_WORD	15.17	n/a	SODA	Beverages	1	7	[0, 0, 0]	n/a	catFR1	1	R1364C
837.981	0.715	839136	REC_WORD	16.497	n/a	LEMONADE	Beverages	2	7	[0, 0, 0]	n/a	catFR1	1	R1364C
838.696	1.437	839851	REC_WORD	17.212	n/a	CIDER	Beverages	11	7	[0, 0, 0]	n/a	catFR1	1	R1364C
840.133	0.534	841288	REC_WORD	18.649	n/a	PEN	OfficeSupplies	7	7	[0, 0, 0]	n/a	catFR1	1	R1364C
840.667	1.256	841822	REC_WORD	19.183	n/a	PENCIL	OfficeSupplies	8	7	[0, 0, 0]	n/a	catFR1	1	R1364C
841.923	1.288	843078	REC_WORD	20.439	n/a	MARKER	OfficeSupplies	3	7	[0, 0, 0]	n/a	catFR1	1	R1364C
843.211	8.286	844366	REC_WORD	21.727	n/a	FOLDER	OfficeSupplies	4	7	[0, 0, 0]	n/a	catFR1	1	R1364C
851.497	0.001	852651	REC_END	n/a	n/a	n/a	n/a	-999	7	[0, 0, 0]	n/a	catFR1	1	R1364C
851.498	0.052	852652	TRIAL_END	n/a	n/a	n/a	n/a	-999	7	[0, 0, 0]	n/a	catFR1	1	R1364C
851.55	0.0	852704	TRIAL_START	n/a	n/a	n/a	n/a	-999	8	[0, 0, 0]	n/a	catFR1	1	R1364C
851.55	0.0	852704	TRIAL	n/a	n/a	n/a	n/a	-999	8	[0, 0, 0]	n/a	catFR1	1	R1364C
851.55	1.973	852704	WAITING_START	n/a	n/a	n/a	n/a	-999	8	[0, 0, 0]	n/a	catFR1	1	R1364C
853.523	0.0	854677	COUNTDOWN_START	n/a	n/a	n/a	n/a	-999	8	[0, 0, 0]	n/a	catFR1	1	R1364C
853.523	10.43	854677	WAITING_END	n/a	n/a	n/a	n/a	-999	8	[0, 0, 0]	n/a	catFR1	1	R1364C
863.953	0.001	865107	COUNTDOWN_END	n/a	n/a	n/a	n/a	-999	8	[0, 0, 0]	n/a	catFR1	1	R1364C
863.954	1.171	865108	ORIENT_START	n/a	n/a	n/a	n/a	-999	8	[0, 0, 0]	n/a	catFR1	1	R1364C
865.125	0.0	866279	ORIENT_END	n/a	n/a	n/a	n/a	-999	8	[0, 0, 0]	n/a	catFR1	1	R1364C
865.125	0.984	866279	ENCODING_START	n/a	n/a	n/a	n/a	-999	8	[0, 0, 0]	n/a	catFR1	1	R1364C
866.109	1.633	867263	WORD	n/a	wordpools/wordpool_categorized_EN.txt	LAKE	Landscapes	1	8	[0, 0, 0]	n/a	catFR1	1	R1364C
867.742	0.847	868896	WORD_OFF	n/a	n/a	LAKE	Landscapes	1	8	[0, 0, 0]	n/a	catFR1	1	R1364C
868.589	1.637	869743	WORD	n/a	wordpools/wordpool_categorized_EN.txt	RIVER	Landscapes	2	8	[0, 0, 0]	n/a	catFR1	1	R1364C
870.226	0.802	871380	WORD_OFF	n/a	n/a	RIVER	Landscapes	2	8	[0, 0, 0]	n/a	catFR1	1	R1364C
871.028	1.632	872182	WORD	n/a	wordpools/wordpool_categorized_EN.txt	SCOOTER	Vehicles	3	8	[0, 0, 0]	n/a	catFR1	1	R1364C
872.66	0.82	873813	WORD_OFF	n/a	n/a	SCOOTER	Vehicles	3	8	[0, 0, 0]	n/a	catFR1	1	R1364C
873.48	1.63	874633	WORD	n/a	wordpools/wordpool_categorized_EN.txt	MOPED	Vehicles	4	8	[0, 0, 0]	n/a	catFR1	1	R1364C
875.11	1.018	876263	WORD_OFF	n/a	n/a	MOPED	Vehicles	4	8	[0, 0, 0]	n/a	catFR1	1	R1364C
876.128	1.633	877281	WORD	n/a	wordpools/wordpool_categorized_EN.txt	WIND	Weather	5	8	[0, 0, 0]	n/a	catFR1	1	R1364C
877.761	1.145	878914	WORD_OFF	n/a	n/a	WIND	Weather	5	8	[0, 0, 0]	n/a	catFR1	1	R1364C
878.906	1.638	880059	WORD	n/a	wordpools/wordpool_categorized_EN.txt	HURRICANE	Weather	6	8	[0, 0, 0]	n/a	catFR1	1	R1364C
880.544	1.08	881697	WORD_OFF	n/a	n/a	HURRICANE	Weather	6	8	[0, 0, 0]	n/a	catFR1	1	R1364C
881.624	1.638	882777	WORD	n/a	wordpools/wordpool_categorized_EN.txt	HILLS	Landscapes	7	8	[0, 0, 0]	n/a	catFR1	1	R1364C
883.262	0.827	884415	WORD_OFF	n/a	n/a	HILLS	Landscapes	7	8	[0, 0, 0]	n/a	catFR1	1	R1364C
884.089	1.623	885242	WORD	n/a	wordpools/wordpool_categorized_EN.txt	STREAM	Landscapes	8	8	[0, 0, 0]	n/a	catFR1	1	R1364C
885.712	0.898	886865	WORD_OFF	n/a	n/a	STREAM	Landscapes	8	8	[0, 0, 0]	n/a	catFR1	1	R1364C
886.61	1.636	887763	WORD	n/a	wordpools/wordpool_categorized_EN.txt	BOAT	Vehicles	9	8	[0, 0, 0]	n/a	catFR1	1	R1364C
888.246	1.064	889399	WORD_OFF	n/a	n/a	BOAT	Vehicles	9	8	[0, 0, 0]	n/a	catFR1	1	R1364C
889.31	1.636	890463	WORD	n/a	wordpools/wordpool_categorized_EN.txt	TRUCK	Vehicles	10	8	[0, 0, 0]	n/a	catFR1	1	R1364C
890.946	1.061	892098	WORD_OFF	n/a	n/a	TRUCK	Vehicles	10	8	[0, 0, 0]	n/a	catFR1	1	R1364C
892.007	1.64	893159	WORD	n/a	wordpools/wordpool_categorized_EN.txt	THUNDERSTORM	Weather	11	8	[0, 0, 0]	n/a	catFR1	1	R1364C
893.647	0.902	894799	WORD_OFF	n/a	n/a	THUNDERSTORM	Weather	11	8	[0, 0, 0]	n/a	catFR1	1	R1364C
894.549	1.632	895701	WORD	n/a	wordpools/wordpool_categorized_EN.txt	RAIN	Weather	12	8	[0, 0, 0]	n/a	catFR1	1	R1364C
896.181	0.0	897333	WORD_OFF	n/a	n/a	RAIN	Weather	12	8	[0, 0, 0]	n/a	catFR1	1	R1364C
896.181	0.001	897333	ENCODING_END	n/a	n/a	n/a	n/a	-999	8	[0, 0, 0]	n/a	catFR1	1	R1364C
896.182	0.0	897334	DISTRACT_START	n/a	n/a	n/a	n/a	-999	8	[0, 0, 0]	n/a	catFR1	1	R1364C
896.182	0.015	897334	START	n/a	n/a	n/a	n/a	-999	8	[-999, -999, -999]	n/a	catFR1	1	R1364C
896.197	3.817	897349	PROB	3.79	n/a	n/a	n/a	-999	8	[8, 8, 7]	23.0	catFR1	1	R1364C
900.014	3.018	901166	PROB	2.98	n/a	n/a	n/a	-999	8	[8, 5, 8]	21.0	catFR1	1	R1364C
903.032	2.767	904184	PROB	2.738	n/a	n/a	n/a	-999	8	[9, 6, 1]	16.0	catFR1	1	R1364C
905.799	2.734	906951	PROB	2.7	n/a	n/a	n/a	-999	8	[9, 4, 3]	16.0	catFR1	1	R1364C
908.533	5.534	909685	PROB	5.506	n/a	n/a	n/a	-999	8	[6, 3, 4]	13.0	catFR1	1	R1364C
914.067	2.795	915218	PROB	2.795	n/a	n/a	n/a	-999	8	[2, 2, 7]	11.0	catFR1	1	R1364C
916.862	0.022	918013	STOP	n/a	n/a	n/a	n/a	-999	8	[-999, -999, -999]	n/a	catFR1	1	R1364C
916.884	0.524	918035	DISTRACT_END	n/a	n/a	n/a	n/a	-999	8	[0, 0, 0]	n/a	catFR1	1	R1364C
917.408	1.694	918559	RETRIEVAL_ORIENT_START	n/a	n/a	n/a	n/a	-999	8	[0, 0, 0]	n/a	catFR1	1	R1364C
919.102	0.0	920253	RETRIEVAL_ORIENT_END	n/a	n/a	n/a	n/a	-999	8	[0, 0, 0]	n/a	catFR1	1	R1364C
919.102	1.588	920253	REC_START	n/a	n/a	n/a	n/a	-999	8	[0, 0, 0]	n/a	catFR1	1	R1364C
920.69	2.967	921841	REC_WORD	1.588	n/a	THUNDER	Weather	-999	8	[0, 0, 0]	n/a	catFR1	1	R1364C
923.657	6.093	924808	REC_WORD	4.555	n/a	THUNDERSTORM	Weather	11	8	[0, 0, 0]	n/a	catFR1	1	R1364C
929.75	0.532	930901	REC_WORD	10.648	n/a	LAKE	Landscapes	1	8	[0, 0, 0]	n/a	catFR1	1	R1364C
930.282	1.04	931432	REC_WORD	11.18	n/a	STREAM	Landscapes	8	8	[0, 0, 0]	n/a	catFR1	1	R1364C
931.322	5.104	932472	REC_WORD	12.22	n/a	RIVER	Landscapes	2	8	[0, 0, 0]	n/a	catFR1	1	R1364C
936.426	1.907	937576	REC_WORD	17.324	n/a	TRUCK	Vehicles	10	8	[0, 0, 0]	n/a	catFR1	1	R1364C
938.333	2.317	939483	REC_WORD	19.231	n/a	SCOOTER	Vehicles	3	8	[0, 0, 0]	n/a	catFR1	1	R1364C
940.65	8.465	941800	REC_WORD	21.548	n/a	BOAT	Vehicles	9	8	[0, 0, 0]	n/a	catFR1	1	R1364C
949.115	0.0	950265	REC_END	n/a	n/a	n/a	n/a	-999	8	[0, 0, 0]	n/a	catFR1	1	R1364C
949.115	0.022	950265	TRIAL_END	n/a	n/a	n/a	n/a	-999	8	[0, 0, 0]	n/a	catFR1	1	R1364C
949.137	0.0	950287	TRIAL_START	n/a	n/a	n/a	n/a	-999	9	[0, 0, 0]	n/a	catFR1	1	R1364C
949.137	0.001	950287	TRIAL	n/a	n/a	n/a	n/a	-999	9	[0, 0, 0]	n/a	catFR1	1	R1364C
949.138	2.986	950288	WAITING_START	n/a	n/a	n/a	n/a	-999	9	[0, 0, 0]	n/a	catFR1	1	R1364C
952.124	0.001	953273	WAITING_END	n/a	n/a	n/a	n/a	-999	9	[0, 0, 0]	n/a	catFR1	1	R1364C
952.125	10.429	953274	COUNTDOWN_START	n/a	n/a	n/a	n/a	-999	9	[0, 0, 0]	n/a	catFR1	1	R1364C
962.554	0.0	963703	ORIENT_START	n/a	n/a	n/a	n/a	-999	9	[0, 0, 0]	n/a	catFR1	1	R1364C
962.554	1.156	963703	COUNTDOWN_END	n/a	n/a	n/a	n/a	-999	9	[0, 0, 0]	n/a	catFR1	1	R1364C
963.71	0.001	964859	ORIENT_END	n/a	n/a	n/a	n/a	-999	9	[0, 0, 0]	n/a	catFR1	1	R1364C
963.711	0.88	964860	ENCODING_START	n/a	n/a	n/a	n/a	-999	9	[0, 0, 0]	n/a	catFR1	1	R1364C
964.591	1.636	965740	WORD	n/a	wordpools/wordpool_categorized_EN.txt	WATER	Beverages	1	9	[0, 0, 0]	n/a	catFR1	1	R1364C
966.227	1.035	967376	WORD_OFF	n/a	n/a	WATER	Beverages	1	9	[0, 0, 0]	n/a	catFR1	1	R1364C
967.262	1.631	968411	WORD	n/a	wordpools/wordpool_categorized_EN.txt	TEA	Beverages	2	9	[0, 0, 0]	n/a	catFR1	1	R1364C
968.893	1.007	970042	WORD_OFF	n/a	n/a	TEA	Beverages	2	9	[0, 0, 0]	n/a	catFR1	1	R1364C
969.9	1.628	971048	WORD	n/a	wordpools/wordpool_categorized_EN.txt	PASTRY	Desserts	3	9	[0, 0, 0]	n/a	catFR1	1	R1364C
971.528	1.095	972676	WORD_OFF	n/a	n/a	PASTRY	Desserts	3	9	[0, 0, 0]	n/a	catFR1	1	R1364C
972.623	1.639	973771	WORD	n/a	wordpools/wordpool_categorized_EN.txt	CHEESECAKE	Desserts	4	9	[0, 0, 0]	n/a	catFR1	1	R1364C
974.262	1.009	975410	WORD_OFF	n/a	n/a	CHEESECAKE	Desserts	4	9	[0, 0, 0]	n/a	catFR1	1	R1364C
975.271	1.624	976419	WORD	n/a	wordpools/wordpool_categorized_EN.txt	CREEK	Landscapes	5	9	[0, 0, 0]	n/a	catFR1	1	R1364C
976.895	0.889	978043	WORD_OFF	n/a	n/a	CREEK	Landscapes	5	9	[0, 0, 0]	n/a	catFR1	1	R1364C
977.784	1.629	978932	WORD	n/a	wordpools/wordpool_categorized_EN.txt	OCEAN	Landscapes	6	9	[0, 0, 0]	n/a	catFR1	1	R1364C
979.413	0.839	980561	WORD_OFF	n/a	n/a	OCEAN	Landscapes	6	9	[0, 0, 0]	n/a	catFR1	1	R1364C
980.252	1.627	981400	WORD	n/a	wordpools/wordpool_categorized_EN.txt	COFFEE	Beverages	7	9	[0, 0, 0]	n/a	catFR1	1	R1364C
981.879	0.866	983027	WORD_OFF	n/a	n/a	COFFEE	Beverages	7	9	[0, 0, 0]	n/a	catFR1	1	R1364C
982.745	1.636	983893	WORD	n/a	wordpools/wordpool_categorized_EN.txt	WINE	Beverages	8	9	[0, 0, 0]	n/a	catFR1	1	R1364C
984.381	0.792	985529	WORD_OFF	n/a	n/a	WINE	Beverages	8	9	[0, 0, 0]	n/a	catFR1	1	R1364C
985.173	1.625	986321	WORD	n/a	wordpools/wordpool_categorized_EN.txt	FOREST	Landscapes	9	9	[0, 0, 0]	n/a	catFR1	1	R1364C
986.798	0.862	987946	WORD_OFF	n/a	n/a	FOREST	Landscapes	9	9	[0, 0, 0]	n/a	catFR1	1	R1364C
987.66	1.638	988808	WORD	n/a	wordpools/wordpool_categorized_EN.txt	WOODS	Landscapes	10	9	[0, 0, 0]	n/a	catFR1	1	R1364C
989.298	0.79	990445	WORD_OFF	n/a	n/a	WOODS	Landscapes	10	9	[0, 0, 0]	n/a	catFR1	1	R1364C
990.088	1.627	991235	WORD	n/a	wordpools/wordpool_categorized_EN.txt	MOUSSE	Desserts	11	9	[0, 0, 0]	n/a	catFR1	1	R1364C
991.715	1.139	992862	WORD_OFF	n/a	n/a	MOUSSE	Desserts	11	9	[0, 0, 0]	n/a	catFR1	1	R1364C
992.854	1.628	994001	WORD	n/a	wordpools/wordpool_categorized_EN.txt	BROWNIES	Desserts	12	9	[0, 0, 0]	n/a	catFR1	1	R1364C
994.482	0.001	995629	WORD_OFF	n/a	n/a	BROWNIES	Desserts	12	9	[0, 0, 0]	n/a	catFR1	1	R1364C
994.483	0.0	995630	ENCODING_END	n/a	n/a	n/a	n/a	-999	9	[0, 0, 0]	n/a	catFR1	1	R1364C
994.483	0.001	995630	DISTRACT_START	n/a	n/a	n/a	n/a	-999	9	[0, 0, 0]	n/a	catFR1	1	R1364C
994.484	0.015	995631	START	n/a	n/a	n/a	n/a	-999	9	[-999, -999, -999]	n/a	catFR1	1	R1364C
994.499	4.634	995646	PROB	4.595	n/a	n/a	n/a	-999	9	[8, 2, 9]	20.0	catFR1	1	R1364C
999.133	6.818	1000280	PROB	6.782	n/a	n/a	n/a	-999	9	[3, 4, 6]	13.0	catFR1	1	R1364C
1005.951	4.417	1007098	PROB	4.381	n/a	n/a	n/a	-999	9	[7, 2, 6]	15.0	catFR1	1	R1364C
1010.368	1.817	1011514	PROB	1.78	n/a	n/a	n/a	-999	9	[1, 4, 6]	11.0	catFR1	1	R1364C
1012.185	2.515	1013331	PROB	2.515	n/a	n/a	n/a	-999	9	[7, 9, 1]	17.0	catFR1	1	R1364C
1014.7	0.02	1015846	STOP	n/a	n/a	n/a	n/a	-999	9	[-999, -999, -999]	n/a	catFR1	1	R1364C
1014.72	0.531	1015866	DISTRACT_END	n/a	n/a	n/a	n/a	-999	9	[0, 0, 0]	n/a	catFR1	1	R1364C
1015.251	1.668	1016397	RETRIEVAL_ORIENT_START	n/a	n/a	n/a	n/a	-999	9	[0, 0, 0]	n/a	catFR1	1	R1364C
1016.919	0.0	1018065	REC_START	n/a	n/a	n/a	n/a	-999	9	[0, 0, 0]	n/a	catFR1	1	R1364C
1016.919	3.548	1018065	RETRIEVAL_ORIENT_END	n/a	n/a	n/a	n/a	-999	9	[0, 0, 0]	n/a	catFR1	1	R1364C
1020.467	1.302	1021613	REC_WORD	3.548	n/a	CREEK	Landscapes	5	9	[0, 0, 0]	n/a	catFR1	1	R1364C
1021.769	0.596	1022915	REC_WORD	4.85	n/a	WATER	Beverages	1	9	[0, 0, 0]	n/a	catFR1	1	R1364C
1022.365	1.957	1023511	REC_WORD	5.446	n/a	TEA	Beverages	2	9	[0, 0, 0]	n/a	catFR1	1	R1364C
1024.322	0.855	1025468	REC_WORD	7.403	n/a	FOREST	Landscapes	9	9	[0, 0, 0]	n/a	catFR1	1	R1364C
1025.177	2.666	1026323	REC_WORD	8.258	n/a	WOODS	Landscapes	10	9	[0, 0, 0]	n/a	catFR1	1	R1364C
1027.843	1.229	1028989	REC_WORD	10.924	n/a	COFFEE	Beverages	7	9	[0, 0, 0]	n/a	catFR1	1	R1364C
1029.072	1.405	1030217	REC_WORD	12.153	n/a	WINE	Beverages	8	9	[0, 0, 0]	n/a	catFR1	1	R1364C
1030.477	3.076	1031622	REC_WORD	13.558	n/a	PASTRY	Desserts	3	9	[0, 0, 0]	n/a	catFR1	1	R1364C
1033.553	1.228	1034698	REC_WORD	16.634	n/a	CHEESECAKE	Desserts	4	9	[0, 0, 0]	n/a	catFR1	1	R1364C
1034.781	0.78	1035926	REC_WORD	17.862	n/a	MOUSSE	Desserts	11	9	[0, 0, 0]	n/a	catFR1	1	R1364C
1035.561	11.372	1036706	REC_WORD	18.642	n/a	BROWNIES	Desserts	12	9	[0, 0, 0]	n/a	catFR1	1	R1364C
1046.933	0.0	1048078	REC_END	n/a	n/a	n/a	n/a	-999	9	[0, 0, 0]	n/a	catFR1	1	R1364C
1046.933	0.023	1048078	TRIAL_END	n/a	n/a	n/a	n/a	-999	9	[0, 0, 0]	n/a	catFR1	1	R1364C
1046.956	0.0	1048101	TRIAL_START	n/a	n/a	n/a	n/a	-999	10	[0, 0, 0]	n/a	catFR1	1	R1364C
1046.956	0.0	1048101	TRIAL	n/a	n/a	n/a	n/a	-999	10	[0, 0, 0]	n/a	catFR1	1	R1364C
1046.956	16.99	1048101	WAITING_START	n/a	n/a	n/a	n/a	-999	10	[0, 0, 0]	n/a	catFR1	1	R1364C
1063.946	0.0	1065090	WAITING_END	n/a	n/a	n/a	n/a	-999	10	[0, 0, 0]	n/a	catFR1	1	R1364C
1063.946	10.428	1065090	COUNTDOWN_START	n/a	n/a	n/a	n/a	-999	10	[0, 0, 0]	n/a	catFR1	1	R1364C
1074.374	0.001	1075517	COUNTDOWN_END	n/a	n/a	n/a	n/a	-999	10	[0, 0, 0]	n/a	catFR1	1	R1364C
1074.375	1.206	1075518	ORIENT_START	n/a	n/a	n/a	n/a	-999	10	[0, 0, 0]	n/a	catFR1	1	R1364C
1075.581	0.0	1076724	ORIENT_END	n/a	n/a	n/a	n/a	-999	10	[0, 0, 0]	n/a	catFR1	1	R1364C
1075.581	0.813	1076724	ENCODING_START	n/a	n/a	n/a	n/a	-999	10	[0, 0, 0]	n/a	catFR1	1	R1364C
1076.394	1.637	1077537	WORD	n/a	wordpools/wordpool_categorized_EN.txt	ARM	BodyParts	1	10	[0, 0, 0]	n/a	catFR1	1	R1364C
1078.031	0.983	1079174	WORD_OFF	n/a	n/a	ARM	BodyParts	1	10	[0, 0, 0]	n/a	catFR1	1	R1364C
1079.014	1.635	1080157	WORD	n/a	wordpools/wordpool_categorized_EN.txt	EAR	BodyParts	2	10	[0, 0, 0]	n/a	catFR1	1	R1364C
1080.649	0.788	1081792	WORD_OFF	n/a	n/a	EAR	BodyParts	2	10	[0, 0, 0]	n/a	catFR1	1	R1364C
1081.437	1.629	1082580	WORD	n/a	wordpools/wordpool_categorized_EN.txt	ISLAND	Landscapes	3	10	[0, 0, 0]	n/a	catFR1	1	R1364C
1083.066	1.095	1084209	WORD_OFF	n/a	n/a	ISLAND	Landscapes	3	10	[0, 0, 0]	n/a	catFR1	1	R1364C
1084.161	1.639	1085304	WORD	n/a	wordpools/wordpool_categorized_EN.txt	MOUNTAIN	Landscapes	4	10	[0, 0, 0]	n/a	catFR1	1	R1364C
1085.8	0.845	1086943	WORD_OFF	n/a	n/a	MOUNTAIN	Landscapes	4	10	[0, 0, 0]	n/a	catFR1	1	R1364C
1086.645	1.622	1087788	WORD	n/a	wordpools/wordpool_categorized_EN.txt	PLANKTON	OceanAnimals	5	10	[0, 0, 0]	n/a	catFR1	1	R1364C
1088.267	0.835	1089409	WORD_OFF	n/a	n/a	PLANKTON	OceanAnimals	5	10	[0, 0, 0]	n/a	catFR1	1	R1364C
1089.102	1.632	1090244	WORD	n/a	wordpools/wordpool_categorized_EN.txt	TURTLE	OceanAnimals	6	10	[0, 0, 0]	n/a	catFR1	1	R1364C
1090.734	1.113	1091876	WORD_OFF	n/a	n/a	TURTLE	OceanAnimals	6	10	[0, 0, 0]	n/a	catFR1	1	R1364C
1091.847	1.637	1092989	WORD	n/a	wordpools/wordpool_categorized_EN.txt	VALLEY	Landscapes	7	10	[0, 0, 0]	n/a	catFR1	1	R1364C
1093.484	0.833	1094626	WORD_OFF	n/a	n/a	VALLEY	Landscapes	7	10	[0, 0, 0]	n/a	catFR1	1	R1364C
1094.317	1.635	1095459	WORD	n/a	wordpools/wordpool_categorized_EN.txt	BEACH	Landscapes	8	10	[0, 0, 0]	n/a	catFR1	1	R1364C
1095.952	1.036	1097094	WORD_OFF	n/a	n/a	BEACH	Landscapes	8	10	[0, 0, 0]	n/a	catFR1	1	R1364C
1096.988	1.631	1098130	WORD	n/a	wordpools/wordpool_categorized_EN.txt	FISH	OceanAnimals	9	10	[0, 0, 0]	n/a	catFR1	1	R1364C
1098.619	0.876	1099761	WORD_OFF	n/a	n/a	FISH	OceanAnimals	9	10	[0, 0, 0]	n/a	catFR1	1	R1364C
1099.495	1.624	1100637	WORD	n/a	wordpools/wordpool_categorized_EN.txt	SQUID	OceanAnimals	10	10	[0, 0, 0]	n/a	catFR1	1	R1364C
1101.119	1.102	1102261	WORD_OFF	n/a	n/a	SQUID	OceanAnimals	10	10	[0, 0, 0]	n/a	catFR1	1	R1364C
1102.221	1.632	1103363	WORD	n/a	wordpools/wordpool_categorized_EN.txt	HAND	BodyParts	11	10	[0, 0, 0]	n/a	catFR1	1	R1364C
1103.853	0.82	1104995	WORD_OFF	n/a	n/a	HAND	BodyParts	11	10	[0, 0, 0]	n/a	catFR1	1	R1364C
1104.673	1.63	1105815	WORD	n/a	wordpools/wordpool_categorized_EN.txt	LEG	BodyParts	12	10	[0, 0, 0]	n/a	catFR1	1	R1364C
1106.303	0.001	1107445	WORD_OFF	n/a	n/a	LEG	BodyParts	12	10	[0, 0, 0]	n/a	catFR1	1	R1364C
1106.304	0.0	1107446	ENCODING_END	n/a	n/a	n/a	n/a	-999	10	[0, 0, 0]	n/a	catFR1	1	R1364C
1106.304	0.001	1107446	DISTRACT_START	n/a	n/a	n/a	n/a	-999	10	[0, 0, 0]	n/a	catFR1	1	R1364C
1106.305	0.015	1107447	START	n/a	n/a	n/a	n/a	-999	10	[-999, -999, -999]	n/a	catFR1	1	R1364C
1106.32	6.118	1107462	PROB	6.082	n/a	n/a	n/a	-999	10	[4, 8, 1]	13.0	catFR1	1	R1364C
1112.438	3.567	1113579	PROB	3.532	n/a	n/a	n/a	-999	10	[2, 7, 7]	16.0	catFR1	1	R1364C
1116.005	3.0	1117146	PROB	2.973	n/a	n/a	n/a	-999	10	[2, 1, 9]	12.0	catFR1	1	R1364C
1119.005	2.883	1120146	PROB	2.859	n/a	n/a	n/a	-999	10	[5, 2, 8]	15.0	catFR1	1	R1364C
1121.888	2.235	1123029	PROB	2.21	n/a	n/a	n/a	-999	10	[7, 3, 9]	19.0	catFR1	1	R1364C
1124.123	3.071	1125264	PROB	3.071	n/a	n/a	n/a	-999	10	[8, 7, 2]	17.0	catFR1	1	R1364C
1127.194	0.013	1128334	STOP	n/a	n/a	n/a	n/a	-999	10	[-999, -999, -999]	n/a	catFR1	1	R1364C
1127.207	0.527	1128347	DISTRACT_END	n/a	n/a	n/a	n/a	-999	10	[0, 0, 0]	n/a	catFR1	1	R1364C
1127.734	1.674	1128874	RETRIEVAL_ORIENT_START	n/a	n/a	n/a	n/a	-999	10	[0, 0, 0]	n/a	catFR1	1	R1364C
1129.408	0.0	1130548	RETRIEVAL_ORIENT_END	n/a	n/a	n/a	n/a	-999	10	[0, 0, 0]	n/a	catFR1	1	R1364C
1129.408	0.993	1130548	REC_START	n/a	n/a	n/a	n/a	-999	10	[0, 0, 0]	n/a	catFR1	1	R1364C
1130.401	2.733	1131541	REC_WORD	0.993	n/a	ISLAND	Landscapes	3	10	[0, 0, 0]	n/a	catFR1	1	R1364C
1133.134	0.795	1134274	REC_WORD	3.726	n/a	BEACH	Landscapes	8	10	[0, 0, 0]	n/a	catFR1	1	R1364C
1133.929	0.501	1135069	REC_WORD	4.521	n/a	MOUNTAIN	Landscapes	4	10	[0, 0, 0]	n/a	catFR1	1	R1364C
1134.43	2.398	1135570	REC_WORD	5.022	n/a	VALLEY	Landscapes	7	10	[0, 0, 0]	n/a	catFR1	1	R1364C
1136.828	0.838	1137968	REC_WORD	7.42	n/a	PLANKTON	OceanAnimals	5	10	[0, 0, 0]	n/a	catFR1	1	R1364C
1137.666	1.482	1138806	REC_WORD	8.258	n/a	TURTLE	OceanAnimals	6	10	[0, 0, 0]	n/a	catFR1	1	R1364C
1139.148	0.86	1140288	REC_WORD	9.74	n/a	SQUID	OceanAnimals	10	10	[0, 0, 0]	n/a	catFR1	1	R1364C
1140.008	3.034	1141148	REC_WORD	10.6	n/a	FISH	OceanAnimals	9	10	[0, 0, 0]	n/a	catFR1	1	R1364C
1143.042	0.801	1144182	REC_WORD	13.634	n/a	ARM	BodyParts	1	10	[0, 0, 0]	n/a	catFR1	1	R1364C
1143.843	3.665	1144983	REC_WORD	14.435	n/a	EAR	BodyParts	2	10	[0, 0, 0]	n/a	catFR1	1	R1364C
1147.508	11.912	1148647	REC_WORD	18.1	n/a	LEG	BodyParts	12	10	[0, 0, 0]	n/a	catFR1	1	R1364C
1159.42	0.0	1160559	REC_END	n/a	n/a	n/a	n/a	-999	10	[0, 0, 0]	n/a	catFR1	1	R1364C
1159.42	0.023	1160559	TRIAL_END	n/a	n/a	n/a	n/a	-999	10	[0, 0, 0]	n/a	catFR1	1	R1364C
1159.443	0.0	1160582	TRIAL_START	n/a	n/a	n/a	n/a	-999	11	[0, 0, 0]	n/a	catFR1	1	R1364C
1159.443	0.0	1160582	TRIAL	n/a	n/a	n/a	n/a	-999	11	[0, 0, 0]	n/a	catFR1	1	R1364C
1159.443	2.971	1160582	WAITING_START	n/a	n/a	n/a	n/a	-999	11	[0, 0, 0]	n/a	catFR1	1	R1364C
1162.414	0.0	1163553	WAITING_END	n/a	n/a	n/a	n/a	-999	11	[0, 0, 0]	n/a	catFR1	1	R1364C
1162.414	10.43	1163553	COUNTDOWN_START	n/a	n/a	n/a	n/a	-999	11	[0, 0, 0]	n/a	catFR1	1	R1364C
1172.844	0.001	1173982	COUNTDOWN_END	n/a	n/a	n/a	n/a	-999	11	[0, 0, 0]	n/a	catFR1	1	R1364C
1172.845	1.155	1173983	ORIENT_START	n/a	n/a	n/a	n/a	-999	11	[0, 0, 0]	n/a	catFR1	1	R1364C
1174.0	0.0	1175138	ORIENT_END	n/a	n/a	n/a	n/a	-999	11	[0, 0, 0]	n/a	catFR1	1	R1364C
1174.0	1.073	1175138	ENCODING_START	n/a	n/a	n/a	n/a	-999	11	[0, 0, 0]	n/a	catFR1	1	R1364C
1175.073	1.627	1176211	WORD	n/a	wordpools/wordpool_categorized_EN.txt	UNDERWEAR	Clothing	1	11	[0, 0, 0]	n/a	catFR1	1	R1364C
1176.7	1.032	1177838	WORD_OFF	n/a	n/a	UNDERWEAR	Clothing	1	11	[0, 0, 0]	n/a	catFR1	1	R1364C
1177.732	1.635	1178870	WORD	n/a	wordpools/wordpool_categorized_EN.txt	JACKET	Clothing	2	11	[0, 0, 0]	n/a	catFR1	1	R1364C
1179.367	1.11	1180505	WORD_OFF	n/a	n/a	JACKET	Clothing	2	11	[0, 0, 0]	n/a	catFR1	1	R1364C
1180.477	1.624	1181615	WORD	n/a	wordpools/wordpool_categorized_EN.txt	PHONE	Electronics	3	11	[0, 0, 0]	n/a	catFR1	1	R1364C
1182.101	1.143	1183239	WORD_OFF	n/a	n/a	PHONE	Electronics	3	11	[0, 0, 0]	n/a	catFR1	1	R1364C
1183.244	1.623	1184382	WORD	n/a	wordpools/wordpool_categorized_EN.txt	CALCULATOR	Electronics	4	11	[0, 0, 0]	n/a	catFR1	1	R1364C
1184.867	0.866	1186004	WORD_OFF	n/a	n/a	CALCULATOR	Electronics	4	11	[0, 0, 0]	n/a	catFR1	1	R1364C
1185.733	1.636	1186870	WORD	n/a	wordpools/wordpool_categorized_EN.txt	CABINET	Furniture	5	11	[0, 0, 0]	n/a	catFR1	1	R1364C
1187.369	0.864	1188506	WORD_OFF	n/a	n/a	CABINET	Furniture	5	11	[0, 0, 0]	n/a	catFR1	1	R1364C
1188.233	1.635	1189370	WORD	n/a	wordpools/wordpool_categorized_EN.txt	SOFA	Furniture	6	11	[0, 0, 0]	n/a	catFR1	1	R1364C
1189.868	1.065	1191005	WORD_OFF	n/a	n/a	SOFA	Furniture	6	11	[0, 0, 0]	n/a	catFR1	1	R1364C
1190.933	1.637	1192070	WORD	n/a	wordpools/wordpool_categorized_EN.txt	BLOUSE	Clothing	7	11	[0, 0, 0]	n/a	catFR1	1	R1364C
1192.57	0.991	1193707	WORD_OFF	n/a	n/a	BLOUSE	Clothing	7	11	[0, 0, 0]	n/a	catFR1	1	R1364C
1193.561	1.626	1194698	WORD	n/a	wordpools/wordpool_categorized_EN.txt	COAT	Clothing	8	11	[0, 0, 0]	n/a	catFR1	1	R1364C
1195.187	0.972	1196324	WORD_OFF	n/a	n/a	COAT	Clothing	8	11	[0, 0, 0]	n/a	catFR1	1	R1364C
1196.159	1.628	1197296	WORD	n/a	wordpools/wordpool_categorized_EN.txt	TABLE	Furniture	9	11	[0, 0, 0]	n/a	catFR1	1	R1364C
1197.787	0.754	1198924	WORD_OFF	n/a	n/a	TABLE	Furniture	9	11	[0, 0, 0]	n/a	catFR1	1	R1364C
1198.541	1.63	1199678	WORD	n/a	wordpools/wordpool_categorized_EN.txt	BOOKCASE	Furniture	10	11	[0, 0, 0]	n/a	catFR1	1	R1364C
1200.171	1.022	1201308	WORD_OFF	n/a	n/a	BOOKCASE	Furniture	10	11	[0, 0, 0]	n/a	catFR1	1	R1364C
1201.193	1.629	1202330	WORD	n/a	wordpools/wordpool_categorized_EN.txt	PRINTER	Electronics	11	11	[0, 0, 0]	n/a	catFR1	1	R1364C
1202.822	0.831	1203959	WORD_OFF	n/a	n/a	PRINTER	Electronics	11	11	[0, 0, 0]	n/a	catFR1	1	R1364C
1203.653	1.636	1204790	WORD	n/a	wordpools/wordpool_categorized_EN.txt	TELEVISION	Electronics	12	11	[0, 0, 0]	n/a	catFR1	1	R1364C
1205.289	0.0	1206425	WORD_OFF	n/a	n/a	TELEVISION	Electronics	12	11	[0, 0, 0]	n/a	catFR1	1	R1364C
1205.289	0.0	1206425	ENCODING_END	n/a	n/a	n/a	n/a	-999	11	[0, 0, 0]	n/a	catFR1	1	R1364C
1205.289	0.001	1206425	DISTRACT_START	n/a	n/a	n/a	n/a	-999	11	[0, 0, 0]	n/a	catFR1	1	R1364C
1205.29	0.015	1206426	START	n/a	n/a	n/a	n/a	-999	11	[-999, -999, -999]	n/a	catFR1	1	R1364C
1205.305	6.301	1206441	PROB	6.278	n/a	n/a	n/a	-999	11	[1, 5, 4]	10.0	catFR1	1	R1364C
1211.606	3.434	1212742	PROB	3.41	n/a	n/a	n/a	-999	11	[5, 9, 6]	20.0	catFR1	1	R1364C
1215.04	3.034	1216176	PROB	3.0	n/a	n/a	n/a	-999	11	[2, 6, 3]	11.0	catFR1	1	R1364C
1218.074	2.8	1219210	PROB	2.774	n/a	n/a	n/a	-999	11	[8, 6, 2]	16.0	catFR1	1	R1364C
1220.874	2.984	1222010	PROB	2.958	n/a	n/a	n/a	-999	11	[3, 7, 9]	19.0	catFR1	1	R1364C
1223.858	1.814	1224994	PROB	1.814	n/a	n/a	n/a	-999	11	[2, 5, 5]	12.0	catFR1	1	R1364C
1225.672	0.021	1226807	STOP	n/a	n/a	n/a	n/a	-999	11	[-999, -999, -999]	n/a	catFR1	1	R1364C
1225.693	0.678	1226828	DISTRACT_END	n/a	n/a	n/a	n/a	-999	11	[0, 0, 0]	n/a	catFR1	1	R1364C
1226.371	1.572	1227506	RETRIEVAL_ORIENT_START	n/a	n/a	n/a	n/a	-999	11	[0, 0, 0]	n/a	catFR1	1	R1364C
1227.943	0.0	1229078	RETRIEVAL_ORIENT_END	n/a	n/a	n/a	n/a	-999	11	[0, 0, 0]	n/a	catFR1	1	R1364C
1227.943	1.343	1229078	REC_START	n/a	n/a	n/a	n/a	-999	11	[0, 0, 0]	n/a	catFR1	1	R1364C
1229.286	0.926	1230421	REC_WORD	1.343	n/a	UNDERWEAR	Clothing	1	11	[0, 0, 0]	n/a	catFR1	1	R1364C
1230.212	2.719	1231347	REC_WORD	2.269	n/a	BLOUSE	Clothing	7	11	[0, 0, 0]	n/a	catFR1	1	R1364C
1232.931	3.508	1234066	REC_WORD	4.988	n/a	CABINET	Furniture	5	11	[0, 0, 0]	n/a	catFR1	1	R1364C
1236.439	0.772	1237574	REC_WORD	8.496	n/a	JACKET	Clothing	2	11	[0, 0, 0]	n/a	catFR1	1	R1364C
1237.211	3.471	1238346	REC_WORD	9.268	n/a	COAT	Clothing	8	11	[0, 0, 0]	n/a	catFR1	1	R1364C
1240.682	0.986	1241817	REC_WORD	12.739	n/a	BOOKCASE	Furniture	10	11	[0, 0, 0]	n/a	catFR1	1	R1364C
1241.668	5.41	1242803	REC_WORD	13.725	n/a	SOFA	Furniture	6	11	[0, 0, 0]	n/a	catFR1	1	R1364C
1247.078	10.878	1248212	REC_WORD	19.135	n/a	PRINTER	Electronics	11	11	[0, 0, 0]	n/a	catFR1	1	R1364C
1257.956	0.001	1259090	REC_END	n/a	n/a	n/a	n/a	-999	11	[0, 0, 0]	n/a	catFR1	1	R1364C
1257.957	0.022	1259091	TRIAL_END	n/a	n/a	n/a	n/a	-999	11	[0, 0, 0]	n/a	catFR1	1	R1364C
1257.979	0.001	1259113	TRIAL_START	n/a	n/a	n/a	n/a	-999	12	[0, 0, 0]	n/a	catFR1	1	R1364C
1257.98	0.0	1259114	TRIAL	n/a	n/a	n/a	n/a	-999	12	[0, 0, 0]	n/a	catFR1	1	R1364C
1257.98	2.169	1259114	WAITING_START	n/a	n/a	n/a	n/a	-999	12	[0, 0, 0]	n/a	catFR1	1	R1364C
1260.149	0.001	1261283	WAITING_END	n/a	n/a	n/a	n/a	-999	12	[0, 0, 0]	n/a	catFR1	1	R1364C
1260.15	10.428	1261284	COUNTDOWN_START	n/a	n/a	n/a	n/a	-999	12	[0, 0, 0]	n/a	catFR1	1	R1364C
1270.578	0.001	1271711	COUNTDOWN_END	n/a	n/a	n/a	n/a	-999	12	[0, 0, 0]	n/a	catFR1	1	R1364C
1270.579	1.04	1271712	ORIENT_START	n/a	n/a	n/a	n/a	-999	12	[0, 0, 0]	n/a	catFR1	1	R1364C
1271.619	0.0	1272752	ENCODING_START	n/a	n/a	n/a	n/a	-999	12	[0, 0, 0]	n/a	catFR1	1	R1364C
1271.619	0.853	1272752	ORIENT_END	n/a	n/a	n/a	n/a	-999	12	[0, 0, 0]	n/a	catFR1	1	R1364C
1272.472	1.63	1273605	WORD	n/a	wordpools/wordpool_categorized_EN.txt	FOUNDATION	Building	1	12	[0, 0, 0]	n/a	catFR1	1	R1364C
1274.102	0.793	1275235	WORD_OFF	n/a	n/a	FOUNDATION	Building	1	12	[0, 0, 0]	n/a	catFR1	1	R1364C
1274.895	1.624	1276028	WORD	n/a	wordpools/wordpool_categorized_EN.txt	ATTIC	Building	2	12	[0, 0, 0]	n/a	catFR1	1	R1364C
1276.519	0.992	1277652	WORD_OFF	n/a	n/a	ATTIC	Building	2	12	[0, 0, 0]	n/a	catFR1	1	R1364C
1277.511	1.625	1278644	WORD	n/a	wordpools/wordpool_categorized_EN.txt	SANDER	Tools	3	12	[0, 0, 0]	n/a	catFR1	1	R1364C
1279.136	1.041	1280269	WORD_OFF	n/a	n/a	SANDER	Tools	3	12	[0, 0, 0]	n/a	catFR1	1	R1364C
1280.177	1.626	1281310	WORD	n/a	wordpools/wordpool_categorized_EN.txt	SCREWDRIVER	Tools	4	12	[0, 0, 0]	n/a	catFR1	1	R1364C
1281.803	1.141	1282936	WORD_OFF	n/a	n/a	SCREWDRIVER	Tools	4	12	[0, 0, 0]	n/a	catFR1	1	R1364C
1282.944	1.626	1284076	WORD	n/a	wordpools/wordpool_categorized_EN.txt	CLOUD	Weather	5	12	[0, 0, 0]	n/a	catFR1	1	R1364C
1284.57	1.14	1285702	WORD_OFF	n/a	n/a	CLOUD	Weather	5	12	[0, 0, 0]	n/a	catFR1	1	R1364C
1285.71	1.627	1286842	WORD	n/a	wordpools/wordpool_categorized_EN.txt	HUMIDITY	Weather	6	12	[0, 0, 0]	n/a	catFR1	1	R1364C
1287.337	0.793	1288469	WORD_OFF	n/a	n/a	HUMIDITY	Weather	6	12	[0, 0, 0]	n/a	catFR1	1	R1364C
1288.13	1.625	1289262	WORD	n/a	wordpools/wordpool_categorized_EN.txt	SAW	Tools	7	12	[0, 0, 0]	n/a	catFR1	1	R1364C
1289.755	0.947	1290887	WORD_OFF	n/a	n/a	SAW	Tools	7	12	[0, 0, 0]	n/a	catFR1	1	R1364C
1290.702	1.636	1291834	WORD	n/a	wordpools/wordpool_categorized_EN.txt	CROWBAR	Tools	8	12	[0, 0, 0]	n/a	catFR1	1	R1364C
1292.338	0.875	1293470	WORD_OFF	n/a	n/a	CROWBAR	Tools	8	12	[0, 0, 0]	n/a	catFR1	1	R1364C
1293.213	1.626	1294345	WORD	n/a	wordpools/wordpool_categorized_EN.txt	ROOF	Building	9	12	[0, 0, 0]	n/a	catFR1	1	R1364C
1294.839	1.147	1295971	WORD_OFF	n/a	n/a	ROOF	Building	9	12	[0, 0, 0]	n/a	catFR1	1	R1364C
1295.986	1.637	1297118	WORD	n/a	wordpools/wordpool_categorized_EN.txt	DOOR	Building	10	12	[0, 0, 0]	n/a	catFR1	1	R1364C
1297.623	0.777	1298755	WORD_OFF	n/a	n/a	DOOR	Building	10	12	[0, 0, 0]	n/a	catFR1	1	R1364C
1298.4	1.623	1299532	WORD	n/a	wordpools/wordpool_categorized_EN.txt	SNOW	Weather	11	12	[0, 0, 0]	n/a	catFR1	1	R1364C
1300.023	1.118	1301155	WORD_OFF	n/a	n/a	SNOW	Weather	11	12	[0, 0, 0]	n/a	catFR1	1	R1364C
1301.141	1.633	1302273	WORD	n/a	wordpools/wordpool_categorized_EN.txt	LIGHTNING	Weather	12	12	[0, 0, 0]	n/a	catFR1	1	R1364C
1302.774	0.0	1303905	WORD_OFF	n/a	n/a	LIGHTNING	Weather	12	12	[0, 0, 0]	n/a	catFR1	1	R1364C
1302.774	0.001	1303905	ENCODING_END	n/a	n/a	n/a	n/a	-999	12	[0, 0, 0]	n/a	catFR1	1	R1364C
1302.775	0.0	1303906	DISTRACT_START	n/a	n/a	n/a	n/a	-999	12	[0, 0, 0]	n/a	catFR1	1	R1364C
1302.775	0.015	1303906	START	n/a	n/a	n/a	n/a	-999	12	[-999, -999, -999]	n/a	catFR1	1	R1364C
1302.79	5.1	1303921	PROB	5.063	n/a	n/a	n/a	-999	12	[1, 1, 7]	9.0	catFR1	1	R1364C
1307.89	4.368	1309021	PROB	4.344	n/a	n/a	n/a	-999	12	[2, 8, 4]	14.0	catFR1	1	R1364C
1312.258	8.119	1313389	PROB	8.08	n/a	n/a	n/a	-999	12	[3, 8, 4]	1.0	catFR1	1	R1364C
1320.377	2.117	1321508	PROB	2.082	n/a	n/a	n/a	-999	12	[4, 5, 7]	15.0	catFR1	1	R1364C
1322.494	5.198	1323624	PROB	5.198	n/a	n/a	n/a	-999	12	[3, 4, 5]	12.0	catFR1	1	R1364C
1327.692	0.02	1328822	STOP	n/a	n/a	n/a	n/a	-999	12	[-999, -999, -999]	n/a	catFR1	1	R1364C
1327.712	0.545	1328842	DISTRACT_END	n/a	n/a	n/a	n/a	-999	12	[0, 0, 0]	n/a	catFR1	1	R1364C
1328.257	1.588	1329387	RETRIEVAL_ORIENT_START	n/a	n/a	n/a	n/a	-999	12	[0, 0, 0]	n/a	catFR1	1	R1364C
1329.845	0.001	1330975	RETRIEVAL_ORIENT_END	n/a	n/a	n/a	n/a	-999	12	[0, 0, 0]	n/a	catFR1	1	R1364C
1329.846	1.11	1330976	REC_START	n/a	n/a	n/a	n/a	-999	12	[0, 0, 0]	n/a	catFR1	1	R1364C
1330.956	1.101	1332086	REC_WORD	1.11	n/a	FOUNDATION	Building	1	12	[0, 0, 0]	n/a	catFR1	1	R1364C
1332.057	1.352	1333187	REC_WORD	2.211	n/a	ATTIC	Building	2	12	[0, 0, 0]	n/a	catFR1	1	R1364C
1333.409	1.312	1334539	REC_WORD	3.563	n/a	DOOR	Building	10	12	[0, 0, 0]	n/a	catFR1	1	R1364C
1334.721	2.072	1335851	REC_WORD	4.875	n/a	ROOF	Building	9	12	[0, 0, 0]	n/a	catFR1	1	R1364C
1336.793	0.921	1337923	REC_WORD	6.947	n/a	SNOW	Weather	11	12	[0, 0, 0]	n/a	catFR1	1	R1364C
1337.714	2.864	1338844	REC_WORD	7.868	n/a	LIGHTNING	Weather	12	12	[0, 0, 0]	n/a	catFR1	1	R1364C
1340.578	3.088	1341708	REC_WORD	10.732	n/a	SANDER	Tools	3	12	[0, 0, 0]	n/a	catFR1	1	R1364C
1343.666	2.112	1344795	REC_WORD	13.82	n/a	CROWBAR	Tools	8	12	[0, 0, 0]	n/a	catFR1	1	R1364C
1345.778	14.079	1346907	REC_WORD	15.932	n/a	SAW	Tools	7	12	[0, 0, 0]	n/a	catFR1	1	R1364C
1359.857	0.001	1360986	REC_END	n/a	n/a	n/a	n/a	-999	12	[0, 0, 0]	n/a	catFR1	1	R1364C
1359.858	0.021	1360987	TRIAL_END	n/a	n/a	n/a	n/a	-999	12	[0, 0, 0]	n/a	catFR1	1	R1364C
1359.879	0.0	1361008	TRIAL_START	n/a	n/a	n/a	n/a	-999	13	[0, 0, 0]	n/a	catFR1	1	R1364C
1359.879	0.0	1361008	TRIAL	n/a	n/a	n/a	n/a	-999	13	[0, 0, 0]	n/a	catFR1	1	R1364C
1359.879	2.489	1361008	WAITING_START	n/a	n/a	n/a	n/a	-999	13	[0, 0, 0]	n/a	catFR1	1	R1364C
1362.368	0.001	1363496	WAITING_END	n/a	n/a	n/a	n/a	-999	13	[0, 0, 0]	n/a	catFR1	1	R1364C
1362.369	10.429	1363497	COUNTDOWN_START	n/a	n/a	n/a	n/a	-999	13	[0, 0, 0]	n/a	catFR1	1	R1364C
1372.798	0.0	1373926	COUNTDOWN_END	n/a	n/a	n/a	n/a	-999	13	[0, 0, 0]	n/a	catFR1	1	R1364C
1372.798	1.172	1373926	ORIENT_START	n/a	n/a	n/a	n/a	-999	13	[0, 0, 0]	n/a	catFR1	1	R1364C
1373.97	0.001	1375098	ORIENT_END	n/a	n/a	n/a	n/a	-999	13	[0, 0, 0]	n/a	catFR1	1	R1364C
1373.971	0.886	1375099	ENCODING_START	n/a	n/a	n/a	n/a	-999	13	[0, 0, 0]	n/a	catFR1	1	R1364C
1374.857	1.63	1375985	WORD	n/a	wordpools/wordpool_categorized_EN.txt	COOKIE	Desserts	1	13	[0, 0, 0]	n/a	catFR1	1	R1364C
1376.487	1.018	1377615	WORD_OFF	n/a	n/a	COOKIE	Desserts	1	13	[0, 0, 0]	n/a	catFR1	1	R1364C
1377.505	1.633	1378633	WORD	n/a	wordpools/wordpool_categorized_EN.txt	PIE	Desserts	2	13	[0, 0, 0]	n/a	catFR1	1	R1364C
1379.138	0.89	1380266	WORD_OFF	n/a	n/a	PIE	Desserts	2	13	[0, 0, 0]	n/a	catFR1	1	R1364C
1380.028	1.627	1381156	WORD	n/a	wordpools/wordpool_categorized_EN.txt	TRUMPET	Instruments	3	13	[0, 0, 0]	n/a	catFR1	1	R1364C
1381.655	1.065	1382782	WORD_OFF	n/a	n/a	TRUMPET	Instruments	3	13	[0, 0, 0]	n/a	catFR1	1	R1364C
1382.72	1.636	1383847	WORD	n/a	wordpools/wordpool_categorized_EN.txt	TROMBONE	Instruments	4	13	[0, 0, 0]	n/a	catFR1	1	R1364C
1384.356	0.875	1385483	WORD_OFF	n/a	n/a	TROMBONE	Instruments	4	13	[0, 0, 0]	n/a	catFR1	1	R1364C
1385.231	1.625	1386358	WORD	n/a	wordpools/wordpool_categorized_EN.txt	BEAR	Zoo	5	13	[0, 0, 0]	n/a	catFR1	1	R1364C
1386.856	0.979	1387983	WORD_OFF	n/a	n/a	BEAR	Zoo	5	13	[0, 0, 0]	n/a	catFR1	1	R1364C
1387.835	1.638	1388962	WORD	n/a	wordpools/wordpool_categorized_EN.txt	MONKEY	Zoo	6	13	[0, 0, 0]	n/a	catFR1	1	R1364C
1389.473	1.061	1390600	WORD_OFF	n/a	n/a	MONKEY	Zoo	6	13	[0, 0, 0]	n/a	catFR1	1	R1364C
1390.534	1.623	1391661	WORD	n/a	wordpools/wordpool_categorized_EN.txt	BANJO	Instruments	7	13	[0, 0, 0]	n/a	catFR1	1	R1364C
1392.157	0.795	1393284	WORD_OFF	n/a	n/a	BANJO	Instruments	7	13	[0, 0, 0]	n/a	catFR1	1	R1364C
1392.952	1.622	1394079	WORD	n/a	wordpools/wordpool_categorized_EN.txt	PIANO	Instruments	8	13	[0, 0, 0]	n/a	catFR1	1	R1364C
1394.574	1.049	1395701	WORD_OFF	n/a	n/a	PIANO	Instruments	8	13	[0, 0, 0]	n/a	catFR1	1	R1364C
1395.623	1.635	1396750	WORD	n/a	wordpools/wordpool_categorized_EN.txt	GORILLA	Zoo	9	13	[0, 0, 0]	n/a	catFR1	1	R1364C
1397.258	0.834	1398385	WORD_OFF	n/a	n/a	GORILLA	Zoo	9	13	[0, 0, 0]	n/a	catFR1	1	R1364C
1398.092	1.633	1399219	WORD	n/a	wordpools/wordpool_categorized_EN.txt	CHEETAH	Zoo	10	13	[0, 0, 0]	n/a	catFR1	1	R1364C
1399.725	0.779	1400852	WORD_OFF	n/a	n/a	CHEETAH	Zoo	10	13	[0, 0, 0]	n/a	catFR1	1	R1364C
1400.504	1.638	1401631	WORD	n/a	wordpools/wordpool_categorized_EN.txt	CAKE	Desserts	11	13	[0, 0, 0]	n/a	catFR1	1	R1364C
1402.142	1.1	1403268	WORD_OFF	n/a	n/a	CAKE	Desserts	11	13	[0, 0, 0]	n/a	catFR1	1	R1364C
1403.242	1.633	1404368	WORD	n/a	wordpools/wordpool_categorized_EN.txt	COBBLER	Desserts	12	13	[0, 0, 0]	n/a	catFR1	1	R1364C
1404.875	0.001	1406001	WORD_OFF	n/a	n/a	COBBLER	Desserts	12	13	[0, 0, 0]	n/a	catFR1	1	R1364C
1404.876	0.0	1406002	ENCODING_END	n/a	n/a	n/a	n/a	-999	13	[0, 0, 0]	n/a	catFR1	1	R1364C
1404.876	0.0	1406002	DISTRACT_START	n/a	n/a	n/a	n/a	-999	13	[0, 0, 0]	n/a	catFR1	1	R1364C
1404.876	0.015	1406002	START	n/a	n/a	n/a	n/a	-999	13	[-999, -999, -999]	n/a	catFR1	1	R1364C
1404.891	4.219	1406017	PROB	4.181	n/a	n/a	n/a	-999	13	[1, 9, 2]	12.0	catFR1	1	R1364C
1409.11	3.201	1410236	PROB	3.163	n/a	n/a	n/a	-999	13	[3, 9, 2]	14.0	catFR1	1	R1364C
1412.311	6.334	1413437	PROB	6.298	n/a	n/a	n/a	-999	13	[5, 8, 2]	15.0	catFR1	1	R1364C
1418.645	2.85	1419771	PROB	2.811	n/a	n/a	n/a	-999	13	[4, 7, 2]	13.0	catFR1	1	R1364C
1421.495	2.534	1422620	PROB	2.497	n/a	n/a	n/a	-999	13	[9, 1, 7]	17.0	catFR1	1	R1364C
1424.029	4.121	1425154	PROB	4.121	n/a	n/a	n/a	-999	13	[9, 4, 9]	22.0	catFR1	1	R1364C
1428.15	0.014	1429275	STOP	n/a	n/a	n/a	n/a	-999	13	[-999, -999, -999]	n/a	catFR1	1	R1364C
1428.164	0.581	1429289	DISTRACT_END	n/a	n/a	n/a	n/a	-999	13	[0, 0, 0]	n/a	catFR1	1	R1364C
1428.745	1.652	1429870	RETRIEVAL_ORIENT_START	n/a	n/a	n/a	n/a	-999	13	[0, 0, 0]	n/a	catFR1	1	R1364C
1430.397	0.001	1431522	RETRIEVAL_ORIENT_END	n/a	n/a	n/a	n/a	-999	13	[0, 0, 0]	n/a	catFR1	1	R1364C
1430.398	1.505	1431523	REC_START	n/a	n/a	n/a	n/a	-999	13	[0, 0, 0]	n/a	catFR1	1	R1364C
1431.903	1.105	1433028	REC_WORD	1.505	n/a	PIE	Desserts	2	13	[0, 0, 0]	n/a	catFR1	1	R1364C
1433.008	4.258	1434133	REC_WORD	2.61	n/a	COBBLER	Desserts	12	13	[0, 0, 0]	n/a	catFR1	1	R1364C
1437.266	1.187	1438391	REC_WORD	6.868	n/a	MONKEY	Zoo	6	13	[0, 0, 0]	n/a	catFR1	1	R1364C
1438.453	11.14	1439578	REC_WORD	8.055	n/a	BEAR	Zoo	5	13	[0, 0, 0]	n/a	catFR1	1	R1364C
1449.593	3.223	1450717	REC_WORD	19.195	n/a	TRUMPET	Instruments	3	13	[0, 0, 0]	n/a	catFR1	1	R1364C
1452.816	0.63	1453940	REC_WORD	22.418	n/a	BANJO	Instruments	7	13	[0, 0, 0]	n/a	catFR1	1	R1364C
1453.446	6.963	1454570	REC_WORD	23.048	n/a	PIANO	Instruments	8	13	[0, 0, 0]	n/a	catFR1	1	R1364C
1460.409	0.0	1461532	REC_END	n/a	n/a	n/a	n/a	-999	13	[0, 0, 0]	n/a	catFR1	1	R1364C
1460.409	0.022	1461532	TRIAL_END	n/a	n/a	n/a	n/a	-999	13	[0, 0, 0]	n/a	catFR1	1	R1364C
1460.431	0.001	1461554	TRIAL_START	n/a	n/a	n/a	n/a	-999	14	[0, 0, 0]	n/a	catFR1	1	R1364C
1460.432	0.0	1461555	WAITING_START	n/a	n/a	n/a	n/a	-999	14	[0, 0, 0]	n/a	catFR1	1	R1364C
1460.432	2.454	1461555	TRIAL	n/a	n/a	n/a	n/a	-999	14	[0, 0, 0]	n/a	catFR1	1	R1364C
1462.886	0.001	1464009	WAITING_END	n/a	n/a	n/a	n/a	-999	14	[0, 0, 0]	n/a	catFR1	1	R1364C
1462.887	10.428	1464010	COUNTDOWN_START	n/a	n/a	n/a	n/a	-999	14	[0, 0, 0]	n/a	catFR1	1	R1364C
1473.315	0.001	1474438	COUNTDOWN_END	n/a	n/a	n/a	n/a	-999	14	[0, 0, 0]	n/a	catFR1	1	R1364C
1473.316	1.106	1474439	ORIENT_START	n/a	n/a	n/a	n/a	-999	14	[0, 0, 0]	n/a	catFR1	1	R1364C
1474.422	0.001	1475545	ORIENT_END	n/a	n/a	n/a	n/a	-999	14	[0, 0, 0]	n/a	catFR1	1	R1364C
1474.423	1.126	1475546	ENCODING_START	n/a	n/a	n/a	n/a	-999	14	[0, 0, 0]	n/a	catFR1	1	R1364C
1475.549	1.624	1476672	WORD	n/a	wordpools/wordpool_categorized_EN.txt	HORSE	FarmAnimals	1	14	[0, 0, 0]	n/a	catFR1	1	R1364C
1477.173	1.089	1478296	WORD_OFF	n/a	n/a	HORSE	FarmAnimals	1	14	[0, 0, 0]	n/a	catFR1	1	R1364C
1478.262	1.627	1479385	WORD	n/a	wordpools/wordpool_categorized_EN.txt	ROOSTER	FarmAnimals	2	14	[0, 0, 0]	n/a	catFR1	1	R1364C
1479.889	1.12	1481011	WORD_OFF	n/a	n/a	ROOSTER	FarmAnimals	2	14	[0, 0, 0]	n/a	catFR1	1	R1364C
1481.009	1.632	1482131	WORD	n/a	wordpools/wordpool_categorized_EN.txt	CHAIR	Furniture	3	14	[0, 0, 0]	n/a	catFR1	1	R1364C
1482.641	0.917	1483763	WORD_OFF	n/a	n/a	CHAIR	Furniture	3	14	[0, 0, 0]	n/a	catFR1	1	R1364C
1483.558	1.633	1484680	WORD	n/a	wordpools/wordpool_categorized_EN.txt	DESK	Furniture	4	14	[0, 0, 0]	n/a	catFR1	1	R1364C
1485.191	0.931	1486313	WORD_OFF	n/a	n/a	DESK	Furniture	4	14	[0, 0, 0]	n/a	catFR1	1	R1364C
1486.122	1.636	1487244	WORD	n/a	wordpools/wordpool_categorized_EN.txt	LETTUCE	Vegetables	5	14	[0, 0, 0]	n/a	catFR1	1	R1364C
1487.758	1.078	1488880	WORD_OFF	n/a	n/a	LETTUCE	Vegetables	5	14	[0, 0, 0]	n/a	catFR1	1	R1364C
1488.836	1.623	1489958	WORD	n/a	wordpools/wordpool_categorized_EN.txt	CORN	Vegetables	6	14	[0, 0, 0]	n/a	catFR1	1	R1364C
1490.459	0.774	1491581	WORD_OFF	n/a	n/a	CORN	Vegetables	6	14	[0, 0, 0]	n/a	catFR1	1	R1364C
1491.233	1.626	1492355	WORD	n/a	wordpools/wordpool_categorized_EN.txt	NIGHTSTAND	Furniture	7	14	[0, 0, 0]	n/a	catFR1	1	R1364C
1492.859	1.062	1493981	WORD_OFF	n/a	n/a	NIGHTSTAND	Furniture	7	14	[0, 0, 0]	n/a	catFR1	1	R1364C
1493.921	1.639	1495043	WORD	n/a	wordpools/wordpool_categorized_EN.txt	SHELF	Furniture	8	14	[0, 0, 0]	n/a	catFR1	1	R1364C
1495.56	0.768	1496682	WORD_OFF	n/a	n/a	SHELF	Furniture	8	14	[0, 0, 0]	n/a	catFR1	1	R1364C
1496.328	1.632	1497450	WORD	n/a	wordpools/wordpool_categorized_EN.txt	CAULIFLOWER	Vegetables	9	14	[0, 0, 0]	n/a	catFR1	1	R1364C
1497.96	0.932	1499082	WORD_OFF	n/a	n/a	CAULIFLOWER	Vegetables	9	14	[0, 0, 0]	n/a	catFR1	1	R1364C
1498.892	1.635	1500013	WORD	n/a	wordpools/wordpool_categorized_EN.txt	ONION	Vegetables	10	14	[0, 0, 0]	n/a	catFR1	1	R1364C
1500.527	0.829	1501648	WORD_OFF	n/a	n/a	ONION	Vegetables	10	14	[0, 0, 0]	n/a	catFR1	1	R1364C
1501.356	1.639	1502477	WORD	n/a	wordpools/wordpool_categorized_EN.txt	BULL	FarmAnimals	11	14	[0, 0, 0]	n/a	catFR1	1	R1364C
1502.995	0.759	1504116	WORD_OFF	n/a	n/a	BULL	FarmAnimals	11	14	[0, 0, 0]	n/a	catFR1	1	R1364C
1503.754	1.624	1504875	WORD	n/a	wordpools/wordpool_categorized_EN.txt	HEN	FarmAnimals	12	14	[0, 0, 0]	n/a	catFR1	1	R1364C
1505.378	0.001	1506499	WORD_OFF	n/a	n/a	HEN	FarmAnimals	12	14	[0, 0, 0]	n/a	catFR1	1	R1364C
1505.379	0.0	1506500	DISTRACT_START	n/a	n/a	n/a	n/a	-999	14	[0, 0, 0]	n/a	catFR1	1	R1364C
1505.379	0.0	1506500	ENCODING_END	n/a	n/a	n/a	n/a	-999	14	[0, 0, 0]	n/a	catFR1	1	R1364C
1505.379	0.016	1506500	START	n/a	n/a	n/a	n/a	-999	14	[-999, -999, -999]	n/a	catFR1	1	R1364C
1505.395	5.117	1506516	PROB	5.093	n/a	n/a	n/a	-999	14	[8, 2, 1]	11.0	catFR1	1	R1364C
1510.512	3.034	1511633	PROB	2.999	n/a	n/a	n/a	-999	14	[1, 3, 3]	7.0	catFR1	1	R1364C
1513.546	3.284	1514667	PROB	3.261	n/a	n/a	n/a	-999	14	[2, 9, 4]	15.0	catFR1	1	R1364C
1516.83	3.066	1517951	PROB	3.04	n/a	n/a	n/a	-999	14	[1, 9, 1]	11.0	catFR1	1	R1364C
1519.896	2.369	1521016	PROB	2.335	n/a	n/a	n/a	-999	14	[7, 7, 1]	15.0	catFR1	1	R1364C
1522.265	3.333	1523385	PROB	3.333	n/a	n/a	n/a	-999	14	[5, 1, 7]	13.0	catFR1	1	R1364C
1525.598	0.017	1526718	STOP	n/a	n/a	n/a	n/a	-999	14	[-999, -999, -999]	n/a	catFR1	1	R1364C
1525.615	0.576	1526735	DISTRACT_END	n/a	n/a	n/a	n/a	-999	14	[0, 0, 0]	n/a	catFR1	1	R1364C
1526.191	1.575	1527311	RETRIEVAL_ORIENT_START	n/a	n/a	n/a	n/a	-999	14	[0, 0, 0]	n/a	catFR1	1	R1364C
1527.766	0.0	1528886	RETRIEVAL_ORIENT_END	n/a	n/a	n/a	n/a	-999	14	[0, 0, 0]	n/a	catFR1	1	R1364C
1527.766	1.196	1528886	REC_START	n/a	n/a	n/a	n/a	-999	14	[0, 0, 0]	n/a	catFR1	1	R1364C
1528.962	0.767	1530082	REC_WORD	1.196	n/a	ROOSTER	FarmAnimals	2	14	[0, 0, 0]	n/a	catFR1	1	R1364C
1529.729	0.955	1530849	REC_WORD	1.963	n/a	HEN	FarmAnimals	12	14	[0, 0, 0]	n/a	catFR1	1	R1364C
1530.684	1.094	1531804	REC_WORD	2.918	n/a	HORSE	FarmAnimals	1	14	[0, 0, 0]	n/a	catFR1	1	R1364C
1531.778	3.651	1532898	REC_WORD	4.012	n/a	BULL	FarmAnimals	11	14	[0, 0, 0]	n/a	catFR1	1	R1364C
1535.429	0.884	1536549	REC_WORD	7.663	n/a	DESK	Furniture	4	14	[0, 0, 0]	n/a	catFR1	1	R1364C
1536.313	1.835	1537433	REC_WORD	8.547	n/a	CHAIR	Furniture	3	14	[0, 0, 0]	n/a	catFR1	1	R1364C
1538.148	0.731	1539267	REC_WORD	10.382	n/a	NIGHTSTAND	Furniture	7	14	[0, 0, 0]	n/a	catFR1	1	R1364C
1538.879	5.093	1539998	REC_WORD	11.113	n/a	SHELF	Furniture	8	14	[0, 0, 0]	n/a	catFR1	1	R1364C
1543.972	0.71	1545091	REC_WORD	16.206	n/a	LETTUCE	Vegetables	5	14	[0, 0, 0]	n/a	catFR1	1	R1364C
1544.682	0.654	1545801	REC_WORD	16.916	n/a	CORN	Vegetables	6	14	[0, 0, 0]	n/a	catFR1	1	R1364C
1545.336	12.442	1546455	REC_WORD	17.57	n/a	CAULIFLOWER	Vegetables	9	14	[0, 0, 0]	n/a	catFR1	1	R1364C
1557.778	0.001	1558896	REC_END	n/a	n/a	n/a	n/a	-999	14	[0, 0, 0]	n/a	catFR1	1	R1364C
1557.779	0.022	1558897	TRIAL_END	n/a	n/a	n/a	n/a	-999	14	[0, 0, 0]	n/a	catFR1	1	R1364C
1557.801	0.0	1558919	WAITING_START	n/a	n/a	n/a	n/a	-999	15	[0, 0, 0]	n/a	catFR1	1	R1364C
1557.801	0.0	1558919	TRIAL	n/a	n/a	n/a	n/a	-999	15	[0, 0, 0]	n/a	catFR1	1	R1364C
1557.801	2.771	1558919	TRIAL_START	n/a	n/a	n/a	n/a	-999	15	[0, 0, 0]	n/a	catFR1	1	R1364C
1560.572	0.0	1561690	WAITING_END	n/a	n/a	n/a	n/a	-999	15	[0, 0, 0]	n/a	catFR1	1	R1364C
1560.572	10.43	1561690	COUNTDOWN_START	n/a	n/a	n/a	n/a	-999	15	[0, 0, 0]	n/a	catFR1	1	R1364C
1571.002	0.0	1572120	COUNTDOWN_END	n/a	n/a	n/a	n/a	-999	15	[0, 0, 0]	n/a	catFR1	1	R1364C
1571.002	1.14	1572120	ORIENT_START	n/a	n/a	n/a	n/a	-999	15	[0, 0, 0]	n/a	catFR1	1	R1364C
1572.142	0.001	1573260	ORIENT_END	n/a	n/a	n/a	n/a	-999	15	[0, 0, 0]	n/a	catFR1	1	R1364C
1572.143	0.925	1573261	ENCODING_START	n/a	n/a	n/a	n/a	-999	15	[0, 0, 0]	n/a	catFR1	1	R1364C
1573.068	1.623	1574186	WORD	n/a	wordpools/wordpool_categorized_EN.txt	HEAD	BodyParts	1	15	[0, 0, 0]	n/a	catFR1	1	R1364C
1574.691	0.773	1575809	WORD_OFF	n/a	n/a	HEAD	BodyParts	1	15	[0, 0, 0]	n/a	catFR1	1	R1364C
1575.464	1.628	1576582	WORD	n/a	wordpools/wordpool_categorized_EN.txt	KNEE	BodyParts	2	15	[0, 0, 0]	n/a	catFR1	1	R1364C
1577.092	1.083	1578209	WORD_OFF	n/a	n/a	KNEE	BodyParts	2	15	[0, 0, 0]	n/a	catFR1	1	R1364C
1578.175	1.634	1579292	WORD	n/a	wordpools/wordpool_categorized_EN.txt	JEANS	Clothing	3	15	[0, 0, 0]	n/a	catFR1	1	R1364C
1579.809	0.773	1580926	WORD_OFF	n/a	n/a	JEANS	Clothing	3	15	[0, 0, 0]	n/a	catFR1	1	R1364C
1580.582	1.627	1581699	WORD	n/a	wordpools/wordpool_categorized_EN.txt	SHORTS	Clothing	4	15	[0, 0, 0]	n/a	catFR1	1	R1364C
1582.209	0.805	1583326	WORD_OFF	n/a	n/a	SHORTS	Clothing	4	15	[0, 0, 0]	n/a	catFR1	1	R1364C
1583.014	1.629	1584131	WORD	n/a	wordpools/wordpool_categorized_EN.txt	SPINACH	Vegetables	5	15	[0, 0, 0]	n/a	catFR1	1	R1364C
1584.643	0.904	1585760	WORD_OFF	n/a	n/a	SPINACH	Vegetables	5	15	[0, 0, 0]	n/a	catFR1	1	R1364C
1585.547	1.63	1586664	WORD	n/a	wordpools/wordpool_categorized_EN.txt	POTATO	Vegetables	6	15	[0, 0, 0]	n/a	catFR1	1	R1364C
1587.177	1.038	1588294	WORD_OFF	n/a	n/a	POTATO	Vegetables	6	15	[0, 0, 0]	n/a	catFR1	1	R1364C
1588.215	1.629	1589332	WORD	n/a	wordpools/wordpool_categorized_EN.txt	SKIRT	Clothing	7	15	[0, 0, 0]	n/a	catFR1	1	R1364C
1589.844	1.073	1590961	WORD_OFF	n/a	n/a	SKIRT	Clothing	7	15	[0, 0, 0]	n/a	catFR1	1	R1364C
1590.917	1.628	1592034	WORD	n/a	wordpools/wordpool_categorized_EN.txt	PANTS	Clothing	8	15	[0, 0, 0]	n/a	catFR1	1	R1364C
1592.545	0.844	1593662	WORD_OFF	n/a	n/a	PANTS	Clothing	8	15	[0, 0, 0]	n/a	catFR1	1	R1364C
1593.389	1.623	1594506	WORD	n/a	wordpools/wordpool_categorized_EN.txt	BROCCOLI	Vegetables	9	15	[0, 0, 0]	n/a	catFR1	1	R1364C
1595.012	0.769	1596129	WORD_OFF	n/a	n/a	BROCCOLI	Vegetables	9	15	[0, 0, 0]	n/a	catFR1	1	R1364C
1595.781	1.631	1596898	WORD	n/a	wordpools/wordpool_categorized_EN.txt	CUCUMBER	Vegetables	10	15	[0, 0, 0]	n/a	catFR1	1	R1364C
1597.412	0.894	1598528	WORD_OFF	n/a	n/a	CUCUMBER	Vegetables	10	15	[0, 0, 0]	n/a	catFR1	1	R1364C
1598.306	1.622	1599422	WORD	n/a	wordpools/wordpool_categorized_EN.txt	FOOT	BodyParts	11	15	[0, 0, 0]	n/a	catFR1	1	R1364C
1599.928	0.772	1601044	WORD_OFF	n/a	n/a	FOOT	BodyParts	11	15	[0, 0, 0]	n/a	catFR1	1	R1364C
1600.7	1.63	1601816	WORD	n/a	wordpools/wordpool_categorized_EN.txt	EYE	BodyParts	12	15	[0, 0, 0]	n/a	catFR1	1	R1364C
1602.33	0.0	1603446	ENCODING_END	n/a	n/a	n/a	n/a	-999	15	[0, 0, 0]	n/a	catFR1	1	R1364C
1602.33	0.001	1603446	WORD_OFF	n/a	n/a	EYE	BodyParts	12	15	[0, 0, 0]	n/a	catFR1	1	R1364C
1602.331	0.0	1603447	DISTRACT_START	n/a	n/a	n/a	n/a	-999	15	[0, 0, 0]	n/a	catFR1	1	R1364C
1602.331	0.015	1603447	START	n/a	n/a	n/a	n/a	-999	15	[-999, -999, -999]	n/a	catFR1	1	R1364C
1602.346	5.218	1603462	PROB	5.182	n/a	n/a	n/a	-999	15	[5, 6, 4]	15.0	catFR1	1	R1364C
1607.564	7.201	1608680	PROB	7.173	n/a	n/a	n/a	-999	15	[1, 3, 9]	13.0	catFR1	1	R1364C
1614.765	2.901	1615881	PROB	2.875	n/a	n/a	n/a	-999	15	[5, 7, 4]	16.0	catFR1	1	R1364C
1617.666	5.447	1618781	PROB	5.447	n/a	n/a	n/a	-999	15	[7, 8, 6]	21.0	catFR1	1	R1364C
1623.113	0.021	1624228	STOP	n/a	n/a	n/a	n/a	-999	15	[-999, -999, -999]	n/a	catFR1	1	R1364C
1623.134	0.672	1624249	DISTRACT_END	n/a	n/a	n/a	n/a	-999	15	[0, 0, 0]	n/a	catFR1	1	R1364C
1623.806	1.728	1624921	RETRIEVAL_ORIENT_START	n/a	n/a	n/a	n/a	-999	15	[0, 0, 0]	n/a	catFR1	1	R1364C
1625.534	0.001	1626649	RETRIEVAL_ORIENT_END	n/a	n/a	n/a	n/a	-999	15	[0, 0, 0]	n/a	catFR1	1	R1364C
1625.535	1.306	1626650	REC_START	n/a	n/a	n/a	n/a	-999	15	[0, 0, 0]	n/a	catFR1	1	R1364C
1626.841	0.73	1627956	REC_WORD	1.306	n/a	HEAD	BodyParts	1	15	[0, 0, 0]	n/a	catFR1	1	R1364C
1627.571	1.748	1628686	REC_WORD	2.036	n/a	KNEE	BodyParts	2	15	[0, 0, 0]	n/a	catFR1	1	R1364C
1629.319	1.275	1630434	REC_WORD	3.784	n/a	FOOT	BodyParts	11	15	[0, 0, 0]	n/a	catFR1	1	R1364C
1630.594	2.585	1631709	REC_WORD	5.059	n/a	JEANS	Clothing	3	15	[0, 0, 0]	n/a	catFR1	1	R1364C
1633.179	1.263	1634294	REC_WORD	7.644	n/a	SHORTS	Clothing	4	15	[0, 0, 0]	n/a	catFR1	1	R1364C
1634.442	2.586	1635557	REC_WORD	8.907	n/a	SKIRT	Clothing	7	15	[0, 0, 0]	n/a	catFR1	1	R1364C
1637.028	5.355	1638142	REC_WORD	11.493	n/a	PANTS	Clothing	8	15	[0, 0, 0]	n/a	catFR1	1	R1364C
1642.383	0.692	1643497	REC_WORD	16.848	n/a	BROCCOLI	Vegetables	9	15	[0, 0, 0]	n/a	catFR1	1	R1364C
1643.075	1.378	1644189	REC_WORD	17.54	n/a	SPINACH	Vegetables	5	15	[0, 0, 0]	n/a	catFR1	1	R1364C
1644.453	0.621	1645567	REC_WORD	18.918	n/a	CUCUMBER	Vegetables	10	15	[0, 0, 0]	n/a	catFR1	1	R1364C
1645.074	10.472	1646188	REC_WORD	19.539	n/a	POTATO	Vegetables	6	15	[0, 0, 0]	n/a	catFR1	1	R1364C
1655.546	0.0	1656659	REC_END	n/a	n/a	n/a	n/a	-999	15	[0, 0, 0]	n/a	catFR1	1	R1364C
1655.546	0.022	1656659	TRIAL_END	n/a	n/a	n/a	n/a	-999	15	[0, 0, 0]	n/a	catFR1	1	R1364C
1655.568	0.0	1656681	WAITING_START	n/a	n/a	n/a	n/a	-999	16	[0, 0, 0]	n/a	catFR1	1	R1364C
1655.568	0.0	1656681	TRIAL	n/a	n/a	n/a	n/a	-999	16	[0, 0, 0]	n/a	catFR1	1	R1364C
1655.568	1.906	1656681	TRIAL_START	n/a	n/a	n/a	n/a	-999	16	[0, 0, 0]	n/a	catFR1	1	R1364C
1657.474	0.0	1658587	WAITING_END	n/a	n/a	n/a	n/a	-999	16	[0, 0, 0]	n/a	catFR1	1	R1364C
1657.474	10.429	1658587	COUNTDOWN_START	n/a	n/a	n/a	n/a	-999	16	[0, 0, 0]	n/a	catFR1	1	R1364C
1667.903	0.0	1669016	COUNTDOWN_END	n/a	n/a	n/a	n/a	-999	16	[0, 0, 0]	n/a	catFR1	1	R1364C
1667.903	1.139	1669016	ORIENT_START	n/a	n/a	n/a	n/a	-999	16	[0, 0, 0]	n/a	catFR1	1	R1364C
1669.042	0.001	1670155	ORIENT_END	n/a	n/a	n/a	n/a	-999	16	[0, 0, 0]	n/a	catFR1	1	R1364C
1669.043	0.754	1670156	ENCODING_START	n/a	n/a	n/a	n/a	-999	16	[0, 0, 0]	n/a	catFR1	1	R1364C
1669.797	1.629	1670910	WORD	n/a	wordpools/wordpool_categorized_EN.txt	LILY	Flowers	1	16	[0, 0, 0]	n/a	catFR1	1	R1364C
1671.426	1.096	1672539	WORD_OFF	n/a	n/a	LILY	Flowers	1	16	[0, 0, 0]	n/a	catFR1	1	R1364C
1672.522	1.638	1673635	WORD	n/a	wordpools/wordpool_categorized_EN.txt	ORCHID	Flowers	2	16	[0, 0, 0]	n/a	catFR1	1	R1364C
1674.16	0.818	1675273	WORD_OFF	n/a	n/a	ORCHID	Flowers	2	16	[0, 0, 0]	n/a	catFR1	1	R1364C
1674.978	1.632	1676091	WORD	n/a	wordpools/wordpool_categorized_EN.txt	APPLE	Fruit	3	16	[0, 0, 0]	n/a	catFR1	1	R1364C
1676.61	0.804	1677722	WORD_OFF	n/a	n/a	APPLE	Fruit	3	16	[0, 0, 0]	n/a	catFR1	1	R1364C
1677.414	1.63	1678526	WORD	n/a	wordpools/wordpool_categorized_EN.txt	CHERRY	Fruit	4	16	[0, 0, 0]	n/a	catFR1	1	R1364C
1679.044	1.073	1680156	WORD_OFF	n/a	n/a	CHERRY	Fruit	4	16	[0, 0, 0]	n/a	catFR1	1	R1364C
1680.117	1.628	1681229	WORD	n/a	wordpools/wordpool_categorized_EN.txt	ELM	Trees	5	16	[0, 0, 0]	n/a	catFR1	1	R1364C
1681.745	0.991	1682857	WORD_OFF	n/a	n/a	ELM	Trees	5	16	[0, 0, 0]	n/a	catFR1	1	R1364C
1682.736	1.626	1683848	WORD	n/a	wordpools/wordpool_categorized_EN.txt	WALNUT	Trees	6	16	[0, 0, 0]	n/a	catFR1	1	R1364C
1684.362	1.007	1685474	WORD_OFF	n/a	n/a	WALNUT	Trees	6	16	[0, 0, 0]	n/a	catFR1	1	R1364C
1685.369	1.627	1686481	WORD	n/a	wordpools/wordpool_categorized_EN.txt	DAFFODIL	Flowers	7	16	[0, 0, 0]	n/a	catFR1	1	R1364C
1686.996	0.784	1688108	WORD_OFF	n/a	n/a	DAFFODIL	Flowers	7	16	[0, 0, 0]	n/a	catFR1	1	R1364C
1687.78	1.633	1688892	WORD	n/a	wordpools/wordpool_categorized_EN.txt	MARIGOLD	Flowers	8	16	[0, 0, 0]	n/a	catFR1	1	R1364C
1689.413	1.033	1690525	WORD_OFF	n/a	n/a	MARIGOLD	Flowers	8	16	[0, 0, 0]	n/a	catFR1	1	R1364C
1690.446	1.634	1691558	WORD	n/a	wordpools/wordpool_categorized_EN.txt	ORANGE	Fruit	9	16	[0, 0, 0]	n/a	catFR1	1	R1364C
1692.08	1.135	1693192	WORD_OFF	n/a	n/a	ORANGE	Fruit	9	16	[0, 0, 0]	n/a	catFR1	1	R1364C
1693.215	1.632	1694327	WORD	n/a	wordpools/wordpool_categorized_EN.txt	BANANA	Fruit	10	16	[0, 0, 0]	n/a	catFR1	1	R1364C
1694.847	0.796	1695958	WORD_OFF	n/a	n/a	BANANA	Fruit	10	16	[0, 0, 0]	n/a	catFR1	1	R1364C
1695.643	1.638	1696754	WORD	n/a	wordpools/wordpool_categorized_EN.txt	OAK	Trees	11	16	[0, 0, 0]	n/a	catFR1	1	R1364C
1697.281	0.95	1698392	WORD_OFF	n/a	n/a	OAK	Trees	11	16	[0, 0, 0]	n/a	catFR1	1	R1364C
1698.231	1.633	1699342	WORD	n/a	wordpools/wordpool_categorized_EN.txt	WILLOW	Trees	12	16	[0, 0, 0]	n/a	catFR1	1	R1364C
1699.864	0.0	1700975	WORD_OFF	n/a	n/a	WILLOW	Trees	12	16	[0, 0, 0]	n/a	catFR1	1	R1364C
1699.864	0.001	1700975	ENCODING_END	n/a	n/a	n/a	n/a	-999	16	[0, 0, 0]	n/a	catFR1	1	R1364C
1699.865	0.0	1700976	DISTRACT_START	n/a	n/a	n/a	n/a	-999	16	[0, 0, 0]	n/a	catFR1	1	R1364C
1699.865	0.015	1700976	START	n/a	n/a	n/a	n/a	-999	16	[-999, -999, -999]	n/a	catFR1	1	R1364C
1699.88	4.935	1700991	PROB	4.897	n/a	n/a	n/a	-999	16	[7, 4, 9]	20.0	catFR1	1	R1364C
1704.815	4.401	1705926	PROB	4.378	n/a	n/a	n/a	-999	16	[3, 9, 5]	17.0	catFR1	1	R1364C
1709.216	2.484	1710327	PROB	2.449	n/a	n/a	n/a	-999	16	[1, 4, 1]	6.0	catFR1	1	R1364C
1711.7	3.651	1712811	PROB	3.612	n/a	n/a	n/a	-999	16	[7, 9, 4]	20.0	catFR1	1	R1364C
1715.351	5.383	1716461	PROB	5.383	n/a	n/a	n/a	-999	16	[6, 2, 5]	13.0	catFR1	1	R1364C
1720.734	0.018	1721844	STOP	n/a	n/a	n/a	n/a	-999	16	[-999, -999, -999]	n/a	catFR1	1	R1364C
1720.752	0.556	1721862	DISTRACT_END	n/a	n/a	n/a	n/a	-999	16	[0, 0, 0]	n/a	catFR1	1	R1364C
1721.308	1.56	1722418	RETRIEVAL_ORIENT_START	n/a	n/a	n/a	n/a	-999	16	[0, 0, 0]	n/a	catFR1	1	R1364C
1722.868	0.001	1723978	RETRIEVAL_ORIENT_END	n/a	n/a	n/a	n/a	-999	16	[0, 0, 0]	n/a	catFR1	1	R1364C
1722.869	1.778	1723979	REC_START	n/a	n/a	n/a	n/a	-999	16	[0, 0, 0]	n/a	catFR1	1	R1364C
1724.647	1.987	1725757	REC_WORD	1.778	n/a	APPLE	Fruit	3	16	[0, 0, 0]	n/a	catFR1	1	R1364C
1726.634	1.154	1727744	REC_WORD	3.765	n/a	BANANA	Fruit	10	16	[0, 0, 0]	n/a	catFR1	1	R1364C
1727.788	5.427	1728898	REC_WORD	4.919	n/a	CHERRY	Fruit	4	16	[0, 0, 0]	n/a	catFR1	1	R1364C
1733.215	5.319	1734325	REC_WORD	10.346	n/a	WILLOW	Trees	12	16	[0, 0, 0]	n/a	catFR1	1	R1364C
1738.534	4.042	1739643	REC_WORD	15.665	n/a	OAK	Trees	11	16	[0, 0, 0]	n/a	catFR1	1	R1364C
1742.576	2.5	1743685	REC_WORD	19.707	n/a	DAFFODIL	Flowers	7	16	[0, 0, 0]	n/a	catFR1	1	R1364C
1745.076	1.245	1746185	REC_WORD	22.207	n/a	LILY	Flowers	1	16	[0, 0, 0]	n/a	catFR1	1	R1364C
1746.321	1.01	1747430	REC_WORD	23.452	n/a	ORCHID	Flowers	2	16	[0, 0, 0]	n/a	catFR1	1	R1364C
1747.331	5.55	1748440	REC_WORD	24.462	n/a	MARIGOLD	Flowers	8	16	[0, 0, 0]	n/a	catFR1	1	R1364C
1752.881	0.001	1753990	REC_END	n/a	n/a	n/a	n/a	-999	16	[0, 0, 0]	n/a	catFR1	1	R1364C
1752.882	0.024	1753991	TRIAL_END	n/a	n/a	n/a	n/a	-999	16	[0, 0, 0]	n/a	catFR1	1	R1364C
1752.906	0.0	1754015	TRIAL	n/a	n/a	n/a	n/a	-999	17	[0, 0, 0]	n/a	catFR1	1	R1364C
1752.906	0.0	1754015	WAITING_START	n/a	n/a	n/a	n/a	-999	17	[0, 0, 0]	n/a	catFR1	1	R1364C
1752.906	3.77	1754015	TRIAL_START	n/a	n/a	n/a	n/a	-999	17	[0, 0, 0]	n/a	catFR1	1	R1364C
1756.676	0.0	1757784	WAITING_END	n/a	n/a	n/a	n/a	-999	17	[0, 0, 0]	n/a	catFR1	1	R1364C
1756.676	10.428	1757784	COUNTDOWN_START	n/a	n/a	n/a	n/a	-999	17	[0, 0, 0]	n/a	catFR1	1	R1364C
1767.104	0.001	1768212	COUNTDOWN_END	n/a	n/a	n/a	n/a	-999	17	[0, 0, 0]	n/a	catFR1	1	R1364C
1767.105	1.023	1768213	ORIENT_START	n/a	n/a	n/a	n/a	-999	17	[0, 0, 0]	n/a	catFR1	1	R1364C
1768.128	0.0	1769236	ORIENT_END	n/a	n/a	n/a	n/a	-999	17	[0, 0, 0]	n/a	catFR1	1	R1364C
1768.128	1.138	1769236	ENCODING_START	n/a	n/a	n/a	n/a	-999	17	[0, 0, 0]	n/a	catFR1	1	R1364C
1769.266	1.628	1770374	WORD	n/a	wordpools/wordpool_categorized_EN.txt	RUM	Beverages	1	17	[0, 0, 0]	n/a	catFR1	1	R1364C
1770.894	0.892	1772002	WORD_OFF	n/a	n/a	RUM	Beverages	1	17	[0, 0, 0]	n/a	catFR1	1	R1364C
1771.786	1.626	1772894	WORD	n/a	wordpools/wordpool_categorized_EN.txt	MILK	Beverages	2	17	[0, 0, 0]	n/a	catFR1	1	R1364C
1773.412	1.126	1774519	WORD_OFF	n/a	n/a	MILK	Beverages	2	17	[0, 0, 0]	n/a	catFR1	1	R1364C
1774.538	1.624	1775645	WORD	n/a	wordpools/wordpool_categorized_EN.txt	PLIERS	Tools	3	17	[0, 0, 0]	n/a	catFR1	1	R1364C
1776.162	1.055	1777269	WORD_OFF	n/a	n/a	PLIERS	Tools	3	17	[0, 0, 0]	n/a	catFR1	1	R1364C
1777.217	1.629	1778324	WORD	n/a	wordpools/wordpool_categorized_EN.txt	HAMMER	Tools	4	17	[0, 0, 0]	n/a	catFR1	1	R1364C
1778.846	0.867	1779953	WORD_OFF	n/a	n/a	HAMMER	Tools	4	17	[0, 0, 0]	n/a	catFR1	1	R1364C
1779.713	1.634	1780820	WORD	n/a	wordpools/wordpool_categorized_EN.txt	BIRCH	Trees	5	17	[0, 0, 0]	n/a	catFR1	1	R1364C
1781.347	1.087	1782454	WORD_OFF	n/a	n/a	BIRCH	Trees	5	17	[0, 0, 0]	n/a	catFR1	1	R1364C
1782.434	1.63	1783541	WORD	n/a	wordpools/wordpool_categorized_EN.txt	CYPRESS	Trees	6	17	[0, 0, 0]	n/a	catFR1	1	R1364C
1784.064	1.082	1785171	WORD_OFF	n/a	n/a	CYPRESS	Trees	6	17	[0, 0, 0]	n/a	catFR1	1	R1364C
1785.146	1.635	1786253	WORD	n/a	wordpools/wordpool_categorized_EN.txt	AXE	Tools	7	17	[0, 0, 0]	n/a	catFR1	1	R1364C
1786.781	0.912	1787888	WORD_OFF	n/a	n/a	AXE	Tools	7	17	[0, 0, 0]	n/a	catFR1	1	R1364C
1787.693	1.639	1788800	WORD	n/a	wordpools/wordpool_categorized_EN.txt	WRENCH	Tools	8	17	[0, 0, 0]	n/a	catFR1	1	R1364C
1789.332	0.983	1790439	WORD_OFF	n/a	n/a	WRENCH	Tools	8	17	[0, 0, 0]	n/a	catFR1	1	R1364C
1790.315	1.634	1791422	WORD	n/a	wordpools/wordpool_categorized_EN.txt	PINE	Trees	9	17	[0, 0, 0]	n/a	catFR1	1	R1364C
1791.949	0.821	1793056	WORD_OFF	n/a	n/a	PINE	Trees	9	17	[0, 0, 0]	n/a	catFR1	1	R1364C
1792.77	1.629	1793877	WORD	n/a	wordpools/wordpool_categorized_EN.txt	EVERGREEN	Trees	10	17	[0, 0, 0]	n/a	catFR1	1	R1364C
1794.399	0.994	1795505	WORD_OFF	n/a	n/a	EVERGREEN	Trees	10	17	[0, 0, 0]	n/a	catFR1	1	R1364C
1795.393	1.623	1796499	WORD	n/a	wordpools/wordpool_categorized_EN.txt	BEER	Beverages	11	17	[0, 0, 0]	n/a	catFR1	1	R1364C
1797.016	1.052	1798122	WORD_OFF	n/a	n/a	BEER	Beverages	11	17	[0, 0, 0]	n/a	catFR1	1	R1364C
1798.068	1.632	1799174	WORD	n/a	wordpools/wordpool_categorized_EN.txt	JUICE	Beverages	12	17	[0, 0, 0]	n/a	catFR1	1	R1364C
1799.7	0.001	1800806	WORD_OFF	n/a	n/a	JUICE	Beverages	12	17	[0, 0, 0]	n/a	catFR1	1	R1364C
1799.701	0.0	1800807	DISTRACT_START	n/a	n/a	n/a	n/a	-999	17	[0, 0, 0]	n/a	catFR1	1	R1364C
1799.701	0.0	1800807	ENCODING_END	n/a	n/a	n/a	n/a	-999	17	[0, 0, 0]	n/a	catFR1	1	R1364C
1799.701	0.016	1800807	START	n/a	n/a	n/a	n/a	-999	17	[-999, -999, -999]	n/a	catFR1	1	R1364C
1799.717	4.034	1800823	PROB	4.007	n/a	n/a	n/a	-999	17	[9, 6, 3]	18.0	catFR1	1	R1364C
1803.751	2.5	1804857	PROB	2.467	n/a	n/a	n/a	-999	17	[2, 2, 4]	8.0	catFR1	1	R1364C
1806.251	2.901	1807357	PROB	2.873	n/a	n/a	n/a	-999	17	[1, 2, 8]	11.0	catFR1	1	R1364C
1809.152	2.583	1810258	PROB	2.547	n/a	n/a	n/a	-999	17	[2, 2, 6]	10.0	catFR1	1	R1364C
1811.735	2.968	1812841	PROB	2.94	n/a	n/a	n/a	-999	17	[1, 9, 6]	16.0	catFR1	1	R1364C
1814.703	3.55	1815808	PROB	3.525	n/a	n/a	n/a	-999	17	[2, 1, 2]	5.0	catFR1	1	R1364C
1818.253	2.15	1819358	PROB	2.15	n/a	n/a	n/a	-999	17	[2, 1, 1]	4.0	catFR1	1	R1364C
1820.403	0.018	1821508	STOP	n/a	n/a	n/a	n/a	-999	17	[-999, -999, -999]	n/a	catFR1	1	R1364C
1820.421	0.651	1821526	DISTRACT_END	n/a	n/a	n/a	n/a	-999	17	[0, 0, 0]	n/a	catFR1	1	R1364C
1821.072	1.616	1822177	RETRIEVAL_ORIENT_START	n/a	n/a	n/a	n/a	-999	17	[0, 0, 0]	n/a	catFR1	1	R1364C
1822.688	0.0	1823793	RETRIEVAL_ORIENT_END	n/a	n/a	n/a	n/a	-999	17	[0, 0, 0]	n/a	catFR1	1	R1364C
1822.688	1.182	1823793	REC_START	n/a	n/a	n/a	n/a	-999	17	[0, 0, 0]	n/a	catFR1	1	R1364C
1823.87	1.992	1824975	REC_WORD	1.182	n/a	CYPRESS	Trees	6	17	[0, 0, 0]	n/a	catFR1	1	R1364C
1825.862	6.156	1826967	REC_WORD	3.174	n/a	PINE	Trees	9	17	[0, 0, 0]	n/a	catFR1	1	R1364C
1832.018	0.525	1833122	REC_WORD	9.33	n/a	RUM	Beverages	1	17	[0, 0, 0]	n/a	catFR1	1	R1364C
1832.543	0.466	1833647	REC_WORD	9.855	n/a	BEER	Beverages	11	17	[0, 0, 0]	n/a	catFR1	1	R1364C
1833.009	0.45	1834113	REC_WORD	10.321	n/a	MILK	Beverages	2	17	[0, 0, 0]	n/a	catFR1	1	R1364C
1833.459	12.582	1834563	REC_WORD	10.771	n/a	JUICE	Beverages	12	17	[0, 0, 0]	n/a	catFR1	1	R1364C
1846.041	0.753	1847145	REC_WORD	23.353	n/a	HAMMER	Tools	4	17	[0, 0, 0]	n/a	catFR1	1	R1364C
1846.794	5.907	1847898	REC_WORD	24.106	n/a	AXE	Tools	7	17	[0, 0, 0]	n/a	catFR1	1	R1364C
1852.701	0.0	1853804	REC_END	n/a	n/a	n/a	n/a	-999	17	[0, 0, 0]	n/a	catFR1	1	R1364C
1852.701	0.022	1853804	TRIAL_END	n/a	n/a	n/a	n/a	-999	17	[0, 0, 0]	n/a	catFR1	1	R1364C
1852.723	0.0	1853826	TRIAL_START	n/a	n/a	n/a	n/a	-999	18	[0, 0, 0]	n/a	catFR1	1	R1364C
1852.723	0.001	1853826	TRIAL	n/a	n/a	n/a	n/a	-999	18	[0, 0, 0]	n/a	catFR1	1	R1364C
