onset	duration	sample	trial_type	response_time	stim_file	item_name	category	serialpos	list	test	answer	experiment	session	subject
0.0	38.751	163824	SESS_START	n/a	n/a	n/a	n/a	-999	-999	[0, 0, 0]	n/a	catFR1	0	R1254E
38.751	10.0	203504	COUNTDOWN_START	n/a	n/a	n/a	n/a	-999	-999	[0, 0, 0]	n/a	catFR1	0	R1254E
49.179	3.791	214183	COUNTDOWN_END	n/a	n/a	n/a	n/a	-999	-999	[0, 0, 0]	n/a	catFR1	0	R1254E
52.97	1.6	218064	PRACTICE_WORD	n/a	n/a	RING	n/a	-999	-999	[0, 0, 0]	n/a	catFR1	0	R1254E
55.37	1.6	220522	PRACTICE_WORD	n/a	n/a	BEAM	n/a	-999	-999	[0, 0, 0]	n/a	catFR1	0	R1254E
57.987	1.6	223202	PRACTICE_WORD	n/a	n/a	CAMEL	n/a	-999	-999	[0, 0, 0]	n/a	catFR1	0	R1254E
60.388	1.6	225660	PRACTICE_WORD	n/a	n/a	WAGON	n/a	-999	-999	[0, 0, 0]	n/a	catFR1	0	R1254E
62.938	1.6	228272	PRACTICE_WORD	n/a	n/a	TONGUE	n/a	-999	-999	[0, 0, 0]	n/a	catFR1	0	R1254E
65.422	1.6	230815	PRACTICE_WORD	n/a	n/a	IRON	n/a	-999	-999	[0, 0, 0]	n/a	catFR1	0	R1254E
67.956	1.6	233410	PRACTICE_WORD	n/a	n/a	ATTIC	n/a	-999	-999	[0, 0, 0]	n/a	catFR1	0	R1254E
70.507	1.6	236022	PRACTICE_WORD	n/a	n/a	CHEST	n/a	-999	-999	[0, 0, 0]	n/a	catFR1	0	R1254E
73.024	1.6	238600	PRACTICE_WORD	n/a	n/a	RHINO	n/a	-999	-999	[0, 0, 0]	n/a	catFR1	0	R1254E
75.623	1.6	241261	PRACTICE_WORD	n/a	n/a	FLOOD	n/a	-999	-999	[0, 0, 0]	n/a	catFR1	0	R1254E
78.024	1.6	243719	PRACTICE_WORD	n/a	n/a	WATCH	n/a	-999	-999	[0, 0, 0]	n/a	catFR1	0	R1254E
80.574	1.6	246331	PRACTICE_WORD	n/a	n/a	COTTON	n/a	-999	-999	[0, 0, 0]	n/a	catFR1	0	R1254E
82.175	0.001	247970	PRACTICE_DISTRACT_START	n/a	n/a	n/a	n/a	-999	-999	[0, 0, 0]	n/a	catFR1	0	R1254E
82.176	0.016	247971	START	n/a	n/a	n/a	n/a	-999	-1	[-999, -999, -999]	n/a	catFR1	0	R1254E
82.192	8.251	247987	PROB	8.22	n/a	n/a	n/a	-999	-1	[6, 4, 4]	14.0	catFR1	0	R1254E
90.443	24.338	256436	PROB	24.338	n/a	n/a	n/a	-999	-1	[5, 7, 8]	20.0	catFR1	0	R1254E
114.781	0.017	281358	STOP	n/a	n/a	n/a	n/a	-999	-1	[-999, -999, -999]	n/a	catFR1	0	R1254E
114.798	0.634	281375	PRACTICE_DISTRACT_END	n/a	n/a	n/a	n/a	-999	-999	[0, 0, 0]	n/a	catFR1	0	R1254E
115.432	30.516	282025	PRACTICE_REC_START	n/a	n/a	n/a	n/a	-999	-999	[0, 0, 0]	n/a	catFR1	0	R1254E
145.948	38.929	313273	PRACTICE_REC_END	n/a	n/a	n/a	n/a	-999	-999	[0, 0, 0]	n/a	catFR1	0	R1254E
184.877	0.0	353135	TRIAL	n/a	n/a	n/a	n/a	-999	1	[0, 0, 0]	n/a	catFR1	0	R1254E
184.877	10.0	353135	COUNTDOWN_START	n/a	n/a	n/a	n/a	-999	1	[0, 0, 0]	n/a	catFR1	0	R1254E
195.305	0.007	363814	COUNTDOWN_END	n/a	n/a	n/a	n/a	-999	1	[0, 0, 0]	n/a	catFR1	0	R1254E
195.312	1.6	363821	ORIENT	n/a	n/a	n/a	n/a	-999	1	[0, 0, 0]	n/a	catFR1	0	R1254E
198.962	1.6	367558	WORD	n/a	wordpools/wordpool_categorized_EN.txt	DOLL	Toys	1	1	[0, 0, 0]	n/a	catFR1	0	R1254E
201.396	1.6	370051	WORD	n/a	wordpools/wordpool_categorized_EN.txt	SLINKY	Toys	2	1	[0, 0, 0]	n/a	catFR1	0	R1254E
203.98	1.6	372697	WORD	n/a	wordpools/wordpool_categorized_EN.txt	BUTTERFLY	Insects	3	1	[0, 0, 0]	n/a	catFR1	0	R1254E
206.547	1.6	375325	WORD	n/a	wordpools/wordpool_categorized_EN.txt	GNAT	Insects	4	1	[0, 0, 0]	n/a	catFR1	0	R1254E
209.148	1.6	377989	WORD	n/a	wordpools/wordpool_categorized_EN.txt	WHALE	OceanAnimals	5	1	[0, 0, 0]	n/a	catFR1	0	R1254E
211.715	1.6	380617	WORD	n/a	wordpools/wordpool_categorized_EN.txt	OCTOPUS	OceanAnimals	6	1	[0, 0, 0]	n/a	catFR1	0	R1254E
214.115	1.6	383075	WORD	n/a	wordpools/wordpool_categorized_EN.txt	BEETLE	Insects	7	1	[0, 0, 0]	n/a	catFR1	0	R1254E
216.631	1.6	385651	WORD	n/a	wordpools/wordpool_categorized_EN.txt	ROACH	Insects	8	1	[0, 0, 0]	n/a	catFR1	0	R1254E
219.049	1.6	388127	WORD	n/a	wordpools/wordpool_categorized_EN.txt	BLOCKS	Toys	9	1	[0, 0, 0]	n/a	catFR1	0	R1254E
221.632	1.6	390772	WORD	n/a	wordpools/wordpool_categorized_EN.txt	BALL	Toys	10	1	[0, 0, 0]	n/a	catFR1	0	R1254E
224.1	1.6	393299	WORD	n/a	wordpools/wordpool_categorized_EN.txt	SHRIMP	OceanAnimals	11	1	[0, 0, 0]	n/a	catFR1	0	R1254E
226.6	1.6	395859	WORD	n/a	wordpools/wordpool_categorized_EN.txt	FISH	OceanAnimals	12	1	[0, 0, 0]	n/a	catFR1	0	R1254E
228.218	0.0	397516	DISTRACT_START	n/a	n/a	n/a	n/a	-999	1	[0, 0, 0]	n/a	catFR1	0	R1254E
228.218	0.016	397516	START	n/a	n/a	n/a	n/a	-999	1	[-999, -999, -999]	n/a	catFR1	0	R1254E
228.234	10.269	397532	PROB	10.245	n/a	n/a	n/a	-999	1	[5, 3, 8]	16.0	catFR1	0	R1254E
238.503	5.251	408048	PROB	5.224	n/a	n/a	n/a	-999	1	[4, 6, 5]	15.0	catFR1	0	R1254E
243.754	16.282	413425	PROB	16.282	n/a	n/a	n/a	-999	1	[9, 6, 8]	23.0	catFR1	0	R1254E
260.036	0.003	430097	STOP	n/a	n/a	n/a	n/a	-999	1	[-999, -999, -999]	n/a	catFR1	0	R1254E
260.039	1.035	430100	DISTRACT_END	n/a	n/a	n/a	n/a	-999	1	[0, 0, 0]	n/a	catFR1	0	R1254E
261.074	3.366	431160	REC_START	n/a	n/a	n/a	n/a	-999	1	[0, 0, 0]	n/a	catFR1	0	R1254E
264.44	0.956	434607	REC_WORD	3.366	n/a	GNAT	Insects	4	1	[0, 0, 0]	n/a	catFR1	0	R1254E
265.396	1.182	435586	REC_WORD	4.322	n/a	PINKIE	n/a	-999	1	[0, 0, 0]	n/a	catFR1	0	R1254E
266.578	2.435	436796	REC_WORD	5.504	n/a	BUTTERFLY	Insects	3	1	[0, 0, 0]	n/a	catFR1	0	R1254E
269.013	1.156	439289	REC_WORD	7.939	n/a	FISH	OceanAnimals	12	1	[0, 0, 0]	n/a	catFR1	0	R1254E
270.169	3.161	440473	REC_WORD	9.095	n/a	WHALE	OceanAnimals	5	1	[0, 0, 0]	n/a	catFR1	0	R1254E
273.33	4.75	443710	REC_WORD_VV	12.256	n/a	<>	n/a	-999	1	[0, 0, 0]	n/a	catFR1	0	R1254E
278.08	13.002	448574	REC_WORD	17.006	n/a	BALL	Toys	10	1	[0, 0, 0]	n/a	catFR1	0	R1254E
291.082	15.949	461888	REC_END	n/a	n/a	n/a	n/a	-999	1	[0, 0, 0]	n/a	catFR1	0	R1254E
307.031	10.0	478219	COUNTDOWN_START	n/a	n/a	n/a	n/a	-999	2	[0, 0, 0]	n/a	catFR1	0	R1254E
307.031	10.428	478219	TRIAL	n/a	n/a	n/a	n/a	-999	2	[0, 0, 0]	n/a	catFR1	0	R1254E
317.459	0.007	488897	COUNTDOWN_END	n/a	n/a	n/a	n/a	-999	2	[0, 0, 0]	n/a	catFR1	0	R1254E
317.466	1.6	488905	ORIENT	n/a	n/a	n/a	n/a	-999	2	[0, 0, 0]	n/a	catFR1	0	R1254E
321.0	1.6	492523	WORD	n/a	wordpools/wordpool_categorized_EN.txt	SUNFLOWER	Flowers	1	2	[0, 0, 0]	n/a	catFR1	0	R1254E
323.484	1.6	495067	WORD	n/a	wordpools/wordpool_categorized_EN.txt	MARIGOLD	Flowers	2	2	[0, 0, 0]	n/a	catFR1	0	R1254E
325.984	1.6	497627	WORD	n/a	wordpools/wordpool_categorized_EN.txt	CABBAGE	Vegetables	3	2	[0, 0, 0]	n/a	catFR1	0	R1254E
328.452	1.6	500154	WORD	n/a	wordpools/wordpool_categorized_EN.txt	CARROT	Vegetables	4	2	[0, 0, 0]	n/a	catFR1	0	R1254E
330.836	1.6	502595	WORD	n/a	wordpools/wordpool_categorized_EN.txt	FOREST	Landscapes	5	2	[0, 0, 0]	n/a	catFR1	0	R1254E
333.386	1.6	505207	WORD	n/a	wordpools/wordpool_categorized_EN.txt	MOUNTAIN	Landscapes	6	2	[0, 0, 0]	n/a	catFR1	0	R1254E
335.786	1.6	507664	WORD	n/a	wordpools/wordpool_categorized_EN.txt	TULIP	Flowers	7	2	[0, 0, 0]	n/a	catFR1	0	R1254E
338.403	1.6	510344	WORD	n/a	wordpools/wordpool_categorized_EN.txt	VIOLET	Flowers	8	2	[0, 0, 0]	n/a	catFR1	0	R1254E
340.804	1.6	512802	WORD	n/a	wordpools/wordpool_categorized_EN.txt	BEACH	Landscapes	9	2	[0, 0, 0]	n/a	catFR1	0	R1254E
343.221	1.6	515277	WORD	n/a	wordpools/wordpool_categorized_EN.txt	RIVER	Landscapes	10	2	[0, 0, 0]	n/a	catFR1	0	R1254E
345.805	1.6	517923	WORD	n/a	wordpools/wordpool_categorized_EN.txt	PEAS	Vegetables	11	2	[0, 0, 0]	n/a	catFR1	0	R1254E
348.255	1.6	520432	WORD	n/a	wordpools/wordpool_categorized_EN.txt	BROCCOLI	Vegetables	12	2	[0, 0, 0]	n/a	catFR1	0	R1254E
349.872	0.001	522088	DISTRACT_START	n/a	n/a	n/a	n/a	-999	2	[0, 0, 0]	n/a	catFR1	0	R1254E
349.873	0.016	522089	START	n/a	n/a	n/a	n/a	-999	2	[-999, -999, -999]	n/a	catFR1	0	R1254E
349.889	5.267	522105	PROB	5.239	n/a	n/a	n/a	-999	2	[8, 1, 8]	17.0	catFR1	0	R1254E
355.156	30.734	527499	PROB	30.734	n/a	n/a	n/a	-999	2	[7, 8, 5]	20.0	catFR1	0	R1254E
385.89	0.005	558970	STOP	n/a	n/a	n/a	n/a	-999	2	[-999, -999, -999]	n/a	catFR1	0	R1254E
385.895	1.201	558975	DISTRACT_END	n/a	n/a	n/a	n/a	-999	2	[0, 0, 0]	n/a	catFR1	0	R1254E
387.096	3.002	560205	REC_START	n/a	n/a	n/a	n/a	-999	2	[0, 0, 0]	n/a	catFR1	0	R1254E
390.098	3.671	563279	REC_WORD_VV	3.002	n/a	<>	n/a	-999	2	[0, 0, 0]	n/a	catFR1	0	R1254E
393.769	5.126	567038	REC_WORD_VV	6.673	n/a	<>	n/a	-999	2	[0, 0, 0]	n/a	catFR1	0	R1254E
398.895	1.955	572287	REC_WORD	11.799	n/a	MARIGOLD	Flowers	2	2	[0, 0, 0]	n/a	catFR1	0	R1254E
400.85	3.256	574289	REC_WORD	13.754	n/a	FLOWER	n/a	-999	2	[0, 0, 0]	n/a	catFR1	0	R1254E
404.106	9.826	577623	REC_WORD_VV	17.01	n/a	<>	n/a	-999	2	[0, 0, 0]	n/a	catFR1	0	R1254E
413.932	1.234	587684	REC_WORD	26.836	n/a	MARIGOLD	Flowers	2	2	[0, 0, 0]	n/a	catFR1	0	R1254E
415.166	1.94	588948	REC_WORD	28.07	n/a	SUNFLOWER	Flowers	1	2	[0, 0, 0]	n/a	catFR1	0	R1254E
417.106	5.246	590935	REC_END	n/a	n/a	n/a	n/a	-999	2	[0, 0, 0]	n/a	catFR1	0	R1254E
422.352	0.0	596306	TRIAL	n/a	n/a	n/a	n/a	-999	3	[0, 0, 0]	n/a	catFR1	0	R1254E
422.352	10.0	596306	COUNTDOWN_START	n/a	n/a	n/a	n/a	-999	3	[0, 0, 0]	n/a	catFR1	0	R1254E
432.78	0.007	606985	COUNTDOWN_END	n/a	n/a	n/a	n/a	-999	3	[0, 0, 0]	n/a	catFR1	0	R1254E
432.787	1.6	606992	ORIENT	n/a	n/a	n/a	n/a	-999	3	[0, 0, 0]	n/a	catFR1	0	R1254E
436.537	1.6	610832	WORD	n/a	wordpools/wordpool_categorized_EN.txt	FORK	KitchenTools	1	3	[0, 0, 0]	n/a	catFR1	0	R1254E
439.104	1.6	613460	WORD	n/a	wordpools/wordpool_categorized_EN.txt	SPATULA	KitchenTools	2	3	[0, 0, 0]	n/a	catFR1	0	R1254E
441.654	1.6	616071	WORD	n/a	wordpools/wordpool_categorized_EN.txt	CAKE	Desserts	3	3	[0, 0, 0]	n/a	catFR1	0	R1254E
444.072	1.6	618547	WORD	n/a	wordpools/wordpool_categorized_EN.txt	FUDGE	Desserts	4	3	[0, 0, 0]	n/a	catFR1	0	R1254E
446.456	1.6	620989	WORD	n/a	wordpools/wordpool_categorized_EN.txt	WATER	Beverages	5	3	[0, 0, 0]	n/a	catFR1	0	R1254E
448.856	1.6	623446	WORD	n/a	wordpools/wordpool_categorized_EN.txt	LEMONADE	Beverages	6	3	[0, 0, 0]	n/a	catFR1	0	R1254E
451.357	1.6	626007	WORD	n/a	wordpools/wordpool_categorized_EN.txt	COBBLER	Desserts	7	3	[0, 0, 0]	n/a	catFR1	0	R1254E
453.957	1.6	628670	WORD	n/a	wordpools/wordpool_categorized_EN.txt	COOKIE	Desserts	8	3	[0, 0, 0]	n/a	catFR1	0	R1254E
456.474	1.6	631247	WORD	n/a	wordpools/wordpool_categorized_EN.txt	WHISK	KitchenTools	9	3	[0, 0, 0]	n/a	catFR1	0	R1254E
458.891	1.6	633722	WORD	n/a	wordpools/wordpool_categorized_EN.txt	SPOON	KitchenTools	10	3	[0, 0, 0]	n/a	catFR1	0	R1254E
461.408	1.6	636299	WORD	n/a	wordpools/wordpool_categorized_EN.txt	RUM	Beverages	11	3	[0, 0, 0]	n/a	catFR1	0	R1254E
463.876	1.6	638826	WORD	n/a	wordpools/wordpool_categorized_EN.txt	JUICE	Beverages	12	3	[0, 0, 0]	n/a	catFR1	0	R1254E
465.492	0.001	640481	DISTRACT_START	n/a	n/a	n/a	n/a	-999	3	[0, 0, 0]	n/a	catFR1	0	R1254E
465.493	0.016	640482	START	n/a	n/a	n/a	n/a	-999	3	[-999, -999, -999]	n/a	catFR1	0	R1254E
465.509	6.518	640499	PROB	6.492	n/a	n/a	n/a	-999	3	[1, 2, 9]	12.0	catFR1	0	R1254E
472.027	9.235	647173	PROB	9.208	n/a	n/a	n/a	-999	3	[9, 2, 6]	17.0	catFR1	0	R1254E
481.262	4.765	656629	PROB	4.765	n/a	n/a	n/a	-999	3	[3, 5, 7]	15.0	catFR1	0	R1254E
486.027	0.019	661509	STOP	n/a	n/a	n/a	n/a	-999	3	[-999, -999, -999]	n/a	catFR1	0	R1254E
486.046	1.051	661528	DISTRACT_END	n/a	n/a	n/a	n/a	-999	3	[0, 0, 0]	n/a	catFR1	0	R1254E
487.097	2.239	662604	REC_START	n/a	n/a	n/a	n/a	-999	3	[0, 0, 0]	n/a	catFR1	0	R1254E
489.336	2.347	664897	REC_WORD_VV	2.239	n/a	<>	n/a	-999	3	[0, 0, 0]	n/a	catFR1	0	R1254E
491.683	0.579	667300	REC_WORD	4.586	n/a	FORK	KitchenTools	1	3	[0, 0, 0]	n/a	catFR1	0	R1254E
492.262	1.0	667893	REC_WORD	5.165	n/a	SPATULA	KitchenTools	2	3	[0, 0, 0]	n/a	catFR1	0	R1254E
493.262	1.745	668917	REC_WORD_VV	6.165	n/a	<>	n/a	-999	3	[0, 0, 0]	n/a	catFR1	0	R1254E
495.007	2.464	670704	REC_WORD	7.91	n/a	SPOON	KitchenTools	10	3	[0, 0, 0]	n/a	catFR1	0	R1254E
497.471	0.582	673227	REC_WORD	10.374	n/a	WATER	Beverages	5	3	[0, 0, 0]	n/a	catFR1	0	R1254E
498.053	19.052	673823	REC_WORD	10.956	n/a	LEMONADE	Beverages	6	3	[0, 0, 0]	n/a	catFR1	0	R1254E
517.105	3.63	693332	REC_END	n/a	n/a	n/a	n/a	-999	3	[0, 0, 0]	n/a	catFR1	0	R1254E
520.735	0.0	697049	TRIAL	n/a	n/a	n/a	n/a	-999	4	[0, 0, 0]	n/a	catFR1	0	R1254E
520.735	10.0	697049	COUNTDOWN_START	n/a	n/a	n/a	n/a	-999	4	[0, 0, 0]	n/a	catFR1	0	R1254E
531.163	0.008	707727	COUNTDOWN_END	n/a	n/a	n/a	n/a	-999	4	[0, 0, 0]	n/a	catFR1	0	R1254E
531.171	1.6	707736	ORIENT	n/a	n/a	n/a	n/a	-999	4	[0, 0, 0]	n/a	catFR1	0	R1254E
534.888	1.6	711542	WORD	n/a	wordpools/wordpool_categorized_EN.txt	TELEVISION	Electronics	1	4	[0, 0, 0]	n/a	catFR1	0	R1254E
537.355	1.6	714068	WORD	n/a	wordpools/wordpool_categorized_EN.txt	CALCULATOR	Electronics	2	4	[0, 0, 0]	n/a	catFR1	0	R1254E
539.822	1.6	716594	WORD	n/a	wordpools/wordpool_categorized_EN.txt	TIGER	Zoo	3	4	[0, 0, 0]	n/a	catFR1	0	R1254E
542.272	1.6	719103	WORD	n/a	wordpools/wordpool_categorized_EN.txt	MONKEY	Zoo	4	4	[0, 0, 0]	n/a	catFR1	0	R1254E
544.756	1.6	721646	WORD	n/a	wordpools/wordpool_categorized_EN.txt	JEEP	Vehicles	5	4	[0, 0, 0]	n/a	catFR1	0	R1254E
547.29	1.6	724241	WORD	n/a	wordpools/wordpool_categorized_EN.txt	SCOOTER	Vehicles	6	4	[0, 0, 0]	n/a	catFR1	0	R1254E
549.824	1.6	726836	WORD	n/a	wordpools/wordpool_categorized_EN.txt	BEAR	Zoo	7	4	[0, 0, 0]	n/a	catFR1	0	R1254E
552.358	1.6	729431	WORD	n/a	wordpools/wordpool_categorized_EN.txt	ELEPHANT	Zoo	8	4	[0, 0, 0]	n/a	catFR1	0	R1254E
554.925	1.6	732059	WORD	n/a	wordpools/wordpool_categorized_EN.txt	SPEAKER	Electronics	9	4	[0, 0, 0]	n/a	catFR1	0	R1254E
557.442	1.6	734637	WORD	n/a	wordpools/wordpool_categorized_EN.txt	COMPUTER	Electronics	10	4	[0, 0, 0]	n/a	catFR1	0	R1254E
559.826	1.6	737078	WORD	n/a	wordpools/wordpool_categorized_EN.txt	BOAT	Vehicles	11	4	[0, 0, 0]	n/a	catFR1	0	R1254E
562.426	1.6	739740	WORD	n/a	wordpools/wordpool_categorized_EN.txt	BIKE	Vehicles	12	4	[0, 0, 0]	n/a	catFR1	0	R1254E
564.043	0.001	741396	DISTRACT_START	n/a	n/a	n/a	n/a	-999	4	[0, 0, 0]	n/a	catFR1	0	R1254E
564.044	0.016	741397	START	n/a	n/a	n/a	n/a	-999	4	[-999, -999, -999]	n/a	catFR1	0	R1254E
564.06	12.618	741413	PROB	12.596	n/a	n/a	n/a	-999	4	[9, 5, 2]	16.0	catFR1	0	R1254E
576.678	9.878	754334	PROB	9.878	n/a	n/a	n/a	-999	4	[4, 7, 2]	13.0	catFR1	0	R1254E
586.556	0.007	764449	STOP	n/a	n/a	n/a	n/a	-999	4	[-999, -999, -999]	n/a	catFR1	0	R1254E
586.563	1.067	764456	DISTRACT_END	n/a	n/a	n/a	n/a	-999	4	[0, 0, 0]	n/a	catFR1	0	R1254E
587.63	19.943	765549	REC_START	n/a	n/a	n/a	n/a	-999	4	[0, 0, 0]	n/a	catFR1	0	R1254E
607.573	0.701	785970	REC_WORD_VV	19.943	n/a	<>	n/a	-999	4	[0, 0, 0]	n/a	catFR1	0	R1254E
608.274	2.119	786688	REC_WORD	20.644	n/a	BEAR	Zoo	7	4	[0, 0, 0]	n/a	catFR1	0	R1254E
610.393	3.183	788858	REC_WORD_VV	22.763	n/a	<>	n/a	-999	4	[0, 0, 0]	n/a	catFR1	0	R1254E
613.576	3.202	792117	REC_WORD	25.946	n/a	WOLF	n/a	-999	4	[0, 0, 0]	n/a	catFR1	0	R1254E
616.778	0.867	795396	REC_WORD	29.148	n/a	JAGUAR	n/a	-999	4	[0, 0, 0]	n/a	catFR1	0	R1254E
617.645	5.125	796284	REC_END	n/a	n/a	n/a	n/a	-999	4	[0, 0, 0]	n/a	catFR1	0	R1254E
622.77	0.0	801532	TRIAL	n/a	n/a	n/a	n/a	-999	5	[0, 0, 0]	n/a	catFR1	0	R1254E
622.77	10.0	801532	COUNTDOWN_START	n/a	n/a	n/a	n/a	-999	5	[0, 0, 0]	n/a	catFR1	0	R1254E
633.198	0.007	812210	COUNTDOWN_END	n/a	n/a	n/a	n/a	-999	5	[0, 0, 0]	n/a	catFR1	0	R1254E
633.205	1.6	812217	ORIENT	n/a	n/a	n/a	n/a	-999	5	[0, 0, 0]	n/a	catFR1	0	R1254E
636.989	1.6	816092	WORD	n/a	wordpools/wordpool_categorized_EN.txt	GIRAFFE	Zoo	1	5	[0, 0, 0]	n/a	catFR1	0	R1254E
639.589	1.6	818754	WORD	n/a	wordpools/wordpool_categorized_EN.txt	GORILLA	Zoo	2	5	[0, 0, 0]	n/a	catFR1	0	R1254E
642.023	1.6	821246	WORD	n/a	wordpools/wordpool_categorized_EN.txt	FOOTBALL	Toys	3	5	[0, 0, 0]	n/a	catFR1	0	R1254E
644.424	1.6	823705	WORD	n/a	wordpools/wordpool_categorized_EN.txt	BASEBALL	Toys	4	5	[0, 0, 0]	n/a	catFR1	0	R1254E
647.008	1.6	826351	WORD	n/a	wordpools/wordpool_categorized_EN.txt	WASHER	Appliances	5	5	[0, 0, 0]	n/a	catFR1	0	R1254E
649.491	1.6	828894	WORD	n/a	wordpools/wordpool_categorized_EN.txt	TOASTER	Appliances	6	5	[0, 0, 0]	n/a	catFR1	0	R1254E
652.108	1.6	831573	WORD	n/a	wordpools/wordpool_categorized_EN.txt	MARBLES	Toys	7	5	[0, 0, 0]	n/a	catFR1	0	R1254E
654.509	1.6	834032	WORD	n/a	wordpools/wordpool_categorized_EN.txt	BARBIE	Toys	8	5	[0, 0, 0]	n/a	catFR1	0	R1254E
657.009	1.6	836592	WORD	n/a	wordpools/wordpool_categorized_EN.txt	CHEETAH	Zoo	9	5	[0, 0, 0]	n/a	catFR1	0	R1254E
659.543	1.6	839187	WORD	n/a	wordpools/wordpool_categorized_EN.txt	PANDA	Zoo	10	5	[0, 0, 0]	n/a	catFR1	0	R1254E
662.094	1.6	841799	WORD	n/a	wordpools/wordpool_categorized_EN.txt	FREEZER	Appliances	11	5	[0, 0, 0]	n/a	catFR1	0	R1254E
664.711	1.6	844479	WORD	n/a	wordpools/wordpool_categorized_EN.txt	OVEN	Appliances	12	5	[0, 0, 0]	n/a	catFR1	0	R1254E
666.328	0.0	846134	DISTRACT_START	n/a	n/a	n/a	n/a	-999	5	[0, 0, 0]	n/a	catFR1	0	R1254E
666.328	0.016	846134	START	n/a	n/a	n/a	n/a	-999	5	[-999, -999, -999]	n/a	catFR1	0	R1254E
666.344	4.051	846151	PROB	4.019	n/a	n/a	n/a	-999	5	[5, 5, 5]	15.0	catFR1	0	R1254E
670.395	3.767	850299	PROB	3.744	n/a	n/a	n/a	-999	5	[4, 8, 6]	18.0	catFR1	0	R1254E
674.162	8.285	854156	PROB	8.262	n/a	n/a	n/a	-999	5	[5, 1, 7]	13.0	catFR1	0	R1254E
682.447	7.178	862640	PROB	7.178	n/a	n/a	n/a	-999	5	[4, 2, 4]	10.0	catFR1	0	R1254E
689.625	0.006	869990	STOP	n/a	n/a	n/a	n/a	-999	5	[-999, -999, -999]	n/a	catFR1	0	R1254E
689.631	1.201	869996	DISTRACT_END	n/a	n/a	n/a	n/a	-999	5	[0, 0, 0]	n/a	catFR1	0	R1254E
690.832	2.096	871226	REC_START	n/a	n/a	n/a	n/a	-999	5	[0, 0, 0]	n/a	catFR1	0	R1254E
692.928	1.462	873372	REC_WORD	2.096	n/a	GIRAFFE	Zoo	1	5	[0, 0, 0]	n/a	catFR1	0	R1254E
694.39	2.547	874869	REC_WORD	3.558	n/a	PANDA	Zoo	10	5	[0, 0, 0]	n/a	catFR1	0	R1254E
696.937	7.007	877478	REC_WORD_VV	6.105	n/a	<>	n/a	-999	5	[0, 0, 0]	n/a	catFR1	0	R1254E
703.944	10.301	884653	REC_WORD_VV	13.112	n/a	<>	n/a	-999	5	[0, 0, 0]	n/a	catFR1	0	R1254E
714.245	6.6	895201	REC_WORD_VV	23.413	n/a	<>	n/a	-999	5	[0, 0, 0]	n/a	catFR1	0	R1254E
720.845	5.96	901959	REC_END	n/a	n/a	n/a	n/a	-999	5	[0, 0, 0]	n/a	catFR1	0	R1254E
726.805	0.0	908062	TRIAL	n/a	n/a	n/a	n/a	-999	6	[0, 0, 0]	n/a	catFR1	0	R1254E
726.805	10.0	908062	COUNTDOWN_START	n/a	n/a	n/a	n/a	-999	6	[0, 0, 0]	n/a	catFR1	0	R1254E
737.233	0.007	918740	COUNTDOWN_END	n/a	n/a	n/a	n/a	-999	6	[0, 0, 0]	n/a	catFR1	0	R1254E
737.24	1.6	918747	ORIENT	n/a	n/a	n/a	n/a	-999	6	[0, 0, 0]	n/a	catFR1	0	R1254E
740.741	1.6	922332	WORD	n/a	wordpools/wordpool_categorized_EN.txt	CEILING	Building	1	6	[0, 0, 0]	n/a	catFR1	0	R1254E
743.291	1.6	924943	WORD	n/a	wordpools/wordpool_categorized_EN.txt	FLOOR	Building	2	6	[0, 0, 0]	n/a	catFR1	0	R1254E
745.825	1.6	927538	WORD	n/a	wordpools/wordpool_categorized_EN.txt	JELLYFISH	OceanAnimals	3	6	[0, 0, 0]	n/a	catFR1	0	R1254E
748.275	1.6	930047	WORD	n/a	wordpools/wordpool_categorized_EN.txt	CRAB	OceanAnimals	4	6	[0, 0, 0]	n/a	catFR1	0	R1254E
750.826	1.6	932659	WORD	n/a	wordpools/wordpool_categorized_EN.txt	SCREWDRIVER	Tools	5	6	[0, 0, 0]	n/a	catFR1	0	R1254E
753.293	1.6	935185	WORD	n/a	wordpools/wordpool_categorized_EN.txt	LEVEL	Tools	6	6	[0, 0, 0]	n/a	catFR1	0	R1254E
755.843	1.6	937796	WORD	n/a	wordpools/wordpool_categorized_EN.txt	ATTIC	Building	7	6	[0, 0, 0]	n/a	catFR1	0	R1254E
758.261	1.6	940272	WORD	n/a	wordpools/wordpool_categorized_EN.txt	DOOR	Building	8	6	[0, 0, 0]	n/a	catFR1	0	R1254E
760.794	1.6	942866	WORD	n/a	wordpools/wordpool_categorized_EN.txt	SANDER	Tools	9	6	[0, 0, 0]	n/a	catFR1	0	R1254E
763.328	1.6	945461	WORD	n/a	wordpools/wordpool_categorized_EN.txt	DRILL	Tools	10	6	[0, 0, 0]	n/a	catFR1	0	R1254E
765.712	1.6	947902	WORD	n/a	wordpools/wordpool_categorized_EN.txt	DOLPHIN	OceanAnimals	11	6	[0, 0, 0]	n/a	catFR1	0	R1254E
768.179	1.6	950428	WORD	n/a	wordpools/wordpool_categorized_EN.txt	LOBSTER	OceanAnimals	12	6	[0, 0, 0]	n/a	catFR1	0	R1254E
769.796	0.001	952084	DISTRACT_START	n/a	n/a	n/a	n/a	-999	6	[0, 0, 0]	n/a	catFR1	0	R1254E
769.797	0.016	952085	START	n/a	n/a	n/a	n/a	-999	6	[-999, -999, -999]	n/a	catFR1	0	R1254E
769.813	7.217	952102	PROB	7.187	n/a	n/a	n/a	-999	6	[7, 6, 7]	20.0	catFR1	0	R1254E
777.03	8.618	959492	PROB	8.593	n/a	n/a	n/a	-999	6	[2, 5, 6]	13.0	catFR1	0	R1254E
785.648	5.64	968316	PROB	5.64	n/a	n/a	n/a	-999	6	[2, 1, 2]	5.0	catFR1	0	R1254E
791.288	0.012	974092	STOP	n/a	n/a	n/a	n/a	-999	6	[-999, -999, -999]	n/a	catFR1	0	R1254E
791.3	1.1	974104	DISTRACT_END	n/a	n/a	n/a	n/a	-999	6	[0, 0, 0]	n/a	catFR1	0	R1254E
792.4	0.752	975230	REC_START	n/a	n/a	n/a	n/a	-999	6	[0, 0, 0]	n/a	catFR1	0	R1254E
793.152	2.313	976000	REC_WORD_VV	0.752	n/a	<>	n/a	-999	6	[0, 0, 0]	n/a	catFR1	0	R1254E
795.465	1.0	978369	REC_WORD	3.065	n/a	SCREWDRIVER	Tools	5	6	[0, 0, 0]	n/a	catFR1	0	R1254E
796.465	1.664	979393	REC_WORD_VV	4.065	n/a	<>	n/a	-999	6	[0, 0, 0]	n/a	catFR1	0	R1254E
798.129	6.27	981097	REC_WORD_VV	5.729	n/a	<>	n/a	-999	6	[0, 0, 0]	n/a	catFR1	0	R1254E
804.399	1.366	987517	REC_WORD	11.999	n/a	LEVEL	Tools	6	6	[0, 0, 0]	n/a	catFR1	0	R1254E
805.765	16.648	988916	REC_WORD	13.365	n/a	ATTIC	Building	7	6	[0, 0, 0]	n/a	catFR1	0	R1254E
822.413	4.443	1005963	REC_END	n/a	n/a	n/a	n/a	-999	6	[0, 0, 0]	n/a	catFR1	0	R1254E
826.856	0.0	1010513	TRIAL	n/a	n/a	n/a	n/a	-999	7	[0, 0, 0]	n/a	catFR1	0	R1254E
826.856	10.0	1010513	COUNTDOWN_START	n/a	n/a	n/a	n/a	-999	7	[0, 0, 0]	n/a	catFR1	0	R1254E
837.284	0.007	1021191	COUNTDOWN_END	n/a	n/a	n/a	n/a	-999	7	[0, 0, 0]	n/a	catFR1	0	R1254E
837.291	1.6	1021198	ORIENT	n/a	n/a	n/a	n/a	-999	7	[0, 0, 0]	n/a	catFR1	0	R1254E
841.125	1.6	1025124	WORD	n/a	wordpools/wordpool_categorized_EN.txt	ORCHID	Flowers	1	7	[0, 0, 0]	n/a	catFR1	0	R1254E
843.509	1.6	1027565	WORD	n/a	wordpools/wordpool_categorized_EN.txt	CARNATION	Flowers	2	7	[0, 0, 0]	n/a	catFR1	0	R1254E
846.109	1.6	1030228	WORD	n/a	wordpools/wordpool_categorized_EN.txt	JEANS	Clothing	3	7	[0, 0, 0]	n/a	catFR1	0	R1254E
848.575	1.6	1032753	WORD	n/a	wordpools/wordpool_categorized_EN.txt	DRESS	Clothing	4	7	[0, 0, 0]	n/a	catFR1	0	R1254E
850.96	1.6	1035195	WORD	n/a	wordpools/wordpool_categorized_EN.txt	LAMB	FarmAnimals	5	7	[0, 0, 0]	n/a	catFR1	0	R1254E
853.361	1.6	1037654	WORD	n/a	wordpools/wordpool_categorized_EN.txt	HORSE	FarmAnimals	6	7	[0, 0, 0]	n/a	catFR1	0	R1254E
855.978	1.6	1040333	WORD	n/a	wordpools/wordpool_categorized_EN.txt	JACKET	Clothing	7	7	[0, 0, 0]	n/a	catFR1	0	R1254E
858.577	1.6	1042995	WORD	n/a	wordpools/wordpool_categorized_EN.txt	SHOES	Clothing	8	7	[0, 0, 0]	n/a	catFR1	0	R1254E
860.979	1.6	1045454	WORD	n/a	wordpools/wordpool_categorized_EN.txt	DAFFODIL	Flowers	9	7	[0, 0, 0]	n/a	catFR1	0	R1254E
863.379	1.6	1047912	WORD	n/a	wordpools/wordpool_categorized_EN.txt	PETUNIA	Flowers	10	7	[0, 0, 0]	n/a	catFR1	0	R1254E
865.813	1.6	1050404	WORD	n/a	wordpools/wordpool_categorized_EN.txt	COW	FarmAnimals	11	7	[0, 0, 0]	n/a	catFR1	0	R1254E
868.28	1.6	1052930	WORD	n/a	wordpools/wordpool_categorized_EN.txt	GOAT	FarmAnimals	12	7	[0, 0, 0]	n/a	catFR1	0	R1254E
869.897	0.0	1054586	DISTRACT_START	n/a	n/a	n/a	n/a	-999	7	[0, 0, 0]	n/a	catFR1	0	R1254E
869.897	0.016	1054586	START	n/a	n/a	n/a	n/a	-999	7	[-999, -999, -999]	n/a	catFR1	0	R1254E
869.913	4.335	1054603	PROB	4.311	n/a	n/a	n/a	-999	7	[7, 3, 6]	16.0	catFR1	0	R1254E
874.248	19.645	1059042	PROB	19.645	n/a	n/a	n/a	-999	7	[9, 5, 7]	21.0	catFR1	0	R1254E
893.893	0.008	1079158	STOP	n/a	n/a	n/a	n/a	-999	7	[-999, -999, -999]	n/a	catFR1	0	R1254E
893.901	1.084	1079166	DISTRACT_END	n/a	n/a	n/a	n/a	-999	7	[0, 0, 0]	n/a	catFR1	0	R1254E
894.985	4.03	1080276	REC_START	n/a	n/a	n/a	n/a	-999	7	[0, 0, 0]	n/a	catFR1	0	R1254E
899.015	25.978	1084403	REC_WORD_VV	4.03	n/a	<>	n/a	-999	7	[0, 0, 0]	n/a	catFR1	0	R1254E
924.993	2.997	1111004	REC_END	n/a	n/a	n/a	n/a	-999	7	[0, 0, 0]	n/a	catFR1	0	R1254E
927.99	0.0	1114073	TRIAL	n/a	n/a	n/a	n/a	-999	8	[0, 0, 0]	n/a	catFR1	0	R1254E
927.99	10.0	1114073	COUNTDOWN_START	n/a	n/a	n/a	n/a	-999	8	[0, 0, 0]	n/a	catFR1	0	R1254E
938.418	0.007	1124751	COUNTDOWN_END	n/a	n/a	n/a	n/a	-999	8	[0, 0, 0]	n/a	catFR1	0	R1254E
938.425	1.6	1124758	ORIENT	n/a	n/a	n/a	n/a	-999	8	[0, 0, 0]	n/a	catFR1	0	R1254E
941.993	1.6	1128411	WORD	n/a	wordpools/wordpool_categorized_EN.txt	CLOUD	Weather	1	8	[0, 0, 0]	n/a	catFR1	0	R1254E
944.609	1.6	1131090	WORD	n/a	wordpools/wordpool_categorized_EN.txt	TORNADO	Weather	2	8	[0, 0, 0]	n/a	catFR1	0	R1254E
947.077	1.6	1133617	WORD	n/a	wordpools/wordpool_categorized_EN.txt	WALL	Building	3	8	[0, 0, 0]	n/a	catFR1	0	R1254E
949.494	1.6	1136092	WORD	n/a	wordpools/wordpool_categorized_EN.txt	ROOF	Building	4	8	[0, 0, 0]	n/a	catFR1	0	R1254E
952.011	1.6	1138670	WORD	n/a	wordpools/wordpool_categorized_EN.txt	LAKE	Landscapes	5	8	[0, 0, 0]	n/a	catFR1	0	R1254E
954.611	1.6	1141332	WORD	n/a	wordpools/wordpool_categorized_EN.txt	VALLEY	Landscapes	6	8	[0, 0, 0]	n/a	catFR1	0	R1254E
957.229	1.6	1144013	WORD	n/a	wordpools/wordpool_categorized_EN.txt	ROOM	Building	7	8	[0, 0, 0]	n/a	catFR1	0	R1254E
959.779	1.6	1146624	WORD	n/a	wordpools/wordpool_categorized_EN.txt	STAIRS	Building	8	8	[0, 0, 0]	n/a	catFR1	0	R1254E
962.379	1.6	1149286	WORD	n/a	wordpools/wordpool_categorized_EN.txt	THUNDERSTORM	Weather	9	8	[0, 0, 0]	n/a	catFR1	0	R1254E
964.93	1.6	1151899	WORD	n/a	wordpools/wordpool_categorized_EN.txt	LIGHTNING	Weather	10	8	[0, 0, 0]	n/a	catFR1	0	R1254E
967.431	1.6	1154460	WORD	n/a	wordpools/wordpool_categorized_EN.txt	STREAM	Landscapes	11	8	[0, 0, 0]	n/a	catFR1	0	R1254E
969.981	1.6	1157071	WORD	n/a	wordpools/wordpool_categorized_EN.txt	CREEK	Landscapes	12	8	[0, 0, 0]	n/a	catFR1	0	R1254E
971.597	0.001	1158726	DISTRACT_START	n/a	n/a	n/a	n/a	-999	8	[0, 0, 0]	n/a	catFR1	0	R1254E
971.598	0.016	1158727	START	n/a	n/a	n/a	n/a	-999	8	[-999, -999, -999]	n/a	catFR1	0	R1254E
971.614	5.085	1158743	PROB	5.048	n/a	n/a	n/a	-999	8	[2, 4, 6]	12.0	catFR1	0	R1254E
976.699	4.434	1163950	PROB	4.404	n/a	n/a	n/a	-999	8	[9, 5, 5]	19.0	catFR1	0	R1254E
981.133	4.934	1168490	PROB	4.9	n/a	n/a	n/a	-999	8	[4, 6, 2]	12.0	catFR1	0	R1254E
986.067	9.486	1173543	PROB	9.486	n/a	n/a	n/a	-999	8	[4, 9, 6]	19.0	catFR1	0	R1254E
995.553	0.015	1183256	STOP	n/a	n/a	n/a	n/a	-999	8	[-999, -999, -999]	n/a	catFR1	0	R1254E
995.568	1.1	1183271	DISTRACT_END	n/a	n/a	n/a	n/a	-999	8	[0, 0, 0]	n/a	catFR1	0	R1254E
996.668	30.005	1184398	REC_START	n/a	n/a	n/a	n/a	-999	8	[0, 0, 0]	n/a	catFR1	0	R1254E
1026.673	0.008	1215123	REC_WORD_VV	30.005	n/a	<>	n/a	-999	8	[0, 0, 0]	n/a	catFR1	0	R1254E
1026.681	2.227	1215131	REC_END	n/a	n/a	n/a	n/a	-999	8	[0, 0, 0]	n/a	catFR1	0	R1254E
1028.908	0.0	1217411	TRIAL	n/a	n/a	n/a	n/a	-999	9	[0, 0, 0]	n/a	catFR1	0	R1254E
1028.908	10.0	1217411	COUNTDOWN_START	n/a	n/a	n/a	n/a	-999	9	[0, 0, 0]	n/a	catFR1	0	R1254E
1039.336	0.007	1228089	COUNTDOWN_END	n/a	n/a	n/a	n/a	-999	9	[0, 0, 0]	n/a	catFR1	0	R1254E
1039.343	1.6	1228096	ORIENT	n/a	n/a	n/a	n/a	-999	9	[0, 0, 0]	n/a	catFR1	0	R1254E
1042.911	1.6	1231750	WORD	n/a	wordpools/wordpool_categorized_EN.txt	TOE	BodyParts	1	9	[0, 0, 0]	n/a	catFR1	0	R1254E
1045.361	1.6	1234259	WORD	n/a	wordpools/wordpool_categorized_EN.txt	NOSE	BodyParts	2	9	[0, 0, 0]	n/a	catFR1	0	R1254E
1047.961	1.6	1236921	WORD	n/a	wordpools/wordpool_categorized_EN.txt	LILY	Flowers	3	9	[0, 0, 0]	n/a	catFR1	0	R1254E
1050.545	1.6	1239567	WORD	n/a	wordpools/wordpool_categorized_EN.txt	ROSE	Flowers	4	9	[0, 0, 0]	n/a	catFR1	0	R1254E
1053.046	1.6	1242128	WORD	n/a	wordpools/wordpool_categorized_EN.txt	TONGS	KitchenTools	5	9	[0, 0, 0]	n/a	catFR1	0	R1254E
1055.546	1.6	1244688	WORD	n/a	wordpools/wordpool_categorized_EN.txt	GRATER	KitchenTools	6	9	[0, 0, 0]	n/a	catFR1	0	R1254E
1058.063	1.6	1247265	WORD	n/a	wordpools/wordpool_categorized_EN.txt	LILAC	Flowers	7	9	[0, 0, 0]	n/a	catFR1	0	R1254E
1060.646	1.6	1249910	WORD	n/a	wordpools/wordpool_categorized_EN.txt	DAISY	Flowers	8	9	[0, 0, 0]	n/a	catFR1	0	R1254E
1063.164	1.6	1252489	WORD	n/a	wordpools/wordpool_categorized_EN.txt	HAND	BodyParts	9	9	[0, 0, 0]	n/a	catFR1	0	R1254E
1065.781	1.6	1255169	WORD	n/a	wordpools/wordpool_categorized_EN.txt	ELBOW	BodyParts	10	9	[0, 0, 0]	n/a	catFR1	0	R1254E
1068.182	1.6	1257627	WORD	n/a	wordpools/wordpool_categorized_EN.txt	CORKSCREW	KitchenTools	11	9	[0, 0, 0]	n/a	catFR1	0	R1254E
1070.765	1.6	1260272	WORD	n/a	wordpools/wordpool_categorized_EN.txt	STRAINER	KitchenTools	12	9	[0, 0, 0]	n/a	catFR1	0	R1254E
1072.382	0.001	1261928	DISTRACT_START	n/a	n/a	n/a	n/a	-999	9	[0, 0, 0]	n/a	catFR1	0	R1254E
1072.383	0.016	1261929	START	n/a	n/a	n/a	n/a	-999	9	[-999, -999, -999]	n/a	catFR1	0	R1254E
1072.399	4.651	1261945	PROB	4.626	n/a	n/a	n/a	-999	9	[1, 1, 2]	4.0	catFR1	0	R1254E
1077.05	3.95	1266708	PROB	3.927	n/a	n/a	n/a	-999	9	[4, 6, 7]	17.0	catFR1	0	R1254E
1081.0	5.718	1270753	PROB	5.689	n/a	n/a	n/a	-999	9	[8, 8, 4]	20.0	catFR1	0	R1254E
1086.718	5.368	1276608	PROB	5.341	n/a	n/a	n/a	-999	9	[2, 1, 8]	11.0	catFR1	0	R1254E
1092.086	12.429	1282105	PROB	12.429	n/a	n/a	n/a	-999	9	[4, 3, 2]	9.0	catFR1	0	R1254E
1104.515	0.006	1294832	STOP	n/a	n/a	n/a	n/a	-999	9	[-999, -999, -999]	n/a	catFR1	0	R1254E
1104.521	1.218	1294838	DISTRACT_END	n/a	n/a	n/a	n/a	-999	9	[0, 0, 0]	n/a	catFR1	0	R1254E
1105.739	8.76	1296085	REC_START	n/a	n/a	n/a	n/a	-999	9	[0, 0, 0]	n/a	catFR1	0	R1254E
1114.499	1.938	1305055	REC_WORD_VV	8.76	n/a	<>	n/a	-999	9	[0, 0, 0]	n/a	catFR1	0	R1254E
1116.437	0.883	1307040	REC_WORD	10.698	n/a	LILY	Flowers	3	9	[0, 0, 0]	n/a	catFR1	0	R1254E
1117.32	4.999	1307944	REC_WORD	11.581	n/a	ROSE	Flowers	4	9	[0, 0, 0]	n/a	catFR1	0	R1254E
1122.319	5.328	1313063	REC_WORD	16.58	n/a	TOE	BodyParts	1	9	[0, 0, 0]	n/a	catFR1	0	R1254E
1127.647	8.101	1318519	REC_WORD_VV	21.908	n/a	<>	n/a	-999	9	[0, 0, 0]	n/a	catFR1	0	R1254E
1135.748	2.712	1326814	REC_END	n/a	n/a	n/a	n/a	-999	9	[0, 0, 0]	n/a	catFR1	0	R1254E
1138.46	0.0	1329591	TRIAL	n/a	n/a	n/a	n/a	-999	10	[0, 0, 0]	n/a	catFR1	0	R1254E
1138.46	10.0	1329591	COUNTDOWN_START	n/a	n/a	n/a	n/a	-999	10	[0, 0, 0]	n/a	catFR1	0	R1254E
1148.888	0.008	1340269	COUNTDOWN_END	n/a	n/a	n/a	n/a	-999	10	[0, 0, 0]	n/a	catFR1	0	R1254E
1148.896	1.6	1340277	ORIENT	n/a	n/a	n/a	n/a	-999	10	[0, 0, 0]	n/a	catFR1	0	R1254E
1152.746	1.6	1344220	WORD	n/a	wordpools/wordpool_categorized_EN.txt	BIRCH	Trees	1	10	[0, 0, 0]	n/a	catFR1	0	R1254E
1155.33	1.6	1346866	WORD	n/a	wordpools/wordpool_categorized_EN.txt	PINE	Trees	2	10	[0, 0, 0]	n/a	catFR1	0	R1254E
1157.747	1.6	1349340	WORD	n/a	wordpools/wordpool_categorized_EN.txt	OCEAN	Landscapes	3	10	[0, 0, 0]	n/a	catFR1	0	R1254E
1160.314	1.6	1351969	WORD	n/a	wordpools/wordpool_categorized_EN.txt	WOODS	Landscapes	4	10	[0, 0, 0]	n/a	catFR1	0	R1254E
1162.748	1.6	1354461	WORD	n/a	wordpools/wordpool_categorized_EN.txt	PIANO	Instruments	5	10	[0, 0, 0]	n/a	catFR1	0	R1254E
1165.249	1.6	1357022	WORD	n/a	wordpools/wordpool_categorized_EN.txt	BANJO	Instruments	6	10	[0, 0, 0]	n/a	catFR1	0	R1254E
1167.832	1.6	1359667	WORD	n/a	wordpools/wordpool_categorized_EN.txt	EVERGREEN	Trees	7	10	[0, 0, 0]	n/a	catFR1	0	R1254E
1170.266	1.6	1362160	WORD	n/a	wordpools/wordpool_categorized_EN.txt	SPRUCE	Trees	8	10	[0, 0, 0]	n/a	catFR1	0	R1254E
1172.717	1.6	1364670	WORD	n/a	wordpools/wordpool_categorized_EN.txt	BASS	Instruments	9	10	[0, 0, 0]	n/a	catFR1	0	R1254E
1175.134	1.6	1367145	WORD	n/a	wordpools/wordpool_categorized_EN.txt	DRUM	Instruments	10	10	[0, 0, 0]	n/a	catFR1	0	R1254E
1177.717	1.6	1369789	WORD	n/a	wordpools/wordpool_categorized_EN.txt	ISLAND	Landscapes	11	10	[0, 0, 0]	n/a	catFR1	0	R1254E
1180.101	1.6	1372231	WORD	n/a	wordpools/wordpool_categorized_EN.txt	HILLS	Landscapes	12	10	[0, 0, 0]	n/a	catFR1	0	R1254E
1181.718	0.001	1373886	DISTRACT_START	n/a	n/a	n/a	n/a	-999	10	[0, 0, 0]	n/a	catFR1	0	R1254E
1181.719	0.016	1373887	START	n/a	n/a	n/a	n/a	-999	10	[-999, -999, -999]	n/a	catFR1	0	R1254E
1181.735	3.85	1373904	PROB	3.814	n/a	n/a	n/a	-999	10	[7, 1, 3]	11.0	catFR1	0	R1254E
1185.585	6.835	1377846	PROB	6.815	n/a	n/a	n/a	-999	10	[9, 9, 4]	22.0	catFR1	0	R1254E
1192.42	10.173	1384845	PROB	10.173	n/a	n/a	n/a	-999	10	[7, 4, 6]	17.0	catFR1	0	R1254E
1202.593	0.011	1395262	STOP	n/a	n/a	n/a	n/a	-999	10	[-999, -999, -999]	n/a	catFR1	0	R1254E
1202.604	1.068	1395273	DISTRACT_END	n/a	n/a	n/a	n/a	-999	10	[0, 0, 0]	n/a	catFR1	0	R1254E
1203.672	29.994	1396367	REC_START	n/a	n/a	n/a	n/a	-999	10	[0, 0, 0]	n/a	catFR1	0	R1254E
1233.666	0.014	1427080	REC_WORD_VV	29.994	n/a	<>	n/a	-999	10	[0, 0, 0]	n/a	catFR1	0	R1254E
1233.68	8.566	1427095	REC_END	n/a	n/a	n/a	n/a	-999	10	[0, 0, 0]	n/a	catFR1	0	R1254E
1242.246	0.0	1435866	TRIAL	n/a	n/a	n/a	n/a	-999	11	[0, 0, 0]	n/a	catFR1	0	R1254E
1242.246	10.0	1435866	COUNTDOWN_START	n/a	n/a	n/a	n/a	-999	11	[0, 0, 0]	n/a	catFR1	0	R1254E
1252.674	0.006	1446544	COUNTDOWN_END	n/a	n/a	n/a	n/a	-999	11	[0, 0, 0]	n/a	catFR1	0	R1254E
1252.68	1.6	1446551	ORIENT	n/a	n/a	n/a	n/a	-999	11	[0, 0, 0]	n/a	catFR1	0	R1254E
1256.298	1.6	1450255	WORD	n/a	wordpools/wordpool_categorized_EN.txt	MOUSSE	Desserts	1	11	[0, 0, 0]	n/a	catFR1	0	R1254E
1258.732	1.6	1452748	WORD	n/a	wordpools/wordpool_categorized_EN.txt	PIE	Desserts	2	11	[0, 0, 0]	n/a	catFR1	0	R1254E
1261.332	1.6	1455410	WORD	n/a	wordpools/wordpool_categorized_EN.txt	PENCIL	OfficeSupplies	3	11	[0, 0, 0]	n/a	catFR1	0	R1254E
1263.799	1.6	1457936	WORD	n/a	wordpools/wordpool_categorized_EN.txt	STAPLER	OfficeSupplies	4	11	[0, 0, 0]	n/a	catFR1	0	R1254E
1266.233	1.6	1460429	WORD	n/a	wordpools/wordpool_categorized_EN.txt	COAT	Clothing	5	11	[0, 0, 0]	n/a	catFR1	0	R1254E
1268.717	1.6	1462972	WORD	n/a	wordpools/wordpool_categorized_EN.txt	BLOUSE	Clothing	6	11	[0, 0, 0]	n/a	catFR1	0	R1254E
1271.184	1.6	1465498	WORD	n/a	wordpools/wordpool_categorized_EN.txt	RULER	OfficeSupplies	7	11	[0, 0, 0]	n/a	catFR1	0	R1254E
1273.751	1.6	1468127	WORD	n/a	wordpools/wordpool_categorized_EN.txt	NOTEBOOK	OfficeSupplies	8	11	[0, 0, 0]	n/a	catFR1	0	R1254E
1276.368	1.6	1470807	WORD	n/a	wordpools/wordpool_categorized_EN.txt	PUDDING	Desserts	9	11	[0, 0, 0]	n/a	catFR1	0	R1254E
1278.752	1.6	1473248	WORD	n/a	wordpools/wordpool_categorized_EN.txt	BROWNIES	Desserts	10	11	[0, 0, 0]	n/a	catFR1	0	R1254E
1281.286	1.6	1475843	WORD	n/a	wordpools/wordpool_categorized_EN.txt	SHORTS	Clothing	11	11	[0, 0, 0]	n/a	catFR1	0	R1254E
1283.869	1.6	1478488	WORD	n/a	wordpools/wordpool_categorized_EN.txt	PANTS	Clothing	12	11	[0, 0, 0]	n/a	catFR1	0	R1254E
1285.486	0.001	1480143	DISTRACT_START	n/a	n/a	n/a	n/a	-999	11	[0, 0, 0]	n/a	catFR1	0	R1254E
1285.487	0.016	1480144	START	n/a	n/a	n/a	n/a	-999	11	[-999, -999, -999]	n/a	catFR1	0	R1254E
1285.503	5.534	1480161	PROB	5.508	n/a	n/a	n/a	-999	11	[4, 8, 4]	16.0	catFR1	0	R1254E
1291.037	4.634	1485828	PROB	4.612	n/a	n/a	n/a	-999	11	[2, 3, 3]	8.0	catFR1	0	R1254E
1295.671	3.601	1490573	PROB	3.571	n/a	n/a	n/a	-999	11	[3, 6, 4]	13.0	catFR1	0	R1254E
1299.272	3.501	1494260	PROB	3.474	n/a	n/a	n/a	-999	11	[4, 6, 1]	11.0	catFR1	0	R1254E
1302.773	4.525	1497845	PROB	4.525	n/a	n/a	n/a	-999	11	[3, 7, 8]	18.0	catFR1	0	R1254E
1307.298	0.009	1502479	STOP	n/a	n/a	n/a	n/a	-999	11	[-999, -999, -999]	n/a	catFR1	0	R1254E
1307.307	1.167	1502488	DISTRACT_END	n/a	n/a	n/a	n/a	-999	11	[0, 0, 0]	n/a	catFR1	0	R1254E
1308.474	8.128	1503683	REC_START	n/a	n/a	n/a	n/a	-999	11	[0, 0, 0]	n/a	catFR1	0	R1254E
1316.602	2.531	1512006	REC_WORD	8.128	n/a	BIRCH	n/a	-999	11	[0, 0, 0]	n/a	catFR1	0	R1254E
1319.133	18.234	1514597	REC_WORD	10.659	n/a	PINE	n/a	-999	11	[0, 0, 0]	n/a	catFR1	0	R1254E
1337.367	1.122	1533269	REC_WORD	28.893	n/a	NOTEBOOK	OfficeSupplies	8	11	[0, 0, 0]	n/a	catFR1	0	R1254E
1338.489	3.607	1534418	REC_END	n/a	n/a	n/a	n/a	-999	11	[0, 0, 0]	n/a	catFR1	0	R1254E
1342.096	0.0	1538111	TRIAL	n/a	n/a	n/a	n/a	-999	12	[0, 0, 0]	n/a	catFR1	0	R1254E
1342.096	10.0	1538111	COUNTDOWN_START	n/a	n/a	n/a	n/a	-999	12	[0, 0, 0]	n/a	catFR1	0	R1254E
1352.524	0.008	1548789	COUNTDOWN_END	n/a	n/a	n/a	n/a	-999	12	[0, 0, 0]	n/a	catFR1	0	R1254E
1352.532	1.6	1548798	ORIENT	n/a	n/a	n/a	n/a	-999	12	[0, 0, 0]	n/a	catFR1	0	R1254E
1356.482	1.6	1552842	WORD	n/a	wordpools/wordpool_categorized_EN.txt	TRUCK	Vehicles	1	12	[0, 0, 0]	n/a	catFR1	0	R1254E
1359.082	1.6	1555505	WORD	n/a	wordpools/wordpool_categorized_EN.txt	MOTORCYCLE	Vehicles	2	12	[0, 0, 0]	n/a	catFR1	0	R1254E
1361.55	1.6	1558032	WORD	n/a	wordpools/wordpool_categorized_EN.txt	LEG	BodyParts	3	12	[0, 0, 0]	n/a	catFR1	0	R1254E
1363.95	1.6	1560489	WORD	n/a	wordpools/wordpool_categorized_EN.txt	FINGERS	BodyParts	4	12	[0, 0, 0]	n/a	catFR1	0	R1254E
1366.417	1.6	1563016	WORD	n/a	wordpools/wordpool_categorized_EN.txt	TABLE	Furniture	5	12	[0, 0, 0]	n/a	catFR1	0	R1254E
1368.868	1.6	1565525	WORD	n/a	wordpools/wordpool_categorized_EN.txt	COUCH	Furniture	6	12	[0, 0, 0]	n/a	catFR1	0	R1254E
1371.285	1.6	1568000	WORD	n/a	wordpools/wordpool_categorized_EN.txt	EYE	BodyParts	7	12	[0, 0, 0]	n/a	catFR1	0	R1254E
1373.819	1.6	1570595	WORD	n/a	wordpools/wordpool_categorized_EN.txt	KNEE	BodyParts	8	12	[0, 0, 0]	n/a	catFR1	0	R1254E
1376.219	1.6	1573053	WORD	n/a	wordpools/wordpool_categorized_EN.txt	VAN	Vehicles	9	12	[0, 0, 0]	n/a	catFR1	0	R1254E
1378.719	1.6	1575613	WORD	n/a	wordpools/wordpool_categorized_EN.txt	PLANE	Vehicles	10	12	[0, 0, 0]	n/a	catFR1	0	R1254E
1381.253	1.6	1578207	WORD	n/a	wordpools/wordpool_categorized_EN.txt	NIGHTSTAND	Furniture	11	12	[0, 0, 0]	n/a	catFR1	0	R1254E
1383.82	1.6	1580836	WORD	n/a	wordpools/wordpool_categorized_EN.txt	CHAIR	Furniture	12	12	[0, 0, 0]	n/a	catFR1	0	R1254E
1385.437	0.001	1582492	DISTRACT_START	n/a	n/a	n/a	n/a	-999	12	[0, 0, 0]	n/a	catFR1	0	R1254E
1385.438	0.016	1582493	START	n/a	n/a	n/a	n/a	-999	12	[-999, -999, -999]	n/a	catFR1	0	R1254E
1385.454	11.052	1582509	PROB	11.022	n/a	n/a	n/a	-999	12	[6, 4, 5]	15.0	catFR1	0	R1254E
1396.506	8.035	1593826	PROB	8.009	n/a	n/a	n/a	-999	12	[3, 3, 8]	14.0	catFR1	0	R1254E
1404.541	23.583	1602054	PROB	23.583	n/a	n/a	n/a	-999	12	[4, 9, 2]	15.0	catFR1	0	R1254E
1428.124	0.004	1626203	STOP	n/a	n/a	n/a	n/a	-999	12	[-999, -999, -999]	n/a	catFR1	0	R1254E
1428.128	1.084	1626207	DISTRACT_END	n/a	n/a	n/a	n/a	-999	12	[0, 0, 0]	n/a	catFR1	0	R1254E
1429.212	1.295	1627317	REC_START	n/a	n/a	n/a	n/a	-999	12	[0, 0, 0]	n/a	catFR1	0	R1254E
1430.507	1.19	1628643	REC_WORD	1.295	n/a	VAN	Vehicles	9	12	[0, 0, 0]	n/a	catFR1	0	R1254E
1431.697	1.826	1629861	REC_WORD	2.485	n/a	PLANE	Vehicles	10	12	[0, 0, 0]	n/a	catFR1	0	R1254E
1433.523	1.729	1631731	REC_WORD	4.311	n/a	NIGHTSTAND	Furniture	11	12	[0, 0, 0]	n/a	catFR1	0	R1254E
1435.252	3.21	1633502	REC_WORD	6.04	n/a	CHAIR	Furniture	12	12	[0, 0, 0]	n/a	catFR1	0	R1254E
1438.462	20.759	1636789	REC_WORD_VV	9.25	n/a	<>	n/a	-999	12	[0, 0, 0]	n/a	catFR1	0	R1254E
1459.221	2.08	1658046	REC_END	n/a	n/a	n/a	n/a	-999	12	[0, 0, 0]	n/a	catFR1	0	R1254E
1461.301	0.0	1660175	TRIAL	n/a	n/a	n/a	n/a	-999	13	[0, 0, 0]	n/a	catFR1	0	R1254E
1461.301	10.0	1660175	COUNTDOWN_START	n/a	n/a	n/a	n/a	-999	13	[0, 0, 0]	n/a	catFR1	0	R1254E
1471.729	0.007	1670854	COUNTDOWN_END	n/a	n/a	n/a	n/a	-999	13	[0, 0, 0]	n/a	catFR1	0	R1254E
1471.736	1.6	1670861	ORIENT	n/a	n/a	n/a	n/a	-999	13	[0, 0, 0]	n/a	catFR1	0	R1254E
1475.303	1.6	1674513	WORD	n/a	wordpools/wordpool_categorized_EN.txt	BEE	Insects	1	13	[0, 0, 0]	n/a	catFR1	0	R1254E
1477.737	1.6	1677006	WORD	n/a	wordpools/wordpool_categorized_EN.txt	MOSQUITO	Insects	2	13	[0, 0, 0]	n/a	catFR1	0	R1254E
1480.237	1.6	1679566	WORD	n/a	wordpools/wordpool_categorized_EN.txt	BOOKCASE	Furniture	3	13	[0, 0, 0]	n/a	catFR1	0	R1254E
1482.704	1.6	1682092	WORD	n/a	wordpools/wordpool_categorized_EN.txt	CABINET	Furniture	4	13	[0, 0, 0]	n/a	catFR1	0	R1254E
1485.238	1.6	1684687	WORD	n/a	wordpools/wordpool_categorized_EN.txt	HALLWAY	Building	5	13	[0, 0, 0]	n/a	catFR1	0	R1254E
1487.855	1.6	1687366	WORD	n/a	wordpools/wordpool_categorized_EN.txt	WINDOW	Building	6	13	[0, 0, 0]	n/a	catFR1	0	R1254E
1490.322	1.6	1689893	WORD	n/a	wordpools/wordpool_categorized_EN.txt	SPIDER	Insects	7	13	[0, 0, 0]	n/a	catFR1	0	R1254E
1492.89	1.6	1692522	WORD	n/a	wordpools/wordpool_categorized_EN.txt	FLY	Insects	8	13	[0, 0, 0]	n/a	catFR1	0	R1254E
1495.323	1.6	1695014	WORD	n/a	wordpools/wordpool_categorized_EN.txt	FOUNDATION	Building	9	13	[0, 0, 0]	n/a	catFR1	0	R1254E
1497.907	1.6	1697660	WORD	n/a	wordpools/wordpool_categorized_EN.txt	BATHROOM	Building	10	13	[0, 0, 0]	n/a	catFR1	0	R1254E
1500.391	1.6	1700203	WORD	n/a	wordpools/wordpool_categorized_EN.txt	SOFA	Furniture	11	13	[0, 0, 0]	n/a	catFR1	0	R1254E
1502.858	1.6	1702729	WORD	n/a	wordpools/wordpool_categorized_EN.txt	SHELF	Furniture	12	13	[0, 0, 0]	n/a	catFR1	0	R1254E
1504.475	0.001	1704385	DISTRACT_START	n/a	n/a	n/a	n/a	-999	13	[0, 0, 0]	n/a	catFR1	0	R1254E
1504.476	0.016	1704386	START	n/a	n/a	n/a	n/a	-999	13	[-999, -999, -999]	n/a	catFR1	0	R1254E
1504.492	9.251	1704402	PROB	9.221	n/a	n/a	n/a	-999	13	[1, 9, 6]	16.0	catFR1	0	R1254E
1513.743	3.567	1713875	PROB	3.538	n/a	n/a	n/a	-999	13	[7, 3, 5]	15.0	catFR1	0	R1254E
1517.31	4.034	1717528	PROB	4.002	n/a	n/a	n/a	-999	13	[1, 5, 9]	15.0	catFR1	0	R1254E
1521.344	73.736	1721659	PROB	73.736	n/a	n/a	n/a	-999	13	[9, 9, 9]	25.0	catFR1	0	R1254E
1595.08	0.011	1797163	STOP	n/a	n/a	n/a	n/a	-999	13	[-999, -999, -999]	n/a	catFR1	0	R1254E
1595.091	1.084	1797175	DISTRACT_END	n/a	n/a	n/a	n/a	-999	13	[0, 0, 0]	n/a	catFR1	0	R1254E
1596.175	30.0	1798285	REC_START	n/a	n/a	n/a	n/a	-999	13	[0, 0, 0]	n/a	catFR1	0	R1254E
1626.175	0.008	1829004	REC_WORD_VV	30.0	n/a	<>	n/a	-999	13	[0, 0, 0]	n/a	catFR1	0	R1254E
1626.183	2.08	1829012	REC_END	n/a	n/a	n/a	n/a	-999	13	[0, 0, 0]	n/a	catFR1	0	R1254E
1628.263	0.0	1831142	TRIAL	n/a	n/a	n/a	n/a	-999	14	[0, 0, 0]	n/a	catFR1	0	R1254E
1628.263	10.0	1831142	COUNTDOWN_START	n/a	n/a	n/a	n/a	-999	14	[0, 0, 0]	n/a	catFR1	0	R1254E
1638.691	0.007	1841820	COUNTDOWN_END	n/a	n/a	n/a	n/a	-999	14	[0, 0, 0]	n/a	catFR1	0	R1254E
1638.698	1.6	1841827	ORIENT	n/a	n/a	n/a	n/a	-999	14	[0, 0, 0]	n/a	catFR1	0	R1254E
1642.598	1.6	1845821	WORD	n/a	wordpools/wordpool_categorized_EN.txt	ONION	Vegetables	1	14	[0, 0, 0]	n/a	catFR1	0	R1254E
1645.033	1.6	1848314	WORD	n/a	wordpools/wordpool_categorized_EN.txt	CELERY	Vegetables	2	14	[0, 0, 0]	n/a	catFR1	0	R1254E
1647.649	1.6	1850993	WORD	n/a	wordpools/wordpool_categorized_EN.txt	TRAIN	Vehicles	3	14	[0, 0, 0]	n/a	catFR1	0	R1254E
1650.1	1.6	1853503	WORD	n/a	wordpools/wordpool_categorized_EN.txt	MOPED	Vehicles	4	14	[0, 0, 0]	n/a	catFR1	0	R1254E
1652.667	1.6	1856132	WORD	n/a	wordpools/wordpool_categorized_EN.txt	SKIRT	Clothing	5	14	[0, 0, 0]	n/a	catFR1	0	R1254E
1655.218	1.6	1858744	WORD	n/a	wordpools/wordpool_categorized_EN.txt	SOCKS	Clothing	6	14	[0, 0, 0]	n/a	catFR1	0	R1254E
1657.735	1.6	1861321	WORD	n/a	wordpools/wordpool_categorized_EN.txt	CORN	Vegetables	7	14	[0, 0, 0]	n/a	catFR1	0	R1254E
1660.252	1.6	1863898	WORD	n/a	wordpools/wordpool_categorized_EN.txt	POTATO	Vegetables	8	14	[0, 0, 0]	n/a	catFR1	0	R1254E
1662.819	1.6	1866527	WORD	n/a	wordpools/wordpool_categorized_EN.txt	UNDERWEAR	Clothing	9	14	[0, 0, 0]	n/a	catFR1	0	R1254E
1665.287	1.6	1869054	WORD	n/a	wordpools/wordpool_categorized_EN.txt	SHIRT	Clothing	10	14	[0, 0, 0]	n/a	catFR1	0	R1254E
1667.737	1.6	1871563	WORD	n/a	wordpools/wordpool_categorized_EN.txt	BUS	Vehicles	11	14	[0, 0, 0]	n/a	catFR1	0	R1254E
1670.371	1.6	1874260	WORD	n/a	wordpools/wordpool_categorized_EN.txt	CAR	Vehicles	12	14	[0, 0, 0]	n/a	catFR1	0	R1254E
1671.988	0.0	1875916	DISTRACT_START	n/a	n/a	n/a	n/a	-999	14	[0, 0, 0]	n/a	catFR1	0	R1254E
1671.988	0.016	1875916	START	n/a	n/a	n/a	n/a	-999	14	[-999, -999, -999]	n/a	catFR1	0	R1254E
1672.004	34.432	1875932	PROB	34.432	n/a	n/a	n/a	-999	14	[8, 9, 8]	25.0	catFR1	0	R1254E
1706.436	0.008	1911190	STOP	n/a	n/a	n/a	n/a	-999	14	[-999, -999, -999]	n/a	catFR1	0	R1254E
1706.444	1.084	1911198	DISTRACT_END	n/a	n/a	n/a	n/a	-999	14	[0, 0, 0]	n/a	catFR1	0	R1254E
1707.528	3.112	1912308	REC_START	n/a	n/a	n/a	n/a	-999	14	[0, 0, 0]	n/a	catFR1	0	R1254E
1710.64	1.085	1915495	REC_WORD_VV	3.112	n/a	<>	n/a	-999	14	[0, 0, 0]	n/a	catFR1	0	R1254E
1711.725	2.178	1916606	REC_WORD	4.197	n/a	BUS	Vehicles	11	14	[0, 0, 0]	n/a	catFR1	0	R1254E
1713.903	3.73	1918836	REC_WORD	6.375	n/a	CAR	Vehicles	12	14	[0, 0, 0]	n/a	catFR1	0	R1254E
1717.633	19.904	1922656	REC_WORD_VV	10.105	n/a	<>	n/a	-999	14	[0, 0, 0]	n/a	catFR1	0	R1254E
1737.537	2.729	1943037	REC_END	n/a	n/a	n/a	n/a	-999	14	[0, 0, 0]	n/a	catFR1	0	R1254E
1740.266	10.0	1945832	COUNTDOWN_START	n/a	n/a	n/a	n/a	-999	15	[0, 0, 0]	n/a	catFR1	0	R1254E
1740.266	10.428	1945832	TRIAL	n/a	n/a	n/a	n/a	-999	15	[0, 0, 0]	n/a	catFR1	0	R1254E
1750.694	0.007	1956510	COUNTDOWN_END	n/a	n/a	n/a	n/a	-999	15	[0, 0, 0]	n/a	catFR1	0	R1254E
1750.701	1.6	1956517	ORIENT	n/a	n/a	n/a	n/a	-999	15	[0, 0, 0]	n/a	catFR1	0	R1254E
1754.419	1.6	1960324	WORD	n/a	wordpools/wordpool_categorized_EN.txt	SPARROW	Birds	1	15	[0, 0, 0]	n/a	catFR1	0	R1254E
1756.886	1.6	1962850	WORD	n/a	wordpools/wordpool_categorized_EN.txt	PIGEON	Birds	2	15	[0, 0, 0]	n/a	catFR1	0	R1254E
1759.47	1.6	1965496	WORD	n/a	wordpools/wordpool_categorized_EN.txt	LADLE	KitchenTools	3	15	[0, 0, 0]	n/a	catFR1	0	R1254E
1762.087	1.6	1968176	WORD	n/a	wordpools/wordpool_categorized_EN.txt	COLANDER	KitchenTools	4	15	[0, 0, 0]	n/a	catFR1	0	R1254E
1764.471	1.6	1970617	WORD	n/a	wordpools/wordpool_categorized_EN.txt	STEREO	Electronics	5	15	[0, 0, 0]	n/a	catFR1	0	R1254E
1766.954	1.6	1973160	WORD	n/a	wordpools/wordpool_categorized_EN.txt	MICROWAVE	Electronics	6	15	[0, 0, 0]	n/a	catFR1	0	R1254E
1769.371	1.6	1975635	WORD	n/a	wordpools/wordpool_categorized_EN.txt	KNIFE	KitchenTools	7	15	[0, 0, 0]	n/a	catFR1	0	R1254E
1771.755	1.6	1978076	WORD	n/a	wordpools/wordpool_categorized_EN.txt	PEELER	KitchenTools	8	15	[0, 0, 0]	n/a	catFR1	0	R1254E
1774.322	1.6	1980705	WORD	n/a	wordpools/wordpool_categorized_EN.txt	ROBIN	Birds	9	15	[0, 0, 0]	n/a	catFR1	0	R1254E
1776.856	1.6	1983299	WORD	n/a	wordpools/wordpool_categorized_EN.txt	CROW	Birds	10	15	[0, 0, 0]	n/a	catFR1	0	R1254E
1779.44	1.6	1985945	WORD	n/a	wordpools/wordpool_categorized_EN.txt	TABLET	Electronics	11	15	[0, 0, 0]	n/a	catFR1	0	R1254E
1781.924	1.6	1988489	WORD	n/a	wordpools/wordpool_categorized_EN.txt	SCANNER	Electronics	12	15	[0, 0, 0]	n/a	catFR1	0	R1254E
1783.541	0.0	1990145	DISTRACT_START	n/a	n/a	n/a	n/a	-999	15	[0, 0, 0]	n/a	catFR1	0	R1254E
1783.541	0.016	1990145	START	n/a	n/a	n/a	n/a	-999	15	[-999, -999, -999]	n/a	catFR1	0	R1254E
1783.557	35.638	1990161	PROB	35.638	n/a	n/a	n/a	-999	15	[7, 4, 4]	15.0	catFR1	0	R1254E
1819.195	0.018	2026654	STOP	n/a	n/a	n/a	n/a	-999	15	[-999, -999, -999]	n/a	catFR1	0	R1254E
1819.213	1.051	2026672	DISTRACT_END	n/a	n/a	n/a	n/a	-999	15	[0, 0, 0]	n/a	catFR1	0	R1254E
1820.264	2.156	2027749	REC_START	n/a	n/a	n/a	n/a	-999	15	[0, 0, 0]	n/a	catFR1	0	R1254E
1822.42	0.883	2029956	REC_WORD_VV	2.156	n/a	<>	n/a	-999	15	[0, 0, 0]	n/a	catFR1	0	R1254E
1823.303	3.421	2030860	REC_WORD	3.039	n/a	DUSTIN	n/a	-999	15	[0, 0, 0]	n/a	catFR1	0	R1254E
1826.724	0.53	2034363	REC_WORD_VV	6.46	n/a	<>	n/a	-999	15	[0, 0, 0]	n/a	catFR1	0	R1254E
1827.254	7.721	2034906	REC_WORD	6.99	n/a	ROBIN	Birds	9	15	[0, 0, 0]	n/a	catFR1	0	R1254E
1834.975	11.853	2042812	REC_WORD_VV	14.711	n/a	<>	n/a	-999	15	[0, 0, 0]	n/a	catFR1	0	R1254E
1846.828	2.123	2054950	REC_WORD	26.564	n/a	KNIFE	KitchenTools	7	15	[0, 0, 0]	n/a	catFR1	0	R1254E
1848.951	1.328	2057124	REC_WORD	28.687	n/a	SHAVER	n/a	-999	15	[0, 0, 0]	n/a	catFR1	0	R1254E
1850.279	6.774	2058483	REC_END	n/a	n/a	n/a	n/a	-999	15	[0, 0, 0]	n/a	catFR1	0	R1254E
1857.053	0.0	2065420	TRIAL	n/a	n/a	n/a	n/a	-999	16	[0, 0, 0]	n/a	catFR1	0	R1254E
1857.053	10.0	2065420	COUNTDOWN_START	n/a	n/a	n/a	n/a	-999	16	[0, 0, 0]	n/a	catFR1	0	R1254E
1867.481	0.008	2076098	COUNTDOWN_END	n/a	n/a	n/a	n/a	-999	16	[0, 0, 0]	n/a	catFR1	0	R1254E
1867.489	1.6	2076106	ORIENT	n/a	n/a	n/a	n/a	-999	16	[0, 0, 0]	n/a	catFR1	0	R1254E
1871.073	1.6	2079776	WORD	n/a	wordpools/wordpool_categorized_EN.txt	ARM	BodyParts	1	16	[0, 0, 0]	n/a	catFR1	0	R1254E
1873.54	1.6	2082302	WORD	n/a	wordpools/wordpool_categorized_EN.txt	FOOT	BodyParts	2	16	[0, 0, 0]	n/a	catFR1	0	R1254E
1875.923	1.6	2084743	WORD	n/a	wordpools/wordpool_categorized_EN.txt	TRUMPET	Instruments	3	16	[0, 0, 0]	n/a	catFR1	0	R1254E
1878.357	1.6	2087235	WORD	n/a	wordpools/wordpool_categorized_EN.txt	FLUTE	Instruments	4	16	[0, 0, 0]	n/a	catFR1	0	R1254E
1880.941	1.6	2089881	WORD	n/a	wordpools/wordpool_categorized_EN.txt	CAULIFLOWER	Vegetables	5	16	[0, 0, 0]	n/a	catFR1	0	R1254E
1883.341	1.6	2092338	WORD	n/a	wordpools/wordpool_categorized_EN.txt	SPINACH	Vegetables	6	16	[0, 0, 0]	n/a	catFR1	0	R1254E
1885.925	1.6	2094984	WORD	n/a	wordpools/wordpool_categorized_EN.txt	EAR	BodyParts	7	16	[0, 0, 0]	n/a	catFR1	0	R1254E
1888.442	1.6	2097562	WORD	n/a	wordpools/wordpool_categorized_EN.txt	HEAD	BodyParts	8	16	[0, 0, 0]	n/a	catFR1	0	R1254E
1890.926	1.6	2100105	WORD	n/a	wordpools/wordpool_categorized_EN.txt	CUCUMBER	Vegetables	9	16	[0, 0, 0]	n/a	catFR1	0	R1254E
1893.327	1.6	2102564	WORD	n/a	wordpools/wordpool_categorized_EN.txt	LETTUCE	Vegetables	10	16	[0, 0, 0]	n/a	catFR1	0	R1254E
1895.894	1.6	2105193	WORD	n/a	wordpools/wordpool_categorized_EN.txt	GUITAR	Instruments	11	16	[0, 0, 0]	n/a	catFR1	0	R1254E
1898.444	1.6	2107804	WORD	n/a	wordpools/wordpool_categorized_EN.txt	TUBA	Instruments	12	16	[0, 0, 0]	n/a	catFR1	0	R1254E
1900.061	0.001	2109460	DISTRACT_START	n/a	n/a	n/a	n/a	-999	16	[0, 0, 0]	n/a	catFR1	0	R1254E
1900.062	0.016	2109461	START	n/a	n/a	n/a	n/a	-999	16	[-999, -999, -999]	n/a	catFR1	0	R1254E
1900.078	5.384	2109477	PROB	5.353	n/a	n/a	n/a	-999	16	[7, 5, 3]	15.0	catFR1	0	R1254E
1905.462	4.351	2114990	PROB	4.329	n/a	n/a	n/a	-999	16	[3, 4, 6]	13.0	catFR1	0	R1254E
1909.813	22.439	2119445	PROB	22.439	n/a	n/a	n/a	-999	16	[8, 6, 4]	18.0	catFR1	0	R1254E
1932.252	0.015	2142423	STOP	n/a	n/a	n/a	n/a	-999	16	[-999, -999, -999]	n/a	catFR1	0	R1254E
1932.267	1.167	2142438	DISTRACT_END	n/a	n/a	n/a	n/a	-999	16	[0, 0, 0]	n/a	catFR1	0	R1254E
1933.434	3.927	2143633	REC_START	n/a	n/a	n/a	n/a	-999	16	[0, 0, 0]	n/a	catFR1	0	R1254E
1937.361	5.347	2147654	REC_WORD_VV	3.927	n/a	<>	n/a	-999	16	[0, 0, 0]	n/a	catFR1	0	R1254E
1942.708	2.803	2153129	REC_WORD	9.274	n/a	VAN	n/a	-999	16	[0, 0, 0]	n/a	catFR1	0	R1254E
1945.511	17.932	2156000	REC_WORD_VV	12.077	n/a	<>	n/a	-999	16	[0, 0, 0]	n/a	catFR1	0	R1254E
1963.443	2.313	2174362	REC_END	n/a	n/a	n/a	n/a	-999	16	[0, 0, 0]	n/a	catFR1	0	R1254E
1965.756	0.0	2176730	TRIAL	n/a	n/a	n/a	n/a	-999	17	[0, 0, 0]	n/a	catFR1	0	R1254E
1965.756	10.0	2176730	COUNTDOWN_START	n/a	n/a	n/a	n/a	-999	17	[0, 0, 0]	n/a	catFR1	0	R1254E
1976.184	0.007	2187408	COUNTDOWN_END	n/a	n/a	n/a	n/a	-999	17	[0, 0, 0]	n/a	catFR1	0	R1254E
1976.191	1.6	2187416	ORIENT	n/a	n/a	n/a	n/a	-999	17	[0, 0, 0]	n/a	catFR1	0	R1254E
1980.125	1.6	2191444	WORD	n/a	wordpools/wordpool_categorized_EN.txt	SHOVEL	Tools	1	17	[0, 0, 0]	n/a	catFR1	0	R1254E
1982.608	1.6	2193986	WORD	n/a	wordpools/wordpool_categorized_EN.txt	RATCHET	Tools	2	17	[0, 0, 0]	n/a	catFR1	0	R1254E
1985.159	1.6	2196599	WORD	n/a	wordpools/wordpool_categorized_EN.txt	HICKORY	Trees	3	17	[0, 0, 0]	n/a	catFR1	0	R1254E
1987.575	1.6	2199073	WORD	n/a	wordpools/wordpool_categorized_EN.txt	ELM	Trees	4	17	[0, 0, 0]	n/a	catFR1	0	R1254E
1990.16	1.6	2201720	WORD	n/a	wordpools/wordpool_categorized_EN.txt	RECLINER	Furniture	5	17	[0, 0, 0]	n/a	catFR1	0	R1254E
1992.643	1.6	2204262	WORD	n/a	wordpools/wordpool_categorized_EN.txt	DRESSER	Furniture	6	17	[0, 0, 0]	n/a	catFR1	0	R1254E
1995.194	1.6	2206874	WORD	n/a	wordpools/wordpool_categorized_EN.txt	HAMMER	Tools	7	17	[0, 0, 0]	n/a	catFR1	0	R1254E
1997.694	1.6	2209434	WORD	n/a	wordpools/wordpool_categorized_EN.txt	PLIERS	Tools	8	17	[0, 0, 0]	n/a	catFR1	0	R1254E
2000.312	1.6	2212115	WORD	n/a	wordpools/wordpool_categorized_EN.txt	DESK	Furniture	9	17	[0, 0, 0]	n/a	catFR1	0	R1254E
2002.862	1.6	2214726	WORD	n/a	wordpools/wordpool_categorized_EN.txt	BED	Furniture	10	17	[0, 0, 0]	n/a	catFR1	0	R1254E
2005.33	1.6	2217253	WORD	n/a	wordpools/wordpool_categorized_EN.txt	WALNUT	Trees	11	17	[0, 0, 0]	n/a	catFR1	0	R1254E
2007.947	1.6	2219933	WORD	n/a	wordpools/wordpool_categorized_EN.txt	CEDAR	Trees	12	17	[0, 0, 0]	n/a	catFR1	0	R1254E
2009.563	0.0	2221588	DISTRACT_START	n/a	n/a	n/a	n/a	-999	17	[0, 0, 0]	n/a	catFR1	0	R1254E
2009.563	0.016	2221588	START	n/a	n/a	n/a	n/a	-999	17	[-999, -999, -999]	n/a	catFR1	0	R1254E
2009.579	27.527	2221604	PROB	27.527	n/a	n/a	n/a	-999	17	[1, 8, 5]	14.0	catFR1	0	R1254E
2037.106	0.012	2249792	STOP	n/a	n/a	n/a	n/a	-999	17	[-999, -999, -999]	n/a	catFR1	0	R1254E
2037.118	1.118	2249804	DISTRACT_END	n/a	n/a	n/a	n/a	-999	17	[0, 0, 0]	n/a	catFR1	0	R1254E
2038.236	4.466	2250949	REC_START	n/a	n/a	n/a	n/a	-999	17	[0, 0, 0]	n/a	catFR1	0	R1254E
2042.702	15.076	2255522	REC_WORD_VV	4.466	n/a	<>	n/a	-999	17	[0, 0, 0]	n/a	catFR1	0	R1254E
2057.778	2.103	2270959	REC_WORD	19.542	n/a	SHOVEL	Tools	1	17	[0, 0, 0]	n/a	catFR1	0	R1254E
2059.881	8.363	2273113	REC_WORD_VV	21.645	n/a	<>	n/a	-999	17	[0, 0, 0]	n/a	catFR1	0	R1254E
2068.244	3.831	2281677	REC_END	n/a	n/a	n/a	n/a	-999	17	[0, 0, 0]	n/a	catFR1	0	R1254E
2072.075	0.0	2285599	TRIAL	n/a	n/a	n/a	n/a	-999	18	[0, 0, 0]	n/a	catFR1	0	R1254E
2072.075	10.0	2285599	COUNTDOWN_START	n/a	n/a	n/a	n/a	-999	18	[0, 0, 0]	n/a	catFR1	0	R1254E
2082.503	0.007	2296278	COUNTDOWN_END	n/a	n/a	n/a	n/a	-999	18	[0, 0, 0]	n/a	catFR1	0	R1254E
2082.51	1.6	2296285	ORIENT	n/a	n/a	n/a	n/a	-999	18	[0, 0, 0]	n/a	catFR1	0	R1254E
2086.294	1.6	2300159	WORD	n/a	wordpools/wordpool_categorized_EN.txt	TROMBONE	Instruments	1	18	[0, 0, 0]	n/a	catFR1	0	R1254E
2088.811	1.6	2302737	WORD	n/a	wordpools/wordpool_categorized_EN.txt	ORGAN	Instruments	2	18	[0, 0, 0]	n/a	catFR1	0	R1254E
2091.328	1.6	2305314	WORD	n/a	wordpools/wordpool_categorized_EN.txt	PHONE	Electronics	3	18	[0, 0, 0]	n/a	catFR1	0	R1254E
2093.745	1.6	2307789	WORD	n/a	wordpools/wordpool_categorized_EN.txt	PRINTER	Electronics	4	18	[0, 0, 0]	n/a	catFR1	0	R1254E
2096.379	1.6	2310486	WORD	n/a	wordpools/wordpool_categorized_EN.txt	DRYER	Appliances	5	18	[0, 0, 0]	n/a	catFR1	0	R1254E
2098.779	1.6	2312944	WORD	n/a	wordpools/wordpool_categorized_EN.txt	REFRIGERATOR	Appliances	6	18	[0, 0, 0]	n/a	catFR1	0	R1254E
2101.213	1.6	2315436	WORD	n/a	wordpools/wordpool_categorized_EN.txt	VIOLIN	Instruments	7	18	[0, 0, 0]	n/a	catFR1	0	R1254E
2103.713	1.6	2317996	WORD	n/a	wordpools/wordpool_categorized_EN.txt	CELLO	Instruments	8	18	[0, 0, 0]	n/a	catFR1	0	R1254E
2106.181	1.6	2320523	WORD	n/a	wordpools/wordpool_categorized_EN.txt	BLENDER	Appliances	9	18	[0, 0, 0]	n/a	catFR1	0	R1254E
2108.68	1.6	2323082	WORD	n/a	wordpools/wordpool_categorized_EN.txt	VACUUM	Appliances	10	18	[0, 0, 0]	n/a	catFR1	0	R1254E
2111.265	1.6	2325729	WORD	n/a	wordpools/wordpool_categorized_EN.txt	RADIO	Electronics	11	18	[0, 0, 0]	n/a	catFR1	0	R1254E
2113.865	1.6	2328392	WORD	n/a	wordpools/wordpool_categorized_EN.txt	HEADPHONES	Electronics	12	18	[0, 0, 0]	n/a	catFR1	0	R1254E
2115.482	0.001	2330048	DISTRACT_START	n/a	n/a	n/a	n/a	-999	18	[0, 0, 0]	n/a	catFR1	0	R1254E
2115.483	0.016	2330049	START	n/a	n/a	n/a	n/a	-999	18	[-999, -999, -999]	n/a	catFR1	0	R1254E
2115.499	7.285	2330065	PROB	7.251	n/a	n/a	n/a	-999	18	[9, 1, 6]	16.0	catFR1	0	R1254E
2122.784	3.6	2337525	PROB	3.574	n/a	n/a	n/a	-999	18	[1, 1, 9]	11.0	catFR1	0	R1254E
2126.384	20.006	2341211	PROB	20.006	n/a	n/a	n/a	-999	18	[8, 6, 6]	20.0	catFR1	0	R1254E
2146.39	0.014	2361697	STOP	n/a	n/a	n/a	n/a	-999	18	[-999, -999, -999]	n/a	catFR1	0	R1254E
2146.404	1.2	2361711	DISTRACT_END	n/a	n/a	n/a	n/a	-999	18	[0, 0, 0]	n/a	catFR1	0	R1254E
2147.604	1.865	2362940	REC_START	n/a	n/a	n/a	n/a	-999	18	[0, 0, 0]	n/a	catFR1	0	R1254E
2149.469	1.0	2364850	REC_WORD	1.865	n/a	TROMBONE	Instruments	1	18	[0, 0, 0]	n/a	catFR1	0	R1254E
2150.469	1.979	2365874	REC_WORD_VV	2.865	n/a	<>	n/a	-999	18	[0, 0, 0]	n/a	catFR1	0	R1254E
2152.448	4.12	2367900	REC_WORD	4.844	n/a	VIOLIN	Instruments	7	18	[0, 0, 0]	n/a	catFR1	0	R1254E
2156.568	4.07	2372119	REC_WORD_VV	8.964	n/a	<>	n/a	-999	18	[0, 0, 0]	n/a	catFR1	0	R1254E
2160.638	1.138	2376287	REC_WORD_VV	13.034	n/a	<>	n/a	-999	18	[0, 0, 0]	n/a	catFR1	0	R1254E
2161.776	1.654	2377452	REC_WORD	14.172	n/a	RACKET	n/a	-999	18	[0, 0, 0]	n/a	catFR1	0	R1254E
2163.43	4.027	2379146	REC_WORD	15.826	n/a	RACHET	n/a	-999	18	[0, 0, 0]	n/a	catFR1	0	R1254E
2167.457	10.16	2383269	REC_WORD_VV	19.853	n/a	<>	n/a	-999	18	[0, 0, 0]	n/a	catFR1	0	R1254E
2177.617	2.677	2393673	REC_END	n/a	n/a	n/a	n/a	-999	18	[0, 0, 0]	n/a	catFR1	0	R1254E
2180.294	0.0	2396414	TRIAL	n/a	n/a	n/a	n/a	-999	19	[0, 0, 0]	n/a	catFR1	0	R1254E
2180.294	10.0	2396414	COUNTDOWN_START	n/a	n/a	n/a	n/a	-999	19	[0, 0, 0]	n/a	catFR1	0	R1254E
2190.722	0.007	2407092	COUNTDOWN_END	n/a	n/a	n/a	n/a	-999	19	[0, 0, 0]	n/a	catFR1	0	R1254E
2190.729	1.6	2407099	ORIENT	n/a	n/a	n/a	n/a	-999	19	[0, 0, 0]	n/a	catFR1	0	R1254E
2194.396	1.6	2410854	WORD	n/a	wordpools/wordpool_categorized_EN.txt	LEMON	Fruit	1	19	[0, 0, 0]	n/a	catFR1	0	R1254E
2196.83	1.6	2413347	WORD	n/a	wordpools/wordpool_categorized_EN.txt	BLUEBERRY	Fruit	2	19	[0, 0, 0]	n/a	catFR1	0	R1254E
2199.314	1.6	2415890	WORD	n/a	wordpools/wordpool_categorized_EN.txt	RAIN	Weather	3	19	[0, 0, 0]	n/a	catFR1	0	R1254E
2201.797	1.6	2418433	WORD	n/a	wordpools/wordpool_categorized_EN.txt	DRIZZLE	Weather	4	19	[0, 0, 0]	n/a	catFR1	0	R1254E
2204.415	1.6	2421114	WORD	n/a	wordpools/wordpool_categorized_EN.txt	SQUID	OceanAnimals	5	19	[0, 0, 0]	n/a	catFR1	0	R1254E
2206.815	1.6	2423571	WORD	n/a	wordpools/wordpool_categorized_EN.txt	TURTLE	OceanAnimals	6	19	[0, 0, 0]	n/a	catFR1	0	R1254E
2209.232	1.6	2426046	WORD	n/a	wordpools/wordpool_categorized_EN.txt	PLUM	Fruit	7	19	[0, 0, 0]	n/a	catFR1	0	R1254E
2211.682	1.6	2428555	WORD	n/a	wordpools/wordpool_categorized_EN.txt	STRAWBERRY	Fruit	8	19	[0, 0, 0]	n/a	catFR1	0	R1254E
2214.066	1.6	2430996	WORD	n/a	wordpools/wordpool_categorized_EN.txt	PLANKTON	OceanAnimals	9	19	[0, 0, 0]	n/a	catFR1	0	R1254E
2216.599	1.6	2433590	WORD	n/a	wordpools/wordpool_categorized_EN.txt	OYSTER	OceanAnimals	10	19	[0, 0, 0]	n/a	catFR1	0	R1254E
2218.967	1.6	2436015	WORD	n/a	wordpools/wordpool_categorized_EN.txt	SNOW	Weather	11	19	[0, 0, 0]	n/a	catFR1	0	R1254E
2221.401	1.6	2438507	WORD	n/a	wordpools/wordpool_categorized_EN.txt	HUMIDITY	Weather	12	19	[0, 0, 0]	n/a	catFR1	0	R1254E
2223.018	0.001	2440163	DISTRACT_START	n/a	n/a	n/a	n/a	-999	19	[0, 0, 0]	n/a	catFR1	0	R1254E
2223.019	0.016	2440164	START	n/a	n/a	n/a	n/a	-999	19	[-999, -999, -999]	n/a	catFR1	0	R1254E
2223.035	6.583	2440180	PROB	6.562	n/a	n/a	n/a	-999	19	[6, 8, 6]	20.0	catFR1	0	R1254E
2229.618	6.569	2446921	PROB	6.537	n/a	n/a	n/a	-999	19	[2, 8, 3]	13.0	catFR1	0	R1254E
2236.187	9.436	2453648	PROB	9.436	n/a	n/a	n/a	-999	19	[2, 5, 4]	11.0	catFR1	0	R1254E
2245.623	0.014	2463310	STOP	n/a	n/a	n/a	n/a	-999	19	[-999, -999, -999]	n/a	catFR1	0	R1254E
2245.637	1.035	2463324	DISTRACT_END	n/a	n/a	n/a	n/a	-999	19	[0, 0, 0]	n/a	catFR1	0	R1254E
2246.672	2.877	2464384	REC_START	n/a	n/a	n/a	n/a	-999	19	[0, 0, 0]	n/a	catFR1	0	R1254E
2249.549	27.131	2467330	REC_WORD	2.877	n/a	PLANKTON	OceanAnimals	9	19	[0, 0, 0]	n/a	catFR1	0	R1254E
2276.68	10.733	2495112	REC_END	n/a	n/a	n/a	n/a	-999	19	[0, 0, 0]	n/a	catFR1	0	R1254E
2287.413	0.0	2506102	TRIAL	n/a	n/a	n/a	n/a	-999	20	[0, 0, 0]	n/a	catFR1	0	R1254E
2287.413	10.0	2506102	COUNTDOWN_START	n/a	n/a	n/a	n/a	-999	20	[0, 0, 0]	n/a	catFR1	0	R1254E
2297.841	0.007	2516781	COUNTDOWN_END	n/a	n/a	n/a	n/a	-999	20	[0, 0, 0]	n/a	catFR1	0	R1254E
2297.848	1.6	2516788	ORIENT	n/a	n/a	n/a	n/a	-999	20	[0, 0, 0]	n/a	catFR1	0	R1254E
2301.798	1.6	2520833	WORD	n/a	wordpools/wordpool_categorized_EN.txt	FOLDER	OfficeSupplies	1	20	[0, 0, 0]	n/a	catFR1	0	R1254E
2304.366	1.6	2523462	WORD	n/a	wordpools/wordpool_categorized_EN.txt	GLUE	OfficeSupplies	2	20	[0, 0, 0]	n/a	catFR1	0	R1254E
2306.749	1.6	2525902	WORD	n/a	wordpools/wordpool_categorized_EN.txt	CHERRY	Fruit	3	20	[0, 0, 0]	n/a	catFR1	0	R1254E
2309.383	1.6	2528599	WORD	n/a	wordpools/wordpool_categorized_EN.txt	BANANA	Fruit	4	20	[0, 0, 0]	n/a	catFR1	0	R1254E
2311.983	1.6	2531262	WORD	n/a	wordpools/wordpool_categorized_EN.txt	LADYBUG	Insects	5	20	[0, 0, 0]	n/a	catFR1	0	R1254E
2314.566	1.6	2533907	WORD	n/a	wordpools/wordpool_categorized_EN.txt	MOTH	Insects	6	20	[0, 0, 0]	n/a	catFR1	0	R1254E
2317.051	1.6	2536451	WORD	n/a	wordpools/wordpool_categorized_EN.txt	ERASER	OfficeSupplies	7	20	[0, 0, 0]	n/a	catFR1	0	R1254E
2319.567	1.6	2539028	WORD	n/a	wordpools/wordpool_categorized_EN.txt	BINDER	OfficeSupplies	8	20	[0, 0, 0]	n/a	catFR1	0	R1254E
2321.968	1.6	2541486	WORD	n/a	wordpools/wordpool_categorized_EN.txt	CRICKET	Insects	9	20	[0, 0, 0]	n/a	catFR1	0	R1254E
2324.502	1.6	2544081	WORD	n/a	wordpools/wordpool_categorized_EN.txt	ANT	Insects	10	20	[0, 0, 0]	n/a	catFR1	0	R1254E
2326.886	1.6	2546522	WORD	n/a	wordpools/wordpool_categorized_EN.txt	LIME	Fruit	11	20	[0, 0, 0]	n/a	catFR1	0	R1254E
2329.387	1.6	2549083	WORD	n/a	wordpools/wordpool_categorized_EN.txt	PEAR	Fruit	12	20	[0, 0, 0]	n/a	catFR1	0	R1254E
2331.003	0.001	2550738	DISTRACT_START	n/a	n/a	n/a	n/a	-999	20	[0, 0, 0]	n/a	catFR1	0	R1254E
2331.004	0.016	2550739	START	n/a	n/a	n/a	n/a	-999	20	[-999, -999, -999]	n/a	catFR1	0	R1254E
2331.02	7.935	2550755	PROB	7.901	n/a	n/a	n/a	-999	20	[7, 2, 5]	14.0	catFR1	0	R1254E
2338.955	10.035	2558881	PROB	10.002	n/a	n/a	n/a	-999	20	[1, 8, 3]	12.0	catFR1	0	R1254E
2348.99	12.833	2569156	PROB	12.833	n/a	n/a	n/a	-999	20	[9, 9, 3]	21.0	catFR1	0	R1254E
2361.823	0.019	2582297	STOP	n/a	n/a	n/a	n/a	-999	20	[-999, -999, -999]	n/a	catFR1	0	R1254E
2361.842	1.118	2582317	DISTRACT_END	n/a	n/a	n/a	n/a	-999	20	[0, 0, 0]	n/a	catFR1	0	R1254E
2362.96	11.771	2583462	REC_START	n/a	n/a	n/a	n/a	-999	20	[0, 0, 0]	n/a	catFR1	0	R1254E
2374.731	3.272	2595515	REC_WORD	11.771	n/a	LADYBUG	Insects	5	20	[0, 0, 0]	n/a	catFR1	0	R1254E
2378.003	6.987	2598865	REC_WORD_VV	15.043	n/a	<>	n/a	-999	20	[0, 0, 0]	n/a	catFR1	0	R1254E
2384.99	2.588	2606020	REC_WORD	22.03	n/a	BEETLE	n/a	-999	20	[0, 0, 0]	n/a	catFR1	0	R1254E
2387.578	5.391	2608670	REC_WORD_VV	24.618	n/a	<>	n/a	-999	20	[0, 0, 0]	n/a	catFR1	0	R1254E
2392.969	2.563	2614190	REC_END	n/a	n/a	n/a	n/a	-999	20	[0, 0, 0]	n/a	catFR1	0	R1254E
2395.532	10.0	2616815	COUNTDOWN_START	n/a	n/a	n/a	n/a	-999	21	[0, 0, 0]	n/a	catFR1	0	R1254E
2395.532	10.428	2616815	TRIAL	n/a	n/a	n/a	n/a	-999	21	[0, 0, 0]	n/a	catFR1	0	R1254E
2405.96	0.007	2627493	COUNTDOWN_END	n/a	n/a	n/a	n/a	-999	21	[0, 0, 0]	n/a	catFR1	0	R1254E
2405.967	1.6	2627500	ORIENT	n/a	n/a	n/a	n/a	-999	21	[0, 0, 0]	n/a	catFR1	0	R1254E
2409.701	1.6	2631324	WORD	n/a	wordpools/wordpool_categorized_EN.txt	PEN	OfficeSupplies	1	21	[0, 0, 0]	n/a	catFR1	0	R1254E
2412.168	1.6	2633850	WORD	n/a	wordpools/wordpool_categorized_EN.txt	PAPER	OfficeSupplies	2	21	[0, 0, 0]	n/a	catFR1	0	R1254E
2414.718	1.6	2636461	WORD	n/a	wordpools/wordpool_categorized_EN.txt	DUCK	Birds	3	21	[0, 0, 0]	n/a	catFR1	0	R1254E
2417.102	1.6	2638902	WORD	n/a	wordpools/wordpool_categorized_EN.txt	HAWK	Birds	4	21	[0, 0, 0]	n/a	catFR1	0	R1254E
2419.719	1.6	2641582	WORD	n/a	wordpools/wordpool_categorized_EN.txt	ORANGUTAN	Zoo	5	21	[0, 0, 0]	n/a	catFR1	0	R1254E
2422.119	1.6	2644039	WORD	n/a	wordpools/wordpool_categorized_EN.txt	LION	Zoo	6	21	[0, 0, 0]	n/a	catFR1	0	R1254E
2424.619	1.6	2646599	WORD	n/a	wordpools/wordpool_categorized_EN.txt	FINCH	Birds	7	21	[0, 0, 0]	n/a	catFR1	0	R1254E
2427.153	1.6	2649194	WORD	n/a	wordpools/wordpool_categorized_EN.txt	CARDINAL	Birds	8	21	[0, 0, 0]	n/a	catFR1	0	R1254E
2429.771	1.6	2651875	WORD	n/a	wordpools/wordpool_categorized_EN.txt	MARKER	OfficeSupplies	9	21	[0, 0, 0]	n/a	catFR1	0	R1254E
2432.271	1.6	2654435	WORD	n/a	wordpools/wordpool_categorized_EN.txt	TAPE	OfficeSupplies	10	21	[0, 0, 0]	n/a	catFR1	0	R1254E
2434.705	1.6	2656927	WORD	n/a	wordpools/wordpool_categorized_EN.txt	ZEBRA	Zoo	11	21	[0, 0, 0]	n/a	catFR1	0	R1254E
2437.172	1.6	2659454	WORD	n/a	wordpools/wordpool_categorized_EN.txt	CHIMPANZEE	Zoo	12	21	[0, 0, 0]	n/a	catFR1	0	R1254E
2438.789	0.001	2661109	DISTRACT_START	n/a	n/a	n/a	n/a	-999	21	[0, 0, 0]	n/a	catFR1	0	R1254E
2438.79	0.016	2661110	START	n/a	n/a	n/a	n/a	-999	21	[-999, -999, -999]	n/a	catFR1	0	R1254E
2438.806	4.734	2661127	PROB	4.709	n/a	n/a	n/a	-999	21	[1, 7, 3]	11.0	catFR1	0	R1254E
2443.54	6.15	2665974	PROB	6.126	n/a	n/a	n/a	-999	21	[5, 4, 5]	14.0	catFR1	0	R1254E
2449.69	11.335	2672272	PROB	11.335	n/a	n/a	n/a	-999	21	[6, 8, 9]	23.0	catFR1	0	R1254E
2461.025	0.018	2683879	STOP	n/a	n/a	n/a	n/a	-999	21	[-999, -999, -999]	n/a	catFR1	0	R1254E
2461.043	1.101	2683897	DISTRACT_END	n/a	n/a	n/a	n/a	-999	21	[0, 0, 0]	n/a	catFR1	0	R1254E
2462.144	2.762	2685025	REC_START	n/a	n/a	n/a	n/a	-999	21	[0, 0, 0]	n/a	catFR1	0	R1254E
2464.906	1.346	2687853	REC_WORD	2.762	n/a	ZEBRA	Zoo	11	21	[0, 0, 0]	n/a	catFR1	0	R1254E
2466.252	1.0	2689231	REC_WORD	4.108	n/a	CHIMPANZEE	Zoo	12	21	[0, 0, 0]	n/a	catFR1	0	R1254E
2467.252	1.627	2690255	REC_WORD_VV	5.108	n/a	<>	n/a	-999	21	[0, 0, 0]	n/a	catFR1	0	R1254E
2468.879	12.075	2691921	REC_WORD	6.735	n/a	CARDINAL	Birds	8	21	[0, 0, 0]	n/a	catFR1	0	R1254E
2480.954	2.194	2704286	REC_WORD	18.81	n/a	BLUE JAY	n/a	-999	21	[0, 0, 0]	n/a	catFR1	0	R1254E
2483.148	5.192	2706532	REC_WORD_VV	21.004	n/a	<>	n/a	-999	21	[0, 0, 0]	n/a	catFR1	0	R1254E
2488.34	3.812	2711849	REC_WORD	26.196	n/a	ORANGUTAN	Zoo	5	21	[0, 0, 0]	n/a	catFR1	0	R1254E
2492.152	3.33	2715752	REC_END	n/a	n/a	n/a	n/a	-999	21	[0, 0, 0]	n/a	catFR1	0	R1254E
2495.482	10.0	2719162	COUNTDOWN_START	n/a	n/a	n/a	n/a	-999	22	[0, 0, 0]	n/a	catFR1	0	R1254E
2495.483	10.427	2719163	TRIAL	n/a	n/a	n/a	n/a	-999	22	[0, 0, 0]	n/a	catFR1	0	R1254E
2505.91	0.008	2729840	COUNTDOWN_END	n/a	n/a	n/a	n/a	-999	22	[0, 0, 0]	n/a	catFR1	0	R1254E
2505.918	1.6	2729848	ORIENT	n/a	n/a	n/a	n/a	-999	22	[0, 0, 0]	n/a	catFR1	0	R1254E
2509.468	1.6	2733484	WORD	n/a	wordpools/wordpool_categorized_EN.txt	HURRICANE	Weather	1	22	[0, 0, 0]	n/a	catFR1	0	R1254E
2511.969	1.6	2736045	WORD	n/a	wordpools/wordpool_categorized_EN.txt	FOG	Weather	2	22	[0, 0, 0]	n/a	catFR1	0	R1254E
2514.486	1.6	2738622	WORD	n/a	wordpools/wordpool_categorized_EN.txt	IRON	Appliances	3	22	[0, 0, 0]	n/a	catFR1	0	R1254E
2516.903	1.6	2741097	WORD	n/a	wordpools/wordpool_categorized_EN.txt	STOVE	Appliances	4	22	[0, 0, 0]	n/a	catFR1	0	R1254E
2519.403	1.6	2743657	WORD	n/a	wordpools/wordpool_categorized_EN.txt	BEER	Beverages	5	22	[0, 0, 0]	n/a	catFR1	0	R1254E
2522.021	1.6	2746338	WORD	n/a	wordpools/wordpool_categorized_EN.txt	TEA	Beverages	6	22	[0, 0, 0]	n/a	catFR1	0	R1254E
2524.637	1.6	2749016	WORD	n/a	wordpools/wordpool_categorized_EN.txt	WIND	Weather	7	22	[0, 0, 0]	n/a	catFR1	0	R1254E
2527.038	1.6	2751475	WORD	n/a	wordpools/wordpool_categorized_EN.txt	THUNDER	Weather	8	22	[0, 0, 0]	n/a	catFR1	0	R1254E
2529.555	1.6	2754052	WORD	n/a	wordpools/wordpool_categorized_EN.txt	MILK	Beverages	9	22	[0, 0, 0]	n/a	catFR1	0	R1254E
2531.972	1.6	2756527	WORD	n/a	wordpools/wordpool_categorized_EN.txt	CIDER	Beverages	10	22	[0, 0, 0]	n/a	catFR1	0	R1254E
2534.373	1.6	2758986	WORD	n/a	wordpools/wordpool_categorized_EN.txt	DISHWASHER	Appliances	11	22	[0, 0, 0]	n/a	catFR1	0	R1254E
2536.856	1.6	2761529	WORD	n/a	wordpools/wordpool_categorized_EN.txt	MIXER	Appliances	12	22	[0, 0, 0]	n/a	catFR1	0	R1254E
2538.473	0.001	2763184	DISTRACT_START	n/a	n/a	n/a	n/a	-999	22	[0, 0, 0]	n/a	catFR1	0	R1254E
2538.474	0.016	2763185	START	n/a	n/a	n/a	n/a	-999	22	[-999, -999, -999]	n/a	catFR1	0	R1254E
2538.49	7.885	2763202	PROB	7.859	n/a	n/a	n/a	-999	22	[6, 4, 9]	19.0	catFR1	0	R1254E
2546.375	27.722	2771276	PROB	27.722	n/a	n/a	n/a	-999	22	[6, 1, 7]	14.0	catFR1	0	R1254E
2574.097	0.016	2799663	STOP	n/a	n/a	n/a	n/a	-999	22	[-999, -999, -999]	n/a	catFR1	0	R1254E
2574.113	1.167	2799679	DISTRACT_END	n/a	n/a	n/a	n/a	-999	22	[0, 0, 0]	n/a	catFR1	0	R1254E
2575.28	2.414	2800874	REC_START	n/a	n/a	n/a	n/a	-999	22	[0, 0, 0]	n/a	catFR1	0	R1254E
2577.694	1.802	2803346	REC_WORD	2.414	n/a	THUNDER	Weather	8	22	[0, 0, 0]	n/a	catFR1	0	R1254E
2579.496	2.393	2805191	REC_WORD	4.216	n/a	LIGHTNING	n/a	-999	22	[0, 0, 0]	n/a	catFR1	0	R1254E
2581.889	11.547	2807642	REC_WORD_VV	6.609	n/a	<>	n/a	-999	22	[0, 0, 0]	n/a	catFR1	0	R1254E
2593.436	2.447	2819466	REC_WORD	18.156	n/a	NOTEBOOK	n/a	-999	22	[0, 0, 0]	n/a	catFR1	0	R1254E
2595.883	4.824	2821971	REC_WORD	20.603	n/a	PEN	n/a	-999	22	[0, 0, 0]	n/a	catFR1	0	R1254E
2600.707	4.586	2826911	REC_WORD	25.427	n/a	PAPER	n/a	-999	22	[0, 0, 0]	n/a	catFR1	0	R1254E
2605.293	3.776	2831607	REC_END	n/a	n/a	n/a	n/a	-999	22	[0, 0, 0]	n/a	catFR1	0	R1254E
2609.069	0.0	2835474	TRIAL	n/a	n/a	n/a	n/a	-999	23	[0, 0, 0]	n/a	catFR1	0	R1254E
2609.069	10.0	2835474	COUNTDOWN_START	n/a	n/a	n/a	n/a	-999	23	[0, 0, 0]	n/a	catFR1	0	R1254E
2619.497	0.007	2846152	COUNTDOWN_END	n/a	n/a	n/a	n/a	-999	23	[0, 0, 0]	n/a	catFR1	0	R1254E
2619.504	1.6	2846159	ORIENT	n/a	n/a	n/a	n/a	-999	23	[0, 0, 0]	n/a	catFR1	0	R1254E
2623.288	1.6	2850034	WORD	n/a	wordpools/wordpool_categorized_EN.txt	FRISBEE	Toys	1	23	[0, 0, 0]	n/a	catFR1	0	R1254E
2625.755	1.6	2852560	WORD	n/a	wordpools/wordpool_categorized_EN.txt	BASKETBALL	Toys	2	23	[0, 0, 0]	n/a	catFR1	0	R1254E
2628.222	1.6	2855086	WORD	n/a	wordpools/wordpool_categorized_EN.txt	AXE	Tools	3	23	[0, 0, 0]	n/a	catFR1	0	R1254E
2630.789	1.6	2857715	WORD	n/a	wordpools/wordpool_categorized_EN.txt	CROWBAR	Tools	4	23	[0, 0, 0]	n/a	catFR1	0	R1254E
2633.19	1.6	2860173	WORD	n/a	wordpools/wordpool_categorized_EN.txt	CALF	FarmAnimals	5	23	[0, 0, 0]	n/a	catFR1	0	R1254E
2635.807	1.6	2862853	WORD	n/a	wordpools/wordpool_categorized_EN.txt	PIG	FarmAnimals	6	23	[0, 0, 0]	n/a	catFR1	0	R1254E
2638.224	1.6	2865328	WORD	n/a	wordpools/wordpool_categorized_EN.txt	PUZZLE	Toys	7	23	[0, 0, 0]	n/a	catFR1	0	R1254E
2640.808	1.6	2867974	WORD	n/a	wordpools/wordpool_categorized_EN.txt	DOLLHOUSE	Toys	8	23	[0, 0, 0]	n/a	catFR1	0	R1254E
2643.258	1.6	2870483	WORD	n/a	wordpools/wordpool_categorized_EN.txt	BULL	FarmAnimals	9	23	[0, 0, 0]	n/a	catFR1	0	R1254E
2645.641	1.6	2872923	WORD	n/a	wordpools/wordpool_categorized_EN.txt	SHEEP	FarmAnimals	10	23	[0, 0, 0]	n/a	catFR1	0	R1254E
2648.059	1.6	2875399	WORD	n/a	wordpools/wordpool_categorized_EN.txt	SAW	Tools	11	23	[0, 0, 0]	n/a	catFR1	0	R1254E
2650.493	1.6	2877891	WORD	n/a	wordpools/wordpool_categorized_EN.txt	WRENCH	Tools	12	23	[0, 0, 0]	n/a	catFR1	0	R1254E
2652.11	0.001	2879547	DISTRACT_START	n/a	n/a	n/a	n/a	-999	23	[0, 0, 0]	n/a	catFR1	0	R1254E
2652.111	0.016	2879548	START	n/a	n/a	n/a	n/a	-999	23	[-999, -999, -999]	n/a	catFR1	0	R1254E
2652.127	6.234	2879564	PROB	6.207	n/a	n/a	n/a	-999	23	[1, 3, 2]	6.0	catFR1	0	R1254E
2658.361	16.742	2885948	PROB	16.742	n/a	n/a	n/a	-999	23	[9, 9, 6]	24.0	catFR1	0	R1254E
2675.103	0.011	2903092	STOP	n/a	n/a	n/a	n/a	-999	23	[-999, -999, -999]	n/a	catFR1	0	R1254E
2675.114	1.084	2903103	DISTRACT_END	n/a	n/a	n/a	n/a	-999	23	[0, 0, 0]	n/a	catFR1	0	R1254E
2676.198	16.632	2904213	REC_START	n/a	n/a	n/a	n/a	-999	23	[0, 0, 0]	n/a	catFR1	0	R1254E
2692.83	3.284	2921244	REC_WORD	16.632	n/a	AXE	Tools	3	23	[0, 0, 0]	n/a	catFR1	0	R1254E
2696.114	10.097	2924606	REC_WORD_VV	19.916	n/a	<>	n/a	-999	23	[0, 0, 0]	n/a	catFR1	0	R1254E
2706.211	4.926	2934946	REC_END	n/a	n/a	n/a	n/a	-999	23	[0, 0, 0]	n/a	catFR1	0	R1254E
2711.137	0.0	2939990	TRIAL	n/a	n/a	n/a	n/a	-999	24	[0, 0, 0]	n/a	catFR1	0	R1254E
2711.137	10.0	2939990	COUNTDOWN_START	n/a	n/a	n/a	n/a	-999	24	[0, 0, 0]	n/a	catFR1	0	R1254E
2721.565	0.006	2950668	COUNTDOWN_END	n/a	n/a	n/a	n/a	-999	24	[0, 0, 0]	n/a	catFR1	0	R1254E
2721.571	1.6	2950674	ORIENT	n/a	n/a	n/a	n/a	-999	24	[0, 0, 0]	n/a	catFR1	0	R1254E
2725.306	1.6	2954499	WORD	n/a	wordpools/wordpool_categorized_EN.txt	PEACH	Fruit	1	24	[0, 0, 0]	n/a	catFR1	0	R1254E
2727.823	1.6	2957076	WORD	n/a	wordpools/wordpool_categorized_EN.txt	GRAPE	Fruit	2	24	[0, 0, 0]	n/a	catFR1	0	R1254E
2730.407	1.6	2959722	WORD	n/a	wordpools/wordpool_categorized_EN.txt	COLA	Beverages	3	24	[0, 0, 0]	n/a	catFR1	0	R1254E
2732.924	1.6	2962299	WORD	n/a	wordpools/wordpool_categorized_EN.txt	SODA	Beverages	4	24	[0, 0, 0]	n/a	catFR1	0	R1254E
2735.408	1.6	2964843	WORD	n/a	wordpools/wordpool_categorized_EN.txt	DOVE	Birds	5	24	[0, 0, 0]	n/a	catFR1	0	R1254E
2737.909	1.6	2967404	WORD	n/a	wordpools/wordpool_categorized_EN.txt	BLUEBIRD	Birds	6	24	[0, 0, 0]	n/a	catFR1	0	R1254E
2740.509	1.6	2970066	WORD	n/a	wordpools/wordpool_categorized_EN.txt	WINE	Beverages	7	24	[0, 0, 0]	n/a	catFR1	0	R1254E
2742.993	1.6	2972610	WORD	n/a	wordpools/wordpool_categorized_EN.txt	COFFEE	Beverages	8	24	[0, 0, 0]	n/a	catFR1	0	R1254E
2745.46	1.6	2975136	WORD	n/a	wordpools/wordpool_categorized_EN.txt	ORANGE	Fruit	9	24	[0, 0, 0]	n/a	catFR1	0	R1254E
2747.86	1.6	2977594	WORD	n/a	wordpools/wordpool_categorized_EN.txt	APPLE	Fruit	10	24	[0, 0, 0]	n/a	catFR1	0	R1254E
2750.411	1.6	2980206	WORD	n/a	wordpools/wordpool_categorized_EN.txt	SEAGULL	Birds	11	24	[0, 0, 0]	n/a	catFR1	0	R1254E
2752.794	1.6	2982646	WORD	n/a	wordpools/wordpool_categorized_EN.txt	GOOSE	Birds	12	24	[0, 0, 0]	n/a	catFR1	0	R1254E
2754.411	0.001	2984302	DISTRACT_START	n/a	n/a	n/a	n/a	-999	24	[0, 0, 0]	n/a	catFR1	0	R1254E
2754.412	0.016	2984303	START	n/a	n/a	n/a	n/a	-999	24	[-999, -999, -999]	n/a	catFR1	0	R1254E
2754.428	5.25	2984319	PROB	5.218	n/a	n/a	n/a	-999	24	[5, 9, 1]	15.0	catFR1	0	R1254E
2759.678	10.186	2989695	PROB	10.155	n/a	n/a	n/a	-999	24	[9, 2, 7]	18.0	catFR1	0	R1254E
2769.864	7.851	3000125	PROB	7.851	n/a	n/a	n/a	-999	24	[6, 7, 1]	14.0	catFR1	0	R1254E
2777.715	0.017	3008165	STOP	n/a	n/a	n/a	n/a	-999	24	[-999, -999, -999]	n/a	catFR1	0	R1254E
2777.732	1.185	3008182	DISTRACT_END	n/a	n/a	n/a	n/a	-999	24	[0, 0, 0]	n/a	catFR1	0	R1254E
2778.917	11.484	3009396	REC_START	n/a	n/a	n/a	n/a	-999	24	[0, 0, 0]	n/a	catFR1	0	R1254E
2790.401	6.887	3021155	REC_WORD	11.484	n/a	BLUEBIRD	Birds	6	24	[0, 0, 0]	n/a	catFR1	0	R1254E
2797.288	11.637	3028207	REC_WORD	18.371	n/a	JAY	n/a	-999	24	[0, 0, 0]	n/a	catFR1	0	R1254E
2808.925	2.729	3040123	REC_END	n/a	n/a	n/a	n/a	-999	24	[0, 0, 0]	n/a	catFR1	0	R1254E
2811.654	10.0	3042918	COUNTDOWN_START	n/a	n/a	n/a	n/a	-999	25	[0, 0, 0]	n/a	catFR1	0	R1254E
2811.654	10.428	3042918	TRIAL	n/a	n/a	n/a	n/a	-999	25	[0, 0, 0]	n/a	catFR1	0	R1254E
2822.082	0.008	3053596	COUNTDOWN_END	n/a	n/a	n/a	n/a	-999	25	[0, 0, 0]	n/a	catFR1	0	R1254E
2822.09	1.6	3053604	ORIENT	n/a	n/a	n/a	n/a	-999	25	[0, 0, 0]	n/a	catFR1	0	R1254E
2825.907	1.6	3057513	WORD	n/a	wordpools/wordpool_categorized_EN.txt	JELLO	Desserts	1	25	[0, 0, 0]	n/a	catFR1	0	R1254E
2828.474	1.6	3060141	WORD	n/a	wordpools/wordpool_categorized_EN.txt	CUPCAKE	Desserts	2	25	[0, 0, 0]	n/a	catFR1	0	R1254E
2830.992	1.6	3062720	WORD	n/a	wordpools/wordpool_categorized_EN.txt	ROOSTER	FarmAnimals	3	25	[0, 0, 0]	n/a	catFR1	0	R1254E
2833.509	1.6	3065297	WORD	n/a	wordpools/wordpool_categorized_EN.txt	TURKEY	FarmAnimals	4	25	[0, 0, 0]	n/a	catFR1	0	R1254E
2836.042	1.6	3067891	WORD	n/a	wordpools/wordpool_categorized_EN.txt	WILLOW	Trees	5	25	[0, 0, 0]	n/a	catFR1	0	R1254E
2838.56	1.6	3070469	WORD	n/a	wordpools/wordpool_categorized_EN.txt	OAK	Trees	6	25	[0, 0, 0]	n/a	catFR1	0	R1254E
2841.043	1.6	3073012	WORD	n/a	wordpools/wordpool_categorized_EN.txt	CHEESECAKE	Desserts	7	25	[0, 0, 0]	n/a	catFR1	0	R1254E
2843.444	1.6	3075470	WORD	n/a	wordpools/wordpool_categorized_EN.txt	PASTRY	Desserts	8	25	[0, 0, 0]	n/a	catFR1	0	R1254E
2846.061	1.6	3078150	WORD	n/a	wordpools/wordpool_categorized_EN.txt	CYPRESS	Trees	9	25	[0, 0, 0]	n/a	catFR1	0	R1254E
2848.577	1.6	3080726	WORD	n/a	wordpools/wordpool_categorized_EN.txt	MAPLE	Trees	10	25	[0, 0, 0]	n/a	catFR1	0	R1254E
2851.062	1.6	3083271	WORD	n/a	wordpools/wordpool_categorized_EN.txt	CHICKEN	FarmAnimals	11	25	[0, 0, 0]	n/a	catFR1	0	R1254E
2853.446	1.6	3085712	WORD	n/a	wordpools/wordpool_categorized_EN.txt	HEN	FarmAnimals	12	25	[0, 0, 0]	n/a	catFR1	0	R1254E
2855.062	0.001	3087367	DISTRACT_START	n/a	n/a	n/a	n/a	-999	25	[0, 0, 0]	n/a	catFR1	0	R1254E
2855.063	0.016	3087368	START	n/a	n/a	n/a	n/a	-999	25	[-999, -999, -999]	n/a	catFR1	0	R1254E
2855.079	4.951	3087384	PROB	4.926	n/a	n/a	n/a	-999	25	[2, 8, 2]	12.0	catFR1	0	R1254E
2860.03	8.035	3092454	PROB	8.005	n/a	n/a	n/a	-999	25	[2, 5, 7]	14.0	catFR1	0	R1254E
2868.065	5.167	3100682	PROB	5.138	n/a	n/a	n/a	-999	25	[1, 3, 9]	13.0	catFR1	0	R1254E
2873.232	20.446	3105973	PROB	20.446	n/a	n/a	n/a	-999	25	[4, 5, 9]	18.0	catFR1	0	R1254E
2893.678	0.007	3126909	STOP	n/a	n/a	n/a	n/a	-999	25	[-999, -999, -999]	n/a	catFR1	0	R1254E
2893.685	1.168	3126916	DISTRACT_END	n/a	n/a	n/a	n/a	-999	25	[0, 0, 0]	n/a	catFR1	0	R1254E
2894.853	30.005	3128112	REC_START	n/a	n/a	n/a	n/a	-999	25	[0, 0, 0]	n/a	catFR1	0	R1254E
2924.858	0.008	3158837	REC_WORD_VV	30.005	n/a	<>	n/a	-999	25	[0, 0, 0]	n/a	catFR1	0	R1254E
2924.866	0.0	3158845	REC_END	n/a	n/a	n/a	n/a	-999	25	[0, 0, 0]	n/a	catFR1	0	R1254E
