onset	duration	sample	trial_type	response_time	stim_file	item_name	category	serialpos	list	test	answer	experiment	session	subject
0.0	0.0	5487	INSTRUCT_START	n/a	n/a	n/a	n/a	-999	-999	[0, 0, 0]	n/a	catFR1	0	R1303E
0.0	10.783	5487	INSTRUCT_END	n/a	n/a	n/a	n/a	-999	-999	[0, 0, 0]	n/a	catFR1	0	R1303E
10.783	0.0	16269	SESS_START	n/a	n/a	n/a	n/a	-999	-999	[0, 0, 0]	n/a	catFR1	0	R1303E
10.783	237.446	16269	MIC_TEST	n/a	n/a	n/a	n/a	-999	-999	[0, 0, 0]	n/a	catFR1	0	R1303E
248.229	30.221	253706	PRACTICE_TRIAL	n/a	n/a	n/a	n/a	-999	-1	[0, 0, 0]	n/a	catFR1	0	R1303E
278.45	10.428	283926	COUNTDOWN_START	n/a	n/a	n/a	n/a	-999	-1	[0, 0, 0]	n/a	catFR1	0	R1303E
288.878	0.007	294353	COUNTDOWN_END	n/a	n/a	n/a	n/a	-999	-1	[0, 0, 0]	n/a	catFR1	0	R1303E
288.885	1.617	294360	PRACTICE_ORIENT	n/a	n/a	n/a	n/a	-999	-1	[0, 0, 0]	n/a	catFR1	0	R1303E
290.502	2.251	295977	PRACTICE_ORIENT_OFF	n/a	n/a	n/a	n/a	-999	-1	[0, 0, 0]	n/a	catFR1	0	R1303E
292.753	1.616	298228	PRACTICE_WORD	n/a	n/a	WATCH	n/a	-1	-1	[0, 0, 0]	n/a	catFR1	0	R1303E
294.369	0.834	299844	PRACTICE_WORD_OFF	n/a	n/a	WATCH	n/a	-999	-1	[0, 0, 0]	n/a	catFR1	0	R1303E
295.203	1.617	300678	PRACTICE_WORD	n/a	n/a	BEAM	n/a	-1	-1	[0, 0, 0]	n/a	catFR1	0	R1303E
296.82	0.95	302295	PRACTICE_WORD_OFF	n/a	n/a	BEAM	n/a	-999	-1	[0, 0, 0]	n/a	catFR1	0	R1303E
297.77	1.617	303245	PRACTICE_WORD	n/a	n/a	WAGON	n/a	-1	-1	[0, 0, 0]	n/a	catFR1	0	R1303E
299.387	0.867	304862	PRACTICE_WORD_OFF	n/a	n/a	WAGON	n/a	-999	-1	[0, 0, 0]	n/a	catFR1	0	R1303E
300.254	1.617	305729	PRACTICE_WORD	n/a	n/a	COTTON	n/a	-1	-1	[0, 0, 0]	n/a	catFR1	0	R1303E
301.871	0.8	307346	PRACTICE_WORD_OFF	n/a	n/a	COTTON	n/a	-999	-1	[0, 0, 0]	n/a	catFR1	0	R1303E
302.671	1.617	308146	PRACTICE_WORD	n/a	n/a	CAMEL	n/a	-1	-1	[0, 0, 0]	n/a	catFR1	0	R1303E
304.288	0.849	309763	PRACTICE_WORD_OFF	n/a	n/a	CAMEL	n/a	-999	-1	[0, 0, 0]	n/a	catFR1	0	R1303E
305.137	1.618	310611	PRACTICE_WORD	n/a	n/a	IRON	n/a	-1	-1	[0, 0, 0]	n/a	catFR1	0	R1303E
306.755	0.934	312229	PRACTICE_WORD_OFF	n/a	n/a	IRON	n/a	-999	-1	[0, 0, 0]	n/a	catFR1	0	R1303E
307.689	1.616	313163	PRACTICE_WORD	n/a	n/a	CHEST	n/a	-1	-1	[0, 0, 0]	n/a	catFR1	0	R1303E
309.305	0.934	314779	PRACTICE_WORD_OFF	n/a	n/a	CHEST	n/a	-999	-1	[0, 0, 0]	n/a	catFR1	0	R1303E
310.239	1.617	315713	PRACTICE_WORD	n/a	n/a	RHINO	n/a	-1	-1	[0, 0, 0]	n/a	catFR1	0	R1303E
311.856	0.783	317330	PRACTICE_WORD_OFF	n/a	n/a	RHINO	n/a	-999	-1	[0, 0, 0]	n/a	catFR1	0	R1303E
312.639	1.617	318113	PRACTICE_WORD	n/a	n/a	FLOOD	n/a	-1	-1	[0, 0, 0]	n/a	catFR1	0	R1303E
314.256	0.95	319730	PRACTICE_WORD_OFF	n/a	n/a	FLOOD	n/a	-999	-1	[0, 0, 0]	n/a	catFR1	0	R1303E
315.206	1.617	320680	PRACTICE_WORD	n/a	n/a	TONGUE	n/a	-1	-1	[0, 0, 0]	n/a	catFR1	0	R1303E
316.823	0.784	322297	PRACTICE_WORD_OFF	n/a	n/a	TONGUE	n/a	-999	-1	[0, 0, 0]	n/a	catFR1	0	R1303E
317.607	1.617	323081	PRACTICE_WORD	n/a	n/a	RING	n/a	-1	-1	[0, 0, 0]	n/a	catFR1	0	R1303E
319.224	0.849	324698	PRACTICE_WORD_OFF	n/a	n/a	RING	n/a	-999	-1	[0, 0, 0]	n/a	catFR1	0	R1303E
320.073	1.618	325547	PRACTICE_WORD	n/a	n/a	ATTIC	n/a	-1	-1	[0, 0, 0]	n/a	catFR1	0	R1303E
321.691	0.0	327165	PRACTICE_WORD_OFF	n/a	n/a	ATTIC	n/a	-999	-1	[0, 0, 0]	n/a	catFR1	0	R1303E
321.691	0.0	327165	DISTRACT_START	n/a	n/a	n/a	n/a	-999	-1	[0, 0, 0]	n/a	catFR1	0	R1303E
321.691	0.001	327165	ENCODING_END	n/a	n/a	n/a	n/a	-999	-1	[0, 0, 0]	n/a	catFR1	0	R1303E
321.692	0.016	327166	START	n/a	n/a	n/a	n/a	-999	-1	[-999, -999, -999]	n/a	catFR1	0	R1303E
321.708	8.333	327182	PROB	8.333	n/a	n/a	n/a	-999	-1	[8, 6, 2]	16	catFR1	0	R1303E
330.041	5.286	335514	PROB	5.286	n/a	n/a	n/a	-999	-1	[3, 3, 6]	12	catFR1	0	R1303E
335.327	8.239	340800	PROB	8.239	n/a	n/a	n/a	-999	-1	[9, 8, 7]	24	catFR1	0	R1303E
343.566	0.012	349039	STOP	n/a	n/a	n/a	n/a	-999	-1	[-999, -999, -999]	n/a	catFR1	0	R1303E
343.578	0.667	349051	DISTRACT_END	n/a	n/a	n/a	n/a	-999	-1	[0, 0, 0]	n/a	catFR1	0	R1303E
344.245	0.523	349718	RETRIEVAL_ORIENT	n/a	n/a	n/a	n/a	-999	-1	[0, 0, 0]	n/a	catFR1	0	R1303E
344.768	30.008	350241	PRACTICE_REC_START	n/a	n/a	n/a	n/a	-999	-1	[0, 0, 0]	n/a	catFR1	0	R1303E
374.776	36.981	380248	PRACTICE_REC_END	n/a	n/a	n/a	n/a	-999	-1	[0, 0, 0]	n/a	catFR1	0	R1303E
411.757	0.5	417227	TRIAL	n/a	n/a	n/a	n/a	-999	1	[0, 0, 0]	n/a	catFR1	0	R1303E
412.257	10.428	417727	COUNTDOWN_START	n/a	n/a	n/a	n/a	-999	1	[0, 0, 0]	n/a	catFR1	0	R1303E
422.685	0.007	428155	COUNTDOWN_END	n/a	n/a	n/a	n/a	-999	1	[0, 0, 0]	n/a	catFR1	0	R1303E
422.692	1.617	428162	ORIENT	n/a	n/a	n/a	n/a	-999	1	[0, 0, 0]	n/a	catFR1	0	R1303E
424.309	1.934	429779	ORIENT_OFF	n/a	n/a	n/a	n/a	-999	1	[0, 0, 0]	n/a	catFR1	0	R1303E
426.243	1.617	431713	WORD	n/a	wordpools/wordpool_categorized_EN.txt	NOSE	BodyParts	1	1	[0, 0, 0]	n/a	catFR1	0	R1303E
427.86	0.933	433330	WORD_OFF	n/a	n/a	NOSE	n/a	1	1	[0, 0, 0]	n/a	catFR1	0	R1303E
428.793	1.617	434263	WORD	n/a	wordpools/wordpool_categorized_EN.txt	ELBOW	BodyParts	2	1	[0, 0, 0]	n/a	catFR1	0	R1303E
430.41	0.85	435880	WORD_OFF	n/a	n/a	ELBOW	n/a	2	1	[0, 0, 0]	n/a	catFR1	0	R1303E
431.26	1.617	436730	WORD	n/a	wordpools/wordpool_categorized_EN.txt	CABBAGE	Vegetables	3	1	[0, 0, 0]	n/a	catFR1	0	R1303E
432.877	1.0	438346	WORD_OFF	n/a	n/a	CABBAGE	n/a	3	1	[0, 0, 0]	n/a	catFR1	0	R1303E
433.877	1.617	439346	WORD	n/a	wordpools/wordpool_categorized_EN.txt	PEAS	Vegetables	4	1	[0, 0, 0]	n/a	catFR1	0	R1303E
435.494	1.0	440963	WORD_OFF	n/a	n/a	PEAS	n/a	4	1	[0, 0, 0]	n/a	catFR1	0	R1303E
436.494	1.616	441963	WORD	n/a	wordpools/wordpool_categorized_EN.txt	TROMBONE	Instruments	5	1	[0, 0, 0]	n/a	catFR1	0	R1303E
438.11	0.901	443579	WORD_OFF	n/a	n/a	TROMBONE	n/a	5	1	[0, 0, 0]	n/a	catFR1	0	R1303E
439.011	1.617	444480	WORD	n/a	wordpools/wordpool_categorized_EN.txt	DRUM	Instruments	6	1	[0, 0, 0]	n/a	catFR1	0	R1303E
440.628	0.901	446097	WORD_OFF	n/a	n/a	DRUM	n/a	6	1	[0, 0, 0]	n/a	catFR1	0	R1303E
441.529	1.616	446998	WORD	n/a	wordpools/wordpool_categorized_EN.txt	FOOT	BodyParts	7	1	[0, 0, 0]	n/a	catFR1	0	R1303E
443.145	0.966	448614	WORD_OFF	n/a	n/a	FOOT	n/a	7	1	[0, 0, 0]	n/a	catFR1	0	R1303E
444.111	1.602	449580	WORD	n/a	wordpools/wordpool_categorized_EN.txt	HAND	BodyParts	8	1	[0, 0, 0]	n/a	catFR1	0	R1303E
445.713	0.816	451182	WORD_OFF	n/a	n/a	HAND	n/a	8	1	[0, 0, 0]	n/a	catFR1	0	R1303E
446.529	1.616	451998	WORD	n/a	wordpools/wordpool_categorized_EN.txt	BROCCOLI	Vegetables	9	1	[0, 0, 0]	n/a	catFR1	0	R1303E
448.145	0.835	453614	WORD_OFF	n/a	n/a	BROCCOLI	n/a	9	1	[0, 0, 0]	n/a	catFR1	0	R1303E
448.98	1.617	454449	WORD	n/a	wordpools/wordpool_categorized_EN.txt	CELERY	Vegetables	10	1	[0, 0, 0]	n/a	catFR1	0	R1303E
450.597	0.8	456066	WORD_OFF	n/a	n/a	CELERY	n/a	10	1	[0, 0, 0]	n/a	catFR1	0	R1303E
451.397	1.616	456866	WORD	n/a	wordpools/wordpool_categorized_EN.txt	CELLO	Instruments	11	1	[0, 0, 0]	n/a	catFR1	0	R1303E
453.013	0.934	458482	WORD_OFF	n/a	n/a	CELLO	n/a	11	1	[0, 0, 0]	n/a	catFR1	0	R1303E
453.947	1.618	459416	WORD	n/a	wordpools/wordpool_categorized_EN.txt	GUITAR	Instruments	12	1	[0, 0, 0]	n/a	catFR1	0	R1303E
455.565	0.0	461034	ENCODING_END	n/a	n/a	n/a	n/a	-999	1	[0, 0, 0]	n/a	catFR1	0	R1303E
455.565	0.093	461034	WORD_OFF	n/a	n/a	GUITAR	n/a	12	1	[0, 0, 0]	n/a	catFR1	0	R1303E
455.658	0.001	461127	DISTRACT_START	n/a	n/a	n/a	n/a	-999	1	[0, 0, 0]	n/a	catFR1	0	R1303E
455.659	0.022	461128	START	n/a	n/a	n/a	n/a	-999	1	[-999, -999, -999]	n/a	catFR1	0	R1303E
455.681	6.601	461150	PROB	6.601	n/a	n/a	n/a	-999	1	[4, 1, 3]	8	catFR1	0	R1303E
462.282	7.452	467750	PROB	7.452	n/a	n/a	n/a	-999	1	[7, 1, 9]	17	catFR1	0	R1303E
469.734	6.45	475202	PROB	6.45	n/a	n/a	n/a	-999	1	[1, 2, 9]	12	catFR1	0	R1303E
476.184	0.018	481652	STOP	n/a	n/a	n/a	n/a	-999	1	[-999, -999, -999]	n/a	catFR1	0	R1303E
476.202	0.65	481670	DISTRACT_END	n/a	n/a	n/a	n/a	-999	1	[0, 0, 0]	n/a	catFR1	0	R1303E
476.852	0.517	482320	RETRIEVAL_ORIENT	n/a	n/a	n/a	n/a	-999	1	[0, 0, 0]	n/a	catFR1	0	R1303E
477.369	4.518	482837	REC_START	n/a	n/a	n/a	n/a	-999	1	[0, 0, 0]	n/a	catFR1	0	R1303E
481.887	1.82	487355	REC_WORD	1.82	n/a	NOSE	BodyParts	1	1	[0, 0, 0]	n/a	catFR1	0	R1303E
483.707	1.415	489174	REC_WORD	1.415	n/a	MOUTH	n/a	-999	1	[0, 0, 0]	n/a	catFR1	0	R1303E
485.122	6.593	490589	REC_WORD	6.593	n/a	FACE	n/a	-999	1	[0, 0, 0]	n/a	catFR1	0	R1303E
491.715	5.488	497182	REC_WORD	5.488	n/a	FOOT	BodyParts	7	1	[0, 0, 0]	n/a	catFR1	0	R1303E
497.203	0.767	502670	REC_WORD	0.767	n/a	PEAS	Vegetables	4	1	[0, 0, 0]	n/a	catFR1	0	R1303E
497.97	6.515	503437	REC_WORD	6.515	n/a	CABBAGE	Vegetables	3	1	[0, 0, 0]	n/a	catFR1	0	R1303E
504.485	2.895	509952	REC_WORD_VV	2.895	n/a	<>	n/a	-999	1	[0, 0, 0]	n/a	catFR1	0	R1303E
507.38	6.178	512846	REC_END	n/a	n/a	n/a	n/a	-999	1	[0, 0, 0]	n/a	catFR1	0	R1303E
513.558	0.5	519024	TRIAL	n/a	n/a	n/a	n/a	-999	2	[0, 0, 0]	n/a	catFR1	0	R1303E
514.058	10.428	519524	COUNTDOWN_START	n/a	n/a	n/a	n/a	-999	2	[0, 0, 0]	n/a	catFR1	0	R1303E
524.486	0.007	529952	COUNTDOWN_END	n/a	n/a	n/a	n/a	-999	2	[0, 0, 0]	n/a	catFR1	0	R1303E
524.493	1.616	529959	ORIENT	n/a	n/a	n/a	n/a	-999	2	[0, 0, 0]	n/a	catFR1	0	R1303E
526.109	1.801	531575	ORIENT_OFF	n/a	n/a	n/a	n/a	-999	2	[0, 0, 0]	n/a	catFR1	0	R1303E
527.91	1.617	533376	WORD	n/a	wordpools/wordpool_categorized_EN.txt	ROOF	Building	1	2	[0, 0, 0]	n/a	catFR1	0	R1303E
529.527	1.001	534993	WORD_OFF	n/a	n/a	ROOF	n/a	1	2	[0, 0, 0]	n/a	catFR1	0	R1303E
530.528	1.615	535994	WORD	n/a	wordpools/wordpool_categorized_EN.txt	FLOOR	Building	2	2	[0, 0, 0]	n/a	catFR1	0	R1303E
532.143	0.785	537609	WORD_OFF	n/a	n/a	FLOOR	n/a	2	2	[0, 0, 0]	n/a	catFR1	0	R1303E
532.928	1.617	538393	WORD	n/a	wordpools/wordpool_categorized_EN.txt	STEREO	Electronics	3	2	[0, 0, 0]	n/a	catFR1	0	R1303E
534.545	0.85	540010	WORD_OFF	n/a	n/a	STEREO	n/a	3	2	[0, 0, 0]	n/a	catFR1	0	R1303E
535.395	1.616	540860	WORD	n/a	wordpools/wordpool_categorized_EN.txt	MICROWAVE	Electronics	4	2	[0, 0, 0]	n/a	catFR1	0	R1303E
537.011	0.984	542476	WORD_OFF	n/a	n/a	MICROWAVE	n/a	4	2	[0, 0, 0]	n/a	catFR1	0	R1303E
537.995	1.618	543460	WORD	n/a	wordpools/wordpool_categorized_EN.txt	MOUSSE	Desserts	5	2	[0, 0, 0]	n/a	catFR1	0	R1303E
539.613	0.783	545078	WORD_OFF	n/a	n/a	MOUSSE	n/a	5	2	[0, 0, 0]	n/a	catFR1	0	R1303E
540.396	1.616	545861	WORD	n/a	wordpools/wordpool_categorized_EN.txt	CHEESECAKE	Desserts	6	2	[0, 0, 0]	n/a	catFR1	0	R1303E
542.012	0.934	547477	WORD_OFF	n/a	n/a	CHEESECAKE	n/a	6	2	[0, 0, 0]	n/a	catFR1	0	R1303E
542.946	1.617	548411	WORD	n/a	wordpools/wordpool_categorized_EN.txt	WALL	Building	7	2	[0, 0, 0]	n/a	catFR1	0	R1303E
544.563	0.984	550028	WORD_OFF	n/a	n/a	WALL	n/a	7	2	[0, 0, 0]	n/a	catFR1	0	R1303E
545.547	1.616	551012	WORD	n/a	wordpools/wordpool_categorized_EN.txt	FOUNDATION	Building	8	2	[0, 0, 0]	n/a	catFR1	0	R1303E
547.163	0.983	552628	WORD_OFF	n/a	n/a	FOUNDATION	n/a	8	2	[0, 0, 0]	n/a	catFR1	0	R1303E
548.146	1.618	553611	WORD	n/a	wordpools/wordpool_categorized_EN.txt	PRINTER	Electronics	9	2	[0, 0, 0]	n/a	catFR1	0	R1303E
549.764	0.884	555229	WORD_OFF	n/a	n/a	PRINTER	n/a	9	2	[0, 0, 0]	n/a	catFR1	0	R1303E
550.648	1.617	556113	WORD	n/a	wordpools/wordpool_categorized_EN.txt	PHONE	Electronics	10	2	[0, 0, 0]	n/a	catFR1	0	R1303E
552.265	0.799	557730	WORD_OFF	n/a	n/a	PHONE	n/a	10	2	[0, 0, 0]	n/a	catFR1	0	R1303E
553.064	1.601	558529	WORD	n/a	wordpools/wordpool_categorized_EN.txt	COBBLER	Desserts	11	2	[0, 0, 0]	n/a	catFR1	0	R1303E
554.665	0.95	560130	WORD_OFF	n/a	n/a	COBBLER	n/a	11	2	[0, 0, 0]	n/a	catFR1	0	R1303E
555.615	1.617	561080	WORD	n/a	wordpools/wordpool_categorized_EN.txt	CAKE	Desserts	12	2	[0, 0, 0]	n/a	catFR1	0	R1303E
557.232	0.0	562697	ENCODING_END	n/a	n/a	n/a	n/a	-999	2	[0, 0, 0]	n/a	catFR1	0	R1303E
557.232	0.105	562697	WORD_OFF	n/a	n/a	CAKE	n/a	12	2	[0, 0, 0]	n/a	catFR1	0	R1303E
557.337	0.001	562802	DISTRACT_START	n/a	n/a	n/a	n/a	-999	2	[0, 0, 0]	n/a	catFR1	0	R1303E
557.338	0.011	562803	START	n/a	n/a	n/a	n/a	-999	2	[-999, -999, -999]	n/a	catFR1	0	R1303E
557.349	8.118	562814	PROB	8.118	n/a	n/a	n/a	-999	2	[3, 6, 6]	15	catFR1	0	R1303E
565.467	9.185	570931	PROB	9.185	n/a	n/a	n/a	-999	2	[2, 1, 7]	10	catFR1	0	R1303E
574.652	4.741	580116	PROB	4.741	n/a	n/a	n/a	-999	2	[9, 1, 6]	16	catFR1	0	R1303E
579.393	0.01	584857	STOP	n/a	n/a	n/a	n/a	-999	2	[-999, -999, -999]	n/a	catFR1	0	R1303E
579.403	0.55	584867	DISTRACT_END	n/a	n/a	n/a	n/a	-999	2	[0, 0, 0]	n/a	catFR1	0	R1303E
579.953	0.517	585417	RETRIEVAL_ORIENT	n/a	n/a	n/a	n/a	-999	2	[0, 0, 0]	n/a	catFR1	0	R1303E
580.47	4.748	585934	REC_START	n/a	n/a	n/a	n/a	-999	2	[0, 0, 0]	n/a	catFR1	0	R1303E
585.218	3.5	590681	REC_WORD	3.5	n/a	ROOF	Building	1	2	[0, 0, 0]	n/a	catFR1	0	R1303E
588.718	2.647	594181	REC_WORD	2.647	n/a	FLOOR	Building	2	2	[0, 0, 0]	n/a	catFR1	0	R1303E
591.365	7.572	596828	REC_WORD	7.572	n/a	FOUNDATION	Building	8	2	[0, 0, 0]	n/a	catFR1	0	R1303E
598.937	0.254	604400	REC_WORD_VV	0.254	n/a	<>	n/a	-999	2	[0, 0, 0]	n/a	catFR1	0	R1303E
599.191	5.67	604654	REC_WORD	5.67	n/a	COMPUTER	n/a	-999	2	[0, 0, 0]	n/a	catFR1	0	R1303E
604.861	5.621	610324	REC_WORD	5.621	n/a	HOOD	n/a	-999	2	[0, 0, 0]	n/a	catFR1	0	R1303E
610.482	5.011	615944	REC_END	n/a	n/a	n/a	n/a	-999	2	[0, 0, 0]	n/a	catFR1	0	R1303E
615.493	0.5	620955	TRIAL	n/a	n/a	n/a	n/a	-999	3	[0, 0, 0]	n/a	catFR1	0	R1303E
615.993	10.428	621455	COUNTDOWN_START	n/a	n/a	n/a	n/a	-999	3	[0, 0, 0]	n/a	catFR1	0	R1303E
626.421	0.007	631883	COUNTDOWN_END	n/a	n/a	n/a	n/a	-999	3	[0, 0, 0]	n/a	catFR1	0	R1303E
626.428	1.616	631890	ORIENT	n/a	n/a	n/a	n/a	-999	3	[0, 0, 0]	n/a	catFR1	0	R1303E
628.044	2.067	633506	ORIENT_OFF	n/a	n/a	n/a	n/a	-999	3	[0, 0, 0]	n/a	catFR1	0	R1303E
630.111	1.618	635573	WORD	n/a	wordpools/wordpool_categorized_EN.txt	PEAR	Fruit	1	3	[0, 0, 0]	n/a	catFR1	0	R1303E
631.729	0.967	637191	WORD_OFF	n/a	n/a	PEAR	n/a	1	3	[0, 0, 0]	n/a	catFR1	0	R1303E
632.696	1.616	638158	WORD	n/a	wordpools/wordpool_categorized_EN.txt	CHERRY	Fruit	2	3	[0, 0, 0]	n/a	catFR1	0	R1303E
634.312	1.001	639773	WORD_OFF	n/a	n/a	CHERRY	n/a	2	3	[0, 0, 0]	n/a	catFR1	0	R1303E
635.313	1.617	640774	WORD	n/a	wordpools/wordpool_categorized_EN.txt	CHAIR	Furniture	3	3	[0, 0, 0]	n/a	catFR1	0	R1303E
636.93	0.9	642391	WORD_OFF	n/a	n/a	CHAIR	n/a	3	3	[0, 0, 0]	n/a	catFR1	0	R1303E
637.83	1.617	643291	WORD	n/a	wordpools/wordpool_categorized_EN.txt	BED	Furniture	4	3	[0, 0, 0]	n/a	catFR1	0	R1303E
639.447	0.9	644908	WORD_OFF	n/a	n/a	BED	n/a	4	3	[0, 0, 0]	n/a	catFR1	0	R1303E
640.347	1.617	645808	WORD	n/a	wordpools/wordpool_categorized_EN.txt	SPINACH	Vegetables	5	3	[0, 0, 0]	n/a	catFR1	0	R1303E
641.964	0.783	647425	WORD_OFF	n/a	n/a	SPINACH	n/a	5	3	[0, 0, 0]	n/a	catFR1	0	R1303E
642.747	1.617	648208	WORD	n/a	wordpools/wordpool_categorized_EN.txt	POTATO	Vegetables	6	3	[0, 0, 0]	n/a	catFR1	0	R1303E
644.364	0.967	649825	WORD_OFF	n/a	n/a	POTATO	n/a	6	3	[0, 0, 0]	n/a	catFR1	0	R1303E
645.331	1.617	650792	WORD	n/a	wordpools/wordpool_categorized_EN.txt	NIGHTSTAND	Furniture	7	3	[0, 0, 0]	n/a	catFR1	0	R1303E
646.948	0.9	652409	WORD_OFF	n/a	n/a	NIGHTSTAND	n/a	7	3	[0, 0, 0]	n/a	catFR1	0	R1303E
647.848	1.617	653309	WORD	n/a	wordpools/wordpool_categorized_EN.txt	COUCH	Furniture	8	3	[0, 0, 0]	n/a	catFR1	0	R1303E
649.465	0.8	654926	WORD_OFF	n/a	n/a	COUCH	n/a	8	3	[0, 0, 0]	n/a	catFR1	0	R1303E
650.265	1.617	655726	WORD	n/a	wordpools/wordpool_categorized_EN.txt	PEACH	Fruit	9	3	[0, 0, 0]	n/a	catFR1	0	R1303E
651.882	0.967	657343	WORD_OFF	n/a	n/a	PEACH	n/a	9	3	[0, 0, 0]	n/a	catFR1	0	R1303E
652.849	1.617	658310	WORD	n/a	wordpools/wordpool_categorized_EN.txt	LEMON	Fruit	10	3	[0, 0, 0]	n/a	catFR1	0	R1303E
654.466	0.8	659927	WORD_OFF	n/a	n/a	LEMON	n/a	10	3	[0, 0, 0]	n/a	catFR1	0	R1303E
655.266	1.617	660727	WORD	n/a	wordpools/wordpool_categorized_EN.txt	CUCUMBER	Vegetables	11	3	[0, 0, 0]	n/a	catFR1	0	R1303E
656.883	0.917	662344	WORD_OFF	n/a	n/a	CUCUMBER	n/a	11	3	[0, 0, 0]	n/a	catFR1	0	R1303E
657.8	1.617	663261	WORD	n/a	wordpools/wordpool_categorized_EN.txt	CAULIFLOWER	Vegetables	12	3	[0, 0, 0]	n/a	catFR1	0	R1303E
659.417	0.0	664877	ENCODING_END	n/a	n/a	n/a	n/a	-999	3	[0, 0, 0]	n/a	catFR1	0	R1303E
659.417	0.127	664877	WORD_OFF	n/a	n/a	CAULIFLOWER	n/a	12	3	[0, 0, 0]	n/a	catFR1	0	R1303E
659.544	0.0	665004	DISTRACT_START	n/a	n/a	n/a	n/a	-999	3	[0, 0, 0]	n/a	catFR1	0	R1303E
659.544	0.023	665004	START	n/a	n/a	n/a	n/a	-999	3	[-999, -999, -999]	n/a	catFR1	0	R1303E
659.567	11.285	665027	PROB	11.285	n/a	n/a	n/a	-999	3	[8, 8, 7]	22	catFR1	0	R1303E
670.852	12.231	676312	PROB	12.231	n/a	n/a	n/a	-999	3	[2, 6, 1]	9	catFR1	0	R1303E
683.083	0.021	688543	STOP	n/a	n/a	n/a	n/a	-999	3	[-999, -999, -999]	n/a	catFR1	0	R1303E
683.104	0.701	688564	DISTRACT_END	n/a	n/a	n/a	n/a	-999	3	[0, 0, 0]	n/a	catFR1	0	R1303E
683.805	0.517	689265	RETRIEVAL_ORIENT	n/a	n/a	n/a	n/a	-999	3	[0, 0, 0]	n/a	catFR1	0	R1303E
684.322	7.072	689782	REC_START	n/a	n/a	n/a	n/a	-999	3	[0, 0, 0]	n/a	catFR1	0	R1303E
691.394	1.052	696853	REC_WORD	1.052	n/a	PEAR	Fruit	1	3	[0, 0, 0]	n/a	catFR1	0	R1303E
692.446	1.451	697905	REC_WORD	1.451	n/a	CUCUMBER	Vegetables	11	3	[0, 0, 0]	n/a	catFR1	0	R1303E
693.897	3.602	699356	REC_WORD	3.602	n/a	CAULIFLOWER	Vegetables	12	3	[0, 0, 0]	n/a	catFR1	0	R1303E
697.499	5.819	702958	REC_WORD	5.819	n/a	CABBAGE	n/a	-999	3	[0, 0, 0]	n/a	catFR1	0	R1303E
703.318	2.282	708777	REC_WORD	2.282	n/a	NIGHTSTAND	Furniture	7	3	[0, 0, 0]	n/a	catFR1	0	R1303E
705.6	2.037	711059	REC_WORD	2.037	n/a	COUCH	Furniture	8	3	[0, 0, 0]	n/a	catFR1	0	R1303E
707.637	6.696	713096	REC_WORD	6.696	n/a	CHAIR	Furniture	3	3	[0, 0, 0]	n/a	catFR1	0	R1303E
714.333	9.245	719791	REC_END	n/a	n/a	n/a	n/a	-999	3	[0, 0, 0]	n/a	catFR1	0	R1303E
723.578	0.5	729036	TRIAL	n/a	n/a	n/a	n/a	-999	4	[0, 0, 0]	n/a	catFR1	0	R1303E
724.078	10.428	729536	COUNTDOWN_START	n/a	n/a	n/a	n/a	-999	4	[0, 0, 0]	n/a	catFR1	0	R1303E
734.506	0.007	739964	COUNTDOWN_END	n/a	n/a	n/a	n/a	-999	4	[0, 0, 0]	n/a	catFR1	0	R1303E
734.513	1.616	739971	ORIENT	n/a	n/a	n/a	n/a	-999	4	[0, 0, 0]	n/a	catFR1	0	R1303E
736.129	2.135	741586	ORIENT_OFF	n/a	n/a	n/a	n/a	-999	4	[0, 0, 0]	n/a	catFR1	0	R1303E
738.264	1.617	743721	WORD	n/a	wordpools/wordpool_categorized_EN.txt	BROWNIES	Desserts	1	4	[0, 0, 0]	n/a	catFR1	0	R1303E
739.881	0.95	745338	WORD_OFF	n/a	n/a	BROWNIES	n/a	1	4	[0, 0, 0]	n/a	catFR1	0	R1303E
740.831	1.617	746288	WORD	n/a	wordpools/wordpool_categorized_EN.txt	CUPCAKE	Desserts	2	4	[0, 0, 0]	n/a	catFR1	0	R1303E
742.448	0.8	747905	WORD_OFF	n/a	n/a	CUPCAKE	n/a	2	4	[0, 0, 0]	n/a	catFR1	0	R1303E
743.248	1.617	748705	WORD	n/a	wordpools/wordpool_categorized_EN.txt	CARROT	Vegetables	3	4	[0, 0, 0]	n/a	catFR1	0	R1303E
744.865	0.834	750322	WORD_OFF	n/a	n/a	CARROT	n/a	3	4	[0, 0, 0]	n/a	catFR1	0	R1303E
745.699	1.617	751156	WORD	n/a	wordpools/wordpool_categorized_EN.txt	CORN	Vegetables	4	4	[0, 0, 0]	n/a	catFR1	0	R1303E
747.316	1.016	752773	WORD_OFF	n/a	n/a	CORN	n/a	4	4	[0, 0, 0]	n/a	catFR1	0	R1303E
748.332	1.617	753789	WORD	n/a	wordpools/wordpool_categorized_EN.txt	FOOTBALL	Toys	5	4	[0, 0, 0]	n/a	catFR1	0	R1303E
749.949	0.951	755406	WORD_OFF	n/a	n/a	FOOTBALL	n/a	5	4	[0, 0, 0]	n/a	catFR1	0	R1303E
750.9	1.617	756357	WORD	n/a	wordpools/wordpool_categorized_EN.txt	PUZZLE	Toys	6	4	[0, 0, 0]	n/a	catFR1	0	R1303E
752.517	0.85	757974	WORD_OFF	n/a	n/a	PUZZLE	n/a	6	4	[0, 0, 0]	n/a	catFR1	0	R1303E
753.367	1.617	758824	WORD	n/a	wordpools/wordpool_categorized_EN.txt	PASTRY	Desserts	7	4	[0, 0, 0]	n/a	catFR1	0	R1303E
754.984	0.916	760441	WORD_OFF	n/a	n/a	PASTRY	n/a	7	4	[0, 0, 0]	n/a	catFR1	0	R1303E
755.9	1.617	761357	WORD	n/a	wordpools/wordpool_categorized_EN.txt	PIE	Desserts	8	4	[0, 0, 0]	n/a	catFR1	0	R1303E
757.517	0.984	762974	WORD_OFF	n/a	n/a	PIE	n/a	8	4	[0, 0, 0]	n/a	catFR1	0	R1303E
758.501	1.616	763958	WORD	n/a	wordpools/wordpool_categorized_EN.txt	ONION	Vegetables	9	4	[0, 0, 0]	n/a	catFR1	0	R1303E
760.117	0.868	765574	WORD_OFF	n/a	n/a	ONION	n/a	9	4	[0, 0, 0]	n/a	catFR1	0	R1303E
760.985	1.617	766441	WORD	n/a	wordpools/wordpool_categorized_EN.txt	LETTUCE	Vegetables	10	4	[0, 0, 0]	n/a	catFR1	0	R1303E
762.602	0.867	768058	WORD_OFF	n/a	n/a	LETTUCE	n/a	10	4	[0, 0, 0]	n/a	catFR1	0	R1303E
763.469	1.615	768925	WORD	n/a	wordpools/wordpool_categorized_EN.txt	BASEBALL	Toys	11	4	[0, 0, 0]	n/a	catFR1	0	R1303E
765.084	0.934	770540	WORD_OFF	n/a	n/a	BASEBALL	n/a	11	4	[0, 0, 0]	n/a	catFR1	0	R1303E
766.018	1.601	771474	WORD	n/a	wordpools/wordpool_categorized_EN.txt	SLINKY	Toys	12	4	[0, 0, 0]	n/a	catFR1	0	R1303E
767.619	0.0	773075	ENCODING_END	n/a	n/a	n/a	n/a	-999	4	[0, 0, 0]	n/a	catFR1	0	R1303E
767.619	0.094	773075	WORD_OFF	n/a	n/a	SLINKY	n/a	12	4	[0, 0, 0]	n/a	catFR1	0	R1303E
767.713	0.0	773169	DISTRACT_START	n/a	n/a	n/a	n/a	-999	4	[0, 0, 0]	n/a	catFR1	0	R1303E
767.713	0.023	773169	START	n/a	n/a	n/a	n/a	-999	4	[-999, -999, -999]	n/a	catFR1	0	R1303E
767.736	4.717	773192	PROB	4.717	n/a	n/a	n/a	-999	4	[4, 4, 2]	10	catFR1	0	R1303E
772.453	6.101	777909	PROB	6.101	n/a	n/a	n/a	-999	4	[9, 9, 9]	27	catFR1	0	R1303E
778.554	7.685	784010	PROB	7.685	n/a	n/a	n/a	-999	4	[4, 9, 1]	14	catFR1	0	R1303E
786.239	6.913	791694	PROB	6.913	n/a	n/a	n/a	-999	4	[5, 6, 9]	20	catFR1	0	R1303E
793.152	0.022	798607	STOP	n/a	n/a	n/a	n/a	-999	4	[-999, -999, -999]	n/a	catFR1	0	R1303E
793.174	0.516	798629	DISTRACT_END	n/a	n/a	n/a	n/a	-999	4	[0, 0, 0]	n/a	catFR1	0	R1303E
793.69	0.518	799145	RETRIEVAL_ORIENT	n/a	n/a	n/a	n/a	-999	4	[0, 0, 0]	n/a	catFR1	0	R1303E
794.208	8.142	799663	REC_START	n/a	n/a	n/a	n/a	-999	4	[0, 0, 0]	n/a	catFR1	0	R1303E
802.35	3.232	807805	REC_WORD	3.232	n/a	BASEBALL	Toys	11	4	[0, 0, 0]	n/a	catFR1	0	R1303E
805.582	3.918	811037	REC_WORD	3.918	n/a	SLINKY	Toys	12	4	[0, 0, 0]	n/a	catFR1	0	R1303E
809.5	1.237	814955	REC_WORD	1.237	n/a	PEAR	n/a	-999	4	[0, 0, 0]	n/a	catFR1	0	R1303E
810.737	2.274	816192	REC_WORD	2.274	n/a	CAULIFLOWER	n/a	-999	4	[0, 0, 0]	n/a	catFR1	0	R1303E
813.011	0.78	818465	REC_WORD	0.78	n/a	PIE	Desserts	8	4	[0, 0, 0]	n/a	catFR1	0	R1303E
813.791	1.227	819245	REC_WORD	1.227	n/a	DESSERT	n/a	-999	4	[0, 0, 0]	n/a	catFR1	0	R1303E
815.018	3.571	820472	REC_WORD	3.571	n/a	BROWNIES	Desserts	1	4	[0, 0, 0]	n/a	catFR1	0	R1303E
818.589	5.63	824043	REC_WORD	5.63	n/a	PEAS	n/a	-999	4	[0, 0, 0]	n/a	catFR1	0	R1303E
824.219	5.611	829673	REC_END	n/a	n/a	n/a	n/a	-999	4	[0, 0, 0]	n/a	catFR1	0	R1303E
829.83	0.5	835284	TRIAL	n/a	n/a	n/a	n/a	-999	5	[0, 0, 0]	n/a	catFR1	0	R1303E
830.33	10.428	835784	COUNTDOWN_START	n/a	n/a	n/a	n/a	-999	5	[0, 0, 0]	n/a	catFR1	0	R1303E
840.758	0.007	846211	COUNTDOWN_END	n/a	n/a	n/a	n/a	-999	5	[0, 0, 0]	n/a	catFR1	0	R1303E
840.765	1.617	846218	ORIENT	n/a	n/a	n/a	n/a	-999	5	[0, 0, 0]	n/a	catFR1	0	R1303E
842.382	2.267	847835	ORIENT_OFF	n/a	n/a	n/a	n/a	-999	5	[0, 0, 0]	n/a	catFR1	0	R1303E
844.649	1.617	850102	WORD	n/a	wordpools/wordpool_categorized_EN.txt	RIVER	Landscapes	1	5	[0, 0, 0]	n/a	catFR1	0	R1303E
846.266	0.849	851719	WORD_OFF	n/a	n/a	RIVER	n/a	1	5	[0, 0, 0]	n/a	catFR1	0	R1303E
847.115	1.618	852568	WORD	n/a	wordpools/wordpool_categorized_EN.txt	BEACH	Landscapes	2	5	[0, 0, 0]	n/a	catFR1	0	R1303E
848.733	1.001	854186	WORD_OFF	n/a	n/a	BEACH	n/a	2	5	[0, 0, 0]	n/a	catFR1	0	R1303E
849.734	1.617	855187	WORD	n/a	wordpools/wordpool_categorized_EN.txt	WIND	Weather	3	5	[0, 0, 0]	n/a	catFR1	0	R1303E
851.351	0.85	856804	WORD_OFF	n/a	n/a	WIND	n/a	3	5	[0, 0, 0]	n/a	catFR1	0	R1303E
852.201	1.617	857654	WORD	n/a	wordpools/wordpool_categorized_EN.txt	HURRICANE	Weather	4	5	[0, 0, 0]	n/a	catFR1	0	R1303E
853.818	0.966	859271	WORD_OFF	n/a	n/a	HURRICANE	n/a	4	5	[0, 0, 0]	n/a	catFR1	0	R1303E
854.784	1.617	860237	WORD	n/a	wordpools/wordpool_categorized_EN.txt	OAK	Trees	5	5	[0, 0, 0]	n/a	catFR1	0	R1303E
856.401	0.901	861854	WORD_OFF	n/a	n/a	OAK	n/a	5	5	[0, 0, 0]	n/a	catFR1	0	R1303E
857.302	1.617	862755	WORD	n/a	wordpools/wordpool_categorized_EN.txt	PINE	Trees	6	5	[0, 0, 0]	n/a	catFR1	0	R1303E
858.919	0.783	864372	WORD_OFF	n/a	n/a	PINE	n/a	6	5	[0, 0, 0]	n/a	catFR1	0	R1303E
859.702	1.617	865155	WORD	n/a	wordpools/wordpool_categorized_EN.txt	TORNADO	Weather	7	5	[0, 0, 0]	n/a	catFR1	0	R1303E
861.319	0.983	866772	WORD_OFF	n/a	n/a	TORNADO	n/a	7	5	[0, 0, 0]	n/a	catFR1	0	R1303E
862.302	1.618	867754	WORD	n/a	wordpools/wordpool_categorized_EN.txt	RAIN	Weather	8	5	[0, 0, 0]	n/a	catFR1	0	R1303E
863.92	0.8	869372	WORD_OFF	n/a	n/a	RAIN	n/a	8	5	[0, 0, 0]	n/a	catFR1	0	R1303E
864.72	1.617	870172	WORD	n/a	wordpools/wordpool_categorized_EN.txt	WOODS	Landscapes	9	5	[0, 0, 0]	n/a	catFR1	0	R1303E
866.337	0.782	871789	WORD_OFF	n/a	n/a	WOODS	n/a	9	5	[0, 0, 0]	n/a	catFR1	0	R1303E
867.119	1.618	872571	WORD	n/a	wordpools/wordpool_categorized_EN.txt	CREEK	Landscapes	10	5	[0, 0, 0]	n/a	catFR1	0	R1303E
868.737	0.95	874189	WORD_OFF	n/a	n/a	CREEK	n/a	10	5	[0, 0, 0]	n/a	catFR1	0	R1303E
869.687	1.617	875139	WORD	n/a	wordpools/wordpool_categorized_EN.txt	SPRUCE	Trees	11	5	[0, 0, 0]	n/a	catFR1	0	R1303E
871.304	0.9	876756	WORD_OFF	n/a	n/a	SPRUCE	n/a	11	5	[0, 0, 0]	n/a	catFR1	0	R1303E
872.204	1.617	877656	WORD	n/a	wordpools/wordpool_categorized_EN.txt	ELM	Trees	12	5	[0, 0, 0]	n/a	catFR1	0	R1303E
873.821	0.0	879273	ENCODING_END	n/a	n/a	n/a	n/a	-999	5	[0, 0, 0]	n/a	catFR1	0	R1303E
873.821	0.095	879273	WORD_OFF	n/a	n/a	ELM	n/a	12	5	[0, 0, 0]	n/a	catFR1	0	R1303E
873.916	0.0	879368	DISTRACT_START	n/a	n/a	n/a	n/a	-999	5	[0, 0, 0]	n/a	catFR1	0	R1303E
873.916	0.022	879368	START	n/a	n/a	n/a	n/a	-999	5	[-999, -999, -999]	n/a	catFR1	0	R1303E
873.938	11.969	879390	PROB	11.969	n/a	n/a	n/a	-999	5	[1, 7, 9]	18	catFR1	0	R1303E
885.907	2.249	891359	PROB	2.249	n/a	n/a	n/a	-999	5	[1, 1, 1]	3	catFR1	0	R1303E
888.156	4.918	893607	PROB	4.918	n/a	n/a	n/a	-999	5	[3, 2, 4]	9	catFR1	0	R1303E
893.074	3.726	898525	PROB	3.726	n/a	n/a	n/a	-999	5	[7, 2, 1]	10	catFR1	0	R1303E
896.8	0.009	902251	STOP	n/a	n/a	n/a	n/a	-999	5	[-999, -999, -999]	n/a	catFR1	0	R1303E
896.809	0.533	902260	DISTRACT_END	n/a	n/a	n/a	n/a	-999	5	[0, 0, 0]	n/a	catFR1	0	R1303E
897.342	0.517	902793	RETRIEVAL_ORIENT	n/a	n/a	n/a	n/a	-999	5	[0, 0, 0]	n/a	catFR1	0	R1303E
897.859	5.577	903310	REC_START	n/a	n/a	n/a	n/a	-999	5	[0, 0, 0]	n/a	catFR1	0	R1303E
903.436	1.255	908887	REC_WORD	1.255	n/a	RIVER	Landscapes	1	5	[0, 0, 0]	n/a	catFR1	0	R1303E
904.691	4.596	910142	REC_WORD	4.596	n/a	TREES	n/a	-999	5	[0, 0, 0]	n/a	catFR1	0	R1303E
909.287	0.775	914738	REC_WORD_VV	0.775	n/a	<>	n/a	-999	5	[0, 0, 0]	n/a	catFR1	0	R1303E
910.062	1.088	915513	REC_WORD	1.088	n/a	WATER	n/a	-999	5	[0, 0, 0]	n/a	catFR1	0	R1303E
911.15	1.216	916601	REC_WORD	1.216	n/a	HURRICANE	Weather	4	5	[0, 0, 0]	n/a	catFR1	0	R1303E
912.366	5.431	917817	REC_WORD	5.431	n/a	TORNADO	Weather	7	5	[0, 0, 0]	n/a	catFR1	0	R1303E
917.797	5.39	923247	REC_WORD	5.39	n/a	RAIN	Weather	8	5	[0, 0, 0]	n/a	catFR1	0	R1303E
923.187	4.684	928637	REC_WORD	4.684	n/a	ELM	Trees	12	5	[0, 0, 0]	n/a	catFR1	0	R1303E
927.871	4.644	933321	REC_END	n/a	n/a	n/a	n/a	-999	5	[0, 0, 0]	n/a	catFR1	0	R1303E
932.515	0.5	937965	TRIAL	n/a	n/a	n/a	n/a	-999	6	[0, 0, 0]	n/a	catFR1	0	R1303E
933.015	10.428	938465	COUNTDOWN_START	n/a	n/a	n/a	n/a	-999	6	[0, 0, 0]	n/a	catFR1	0	R1303E
943.443	0.007	948892	COUNTDOWN_END	n/a	n/a	n/a	n/a	-999	6	[0, 0, 0]	n/a	catFR1	0	R1303E
943.45	1.616	948899	ORIENT	n/a	n/a	n/a	n/a	-999	6	[0, 0, 0]	n/a	catFR1	0	R1303E
945.066	2.201	950515	ORIENT_OFF	n/a	n/a	n/a	n/a	-999	6	[0, 0, 0]	n/a	catFR1	0	R1303E
947.267	1.617	952716	WORD	n/a	wordpools/wordpool_categorized_EN.txt	MOSQUITO	Insects	1	6	[0, 0, 0]	n/a	catFR1	0	R1303E
948.884	0.834	954333	WORD_OFF	n/a	n/a	MOSQUITO	n/a	1	6	[0, 0, 0]	n/a	catFR1	0	R1303E
949.718	1.617	955167	WORD	n/a	wordpools/wordpool_categorized_EN.txt	BUTTERFLY	Insects	2	6	[0, 0, 0]	n/a	catFR1	0	R1303E
951.335	1.0	956784	WORD_OFF	n/a	n/a	BUTTERFLY	n/a	2	6	[0, 0, 0]	n/a	catFR1	0	R1303E
952.335	1.617	957784	WORD	n/a	wordpools/wordpool_categorized_EN.txt	FRISBEE	Toys	3	6	[0, 0, 0]	n/a	catFR1	0	R1303E
953.952	0.817	959401	WORD_OFF	n/a	n/a	FRISBEE	n/a	3	6	[0, 0, 0]	n/a	catFR1	0	R1303E
954.769	1.617	960218	WORD	n/a	wordpools/wordpool_categorized_EN.txt	BARBIE	Toys	4	6	[0, 0, 0]	n/a	catFR1	0	R1303E
956.386	0.782	961835	WORD_OFF	n/a	n/a	BARBIE	n/a	4	6	[0, 0, 0]	n/a	catFR1	0	R1303E
957.168	1.618	962617	WORD	n/a	wordpools/wordpool_categorized_EN.txt	RECLINER	Furniture	5	6	[0, 0, 0]	n/a	catFR1	0	R1303E
958.786	0.9	964235	WORD_OFF	n/a	n/a	RECLINER	n/a	5	6	[0, 0, 0]	n/a	catFR1	0	R1303E
959.686	1.617	965135	WORD	n/a	wordpools/wordpool_categorized_EN.txt	TABLE	Furniture	6	6	[0, 0, 0]	n/a	catFR1	0	R1303E
961.303	1.0	966752	WORD_OFF	n/a	n/a	TABLE	n/a	6	6	[0, 0, 0]	n/a	catFR1	0	R1303E
962.303	1.617	967752	WORD	n/a	wordpools/wordpool_categorized_EN.txt	BLOCKS	Toys	7	6	[0, 0, 0]	n/a	catFR1	0	R1303E
963.92	0.851	969368	WORD_OFF	n/a	n/a	BLOCKS	n/a	7	6	[0, 0, 0]	n/a	catFR1	0	R1303E
964.771	1.616	970219	WORD	n/a	wordpools/wordpool_categorized_EN.txt	BALL	Toys	8	6	[0, 0, 0]	n/a	catFR1	0	R1303E
966.387	1.001	971835	WORD_OFF	n/a	n/a	BALL	n/a	8	6	[0, 0, 0]	n/a	catFR1	0	R1303E
967.388	1.616	972836	WORD	n/a	wordpools/wordpool_categorized_EN.txt	LADYBUG	Insects	9	6	[0, 0, 0]	n/a	catFR1	0	R1303E
969.004	0.917	974452	WORD_OFF	n/a	n/a	LADYBUG	n/a	9	6	[0, 0, 0]	n/a	catFR1	0	R1303E
969.921	1.617	975369	WORD	n/a	wordpools/wordpool_categorized_EN.txt	SPIDER	Insects	10	6	[0, 0, 0]	n/a	catFR1	0	R1303E
971.538	0.934	976986	WORD_OFF	n/a	n/a	SPIDER	n/a	10	6	[0, 0, 0]	n/a	catFR1	0	R1303E
972.472	1.616	977920	WORD	n/a	wordpools/wordpool_categorized_EN.txt	DRESSER	Furniture	11	6	[0, 0, 0]	n/a	catFR1	0	R1303E
974.088	0.868	979536	WORD_OFF	n/a	n/a	DRESSER	n/a	11	6	[0, 0, 0]	n/a	catFR1	0	R1303E
974.956	1.617	980404	WORD	n/a	wordpools/wordpool_categorized_EN.txt	DESK	Furniture	12	6	[0, 0, 0]	n/a	catFR1	0	R1303E
976.573	0.0	982021	ENCODING_END	n/a	n/a	n/a	n/a	-999	6	[0, 0, 0]	n/a	catFR1	0	R1303E
976.573	0.125	982021	WORD_OFF	n/a	n/a	DESK	n/a	12	6	[0, 0, 0]	n/a	catFR1	0	R1303E
976.698	0.0	982146	DISTRACT_START	n/a	n/a	n/a	n/a	-999	6	[0, 0, 0]	n/a	catFR1	0	R1303E
976.698	0.008	982146	START	n/a	n/a	n/a	n/a	-999	6	[-999, -999, -999]	n/a	catFR1	0	R1303E
976.706	9.401	982154	PROB	9.401	n/a	n/a	n/a	-999	6	[5, 6, 9]	20	catFR1	0	R1303E
986.107	4.451	991555	PROB	4.451	n/a	n/a	n/a	-999	6	[2, 2, 7]	11	catFR1	0	R1303E
990.558	4.234	996005	PROB	4.234	n/a	n/a	n/a	-999	6	[7, 6, 7]	20	catFR1	0	R1303E
994.792	4.941	1000239	PROB	4.941	n/a	n/a	n/a	-999	6	[3, 6, 2]	11	catFR1	0	R1303E
999.733	0.01	1005180	STOP	n/a	n/a	n/a	n/a	-999	6	[-999, -999, -999]	n/a	catFR1	0	R1303E
999.743	0.684	1005190	DISTRACT_END	n/a	n/a	n/a	n/a	-999	6	[0, 0, 0]	n/a	catFR1	0	R1303E
1000.427	0.517	1005874	RETRIEVAL_ORIENT	n/a	n/a	n/a	n/a	-999	6	[0, 0, 0]	n/a	catFR1	0	R1303E
1000.944	5.493	1006391	REC_START	n/a	n/a	n/a	n/a	-999	6	[0, 0, 0]	n/a	catFR1	0	R1303E
1006.437	2.228	1011884	REC_WORD	2.228	n/a	MOSQUITO	Insects	1	6	[0, 0, 0]	n/a	catFR1	0	R1303E
1008.665	3.047	1014112	REC_WORD	3.047	n/a	FLEA	n/a	-999	6	[0, 0, 0]	n/a	catFR1	0	R1303E
1011.712	9.219	1017159	REC_WORD	9.219	n/a	FLIES	n/a	-999	6	[0, 0, 0]	n/a	catFR1	0	R1303E
1020.931	3.117	1026377	REC_WORD	3.117	n/a	DRESSER	Furniture	11	6	[0, 0, 0]	n/a	catFR1	0	R1303E
1024.048	2.205	1029494	REC_WORD	2.205	n/a	FRISBEE	Toys	3	6	[0, 0, 0]	n/a	catFR1	0	R1303E
1026.253	1.612	1031699	REC_WORD	1.612	n/a	BLOCKS	Toys	7	6	[0, 0, 0]	n/a	catFR1	0	R1303E
1027.865	3.091	1033311	REC_WORD	3.091	n/a	BALL	Toys	8	6	[0, 0, 0]	n/a	catFR1	0	R1303E
1030.956	5.043	1036402	REC_END	n/a	n/a	n/a	n/a	-999	6	[0, 0, 0]	n/a	catFR1	0	R1303E
1035.999	0.5	1041445	TRIAL	n/a	n/a	n/a	n/a	-999	7	[0, 0, 0]	n/a	catFR1	0	R1303E
1036.499	10.428	1041945	COUNTDOWN_START	n/a	n/a	n/a	n/a	-999	7	[0, 0, 0]	n/a	catFR1	0	R1303E
1046.927	0.008	1052372	COUNTDOWN_END	n/a	n/a	n/a	n/a	-999	7	[0, 0, 0]	n/a	catFR1	0	R1303E
1046.935	1.617	1052380	ORIENT	n/a	n/a	n/a	n/a	-999	7	[0, 0, 0]	n/a	catFR1	0	R1303E
1048.552	1.967	1053997	ORIENT_OFF	n/a	n/a	n/a	n/a	-999	7	[0, 0, 0]	n/a	catFR1	0	R1303E
1050.519	1.616	1055964	WORD	n/a	wordpools/wordpool_categorized_EN.txt	PANDA	Zoo	1	7	[0, 0, 0]	n/a	catFR1	0	R1303E
1052.135	0.818	1057580	WORD_OFF	n/a	n/a	PANDA	n/a	1	7	[0, 0, 0]	n/a	catFR1	0	R1303E
1052.953	1.617	1058398	WORD	n/a	wordpools/wordpool_categorized_EN.txt	MONKEY	Zoo	2	7	[0, 0, 0]	n/a	catFR1	0	R1303E
1054.57	0.95	1060015	WORD_OFF	n/a	n/a	MONKEY	n/a	2	7	[0, 0, 0]	n/a	catFR1	0	R1303E
1055.52	1.616	1060965	WORD	n/a	wordpools/wordpool_categorized_EN.txt	TUBA	Instruments	3	7	[0, 0, 0]	n/a	catFR1	0	R1303E
1057.136	0.867	1062581	WORD_OFF	n/a	n/a	TUBA	n/a	3	7	[0, 0, 0]	n/a	catFR1	0	R1303E
1058.003	1.617	1063448	WORD	n/a	wordpools/wordpool_categorized_EN.txt	ORGAN	Instruments	4	7	[0, 0, 0]	n/a	catFR1	0	R1303E
1059.62	0.901	1065065	WORD_OFF	n/a	n/a	ORGAN	n/a	4	7	[0, 0, 0]	n/a	catFR1	0	R1303E
1060.521	1.616	1065966	WORD	n/a	wordpools/wordpool_categorized_EN.txt	VACUUM	Appliances	5	7	[0, 0, 0]	n/a	catFR1	0	R1303E
1062.137	0.933	1067582	WORD_OFF	n/a	n/a	VACUUM	n/a	5	7	[0, 0, 0]	n/a	catFR1	0	R1303E
1063.07	1.618	1068515	WORD	n/a	wordpools/wordpool_categorized_EN.txt	IRON	Appliances	6	7	[0, 0, 0]	n/a	catFR1	0	R1303E
1064.688	0.767	1070132	WORD_OFF	n/a	n/a	IRON	n/a	6	7	[0, 0, 0]	n/a	catFR1	0	R1303E
1065.455	1.616	1070899	WORD	n/a	wordpools/wordpool_categorized_EN.txt	ZEBRA	Zoo	7	7	[0, 0, 0]	n/a	catFR1	0	R1303E
1067.071	0.933	1072515	WORD_OFF	n/a	n/a	ZEBRA	n/a	7	7	[0, 0, 0]	n/a	catFR1	0	R1303E
1068.004	1.618	1073448	WORD	n/a	wordpools/wordpool_categorized_EN.txt	TIGER	Zoo	8	7	[0, 0, 0]	n/a	catFR1	0	R1303E
1069.622	0.8	1075066	WORD_OFF	n/a	n/a	TIGER	n/a	8	7	[0, 0, 0]	n/a	catFR1	0	R1303E
1070.422	1.616	1075866	WORD	n/a	wordpools/wordpool_categorized_EN.txt	PIANO	Instruments	9	7	[0, 0, 0]	n/a	catFR1	0	R1303E
1072.038	0.851	1077482	WORD_OFF	n/a	n/a	PIANO	n/a	9	7	[0, 0, 0]	n/a	catFR1	0	R1303E
1072.889	1.617	1078333	WORD	n/a	wordpools/wordpool_categorized_EN.txt	FLUTE	Instruments	10	7	[0, 0, 0]	n/a	catFR1	0	R1303E
1074.506	0.867	1079950	WORD_OFF	n/a	n/a	FLUTE	n/a	10	7	[0, 0, 0]	n/a	catFR1	0	R1303E
1075.373	1.617	1080817	WORD	n/a	wordpools/wordpool_categorized_EN.txt	WASHER	Appliances	11	7	[0, 0, 0]	n/a	catFR1	0	R1303E
1076.99	0.767	1082434	WORD_OFF	n/a	n/a	WASHER	n/a	11	7	[0, 0, 0]	n/a	catFR1	0	R1303E
1077.757	1.617	1083201	WORD	n/a	wordpools/wordpool_categorized_EN.txt	MIXER	Appliances	12	7	[0, 0, 0]	n/a	catFR1	0	R1303E
1079.374	0.0	1084818	ENCODING_END	n/a	n/a	n/a	n/a	-999	7	[0, 0, 0]	n/a	catFR1	0	R1303E
1079.374	0.093	1084818	WORD_OFF	n/a	n/a	MIXER	n/a	12	7	[0, 0, 0]	n/a	catFR1	0	R1303E
1079.467	0.001	1084911	DISTRACT_START	n/a	n/a	n/a	n/a	-999	7	[0, 0, 0]	n/a	catFR1	0	R1303E
1079.468	0.023	1084912	START	n/a	n/a	n/a	n/a	-999	7	[-999, -999, -999]	n/a	catFR1	0	R1303E
1079.491	7.368	1084935	PROB	7.368	n/a	n/a	n/a	-999	7	[6, 7, 3]	16	catFR1	0	R1303E
1086.859	8.851	1092303	PROB	8.851	n/a	n/a	n/a	-999	7	[3, 3, 5]	11	catFR1	0	R1303E
1095.71	4.153	1101153	PROB	4.153	n/a	n/a	n/a	-999	7	[3, 4, 6]	13	catFR1	0	R1303E
1099.863	0.015	1105306	STOP	n/a	n/a	n/a	n/a	-999	7	[-999, -999, -999]	n/a	catFR1	0	R1303E
1099.878	0.6	1105321	DISTRACT_END	n/a	n/a	n/a	n/a	-999	7	[0, 0, 0]	n/a	catFR1	0	R1303E
1100.478	0.517	1105921	RETRIEVAL_ORIENT	n/a	n/a	n/a	n/a	-999	7	[0, 0, 0]	n/a	catFR1	0	R1303E
1100.995	4.008	1106438	REC_START	n/a	n/a	n/a	n/a	-999	7	[0, 0, 0]	n/a	catFR1	0	R1303E
1105.003	0.41	1110446	REC_WORD_VV	0.41	n/a	<>	n/a	-999	7	[0, 0, 0]	n/a	catFR1	0	R1303E
1105.413	0.871	1110856	REC_WORD	0.871	n/a	GUITAR	n/a	-999	7	[0, 0, 0]	n/a	catFR1	0	R1303E
1106.284	2.47	1111727	REC_WORD	2.47	n/a	CELLO	n/a	-999	7	[0, 0, 0]	n/a	catFR1	0	R1303E
1108.754	0.84	1114197	REC_WORD_VV	0.84	n/a	<>	n/a	-999	7	[0, 0, 0]	n/a	catFR1	0	R1303E
1109.594	1.053	1115037	REC_WORD	1.053	n/a	PANDA	Zoo	1	7	[0, 0, 0]	n/a	catFR1	0	R1303E
1110.647	4.414	1116090	REC_WORD	4.414	n/a	FLUTE	Instruments	10	7	[0, 0, 0]	n/a	catFR1	0	R1303E
1115.061	7.439	1120504	REC_WORD	7.439	n/a	ZOO	n/a	-999	7	[0, 0, 0]	n/a	catFR1	0	R1303E
1122.5	4.481	1127942	REC_WORD	4.481	n/a	MOSQUITO	n/a	-999	7	[0, 0, 0]	n/a	catFR1	0	R1303E
1126.981	0.603	1132423	REC_WORD	0.603	n/a	CELLO	n/a	-999	7	[0, 0, 0]	n/a	catFR1	0	R1303E
1127.584	1.532	1133026	REC_WORD	1.532	n/a	GUITAR	n/a	-999	7	[0, 0, 0]	n/a	catFR1	0	R1303E
1129.116	1.89	1134558	REC_WORD	1.89	n/a	FLUTE	Instruments	10	7	[0, 0, 0]	n/a	catFR1	0	R1303E
1131.006	18.28	1136448	REC_END	n/a	n/a	n/a	n/a	-999	7	[0, 0, 0]	n/a	catFR1	0	R1303E
1149.286	0.5	1154727	TRIAL	n/a	n/a	n/a	n/a	-999	8	[0, 0, 0]	n/a	catFR1	0	R1303E
1149.786	10.428	1155227	COUNTDOWN_START	n/a	n/a	n/a	n/a	-999	8	[0, 0, 0]	n/a	catFR1	0	R1303E
1160.214	0.007	1165655	COUNTDOWN_END	n/a	n/a	n/a	n/a	-999	8	[0, 0, 0]	n/a	catFR1	0	R1303E
1160.221	1.617	1165662	ORIENT	n/a	n/a	n/a	n/a	-999	8	[0, 0, 0]	n/a	catFR1	0	R1303E
1161.838	1.934	1167279	ORIENT_OFF	n/a	n/a	n/a	n/a	-999	8	[0, 0, 0]	n/a	catFR1	0	R1303E
1163.772	1.617	1169213	WORD	n/a	wordpools/wordpool_categorized_EN.txt	WHALE	OceanAnimals	1	8	[0, 0, 0]	n/a	catFR1	0	R1303E
1165.389	0.983	1170830	WORD_OFF	n/a	n/a	WHALE	n/a	1	8	[0, 0, 0]	n/a	catFR1	0	R1303E
1166.372	1.617	1171812	WORD	n/a	wordpools/wordpool_categorized_EN.txt	DOLPHIN	OceanAnimals	2	8	[0, 0, 0]	n/a	catFR1	0	R1303E
1167.989	0.834	1173429	WORD_OFF	n/a	n/a	DOLPHIN	n/a	2	8	[0, 0, 0]	n/a	catFR1	0	R1303E
1168.823	1.617	1174263	WORD	n/a	wordpools/wordpool_categorized_EN.txt	JELLO	Desserts	3	8	[0, 0, 0]	n/a	catFR1	0	R1303E
1170.44	0.95	1175880	WORD_OFF	n/a	n/a	JELLO	n/a	3	8	[0, 0, 0]	n/a	catFR1	0	R1303E
1171.39	1.616	1176830	WORD	n/a	wordpools/wordpool_categorized_EN.txt	PUDDING	Desserts	4	8	[0, 0, 0]	n/a	catFR1	0	R1303E
1173.006	0.968	1178446	WORD_OFF	n/a	n/a	PUDDING	n/a	4	8	[0, 0, 0]	n/a	catFR1	0	R1303E
1173.974	1.617	1179414	WORD	n/a	wordpools/wordpool_categorized_EN.txt	CROWBAR	Tools	5	8	[0, 0, 0]	n/a	catFR1	0	R1303E
1175.591	0.783	1181031	WORD_OFF	n/a	n/a	CROWBAR	n/a	5	8	[0, 0, 0]	n/a	catFR1	0	R1303E
1176.374	1.617	1181814	WORD	n/a	wordpools/wordpool_categorized_EN.txt	PLIERS	Tools	6	8	[0, 0, 0]	n/a	catFR1	0	R1303E
1177.991	0.8	1183431	WORD_OFF	n/a	n/a	PLIERS	n/a	6	8	[0, 0, 0]	n/a	catFR1	0	R1303E
1178.791	1.617	1184231	WORD	n/a	wordpools/wordpool_categorized_EN.txt	FUDGE	Desserts	7	8	[0, 0, 0]	n/a	catFR1	0	R1303E
1180.408	0.767	1185848	WORD_OFF	n/a	n/a	FUDGE	n/a	7	8	[0, 0, 0]	n/a	catFR1	0	R1303E
1181.175	1.617	1186615	WORD	n/a	wordpools/wordpool_categorized_EN.txt	COOKIE	Desserts	8	8	[0, 0, 0]	n/a	catFR1	0	R1303E
1182.792	1.017	1188232	WORD_OFF	n/a	n/a	COOKIE	n/a	8	8	[0, 0, 0]	n/a	catFR1	0	R1303E
1183.809	1.617	1189249	WORD	n/a	wordpools/wordpool_categorized_EN.txt	TURTLE	OceanAnimals	9	8	[0, 0, 0]	n/a	catFR1	0	R1303E
1185.426	0.967	1190866	WORD_OFF	n/a	n/a	TURTLE	n/a	9	8	[0, 0, 0]	n/a	catFR1	0	R1303E
1186.393	1.616	1191833	WORD	n/a	wordpools/wordpool_categorized_EN.txt	CRAB	OceanAnimals	10	8	[0, 0, 0]	n/a	catFR1	0	R1303E
1188.009	0.951	1193449	WORD_OFF	n/a	n/a	CRAB	n/a	10	8	[0, 0, 0]	n/a	catFR1	0	R1303E
1188.96	1.617	1194400	WORD	n/a	wordpools/wordpool_categorized_EN.txt	AXE	Tools	11	8	[0, 0, 0]	n/a	catFR1	0	R1303E
1190.577	0.883	1196017	WORD_OFF	n/a	n/a	AXE	n/a	11	8	[0, 0, 0]	n/a	catFR1	0	R1303E
1191.46	1.616	1196899	WORD	n/a	wordpools/wordpool_categorized_EN.txt	WRENCH	Tools	12	8	[0, 0, 0]	n/a	catFR1	0	R1303E
1193.076	0.0	1198515	ENCODING_END	n/a	n/a	n/a	n/a	-999	8	[0, 0, 0]	n/a	catFR1	0	R1303E
1193.076	0.134	1198515	WORD_OFF	n/a	n/a	WRENCH	n/a	12	8	[0, 0, 0]	n/a	catFR1	0	R1303E
1193.21	0.0	1198649	DISTRACT_START	n/a	n/a	n/a	n/a	-999	8	[0, 0, 0]	n/a	catFR1	0	R1303E
1193.21	0.017	1198649	START	n/a	n/a	n/a	n/a	-999	8	[-999, -999, -999]	n/a	catFR1	0	R1303E
1193.227	5.751	1198666	PROB	5.751	n/a	n/a	n/a	-999	8	[6, 8, 1]	16	catFR1	0	R1303E
1198.978	6.851	1204417	PROB	6.851	n/a	n/a	n/a	-999	8	[8, 4, 7]	20	catFR1	0	R1303E
1205.829	8.946	1211268	PROB	8.946	n/a	n/a	n/a	-999	8	[9, 8, 5]	22	catFR1	0	R1303E
1214.775	0.006	1220214	STOP	n/a	n/a	n/a	n/a	-999	8	[-999, -999, -999]	n/a	catFR1	0	R1303E
1214.781	0.584	1220220	DISTRACT_END	n/a	n/a	n/a	n/a	-999	8	[0, 0, 0]	n/a	catFR1	0	R1303E
1215.365	0.517	1220804	RETRIEVAL_ORIENT	n/a	n/a	n/a	n/a	-999	8	[0, 0, 0]	n/a	catFR1	0	R1303E
1215.882	9.85	1221321	REC_START	n/a	n/a	n/a	n/a	-999	8	[0, 0, 0]	n/a	catFR1	0	R1303E
1225.732	5.411	1231170	REC_WORD	5.411	n/a	GUITAR	n/a	-999	8	[0, 0, 0]	n/a	catFR1	0	R1303E
1231.143	3.62	1236581	REC_WORD	3.62	n/a	CELLO	n/a	-999	8	[0, 0, 0]	n/a	catFR1	0	R1303E
1234.763	7.948	1240201	REC_WORD_VV	7.948	n/a	<>	n/a	-999	8	[0, 0, 0]	n/a	catFR1	0	R1303E
1242.711	0.579	1248148	REC_WORD_VV	0.579	n/a	<>	n/a	-999	8	[0, 0, 0]	n/a	catFR1	0	R1303E
1243.29	0.831	1248727	REC_WORD_VV	0.831	n/a	<>	n/a	-999	8	[0, 0, 0]	n/a	catFR1	0	R1303E
1244.121	1.411	1249558	REC_WORD_VV	1.411	n/a	<>	n/a	-999	8	[0, 0, 0]	n/a	catFR1	0	R1303E
1245.532	0.361	1250969	REC_WORD_VV	0.361	n/a	<>	n/a	-999	8	[0, 0, 0]	n/a	catFR1	0	R1303E
1245.893	25.381	1251330	REC_END	n/a	n/a	n/a	n/a	-999	8	[0, 0, 0]	n/a	catFR1	0	R1303E
1271.274	0.5	1276710	TRIAL	n/a	n/a	n/a	n/a	-999	9	[0, 0, 0]	n/a	catFR1	0	R1303E
1271.774	10.428	1277210	COUNTDOWN_START	n/a	n/a	n/a	n/a	-999	9	[0, 0, 0]	n/a	catFR1	0	R1303E
1282.202	0.007	1287638	COUNTDOWN_END	n/a	n/a	n/a	n/a	-999	9	[0, 0, 0]	n/a	catFR1	0	R1303E
1282.209	1.617	1287645	ORIENT	n/a	n/a	n/a	n/a	-999	9	[0, 0, 0]	n/a	catFR1	0	R1303E
1283.826	1.901	1289262	ORIENT_OFF	n/a	n/a	n/a	n/a	-999	9	[0, 0, 0]	n/a	catFR1	0	R1303E
1285.727	1.617	1291163	WORD	n/a	wordpools/wordpool_categorized_EN.txt	JELLYFISH	OceanAnimals	1	9	[0, 0, 0]	n/a	catFR1	0	R1303E
1287.344	0.782	1292780	WORD_OFF	n/a	n/a	JELLYFISH	n/a	1	9	[0, 0, 0]	n/a	catFR1	0	R1303E
1288.126	1.618	1293562	WORD	n/a	wordpools/wordpool_categorized_EN.txt	SQUID	OceanAnimals	2	9	[0, 0, 0]	n/a	catFR1	0	R1303E
1289.744	0.817	1295180	WORD_OFF	n/a	n/a	SQUID	n/a	2	9	[0, 0, 0]	n/a	catFR1	0	R1303E
1290.561	1.617	1295997	WORD	n/a	wordpools/wordpool_categorized_EN.txt	BANJO	Instruments	3	9	[0, 0, 0]	n/a	catFR1	0	R1303E
1292.178	0.783	1297614	WORD_OFF	n/a	n/a	BANJO	n/a	3	9	[0, 0, 0]	n/a	catFR1	0	R1303E
1292.961	1.617	1298396	WORD	n/a	wordpools/wordpool_categorized_EN.txt	VIOLIN	Instruments	4	9	[0, 0, 0]	n/a	catFR1	0	R1303E
1294.578	0.917	1300013	WORD_OFF	n/a	n/a	VIOLIN	n/a	4	9	[0, 0, 0]	n/a	catFR1	0	R1303E
1295.495	1.616	1300930	WORD	n/a	wordpools/wordpool_categorized_EN.txt	BIRCH	Trees	5	9	[0, 0, 0]	n/a	catFR1	0	R1303E
1297.111	0.934	1302546	WORD_OFF	n/a	n/a	BIRCH	n/a	5	9	[0, 0, 0]	n/a	catFR1	0	R1303E
1298.045	1.618	1303480	WORD	n/a	wordpools/wordpool_categorized_EN.txt	EVERGREEN	Trees	6	9	[0, 0, 0]	n/a	catFR1	0	R1303E
1299.663	1.0	1305098	WORD_OFF	n/a	n/a	EVERGREEN	n/a	6	9	[0, 0, 0]	n/a	catFR1	0	R1303E
1300.663	1.617	1306098	WORD	n/a	wordpools/wordpool_categorized_EN.txt	OCTOPUS	OceanAnimals	7	9	[0, 0, 0]	n/a	catFR1	0	R1303E
1302.28	0.832	1307715	WORD_OFF	n/a	n/a	OCTOPUS	n/a	7	9	[0, 0, 0]	n/a	catFR1	0	R1303E
1303.112	1.601	1308547	WORD	n/a	wordpools/wordpool_categorized_EN.txt	FISH	OceanAnimals	8	9	[0, 0, 0]	n/a	catFR1	0	R1303E
1304.713	0.867	1310148	WORD_OFF	n/a	n/a	FISH	n/a	8	9	[0, 0, 0]	n/a	catFR1	0	R1303E
1305.58	1.617	1311015	WORD	n/a	wordpools/wordpool_categorized_EN.txt	TRUMPET	Instruments	9	9	[0, 0, 0]	n/a	catFR1	0	R1303E
1307.197	0.849	1312632	WORD_OFF	n/a	n/a	TRUMPET	n/a	9	9	[0, 0, 0]	n/a	catFR1	0	R1303E
1308.046	1.618	1313481	WORD	n/a	wordpools/wordpool_categorized_EN.txt	BASS	Instruments	10	9	[0, 0, 0]	n/a	catFR1	0	R1303E
1309.664	0.784	1315099	WORD_OFF	n/a	n/a	BASS	n/a	10	9	[0, 0, 0]	n/a	catFR1	0	R1303E
1310.448	1.616	1315883	WORD	n/a	wordpools/wordpool_categorized_EN.txt	MAPLE	Trees	11	9	[0, 0, 0]	n/a	catFR1	0	R1303E
1312.064	0.884	1317499	WORD_OFF	n/a	n/a	MAPLE	n/a	11	9	[0, 0, 0]	n/a	catFR1	0	R1303E
1312.948	1.617	1318383	WORD	n/a	wordpools/wordpool_categorized_EN.txt	WALNUT	Trees	12	9	[0, 0, 0]	n/a	catFR1	0	R1303E
1314.565	0.0	1320000	WORD_OFF	n/a	n/a	WALNUT	n/a	12	9	[0, 0, 0]	n/a	catFR1	0	R1303E
1314.565	0.127	1320000	ENCODING_END	n/a	n/a	n/a	n/a	-999	9	[0, 0, 0]	n/a	catFR1	0	R1303E
1314.692	0.0	1320127	DISTRACT_START	n/a	n/a	n/a	n/a	-999	9	[0, 0, 0]	n/a	catFR1	0	R1303E
1314.692	0.023	1320127	START	n/a	n/a	n/a	n/a	-999	9	[-999, -999, -999]	n/a	catFR1	0	R1303E
1314.715	7.301	1320150	PROB	7.301	n/a	n/a	n/a	-999	9	[7, 4, 3]	14	catFR1	0	R1303E
1322.016	5.335	1327450	PROB	5.335	n/a	n/a	n/a	-999	9	[6, 5, 9]	20	catFR1	0	R1303E
1327.351	6.551	1332785	PROB	6.551	n/a	n/a	n/a	-999	9	[3, 4, 2]	9	catFR1	0	R1303E
1333.902	6.275	1339336	PROB	6.275	n/a	n/a	n/a	-999	9	[8, 9, 5]	21	catFR1	0	R1303E
1340.177	0.01	1345611	STOP	n/a	n/a	n/a	n/a	-999	9	[-999, -999, -999]	n/a	catFR1	0	R1303E
1340.187	0.533	1345621	DISTRACT_END	n/a	n/a	n/a	n/a	-999	9	[0, 0, 0]	n/a	catFR1	0	R1303E
1340.72	0.518	1346154	RETRIEVAL_ORIENT	n/a	n/a	n/a	n/a	-999	9	[0, 0, 0]	n/a	catFR1	0	R1303E
1341.238	3.721	1346672	REC_START	n/a	n/a	n/a	n/a	-999	9	[0, 0, 0]	n/a	catFR1	0	R1303E
1344.959	1.096	1350392	REC_WORD	1.096	n/a	JELLYFISH	OceanAnimals	1	9	[0, 0, 0]	n/a	catFR1	0	R1303E
1346.055	1.355	1351488	REC_WORD	1.355	n/a	SQUID	OceanAnimals	2	9	[0, 0, 0]	n/a	catFR1	0	R1303E
1347.41	7.721	1352843	REC_WORD	7.721	n/a	OCTOPUS	OceanAnimals	7	9	[0, 0, 0]	n/a	catFR1	0	R1303E
1355.131	0.959	1360564	REC_WORD	0.959	n/a	EVERGREEN	Trees	6	9	[0, 0, 0]	n/a	catFR1	0	R1303E
1356.09	9.791	1361523	REC_WORD	9.791	n/a	ELM	n/a	-999	9	[0, 0, 0]	n/a	catFR1	0	R1303E
1365.881	3.289	1371314	REC_WORD	3.289	n/a	FURNITURE	n/a	-999	9	[0, 0, 0]	n/a	catFR1	0	R1303E
1369.17	2.079	1374602	REC_WORD	2.079	n/a	MAPLE	Trees	11	9	[0, 0, 0]	n/a	catFR1	0	R1303E
1371.249	5.793	1376681	REC_END	n/a	n/a	n/a	n/a	-999	9	[0, 0, 0]	n/a	catFR1	0	R1303E
1377.042	0.5	1382474	TRIAL	n/a	n/a	n/a	n/a	-999	10	[0, 0, 0]	n/a	catFR1	0	R1303E
1377.542	10.428	1382974	COUNTDOWN_START	n/a	n/a	n/a	n/a	-999	10	[0, 0, 0]	n/a	catFR1	0	R1303E
1387.97	0.008	1393402	COUNTDOWN_END	n/a	n/a	n/a	n/a	-999	10	[0, 0, 0]	n/a	catFR1	0	R1303E
1387.978	1.617	1393410	ORIENT	n/a	n/a	n/a	n/a	-999	10	[0, 0, 0]	n/a	catFR1	0	R1303E
1389.595	2.15	1395027	ORIENT_OFF	n/a	n/a	n/a	n/a	-999	10	[0, 0, 0]	n/a	catFR1	0	R1303E
1391.745	1.617	1397177	WORD	n/a	wordpools/wordpool_categorized_EN.txt	RADIO	Electronics	1	10	[0, 0, 0]	n/a	catFR1	0	R1303E
1393.362	0.9	1398794	WORD_OFF	n/a	n/a	RADIO	n/a	1	10	[0, 0, 0]	n/a	catFR1	0	R1303E
1394.262	1.617	1399693	WORD	n/a	wordpools/wordpool_categorized_EN.txt	COMPUTER	Electronics	2	10	[0, 0, 0]	n/a	catFR1	0	R1303E
1395.879	0.784	1401310	WORD_OFF	n/a	n/a	COMPUTER	n/a	2	10	[0, 0, 0]	n/a	catFR1	0	R1303E
1396.663	1.617	1402094	WORD	n/a	wordpools/wordpool_categorized_EN.txt	ROSE	Flowers	3	10	[0, 0, 0]	n/a	catFR1	0	R1303E
1398.28	0.983	1403711	WORD_OFF	n/a	n/a	ROSE	n/a	3	10	[0, 0, 0]	n/a	catFR1	0	R1303E
1399.263	1.617	1404694	WORD	n/a	wordpools/wordpool_categorized_EN.txt	DAISY	Flowers	4	10	[0, 0, 0]	n/a	catFR1	0	R1303E
1400.88	0.817	1406311	WORD_OFF	n/a	n/a	DAISY	n/a	4	10	[0, 0, 0]	n/a	catFR1	0	R1303E
1401.697	1.617	1407128	WORD	n/a	wordpools/wordpool_categorized_EN.txt	THUNDERSTORM	Weather	5	10	[0, 0, 0]	n/a	catFR1	0	R1303E
1403.314	0.95	1408745	WORD_OFF	n/a	n/a	THUNDERSTORM	n/a	5	10	[0, 0, 0]	n/a	catFR1	0	R1303E
1404.264	1.617	1409695	WORD	n/a	wordpools/wordpool_categorized_EN.txt	THUNDER	Weather	6	10	[0, 0, 0]	n/a	catFR1	0	R1303E
1405.881	0.834	1411312	WORD_OFF	n/a	n/a	THUNDER	n/a	6	10	[0, 0, 0]	n/a	catFR1	0	R1303E
1406.715	1.617	1412146	WORD	n/a	wordpools/wordpool_categorized_EN.txt	SUNFLOWER	Flowers	7	10	[0, 0, 0]	n/a	catFR1	0	R1303E
1408.332	0.866	1413763	WORD_OFF	n/a	n/a	SUNFLOWER	n/a	7	10	[0, 0, 0]	n/a	catFR1	0	R1303E
1409.198	1.617	1414629	WORD	n/a	wordpools/wordpool_categorized_EN.txt	MARIGOLD	Flowers	8	10	[0, 0, 0]	n/a	catFR1	0	R1303E
1410.815	0.834	1416246	WORD_OFF	n/a	n/a	MARIGOLD	n/a	8	10	[0, 0, 0]	n/a	catFR1	0	R1303E
1411.649	1.617	1417080	WORD	n/a	wordpools/wordpool_categorized_EN.txt	SCANNER	Electronics	9	10	[0, 0, 0]	n/a	catFR1	0	R1303E
1413.266	0.816	1418697	WORD_OFF	n/a	n/a	SCANNER	n/a	9	10	[0, 0, 0]	n/a	catFR1	0	R1303E
1414.082	1.618	1419513	WORD	n/a	wordpools/wordpool_categorized_EN.txt	TABLET	Electronics	10	10	[0, 0, 0]	n/a	catFR1	0	R1303E
1415.7	0.833	1421131	WORD_OFF	n/a	n/a	TABLET	n/a	10	10	[0, 0, 0]	n/a	catFR1	0	R1303E
1416.533	1.616	1421964	WORD	n/a	wordpools/wordpool_categorized_EN.txt	CLOUD	Weather	11	10	[0, 0, 0]	n/a	catFR1	0	R1303E
1418.149	1.0	1423580	WORD_OFF	n/a	n/a	CLOUD	n/a	11	10	[0, 0, 0]	n/a	catFR1	0	R1303E
1419.149	1.618	1424579	WORD	n/a	wordpools/wordpool_categorized_EN.txt	LIGHTNING	Weather	12	10	[0, 0, 0]	n/a	catFR1	0	R1303E
1420.767	0.0	1426197	ENCODING_END	n/a	n/a	n/a	n/a	-999	10	[0, 0, 0]	n/a	catFR1	0	R1303E
1420.767	0.095	1426197	WORD_OFF	n/a	n/a	LIGHTNING	n/a	12	10	[0, 0, 0]	n/a	catFR1	0	R1303E
1420.862	0.0	1426292	DISTRACT_START	n/a	n/a	n/a	n/a	-999	10	[0, 0, 0]	n/a	catFR1	0	R1303E
1420.862	0.022	1426292	START	n/a	n/a	n/a	n/a	-999	10	[-999, -999, -999]	n/a	catFR1	0	R1303E
1420.884	6.233	1426314	PROB	6.233	n/a	n/a	n/a	-999	10	[7, 1, 3]	11	catFR1	0	R1303E
1427.117	3.452	1432547	PROB	3.452	n/a	n/a	n/a	-999	10	[3, 6, 7]	17	catFR1	0	R1303E
1430.569	6.368	1435999	PROB	6.368	n/a	n/a	n/a	-999	10	[3, 9, 2]	14	catFR1	0	R1303E
1436.937	4.886	1442367	PROB	4.886	n/a	n/a	n/a	-999	10	[2, 1, 2]	4	catFR1	0	R1303E
1441.823	0.015	1447253	STOP	n/a	n/a	n/a	n/a	-999	10	[-999, -999, -999]	n/a	catFR1	0	R1303E
1441.838	0.683	1447268	DISTRACT_END	n/a	n/a	n/a	n/a	-999	10	[0, 0, 0]	n/a	catFR1	0	R1303E
1442.521	0.516	1447951	RETRIEVAL_ORIENT	n/a	n/a	n/a	n/a	-999	10	[0, 0, 0]	n/a	catFR1	0	R1303E
1443.037	7.256	1448467	REC_START	n/a	n/a	n/a	n/a	-999	10	[0, 0, 0]	n/a	catFR1	0	R1303E
1450.293	5.353	1455722	REC_WORD	5.353	n/a	THUNDERSTORM	Weather	5	10	[0, 0, 0]	n/a	catFR1	0	R1303E
1455.646	0.295	1461075	REC_WORD_VV	0.295	n/a	<>	n/a	-999	10	[0, 0, 0]	n/a	catFR1	0	R1303E
1455.941	4.778	1461370	REC_WORD	4.778	n/a	THUNDERSTORM	Weather	5	10	[0, 0, 0]	n/a	catFR1	0	R1303E
1460.719	3.68	1466148	REC_WORD	3.68	n/a	EVERGREEN	n/a	-999	10	[0, 0, 0]	n/a	catFR1	0	R1303E
1464.399	2.244	1469828	REC_WORD	2.244	n/a	DAISY	Flowers	4	10	[0, 0, 0]	n/a	catFR1	0	R1303E
1466.643	1.389	1472072	REC_WORD	1.389	n/a	SUNFLOWER	Flowers	7	10	[0, 0, 0]	n/a	catFR1	0	R1303E
1468.032	5.017	1473461	REC_WORD	5.017	n/a	ROSE	Flowers	3	10	[0, 0, 0]	n/a	catFR1	0	R1303E
1473.049	4.994	1478477	REC_END	n/a	n/a	n/a	n/a	-999	10	[0, 0, 0]	n/a	catFR1	0	R1303E
1478.043	0.5	1483471	TRIAL	n/a	n/a	n/a	n/a	-999	11	[0, 0, 0]	n/a	catFR1	0	R1303E
1478.543	10.428	1483971	COUNTDOWN_START	n/a	n/a	n/a	n/a	-999	11	[0, 0, 0]	n/a	catFR1	0	R1303E
1488.971	0.008	1494399	COUNTDOWN_END	n/a	n/a	n/a	n/a	-999	11	[0, 0, 0]	n/a	catFR1	0	R1303E
1488.979	1.617	1494407	ORIENT	n/a	n/a	n/a	n/a	-999	11	[0, 0, 0]	n/a	catFR1	0	R1303E
1490.596	2.184	1496024	ORIENT_OFF	n/a	n/a	n/a	n/a	-999	11	[0, 0, 0]	n/a	catFR1	0	R1303E
1492.78	1.617	1498208	WORD	n/a	wordpools/wordpool_categorized_EN.txt	MOUNTAIN	Landscapes	1	11	[0, 0, 0]	n/a	catFR1	0	R1303E
1494.397	0.8	1499825	WORD_OFF	n/a	n/a	MOUNTAIN	n/a	1	11	[0, 0, 0]	n/a	catFR1	0	R1303E
1495.197	1.617	1500624	WORD	n/a	wordpools/wordpool_categorized_EN.txt	STREAM	Landscapes	2	11	[0, 0, 0]	n/a	catFR1	0	R1303E
1496.814	0.983	1502241	WORD_OFF	n/a	n/a	STREAM	n/a	2	11	[0, 0, 0]	n/a	catFR1	0	R1303E
1497.797	1.617	1503224	WORD	n/a	wordpools/wordpool_categorized_EN.txt	VIOLET	Flowers	3	11	[0, 0, 0]	n/a	catFR1	0	R1303E
1499.414	0.901	1504841	WORD_OFF	n/a	n/a	VIOLET	n/a	3	11	[0, 0, 0]	n/a	catFR1	0	R1303E
1500.315	1.616	1505742	WORD	n/a	wordpools/wordpool_categorized_EN.txt	LILAC	Flowers	4	11	[0, 0, 0]	n/a	catFR1	0	R1303E
1501.931	0.851	1507358	WORD_OFF	n/a	n/a	LILAC	n/a	4	11	[0, 0, 0]	n/a	catFR1	0	R1303E
1502.782	1.617	1508209	WORD	n/a	wordpools/wordpool_categorized_EN.txt	FOLDER	OfficeSupplies	5	11	[0, 0, 0]	n/a	catFR1	0	R1303E
1504.399	0.816	1509826	WORD_OFF	n/a	n/a	FOLDER	n/a	5	11	[0, 0, 0]	n/a	catFR1	0	R1303E
1505.215	1.617	1510642	WORD	n/a	wordpools/wordpool_categorized_EN.txt	STAPLER	OfficeSupplies	6	11	[0, 0, 0]	n/a	catFR1	0	R1303E
1506.832	0.884	1512259	WORD_OFF	n/a	n/a	STAPLER	n/a	6	11	[0, 0, 0]	n/a	catFR1	0	R1303E
1507.716	1.617	1513143	WORD	n/a	wordpools/wordpool_categorized_EN.txt	PETUNIA	Flowers	7	11	[0, 0, 0]	n/a	catFR1	0	R1303E
1509.333	0.832	1514760	WORD_OFF	n/a	n/a	PETUNIA	n/a	7	11	[0, 0, 0]	n/a	catFR1	0	R1303E
1510.165	1.618	1515592	WORD	n/a	wordpools/wordpool_categorized_EN.txt	CARNATION	Flowers	8	11	[0, 0, 0]	n/a	catFR1	0	R1303E
1511.783	0.9	1517210	WORD_OFF	n/a	n/a	CARNATION	n/a	8	11	[0, 0, 0]	n/a	catFR1	0	R1303E
1512.683	1.617	1518110	WORD	n/a	wordpools/wordpool_categorized_EN.txt	FOREST	Landscapes	9	11	[0, 0, 0]	n/a	catFR1	0	R1303E
1514.3	0.984	1519727	WORD_OFF	n/a	n/a	FOREST	n/a	9	11	[0, 0, 0]	n/a	catFR1	0	R1303E
1515.284	1.617	1520711	WORD	n/a	wordpools/wordpool_categorized_EN.txt	LAKE	Landscapes	10	11	[0, 0, 0]	n/a	catFR1	0	R1303E
1516.901	0.866	1522328	WORD_OFF	n/a	n/a	LAKE	n/a	10	11	[0, 0, 0]	n/a	catFR1	0	R1303E
1517.767	1.601	1523194	WORD	n/a	wordpools/wordpool_categorized_EN.txt	PEN	OfficeSupplies	11	11	[0, 0, 0]	n/a	catFR1	0	R1303E
1519.368	0.883	1524795	WORD_OFF	n/a	n/a	PEN	n/a	11	11	[0, 0, 0]	n/a	catFR1	0	R1303E
1520.251	1.617	1525678	WORD	n/a	wordpools/wordpool_categorized_EN.txt	NOTEBOOK	OfficeSupplies	12	11	[0, 0, 0]	n/a	catFR1	0	R1303E
1521.868	0.0	1527294	WORD_OFF	n/a	n/a	NOTEBOOK	n/a	12	11	[0, 0, 0]	n/a	catFR1	0	R1303E
1521.868	0.133	1527294	ENCODING_END	n/a	n/a	n/a	n/a	-999	11	[0, 0, 0]	n/a	catFR1	0	R1303E
1522.001	0.001	1527427	DISTRACT_START	n/a	n/a	n/a	n/a	-999	11	[0, 0, 0]	n/a	catFR1	0	R1303E
1522.002	0.015	1527428	START	n/a	n/a	n/a	n/a	-999	11	[-999, -999, -999]	n/a	catFR1	0	R1303E
1522.017	6.252	1527443	PROB	6.252	n/a	n/a	n/a	-999	11	[2, 5, 6]	13	catFR1	0	R1303E
1528.269	4.018	1533695	PROB	4.018	n/a	n/a	n/a	-999	11	[2, 7, 2]	11	catFR1	0	R1303E
1532.287	4.467	1537713	PROB	4.467	n/a	n/a	n/a	-999	11	[5, 3, 2]	10	catFR1	0	R1303E
1536.754	4.734	1542180	PROB	4.734	n/a	n/a	n/a	-999	11	[6, 9, 4]	19	catFR1	0	R1303E
1541.488	10.241	1546914	PROB	10.241	n/a	n/a	n/a	-999	11	[4, 9, 8]	21	catFR1	0	R1303E
1551.729	0.011	1557154	STOP	n/a	n/a	n/a	n/a	-999	11	[-999, -999, -999]	n/a	catFR1	0	R1303E
1551.74	0.534	1557165	DISTRACT_END	n/a	n/a	n/a	n/a	-999	11	[0, 0, 0]	n/a	catFR1	0	R1303E
1552.274	0.518	1557699	RETRIEVAL_ORIENT	n/a	n/a	n/a	n/a	-999	11	[0, 0, 0]	n/a	catFR1	0	R1303E
1552.792	4.062	1558217	REC_START	n/a	n/a	n/a	n/a	-999	11	[0, 0, 0]	n/a	catFR1	0	R1303E
1556.854	1.003	1562279	REC_WORD	1.003	n/a	MOUNTAIN	Landscapes	1	11	[0, 0, 0]	n/a	catFR1	0	R1303E
1557.857	6.315	1563282	REC_WORD	6.315	n/a	STREAM	Landscapes	2	11	[0, 0, 0]	n/a	catFR1	0	R1303E
1564.172	0.649	1569597	REC_WORD	0.649	n/a	RIVER	n/a	-999	11	[0, 0, 0]	n/a	catFR1	0	R1303E
1564.821	6.261	1570246	REC_WORD	6.261	n/a	WATER	n/a	-999	11	[0, 0, 0]	n/a	catFR1	0	R1303E
1571.082	3.117	1576506	REC_WORD_VV	3.117	n/a	<>	n/a	-999	11	[0, 0, 0]	n/a	catFR1	0	R1303E
1574.199	1.501	1579623	REC_WORD	1.501	n/a	DAISY	n/a	-999	11	[0, 0, 0]	n/a	catFR1	0	R1303E
1575.7	0.527	1581124	REC_WORD_VV	0.527	n/a	<>	n/a	-999	11	[0, 0, 0]	n/a	catFR1	0	R1303E
1576.227	1.041	1581651	REC_WORD_VV	1.041	n/a	<>	n/a	-999	11	[0, 0, 0]	n/a	catFR1	0	R1303E
1577.268	1.0	1582692	REC_WORD_VV	1.0	n/a	<>	n/a	-999	11	[0, 0, 0]	n/a	catFR1	0	R1303E
1578.268	1.562	1583692	REC_WORD_VV	1.562	n/a	<>	n/a	-999	11	[0, 0, 0]	n/a	catFR1	0	R1303E
1579.83	2.973	1585254	REC_WORD	2.973	n/a	TREE	n/a	-999	11	[0, 0, 0]	n/a	catFR1	0	R1303E
1582.803	5.027	1588227	REC_END	n/a	n/a	n/a	n/a	-999	11	[0, 0, 0]	n/a	catFR1	0	R1303E
1587.83	0.5	1593254	TRIAL	n/a	n/a	n/a	n/a	-999	12	[0, 0, 0]	n/a	catFR1	0	R1303E
1588.33	10.428	1593754	COUNTDOWN_START	n/a	n/a	n/a	n/a	-999	12	[0, 0, 0]	n/a	catFR1	0	R1303E
1598.758	0.007	1604181	COUNTDOWN_END	n/a	n/a	n/a	n/a	-999	12	[0, 0, 0]	n/a	catFR1	0	R1303E
1598.765	1.617	1604188	ORIENT	n/a	n/a	n/a	n/a	-999	12	[0, 0, 0]	n/a	catFR1	0	R1303E
1600.382	2.034	1605805	ORIENT_OFF	n/a	n/a	n/a	n/a	-999	12	[0, 0, 0]	n/a	catFR1	0	R1303E
1602.416	1.616	1607839	WORD	n/a	wordpools/wordpool_categorized_EN.txt	ORCHID	Flowers	1	12	[0, 0, 0]	n/a	catFR1	0	R1303E
1604.032	0.784	1609455	WORD_OFF	n/a	n/a	ORCHID	n/a	1	12	[0, 0, 0]	n/a	catFR1	0	R1303E
1604.816	1.617	1610239	WORD	n/a	wordpools/wordpool_categorized_EN.txt	DAFFODIL	Flowers	2	12	[0, 0, 0]	n/a	catFR1	0	R1303E
1606.433	0.834	1611856	WORD_OFF	n/a	n/a	DAFFODIL	n/a	2	12	[0, 0, 0]	n/a	catFR1	0	R1303E
1607.267	1.617	1612690	WORD	n/a	wordpools/wordpool_categorized_EN.txt	STOVE	Appliances	3	12	[0, 0, 0]	n/a	catFR1	0	R1303E
1608.884	0.8	1614307	WORD_OFF	n/a	n/a	STOVE	n/a	3	12	[0, 0, 0]	n/a	catFR1	0	R1303E
1609.684	1.617	1615107	WORD	n/a	wordpools/wordpool_categorized_EN.txt	DISHWASHER	Appliances	4	12	[0, 0, 0]	n/a	catFR1	0	R1303E
1611.301	0.765	1616724	WORD_OFF	n/a	n/a	DISHWASHER	n/a	4	12	[0, 0, 0]	n/a	catFR1	0	R1303E
1612.066	1.602	1617489	WORD	n/a	wordpools/wordpool_categorized_EN.txt	MOTH	Insects	5	12	[0, 0, 0]	n/a	catFR1	0	R1303E
1613.668	0.966	1619091	WORD_OFF	n/a	n/a	MOTH	n/a	5	12	[0, 0, 0]	n/a	catFR1	0	R1303E
1614.634	1.617	1620057	WORD	n/a	wordpools/wordpool_categorized_EN.txt	CRICKET	Insects	6	12	[0, 0, 0]	n/a	catFR1	0	R1303E
1616.251	0.783	1621674	WORD_OFF	n/a	n/a	CRICKET	n/a	6	12	[0, 0, 0]	n/a	catFR1	0	R1303E
1617.034	1.601	1622457	WORD	n/a	wordpools/wordpool_categorized_EN.txt	LILY	Flowers	7	12	[0, 0, 0]	n/a	catFR1	0	R1303E
1618.635	0.85	1624058	WORD_OFF	n/a	n/a	LILY	n/a	7	12	[0, 0, 0]	n/a	catFR1	0	R1303E
1619.485	1.616	1624908	WORD	n/a	wordpools/wordpool_categorized_EN.txt	TULIP	Flowers	8	12	[0, 0, 0]	n/a	catFR1	0	R1303E
1621.101	0.801	1626524	WORD_OFF	n/a	n/a	TULIP	n/a	8	12	[0, 0, 0]	n/a	catFR1	0	R1303E
1621.902	1.617	1627324	WORD	n/a	wordpools/wordpool_categorized_EN.txt	REFRIGERATOR	Appliances	9	12	[0, 0, 0]	n/a	catFR1	0	R1303E
1623.519	0.867	1628941	WORD_OFF	n/a	n/a	REFRIGERATOR	n/a	9	12	[0, 0, 0]	n/a	catFR1	0	R1303E
1624.386	1.616	1629808	WORD	n/a	wordpools/wordpool_categorized_EN.txt	BLENDER	Appliances	10	12	[0, 0, 0]	n/a	catFR1	0	R1303E
1626.002	0.968	1631424	WORD_OFF	n/a	n/a	BLENDER	n/a	10	12	[0, 0, 0]	n/a	catFR1	0	R1303E
1626.97	1.617	1632392	WORD	n/a	wordpools/wordpool_categorized_EN.txt	BEE	Insects	11	12	[0, 0, 0]	n/a	catFR1	0	R1303E
1628.587	0.783	1634009	WORD_OFF	n/a	n/a	BEE	n/a	11	12	[0, 0, 0]	n/a	catFR1	0	R1303E
1629.37	1.617	1634792	WORD	n/a	wordpools/wordpool_categorized_EN.txt	BEETLE	Insects	12	12	[0, 0, 0]	n/a	catFR1	0	R1303E
1630.987	0.001	1636409	WORD_OFF	n/a	n/a	BEETLE	n/a	12	12	[0, 0, 0]	n/a	catFR1	0	R1303E
1630.988	0.097	1636410	ENCODING_END	n/a	n/a	n/a	n/a	-999	12	[0, 0, 0]	n/a	catFR1	0	R1303E
1631.085	0.0	1636507	DISTRACT_START	n/a	n/a	n/a	n/a	-999	12	[0, 0, 0]	n/a	catFR1	0	R1303E
1631.085	0.018	1636507	START	n/a	n/a	n/a	n/a	-999	12	[-999, -999, -999]	n/a	catFR1	0	R1303E
1631.103	7.302	1636525	PROB	7.302	n/a	n/a	n/a	-999	12	[3, 3, 4]	10	catFR1	0	R1303E
1638.405	9.202	1643827	PROB	9.202	n/a	n/a	n/a	-999	12	[6, 2, 4]	12	catFR1	0	R1303E
1647.607	4.812	1653028	PROB	4.812	n/a	n/a	n/a	-999	12	[7, 9, 4]	19	catFR1	0	R1303E
1652.419	0.022	1657840	STOP	n/a	n/a	n/a	n/a	-999	12	[-999, -999, -999]	n/a	catFR1	0	R1303E
1652.441	0.517	1657862	DISTRACT_END	n/a	n/a	n/a	n/a	-999	12	[0, 0, 0]	n/a	catFR1	0	R1303E
1652.958	0.517	1658379	RETRIEVAL_ORIENT	n/a	n/a	n/a	n/a	-999	12	[0, 0, 0]	n/a	catFR1	0	R1303E
1653.475	7.214	1658896	REC_START	n/a	n/a	n/a	n/a	-999	12	[0, 0, 0]	n/a	catFR1	0	R1303E
1660.689	3.294	1666110	REC_WORD	3.294	n/a	SPIDER	n/a	-999	12	[0, 0, 0]	n/a	catFR1	0	R1303E
1663.983	3.484	1669404	REC_WORD_VV	3.484	n/a	<>	n/a	-999	12	[0, 0, 0]	n/a	catFR1	0	R1303E
1667.467	1.165	1672888	REC_WORD	1.165	n/a	SPIDER	n/a	-999	12	[0, 0, 0]	n/a	catFR1	0	R1303E
1668.632	0.695	1674053	REC_WORD_VV	0.695	n/a	<>	n/a	-999	12	[0, 0, 0]	n/a	catFR1	0	R1303E
1669.327	3.026	1674748	REC_WORD	3.026	n/a	MOSQUITO	n/a	-999	12	[0, 0, 0]	n/a	catFR1	0	R1303E
1672.353	5.587	1677773	REC_WORD	5.587	n/a	DAFFODIL	Flowers	2	12	[0, 0, 0]	n/a	catFR1	0	R1303E
1677.94	1.158	1683360	REC_WORD	1.158	n/a	COMPUTER	n/a	-999	12	[0, 0, 0]	n/a	catFR1	0	R1303E
1679.098	3.922	1684518	REC_WORD	3.922	n/a	COMPUTER	n/a	-999	12	[0, 0, 0]	n/a	catFR1	0	R1303E
1683.02	0.468	1688440	REC_WORD	0.468	n/a	REFRIGERATOR	Appliances	9	12	[0, 0, 0]	n/a	catFR1	0	R1303E
1683.488	4.793	1688908	REC_END	n/a	n/a	n/a	n/a	-999	12	[0, 0, 0]	n/a	catFR1	0	R1303E
1688.281	0.5	1693701	TRIAL	n/a	n/a	n/a	n/a	-999	13	[0, 0, 0]	n/a	catFR1	0	R1303E
1688.781	10.428	1694201	COUNTDOWN_START	n/a	n/a	n/a	n/a	-999	13	[0, 0, 0]	n/a	catFR1	0	R1303E
1699.209	0.007	1704628	COUNTDOWN_END	n/a	n/a	n/a	n/a	-999	13	[0, 0, 0]	n/a	catFR1	0	R1303E
1699.216	1.617	1704635	ORIENT	n/a	n/a	n/a	n/a	-999	13	[0, 0, 0]	n/a	catFR1	0	R1303E
1700.833	2.1	1706252	ORIENT_OFF	n/a	n/a	n/a	n/a	-999	13	[0, 0, 0]	n/a	catFR1	0	R1303E
1702.933	1.617	1708352	WORD	n/a	wordpools/wordpool_categorized_EN.txt	HEAD	BodyParts	1	13	[0, 0, 0]	n/a	catFR1	0	R1303E
1704.55	0.767	1709969	WORD_OFF	n/a	n/a	HEAD	n/a	1	13	[0, 0, 0]	n/a	catFR1	0	R1303E
1705.317	1.617	1710736	WORD	n/a	wordpools/wordpool_categorized_EN.txt	KNEE	BodyParts	2	13	[0, 0, 0]	n/a	catFR1	0	R1303E
1706.934	0.933	1712353	WORD_OFF	n/a	n/a	KNEE	n/a	2	13	[0, 0, 0]	n/a	catFR1	0	R1303E
1707.867	1.618	1713286	WORD	n/a	wordpools/wordpool_categorized_EN.txt	PLANKTON	OceanAnimals	3	13	[0, 0, 0]	n/a	catFR1	0	R1303E
1709.485	0.9	1714904	WORD_OFF	n/a	n/a	PLANKTON	n/a	3	13	[0, 0, 0]	n/a	catFR1	0	R1303E
1710.385	1.616	1715804	WORD	n/a	wordpools/wordpool_categorized_EN.txt	OYSTER	OceanAnimals	4	13	[0, 0, 0]	n/a	catFR1	0	R1303E
1712.001	0.934	1717420	WORD_OFF	n/a	n/a	OYSTER	n/a	4	13	[0, 0, 0]	n/a	catFR1	0	R1303E
1712.935	1.617	1718354	WORD	n/a	wordpools/wordpool_categorized_EN.txt	SOFA	Furniture	5	13	[0, 0, 0]	n/a	catFR1	0	R1303E
1714.552	0.834	1719971	WORD_OFF	n/a	n/a	SOFA	n/a	5	13	[0, 0, 0]	n/a	catFR1	0	R1303E
1715.386	1.615	1720805	WORD	n/a	wordpools/wordpool_categorized_EN.txt	CABINET	Furniture	6	13	[0, 0, 0]	n/a	catFR1	0	R1303E
1717.001	0.835	1722420	WORD_OFF	n/a	n/a	CABINET	n/a	6	13	[0, 0, 0]	n/a	catFR1	0	R1303E
1717.836	1.617	1723255	WORD	n/a	wordpools/wordpool_categorized_EN.txt	EAR	BodyParts	7	13	[0, 0, 0]	n/a	catFR1	0	R1303E
1719.453	0.783	1724872	WORD_OFF	n/a	n/a	EAR	n/a	7	13	[0, 0, 0]	n/a	catFR1	0	R1303E
1720.236	1.617	1725655	WORD	n/a	wordpools/wordpool_categorized_EN.txt	EYE	BodyParts	8	13	[0, 0, 0]	n/a	catFR1	0	R1303E
1721.853	0.901	1727272	WORD_OFF	n/a	n/a	EYE	n/a	8	13	[0, 0, 0]	n/a	catFR1	0	R1303E
1722.754	1.617	1728173	WORD	n/a	wordpools/wordpool_categorized_EN.txt	SHRIMP	OceanAnimals	9	13	[0, 0, 0]	n/a	catFR1	0	R1303E
1724.371	0.833	1729789	WORD_OFF	n/a	n/a	SHRIMP	n/a	9	13	[0, 0, 0]	n/a	catFR1	0	R1303E
1725.204	1.617	1730622	WORD	n/a	wordpools/wordpool_categorized_EN.txt	LOBSTER	OceanAnimals	10	13	[0, 0, 0]	n/a	catFR1	0	R1303E
1726.821	0.95	1732239	WORD_OFF	n/a	n/a	LOBSTER	n/a	10	13	[0, 0, 0]	n/a	catFR1	0	R1303E
1727.771	1.617	1733189	WORD	n/a	wordpools/wordpool_categorized_EN.txt	BOOKCASE	Furniture	11	13	[0, 0, 0]	n/a	catFR1	0	R1303E
1729.388	0.917	1734806	WORD_OFF	n/a	n/a	BOOKCASE	n/a	11	13	[0, 0, 0]	n/a	catFR1	0	R1303E
1730.305	1.617	1735723	WORD	n/a	wordpools/wordpool_categorized_EN.txt	SHELF	Furniture	12	13	[0, 0, 0]	n/a	catFR1	0	R1303E
1731.922	0.0	1737340	ENCODING_END	n/a	n/a	n/a	n/a	-999	13	[0, 0, 0]	n/a	catFR1	0	R1303E
1731.922	0.092	1737340	WORD_OFF	n/a	n/a	SHELF	n/a	12	13	[0, 0, 0]	n/a	catFR1	0	R1303E
1732.014	0.0	1737432	DISTRACT_START	n/a	n/a	n/a	n/a	-999	13	[0, 0, 0]	n/a	catFR1	0	R1303E
1732.014	0.023	1737432	START	n/a	n/a	n/a	n/a	-999	13	[-999, -999, -999]	n/a	catFR1	0	R1303E
1732.037	6.319	1737455	PROB	6.319	n/a	n/a	n/a	-999	13	[3, 8, 5]	16	catFR1	0	R1303E
1738.356	4.084	1743774	PROB	4.084	n/a	n/a	n/a	-999	13	[3, 6, 4]	13	catFR1	0	R1303E
1742.44	3.617	1747858	PROB	3.617	n/a	n/a	n/a	-999	13	[4, 4, 1]	9	catFR1	0	R1303E
1746.057	3.768	1751475	PROB	3.768	n/a	n/a	n/a	-999	13	[1, 9, 5]	15	catFR1	0	R1303E
1749.825	5.774	1755242	PROB	5.774	n/a	n/a	n/a	-999	13	[2, 7, 8]	15	catFR1	0	R1303E
1755.599	0.011	1761016	STOP	n/a	n/a	n/a	n/a	-999	13	[-999, -999, -999]	n/a	catFR1	0	R1303E
1755.61	0.599	1761027	DISTRACT_END	n/a	n/a	n/a	n/a	-999	13	[0, 0, 0]	n/a	catFR1	0	R1303E
1756.209	0.518	1761626	RETRIEVAL_ORIENT	n/a	n/a	n/a	n/a	-999	13	[0, 0, 0]	n/a	catFR1	0	R1303E
1756.727	3.746	1762144	REC_START	n/a	n/a	n/a	n/a	-999	13	[0, 0, 0]	n/a	catFR1	0	R1303E
1760.473	11.185	1765890	REC_WORD	11.185	n/a	SQUID	n/a	-999	13	[0, 0, 0]	n/a	catFR1	0	R1303E
1771.658	12.154	1777075	REC_WORD	12.154	n/a	SHRIMP	OceanAnimals	9	13	[0, 0, 0]	n/a	catFR1	0	R1303E
1783.812	1.062	1789228	REC_WORD	1.062	n/a	REFRIGERATOR	n/a	-999	13	[0, 0, 0]	n/a	catFR1	0	R1303E
1784.874	0.568	1790290	REC_WORD	0.568	n/a	CABINET	Furniture	6	13	[0, 0, 0]	n/a	catFR1	0	R1303E
1785.442	1.296	1790858	REC_WORD	1.296	n/a	MICROWAVE	n/a	-999	13	[0, 0, 0]	n/a	catFR1	0	R1303E
1786.738	4.811	1792154	REC_END	n/a	n/a	n/a	n/a	-999	13	[0, 0, 0]	n/a	catFR1	0	R1303E
1791.549	0.5	1796965	TRIAL	n/a	n/a	n/a	n/a	-999	14	[0, 0, 0]	n/a	catFR1	0	R1303E
1792.049	10.428	1797465	COUNTDOWN_START	n/a	n/a	n/a	n/a	-999	14	[0, 0, 0]	n/a	catFR1	0	R1303E
1802.477	0.007	1807892	COUNTDOWN_END	n/a	n/a	n/a	n/a	-999	14	[0, 0, 0]	n/a	catFR1	0	R1303E
1802.484	1.616	1807899	ORIENT	n/a	n/a	n/a	n/a	-999	14	[0, 0, 0]	n/a	catFR1	0	R1303E
1804.1	1.851	1809515	ORIENT_OFF	n/a	n/a	n/a	n/a	-999	14	[0, 0, 0]	n/a	catFR1	0	R1303E
1805.951	1.617	1811366	WORD	n/a	wordpools/wordpool_categorized_EN.txt	TOASTER	Appliances	1	14	[0, 0, 0]	n/a	catFR1	0	R1303E
1807.568	0.817	1812983	WORD_OFF	n/a	n/a	TOASTER	n/a	1	14	[0, 0, 0]	n/a	catFR1	0	R1303E
1808.385	1.616	1813800	WORD	n/a	wordpools/wordpool_categorized_EN.txt	OVEN	Appliances	2	14	[0, 0, 0]	n/a	catFR1	0	R1303E
1810.001	0.801	1815416	WORD_OFF	n/a	n/a	OVEN	n/a	2	14	[0, 0, 0]	n/a	catFR1	0	R1303E
1810.802	1.617	1816217	WORD	n/a	wordpools/wordpool_categorized_EN.txt	TURKEY	FarmAnimals	3	14	[0, 0, 0]	n/a	catFR1	0	R1303E
1812.419	0.8	1817834	WORD_OFF	n/a	n/a	TURKEY	n/a	3	14	[0, 0, 0]	n/a	catFR1	0	R1303E
1813.219	1.617	1818634	WORD	n/a	wordpools/wordpool_categorized_EN.txt	SHEEP	FarmAnimals	4	14	[0, 0, 0]	n/a	catFR1	0	R1303E
1814.836	0.901	1820251	WORD_OFF	n/a	n/a	SHEEP	n/a	4	14	[0, 0, 0]	n/a	catFR1	0	R1303E
1815.737	1.617	1821152	WORD	n/a	wordpools/wordpool_categorized_EN.txt	CIDER	Beverages	5	14	[0, 0, 0]	n/a	catFR1	0	R1303E
1817.354	0.782	1822769	WORD_OFF	n/a	n/a	CIDER	n/a	5	14	[0, 0, 0]	n/a	catFR1	0	R1303E
1818.136	1.618	1823551	WORD	n/a	wordpools/wordpool_categorized_EN.txt	MILK	Beverages	6	14	[0, 0, 0]	n/a	catFR1	0	R1303E
1819.754	1.017	1825169	WORD_OFF	n/a	n/a	MILK	n/a	6	14	[0, 0, 0]	n/a	catFR1	0	R1303E
1820.771	1.617	1826186	WORD	n/a	wordpools/wordpool_categorized_EN.txt	ROOSTER	FarmAnimals	7	14	[0, 0, 0]	n/a	catFR1	0	R1303E
1822.388	0.782	1827803	WORD_OFF	n/a	n/a	ROOSTER	n/a	7	14	[0, 0, 0]	n/a	catFR1	0	R1303E
1823.17	1.618	1828585	WORD	n/a	wordpools/wordpool_categorized_EN.txt	GOAT	FarmAnimals	8	14	[0, 0, 0]	n/a	catFR1	0	R1303E
1824.788	0.917	1830202	WORD_OFF	n/a	n/a	GOAT	n/a	8	14	[0, 0, 0]	n/a	catFR1	0	R1303E
1825.705	1.617	1831119	WORD	n/a	wordpools/wordpool_categorized_EN.txt	FREEZER	Appliances	9	14	[0, 0, 0]	n/a	catFR1	0	R1303E
1827.322	0.816	1832736	WORD_OFF	n/a	n/a	FREEZER	n/a	9	14	[0, 0, 0]	n/a	catFR1	0	R1303E
1828.138	1.618	1833552	WORD	n/a	wordpools/wordpool_categorized_EN.txt	DRYER	Appliances	10	14	[0, 0, 0]	n/a	catFR1	0	R1303E
1829.756	0.8	1835170	WORD_OFF	n/a	n/a	DRYER	n/a	10	14	[0, 0, 0]	n/a	catFR1	0	R1303E
1830.556	1.617	1835970	WORD	n/a	wordpools/wordpool_categorized_EN.txt	COLA	Beverages	11	14	[0, 0, 0]	n/a	catFR1	0	R1303E
1832.173	0.899	1837587	WORD_OFF	n/a	n/a	COLA	n/a	11	14	[0, 0, 0]	n/a	catFR1	0	R1303E
1833.072	1.618	1838486	WORD	n/a	wordpools/wordpool_categorized_EN.txt	COFFEE	Beverages	12	14	[0, 0, 0]	n/a	catFR1	0	R1303E
1834.69	0.0	1840104	ENCODING_END	n/a	n/a	n/a	n/a	-999	14	[0, 0, 0]	n/a	catFR1	0	R1303E
1834.69	0.129	1840104	WORD_OFF	n/a	n/a	COFFEE	n/a	12	14	[0, 0, 0]	n/a	catFR1	0	R1303E
1834.819	0.001	1840233	DISTRACT_START	n/a	n/a	n/a	n/a	-999	14	[0, 0, 0]	n/a	catFR1	0	R1303E
1834.82	0.02	1840234	START	n/a	n/a	n/a	n/a	-999	14	[-999, -999, -999]	n/a	catFR1	0	R1303E
1834.84	7.068	1840254	PROB	7.068	n/a	n/a	n/a	-999	14	[2, 3, 8]	13	catFR1	0	R1303E
1841.908	8.368	1847322	PROB	8.368	n/a	n/a	n/a	-999	14	[1, 7, 5]	13	catFR1	0	R1303E
1850.276	4.034	1855689	PROB	4.034	n/a	n/a	n/a	-999	14	[8, 2, 9]	19	catFR1	0	R1303E
1854.31	7.72	1859723	PROB	7.72	n/a	n/a	n/a	-999	14	[2, 4, 3]	9	catFR1	0	R1303E
1862.03	0.014	1867443	STOP	n/a	n/a	n/a	n/a	-999	14	[-999, -999, -999]	n/a	catFR1	0	R1303E
1862.044	0.584	1867457	DISTRACT_END	n/a	n/a	n/a	n/a	-999	14	[0, 0, 0]	n/a	catFR1	0	R1303E
1862.628	0.516	1868041	RETRIEVAL_ORIENT	n/a	n/a	n/a	n/a	-999	14	[0, 0, 0]	n/a	catFR1	0	R1303E
1863.144	4.261	1868557	REC_START	n/a	n/a	n/a	n/a	-999	14	[0, 0, 0]	n/a	catFR1	0	R1303E
1867.405	1.138	1872818	REC_WORD	1.138	n/a	CIDER	Beverages	5	14	[0, 0, 0]	n/a	catFR1	0	R1303E
1868.543	4.48	1873956	REC_WORD	4.48	n/a	MEAL	n/a	-999	14	[0, 0, 0]	n/a	catFR1	0	R1303E
1873.023	1.639	1878436	REC_WORD	1.639	n/a	FREEZER	Appliances	9	14	[0, 0, 0]	n/a	catFR1	0	R1303E
1874.662	13.016	1880075	REC_WORD	13.016	n/a	REFRIGERATOR	n/a	-999	14	[0, 0, 0]	n/a	catFR1	0	R1303E
1887.678	5.478	1893090	REC_WORD	5.478	n/a	SOFA	n/a	-999	14	[0, 0, 0]	n/a	catFR1	0	R1303E
1893.156	5.228	1898568	REC_END	n/a	n/a	n/a	n/a	-999	14	[0, 0, 0]	n/a	catFR1	0	R1303E
1898.384	0.5	1903796	TRIAL	n/a	n/a	n/a	n/a	-999	15	[0, 0, 0]	n/a	catFR1	0	R1303E
1898.884	10.428	1904296	COUNTDOWN_START	n/a	n/a	n/a	n/a	-999	15	[0, 0, 0]	n/a	catFR1	0	R1303E
1909.312	0.008	1914723	COUNTDOWN_END	n/a	n/a	n/a	n/a	-999	15	[0, 0, 0]	n/a	catFR1	0	R1303E
1909.32	1.617	1914731	ORIENT	n/a	n/a	n/a	n/a	-999	15	[0, 0, 0]	n/a	catFR1	0	R1303E
1910.937	2.033	1916348	ORIENT_OFF	n/a	n/a	n/a	n/a	-999	15	[0, 0, 0]	n/a	catFR1	0	R1303E
1912.97	1.617	1918381	WORD	n/a	wordpools/wordpool_categorized_EN.txt	CHEETAH	Zoo	1	15	[0, 0, 0]	n/a	catFR1	0	R1303E
1914.587	0.784	1919998	WORD_OFF	n/a	n/a	CHEETAH	n/a	1	15	[0, 0, 0]	n/a	catFR1	0	R1303E
1915.371	1.617	1920782	WORD	n/a	wordpools/wordpool_categorized_EN.txt	BEAR	Zoo	2	15	[0, 0, 0]	n/a	catFR1	0	R1303E
1916.988	0.883	1922399	WORD_OFF	n/a	n/a	BEAR	n/a	2	15	[0, 0, 0]	n/a	catFR1	0	R1303E
1917.871	1.617	1923282	WORD	n/a	wordpools/wordpool_categorized_EN.txt	SODA	Beverages	3	15	[0, 0, 0]	n/a	catFR1	0	R1303E
1919.488	0.834	1924899	WORD_OFF	n/a	n/a	SODA	n/a	3	15	[0, 0, 0]	n/a	catFR1	0	R1303E
1920.322	1.617	1925733	WORD	n/a	wordpools/wordpool_categorized_EN.txt	WATER	Beverages	4	15	[0, 0, 0]	n/a	catFR1	0	R1303E
1921.939	0.933	1927350	WORD_OFF	n/a	n/a	WATER	n/a	4	15	[0, 0, 0]	n/a	catFR1	0	R1303E
1922.872	1.617	1928283	WORD	n/a	wordpools/wordpool_categorized_EN.txt	DOLLHOUSE	Toys	5	15	[0, 0, 0]	n/a	catFR1	0	R1303E
1924.489	0.834	1929900	WORD_OFF	n/a	n/a	DOLLHOUSE	n/a	5	15	[0, 0, 0]	n/a	catFR1	0	R1303E
1925.323	1.616	1930734	WORD	n/a	wordpools/wordpool_categorized_EN.txt	DOLL	Toys	6	15	[0, 0, 0]	n/a	catFR1	0	R1303E
1926.939	0.967	1932349	WORD_OFF	n/a	n/a	DOLL	n/a	6	15	[0, 0, 0]	n/a	catFR1	0	R1303E
1927.906	1.617	1933316	WORD	n/a	wordpools/wordpool_categorized_EN.txt	CHIMPANZEE	Zoo	7	15	[0, 0, 0]	n/a	catFR1	0	R1303E
1929.523	0.817	1934933	WORD_OFF	n/a	n/a	CHIMPANZEE	n/a	7	15	[0, 0, 0]	n/a	catFR1	0	R1303E
1930.34	1.617	1935750	WORD	n/a	wordpools/wordpool_categorized_EN.txt	ORANGUTAN	Zoo	8	15	[0, 0, 0]	n/a	catFR1	0	R1303E
1931.957	0.883	1937367	WORD_OFF	n/a	n/a	ORANGUTAN	n/a	8	15	[0, 0, 0]	n/a	catFR1	0	R1303E
1932.84	1.617	1938250	WORD	n/a	wordpools/wordpool_categorized_EN.txt	JUICE	Beverages	9	15	[0, 0, 0]	n/a	catFR1	0	R1303E
1934.457	0.817	1939867	WORD_OFF	n/a	n/a	JUICE	n/a	9	15	[0, 0, 0]	n/a	catFR1	0	R1303E
1935.274	1.617	1940684	WORD	n/a	wordpools/wordpool_categorized_EN.txt	TEA	Beverages	10	15	[0, 0, 0]	n/a	catFR1	0	R1303E
1936.891	0.8	1942301	WORD_OFF	n/a	n/a	TEA	n/a	10	15	[0, 0, 0]	n/a	catFR1	0	R1303E
1937.691	1.617	1943101	WORD	n/a	wordpools/wordpool_categorized_EN.txt	MARBLES	Toys	11	15	[0, 0, 0]	n/a	catFR1	0	R1303E
1939.308	0.933	1944718	WORD_OFF	n/a	n/a	MARBLES	n/a	11	15	[0, 0, 0]	n/a	catFR1	0	R1303E
1940.241	1.618	1945651	WORD	n/a	wordpools/wordpool_categorized_EN.txt	BASKETBALL	Toys	12	15	[0, 0, 0]	n/a	catFR1	0	R1303E
1941.859	0.0	1947269	WORD_OFF	n/a	n/a	BASKETBALL	n/a	12	15	[0, 0, 0]	n/a	catFR1	0	R1303E
1941.859	0.094	1947269	ENCODING_END	n/a	n/a	n/a	n/a	-999	15	[0, 0, 0]	n/a	catFR1	0	R1303E
1941.953	0.0	1947363	DISTRACT_START	n/a	n/a	n/a	n/a	-999	15	[0, 0, 0]	n/a	catFR1	0	R1303E
1941.953	0.022	1947363	START	n/a	n/a	n/a	n/a	-999	15	[-999, -999, -999]	n/a	catFR1	0	R1303E
1941.975	6.968	1947385	PROB	6.968	n/a	n/a	n/a	-999	15	[4, 5, 5]	14	catFR1	0	R1303E
1948.943	3.984	1954353	PROB	3.984	n/a	n/a	n/a	-999	15	[7, 8, 8]	22	catFR1	0	R1303E
1952.927	5.651	1958336	PROB	5.651	n/a	n/a	n/a	-999	15	[2, 3, 2]	7	catFR1	0	R1303E
1958.578	8.623	1963987	PROB	8.623	n/a	n/a	n/a	-999	15	[8, 7, 8]	22	catFR1	0	R1303E
1967.201	0.012	1972610	STOP	n/a	n/a	n/a	n/a	-999	15	[-999, -999, -999]	n/a	catFR1	0	R1303E
1967.213	0.617	1972622	DISTRACT_END	n/a	n/a	n/a	n/a	-999	15	[0, 0, 0]	n/a	catFR1	0	R1303E
1967.83	0.517	1973239	RETRIEVAL_ORIENT	n/a	n/a	n/a	n/a	-999	15	[0, 0, 0]	n/a	catFR1	0	R1303E
1968.347	5.725	1973756	REC_START	n/a	n/a	n/a	n/a	-999	15	[0, 0, 0]	n/a	catFR1	0	R1303E
1974.072	0.8	1979481	REC_WORD	0.8	n/a	CHEETAH	Zoo	1	15	[0, 0, 0]	n/a	catFR1	0	R1303E
1974.872	2.55	1980281	REC_WORD	2.55	n/a	ORANGUTAN	Zoo	8	15	[0, 0, 0]	n/a	catFR1	0	R1303E
1977.422	1.221	1982830	REC_WORD	1.221	n/a	JUICE	Beverages	9	15	[0, 0, 0]	n/a	catFR1	0	R1303E
1978.643	18.307	1984051	REC_WORD	18.307	n/a	WATER	Beverages	4	15	[0, 0, 0]	n/a	catFR1	0	R1303E
1996.95	1.408	2002358	REC_WORD	1.408	n/a	CHIMPANZEE	Zoo	7	15	[0, 0, 0]	n/a	catFR1	0	R1303E
1998.358	5.811	2003766	REC_END	n/a	n/a	n/a	n/a	-999	15	[0, 0, 0]	n/a	catFR1	0	R1303E
2004.169	0.5	2009576	TRIAL	n/a	n/a	n/a	n/a	-999	16	[0, 0, 0]	n/a	catFR1	0	R1303E
2004.669	10.428	2010076	COUNTDOWN_START	n/a	n/a	n/a	n/a	-999	16	[0, 0, 0]	n/a	catFR1	0	R1303E
2015.097	0.007	2020504	COUNTDOWN_END	n/a	n/a	n/a	n/a	-999	16	[0, 0, 0]	n/a	catFR1	0	R1303E
2015.104	1.618	2020511	ORIENT	n/a	n/a	n/a	n/a	-999	16	[0, 0, 0]	n/a	catFR1	0	R1303E
2016.722	2.034	2022129	ORIENT_OFF	n/a	n/a	n/a	n/a	-999	16	[0, 0, 0]	n/a	catFR1	0	R1303E
2018.756	1.616	2024163	WORD	n/a	wordpools/wordpool_categorized_EN.txt	CALCULATOR	Electronics	1	16	[0, 0, 0]	n/a	catFR1	0	R1303E
2020.372	0.934	2025779	WORD_OFF	n/a	n/a	CALCULATOR	n/a	1	16	[0, 0, 0]	n/a	catFR1	0	R1303E
2021.306	1.617	2026713	WORD	n/a	wordpools/wordpool_categorized_EN.txt	SPEAKER	Electronics	2	16	[0, 0, 0]	n/a	catFR1	0	R1303E
2022.923	0.85	2028330	WORD_OFF	n/a	n/a	SPEAKER	n/a	2	16	[0, 0, 0]	n/a	catFR1	0	R1303E
2023.773	1.617	2029180	WORD	n/a	wordpools/wordpool_categorized_EN.txt	HICKORY	Trees	3	16	[0, 0, 0]	n/a	catFR1	0	R1303E
2025.39	0.984	2030797	WORD_OFF	n/a	n/a	HICKORY	n/a	3	16	[0, 0, 0]	n/a	catFR1	0	R1303E
2026.374	1.616	2031781	WORD	n/a	wordpools/wordpool_categorized_EN.txt	CYPRESS	Trees	4	16	[0, 0, 0]	n/a	catFR1	0	R1303E
2027.99	0.967	2033396	WORD_OFF	n/a	n/a	CYPRESS	n/a	4	16	[0, 0, 0]	n/a	catFR1	0	R1303E
2028.957	1.617	2034363	WORD	n/a	wordpools/wordpool_categorized_EN.txt	PLANE	Vehicles	5	16	[0, 0, 0]	n/a	catFR1	0	R1303E
2030.574	0.817	2035980	WORD_OFF	n/a	n/a	PLANE	n/a	5	16	[0, 0, 0]	n/a	catFR1	0	R1303E
2031.391	1.616	2036797	WORD	n/a	wordpools/wordpool_categorized_EN.txt	JEEP	Vehicles	6	16	[0, 0, 0]	n/a	catFR1	0	R1303E
2033.007	0.968	2038413	WORD_OFF	n/a	n/a	JEEP	n/a	6	16	[0, 0, 0]	n/a	catFR1	0	R1303E
2033.975	1.617	2039381	WORD	n/a	wordpools/wordpool_categorized_EN.txt	HEADPHONES	Electronics	7	16	[0, 0, 0]	n/a	catFR1	0	R1303E
2035.592	0.817	2040998	WORD_OFF	n/a	n/a	HEADPHONES	n/a	7	16	[0, 0, 0]	n/a	catFR1	0	R1303E
2036.409	1.616	2041815	WORD	n/a	wordpools/wordpool_categorized_EN.txt	TELEVISION	Electronics	8	16	[0, 0, 0]	n/a	catFR1	0	R1303E
2038.025	1.016	2043431	WORD_OFF	n/a	n/a	TELEVISION	n/a	8	16	[0, 0, 0]	n/a	catFR1	0	R1303E
2039.041	1.601	2044447	WORD	n/a	wordpools/wordpool_categorized_EN.txt	CEDAR	Trees	9	16	[0, 0, 0]	n/a	catFR1	0	R1303E
2040.642	0.834	2046048	WORD_OFF	n/a	n/a	CEDAR	n/a	9	16	[0, 0, 0]	n/a	catFR1	0	R1303E
2041.476	1.616	2046882	WORD	n/a	wordpools/wordpool_categorized_EN.txt	WILLOW	Trees	10	16	[0, 0, 0]	n/a	catFR1	0	R1303E
2043.092	0.917	2048498	WORD_OFF	n/a	n/a	WILLOW	n/a	10	16	[0, 0, 0]	n/a	catFR1	0	R1303E
2044.009	1.618	2049415	WORD	n/a	wordpools/wordpool_categorized_EN.txt	VAN	Vehicles	11	16	[0, 0, 0]	n/a	catFR1	0	R1303E
2045.627	0.783	2051033	WORD_OFF	n/a	n/a	VAN	n/a	11	16	[0, 0, 0]	n/a	catFR1	0	R1303E
2046.41	1.616	2051816	WORD	n/a	wordpools/wordpool_categorized_EN.txt	MOTORCYCLE	Vehicles	12	16	[0, 0, 0]	n/a	catFR1	0	R1303E
2048.026	0.001	2053432	WORD_OFF	n/a	n/a	MOTORCYCLE	n/a	12	16	[0, 0, 0]	n/a	catFR1	0	R1303E
2048.027	0.094	2053433	ENCODING_END	n/a	n/a	n/a	n/a	-999	16	[0, 0, 0]	n/a	catFR1	0	R1303E
2048.121	0.0	2053527	DISTRACT_START	n/a	n/a	n/a	n/a	-999	16	[0, 0, 0]	n/a	catFR1	0	R1303E
2048.121	0.022	2053527	START	n/a	n/a	n/a	n/a	-999	16	[-999, -999, -999]	n/a	catFR1	0	R1303E
2048.143	5.135	2053549	PROB	5.135	n/a	n/a	n/a	-999	16	[2, 8, 3]	13	catFR1	0	R1303E
2053.278	6.135	2058683	PROB	6.135	n/a	n/a	n/a	-999	16	[7, 4, 5]	15	catFR1	0	R1303E
2059.413	4.417	2064818	PROB	4.417	n/a	n/a	n/a	-999	16	[2, 3, 8]	13	catFR1	0	R1303E
2063.83	5.768	2069235	PROB	5.768	n/a	n/a	n/a	-999	16	[6, 2, 3]	11	catFR1	0	R1303E
2069.598	0.017	2075003	STOP	n/a	n/a	n/a	n/a	-999	16	[-999, -999, -999]	n/a	catFR1	0	R1303E
2069.615	0.616	2075020	DISTRACT_END	n/a	n/a	n/a	n/a	-999	16	[0, 0, 0]	n/a	catFR1	0	R1303E
2070.231	0.518	2075636	RETRIEVAL_ORIENT	n/a	n/a	n/a	n/a	-999	16	[0, 0, 0]	n/a	catFR1	0	R1303E
2070.749	6.449	2076154	REC_START	n/a	n/a	n/a	n/a	-999	16	[0, 0, 0]	n/a	catFR1	0	R1303E
2077.198	2.596	2082603	REC_WORD	2.596	n/a	HELICOPTER	n/a	-999	16	[0, 0, 0]	n/a	catFR1	0	R1303E
2079.794	3.93	2085198	REC_WORD	3.93	n/a	PLANE	Vehicles	5	16	[0, 0, 0]	n/a	catFR1	0	R1303E
2083.724	5.136	2089128	REC_WORD	5.136	n/a	COMPUTER	n/a	-999	16	[0, 0, 0]	n/a	catFR1	0	R1303E
2088.86	1.498	2094264	REC_WORD	1.498	n/a	ELM	n/a	-999	16	[0, 0, 0]	n/a	catFR1	0	R1303E
2090.358	2.584	2095762	REC_WORD	2.584	n/a	CEDAR	Trees	9	16	[0, 0, 0]	n/a	catFR1	0	R1303E
2092.942	7.817	2098346	REC_WORD	7.817	n/a	EVERGREEN	n/a	-999	16	[0, 0, 0]	n/a	catFR1	0	R1303E
2100.759	5.212	2106163	REC_END	n/a	n/a	n/a	n/a	-999	16	[0, 0, 0]	n/a	catFR1	0	R1303E
2105.971	0.5	2111374	TRIAL	n/a	n/a	n/a	n/a	-999	17	[0, 0, 0]	n/a	catFR1	0	R1303E
2106.471	10.428	2111874	COUNTDOWN_START	n/a	n/a	n/a	n/a	-999	17	[0, 0, 0]	n/a	catFR1	0	R1303E
2116.899	0.007	2122302	COUNTDOWN_END	n/a	n/a	n/a	n/a	-999	17	[0, 0, 0]	n/a	catFR1	0	R1303E
2116.906	1.617	2122309	ORIENT	n/a	n/a	n/a	n/a	-999	17	[0, 0, 0]	n/a	catFR1	0	R1303E
2118.523	2.117	2123926	ORIENT_OFF	n/a	n/a	n/a	n/a	-999	17	[0, 0, 0]	n/a	catFR1	0	R1303E
2120.64	1.617	2126043	WORD	n/a	wordpools/wordpool_categorized_EN.txt	ROACH	Insects	1	17	[0, 0, 0]	n/a	catFR1	0	R1303E
2122.257	0.883	2127660	WORD_OFF	n/a	n/a	ROACH	n/a	1	17	[0, 0, 0]	n/a	catFR1	0	R1303E
2123.14	1.618	2128543	WORD	n/a	wordpools/wordpool_categorized_EN.txt	FLY	Insects	2	17	[0, 0, 0]	n/a	catFR1	0	R1303E
2124.758	0.8	2130161	WORD_OFF	n/a	n/a	FLY	n/a	2	17	[0, 0, 0]	n/a	catFR1	0	R1303E
2125.558	1.617	2130961	WORD	n/a	wordpools/wordpool_categorized_EN.txt	ELEPHANT	Zoo	3	17	[0, 0, 0]	n/a	catFR1	0	R1303E
2127.175	0.849	2132578	WORD_OFF	n/a	n/a	ELEPHANT	n/a	3	17	[0, 0, 0]	n/a	catFR1	0	R1303E
2128.024	1.618	2133427	WORD	n/a	wordpools/wordpool_categorized_EN.txt	GORILLA	Zoo	4	17	[0, 0, 0]	n/a	catFR1	0	R1303E
2129.642	0.767	2135044	WORD_OFF	n/a	n/a	GORILLA	n/a	4	17	[0, 0, 0]	n/a	catFR1	0	R1303E
2130.409	1.616	2135811	WORD	n/a	wordpools/wordpool_categorized_EN.txt	RATCHET	Tools	5	17	[0, 0, 0]	n/a	catFR1	0	R1303E
2132.025	0.867	2137427	WORD_OFF	n/a	n/a	RATCHET	n/a	5	17	[0, 0, 0]	n/a	catFR1	0	R1303E
2132.892	1.617	2138294	WORD	n/a	wordpools/wordpool_categorized_EN.txt	SANDER	Tools	6	17	[0, 0, 0]	n/a	catFR1	0	R1303E
2134.509	0.917	2139911	WORD_OFF	n/a	n/a	SANDER	n/a	6	17	[0, 0, 0]	n/a	catFR1	0	R1303E
2135.426	1.616	2140828	WORD	n/a	wordpools/wordpool_categorized_EN.txt	GIRAFFE	Zoo	7	17	[0, 0, 0]	n/a	catFR1	0	R1303E
2137.042	0.885	2142444	WORD_OFF	n/a	n/a	GIRAFFE	n/a	7	17	[0, 0, 0]	n/a	catFR1	0	R1303E
2137.927	1.616	2143329	WORD	n/a	wordpools/wordpool_categorized_EN.txt	LION	Zoo	8	17	[0, 0, 0]	n/a	catFR1	0	R1303E
2139.543	0.817	2144945	WORD_OFF	n/a	n/a	LION	n/a	8	17	[0, 0, 0]	n/a	catFR1	0	R1303E
2140.36	1.617	2145762	WORD	n/a	wordpools/wordpool_categorized_EN.txt	GNAT	Insects	9	17	[0, 0, 0]	n/a	catFR1	0	R1303E
2141.977	0.85	2147379	WORD_OFF	n/a	n/a	GNAT	n/a	9	17	[0, 0, 0]	n/a	catFR1	0	R1303E
2142.827	1.617	2148229	WORD	n/a	wordpools/wordpool_categorized_EN.txt	ANT	Insects	10	17	[0, 0, 0]	n/a	catFR1	0	R1303E
2144.444	0.867	2149846	WORD_OFF	n/a	n/a	ANT	n/a	10	17	[0, 0, 0]	n/a	catFR1	0	R1303E
2145.311	1.617	2150713	WORD	n/a	wordpools/wordpool_categorized_EN.txt	SAW	Tools	11	17	[0, 0, 0]	n/a	catFR1	0	R1303E
2146.928	0.834	2152330	WORD_OFF	n/a	n/a	SAW	n/a	11	17	[0, 0, 0]	n/a	catFR1	0	R1303E
2147.762	1.617	2153164	WORD	n/a	wordpools/wordpool_categorized_EN.txt	DRILL	Tools	12	17	[0, 0, 0]	n/a	catFR1	0	R1303E
2149.379	0.0	2154781	ENCODING_END	n/a	n/a	n/a	n/a	-999	17	[0, 0, 0]	n/a	catFR1	0	R1303E
2149.379	0.131	2154781	WORD_OFF	n/a	n/a	DRILL	n/a	12	17	[0, 0, 0]	n/a	catFR1	0	R1303E
2149.51	0.0	2154912	DISTRACT_START	n/a	n/a	n/a	n/a	-999	17	[0, 0, 0]	n/a	catFR1	0	R1303E
2149.51	0.019	2154912	START	n/a	n/a	n/a	n/a	-999	17	[-999, -999, -999]	n/a	catFR1	0	R1303E
2149.529	4.549	2154931	PROB	4.549	n/a	n/a	n/a	-999	17	[5, 3, 3]	11	catFR1	0	R1303E
2154.078	3.435	2159479	PROB	3.435	n/a	n/a	n/a	-999	17	[9, 1, 4]	14	catFR1	0	R1303E
2157.513	4.101	2162914	PROB	4.101	n/a	n/a	n/a	-999	17	[5, 1, 6]	12	catFR1	0	R1303E
2161.614	7.975	2167015	PROB	7.975	n/a	n/a	n/a	-999	17	[7, 6, 8]	19	catFR1	0	R1303E
2169.589	0.01	2174990	STOP	n/a	n/a	n/a	n/a	-999	17	[-999, -999, -999]	n/a	catFR1	0	R1303E
2169.599	0.565	2175000	DISTRACT_END	n/a	n/a	n/a	n/a	-999	17	[0, 0, 0]	n/a	catFR1	0	R1303E
2170.164	0.519	2175565	RETRIEVAL_ORIENT	n/a	n/a	n/a	n/a	-999	17	[0, 0, 0]	n/a	catFR1	0	R1303E
2170.683	8.126	2176084	REC_START	n/a	n/a	n/a	n/a	-999	17	[0, 0, 0]	n/a	catFR1	0	R1303E
2178.809	2.387	2184209	REC_WORD	2.387	n/a	GNAT	Insects	9	17	[0, 0, 0]	n/a	catFR1	0	R1303E
2181.196	2.748	2186596	REC_WORD	2.748	n/a	MOSQUITO	n/a	-999	17	[0, 0, 0]	n/a	catFR1	0	R1303E
2183.944	1.058	2189344	REC_WORD	1.058	n/a	GIRAFFE	Zoo	7	17	[0, 0, 0]	n/a	catFR1	0	R1303E
2185.002	7.513	2190402	REC_WORD	7.513	n/a	LION	Zoo	8	17	[0, 0, 0]	n/a	catFR1	0	R1303E
2192.515	1.0	2197915	REC_WORD_VV	1.0	n/a	<>	n/a	-999	17	[0, 0, 0]	n/a	catFR1	0	R1303E
2193.515	1.871	2198915	REC_WORD_VV	1.871	n/a	<>	n/a	-999	17	[0, 0, 0]	n/a	catFR1	0	R1303E
2195.386	5.308	2200786	REC_WORD	5.308	n/a	GORILLA	Zoo	4	17	[0, 0, 0]	n/a	catFR1	0	R1303E
2200.694	5.028	2206094	REC_END	n/a	n/a	n/a	n/a	-999	17	[0, 0, 0]	n/a	catFR1	0	R1303E
2205.722	0.5	2211121	TRIAL	n/a	n/a	n/a	n/a	-999	18	[0, 0, 0]	n/a	catFR1	0	R1303E
2206.222	10.428	2211621	COUNTDOWN_START	n/a	n/a	n/a	n/a	-999	18	[0, 0, 0]	n/a	catFR1	0	R1303E
2216.65	0.007	2222049	COUNTDOWN_END	n/a	n/a	n/a	n/a	-999	18	[0, 0, 0]	n/a	catFR1	0	R1303E
2216.657	1.617	2222056	ORIENT	n/a	n/a	n/a	n/a	-999	18	[0, 0, 0]	n/a	catFR1	0	R1303E
2218.274	2.15	2223673	ORIENT_OFF	n/a	n/a	n/a	n/a	-999	18	[0, 0, 0]	n/a	catFR1	0	R1303E
2220.424	1.616	2225823	WORD	n/a	wordpools/wordpool_categorized_EN.txt	STRAINER	KitchenTools	1	18	[0, 0, 0]	n/a	catFR1	0	R1303E
2222.04	0.935	2227439	WORD_OFF	n/a	n/a	STRAINER	n/a	1	18	[0, 0, 0]	n/a	catFR1	0	R1303E
2222.975	1.617	2228374	WORD	n/a	wordpools/wordpool_categorized_EN.txt	GRATER	KitchenTools	2	18	[0, 0, 0]	n/a	catFR1	0	R1303E
2224.592	0.917	2229991	WORD_OFF	n/a	n/a	GRATER	n/a	2	18	[0, 0, 0]	n/a	catFR1	0	R1303E
2225.509	1.616	2230908	WORD	n/a	wordpools/wordpool_categorized_EN.txt	SCREWDRIVER	Tools	3	18	[0, 0, 0]	n/a	catFR1	0	R1303E
2227.125	0.883	2232524	WORD_OFF	n/a	n/a	SCREWDRIVER	n/a	3	18	[0, 0, 0]	n/a	catFR1	0	R1303E
2228.008	1.618	2233407	WORD	n/a	wordpools/wordpool_categorized_EN.txt	SHOVEL	Tools	4	18	[0, 0, 0]	n/a	catFR1	0	R1303E
2229.626	0.8	2235024	WORD_OFF	n/a	n/a	SHOVEL	n/a	4	18	[0, 0, 0]	n/a	catFR1	0	R1303E
2230.426	1.616	2235824	WORD	n/a	wordpools/wordpool_categorized_EN.txt	BLUEBERRY	Fruit	5	18	[0, 0, 0]	n/a	catFR1	0	R1303E
2232.042	0.818	2237440	WORD_OFF	n/a	n/a	BLUEBERRY	n/a	5	18	[0, 0, 0]	n/a	catFR1	0	R1303E
2232.86	1.617	2238258	WORD	n/a	wordpools/wordpool_categorized_EN.txt	GRAPE	Fruit	6	18	[0, 0, 0]	n/a	catFR1	0	R1303E
2234.477	0.783	2239875	WORD_OFF	n/a	n/a	GRAPE	n/a	6	18	[0, 0, 0]	n/a	catFR1	0	R1303E
2235.26	1.617	2240658	WORD	n/a	wordpools/wordpool_categorized_EN.txt	PEELER	KitchenTools	7	18	[0, 0, 0]	n/a	catFR1	0	R1303E
2236.877	0.917	2242275	WORD_OFF	n/a	n/a	PEELER	n/a	7	18	[0, 0, 0]	n/a	catFR1	0	R1303E
2237.794	1.617	2243192	WORD	n/a	wordpools/wordpool_categorized_EN.txt	LADLE	KitchenTools	8	18	[0, 0, 0]	n/a	catFR1	0	R1303E
2239.411	0.85	2244809	WORD_OFF	n/a	n/a	LADLE	n/a	8	18	[0, 0, 0]	n/a	catFR1	0	R1303E
2240.261	1.617	2245659	WORD	n/a	wordpools/wordpool_categorized_EN.txt	HAMMER	Tools	9	18	[0, 0, 0]	n/a	catFR1	0	R1303E
2241.878	1.0	2247276	WORD_OFF	n/a	n/a	HAMMER	n/a	9	18	[0, 0, 0]	n/a	catFR1	0	R1303E
2242.878	1.617	2248276	WORD	n/a	wordpools/wordpool_categorized_EN.txt	LEVEL	Tools	10	18	[0, 0, 0]	n/a	catFR1	0	R1303E
2244.495	0.967	2249893	WORD_OFF	n/a	n/a	LEVEL	n/a	10	18	[0, 0, 0]	n/a	catFR1	0	R1303E
2245.462	1.616	2250860	WORD	n/a	wordpools/wordpool_categorized_EN.txt	ORANGE	Fruit	11	18	[0, 0, 0]	n/a	catFR1	0	R1303E
2247.078	0.934	2252476	WORD_OFF	n/a	n/a	ORANGE	n/a	11	18	[0, 0, 0]	n/a	catFR1	0	R1303E
2248.012	1.617	2253410	WORD	n/a	wordpools/wordpool_categorized_EN.txt	STRAWBERRY	Fruit	12	18	[0, 0, 0]	n/a	catFR1	0	R1303E
2249.629	0.001	2255027	WORD_OFF	n/a	n/a	STRAWBERRY	n/a	12	18	[0, 0, 0]	n/a	catFR1	0	R1303E
2249.63	0.093	2255028	ENCODING_END	n/a	n/a	n/a	n/a	-999	18	[0, 0, 0]	n/a	catFR1	0	R1303E
2249.723	0.0	2255121	DISTRACT_START	n/a	n/a	n/a	n/a	-999	18	[0, 0, 0]	n/a	catFR1	0	R1303E
2249.723	0.023	2255121	START	n/a	n/a	n/a	n/a	-999	18	[-999, -999, -999]	n/a	catFR1	0	R1303E
2249.746	6.668	2255144	PROB	6.668	n/a	n/a	n/a	-999	18	[6, 2, 6]	14	catFR1	0	R1303E
2256.414	3.451	2261811	PROB	3.451	n/a	n/a	n/a	-999	18	[2, 8, 6]	16	catFR1	0	R1303E
2259.865	5.0	2265262	PROB	5.0	n/a	n/a	n/a	-999	18	[5, 3, 8]	16	catFR1	0	R1303E
2264.865	3.501	2270262	PROB	3.501	n/a	n/a	n/a	-999	18	[5, 6, 1]	12	catFR1	0	R1303E
2268.366	5.014	2273763	PROB	5.014	n/a	n/a	n/a	-999	18	[2, 4, 8]	14	catFR1	0	R1303E
2273.38	0.021	2278777	STOP	n/a	n/a	n/a	n/a	-999	18	[-999, -999, -999]	n/a	catFR1	0	R1303E
2273.401	0.549	2278798	DISTRACT_END	n/a	n/a	n/a	n/a	-999	18	[0, 0, 0]	n/a	catFR1	0	R1303E
2273.95	0.518	2279347	RETRIEVAL_ORIENT	n/a	n/a	n/a	n/a	-999	18	[0, 0, 0]	n/a	catFR1	0	R1303E
2274.468	7.522	2279865	REC_START	n/a	n/a	n/a	n/a	-999	18	[0, 0, 0]	n/a	catFR1	0	R1303E
2281.99	6.876	2287386	REC_WORD	6.876	n/a	STRAINER	KitchenTools	1	18	[0, 0, 0]	n/a	catFR1	0	R1303E
2288.866	6.277	2294262	REC_WORD	6.277	n/a	LADLE	KitchenTools	8	18	[0, 0, 0]	n/a	catFR1	0	R1303E
2295.143	1.362	2300539	REC_WORD_VV	1.362	n/a	<>	n/a	-999	18	[0, 0, 0]	n/a	catFR1	0	R1303E
2296.505	1.46	2301901	REC_WORD	1.46	n/a	REFRIGERATOR	n/a	-999	18	[0, 0, 0]	n/a	catFR1	0	R1303E
2297.965	1.685	2303361	REC_WORD	1.685	n/a	COMPUTER	n/a	-999	18	[0, 0, 0]	n/a	catFR1	0	R1303E
2299.65	1.588	2305046	REC_WORD_VV	1.588	n/a	<>	n/a	-999	18	[0, 0, 0]	n/a	catFR1	0	R1303E
2301.238	1.373	2306634	REC_WORD	1.373	n/a	PLANE	n/a	-999	18	[0, 0, 0]	n/a	catFR1	0	R1303E
2302.611	1.867	2308007	REC_WORD	1.867	n/a	SAW	n/a	-999	18	[0, 0, 0]	n/a	catFR1	0	R1303E
2304.478	19.715	2309874	REC_END	n/a	n/a	n/a	n/a	-999	18	[0, 0, 0]	n/a	catFR1	0	R1303E
2324.193	0.5	2329588	TRIAL	n/a	n/a	n/a	n/a	-999	19	[0, 0, 0]	n/a	catFR1	0	R1303E
2324.693	10.428	2330088	COUNTDOWN_START	n/a	n/a	n/a	n/a	-999	19	[0, 0, 0]	n/a	catFR1	0	R1303E
2335.121	0.006	2340515	COUNTDOWN_END	n/a	n/a	n/a	n/a	-999	19	[0, 0, 0]	n/a	catFR1	0	R1303E
2335.127	1.618	2340521	ORIENT	n/a	n/a	n/a	n/a	-999	19	[0, 0, 0]	n/a	catFR1	0	R1303E
2336.745	2.15	2342139	ORIENT_OFF	n/a	n/a	n/a	n/a	-999	19	[0, 0, 0]	n/a	catFR1	0	R1303E
2338.895	1.617	2344289	WORD	n/a	wordpools/wordpool_categorized_EN.txt	RUM	Beverages	1	19	[0, 0, 0]	n/a	catFR1	0	R1303E
2340.512	0.917	2345906	WORD_OFF	n/a	n/a	RUM	n/a	1	19	[0, 0, 0]	n/a	catFR1	0	R1303E
2341.429	1.616	2346823	WORD	n/a	wordpools/wordpool_categorized_EN.txt	LEMONADE	Beverages	2	19	[0, 0, 0]	n/a	catFR1	0	R1303E
2343.045	0.918	2348439	WORD_OFF	n/a	n/a	LEMONADE	n/a	2	19	[0, 0, 0]	n/a	catFR1	0	R1303E
2343.963	1.617	2349357	WORD	n/a	wordpools/wordpool_categorized_EN.txt	VALLEY	Landscapes	3	19	[0, 0, 0]	n/a	catFR1	0	R1303E
2345.58	0.867	2350974	WORD_OFF	n/a	n/a	VALLEY	n/a	3	19	[0, 0, 0]	n/a	catFR1	0	R1303E
2346.447	1.616	2351841	WORD	n/a	wordpools/wordpool_categorized_EN.txt	OCEAN	Landscapes	4	19	[0, 0, 0]	n/a	catFR1	0	R1303E
2348.063	1.0	2353457	WORD_OFF	n/a	n/a	OCEAN	n/a	4	19	[0, 0, 0]	n/a	catFR1	0	R1303E
2349.063	1.618	2354457	WORD	n/a	wordpools/wordpool_categorized_EN.txt	CORKSCREW	KitchenTools	5	19	[0, 0, 0]	n/a	catFR1	0	R1303E
2350.681	0.866	2356075	WORD_OFF	n/a	n/a	CORKSCREW	n/a	5	19	[0, 0, 0]	n/a	catFR1	0	R1303E
2351.547	1.616	2356941	WORD	n/a	wordpools/wordpool_categorized_EN.txt	SPATULA	KitchenTools	6	19	[0, 0, 0]	n/a	catFR1	0	R1303E
2353.163	0.901	2358557	WORD_OFF	n/a	n/a	SPATULA	n/a	6	19	[0, 0, 0]	n/a	catFR1	0	R1303E
2354.064	1.617	2359458	WORD	n/a	wordpools/wordpool_categorized_EN.txt	WINE	Beverages	7	19	[0, 0, 0]	n/a	catFR1	0	R1303E
2355.681	0.851	2361075	WORD_OFF	n/a	n/a	WINE	n/a	7	19	[0, 0, 0]	n/a	catFR1	0	R1303E
2356.532	1.616	2361925	WORD	n/a	wordpools/wordpool_categorized_EN.txt	BEER	Beverages	8	19	[0, 0, 0]	n/a	catFR1	0	R1303E
2358.148	0.883	2363541	WORD_OFF	n/a	n/a	BEER	n/a	8	19	[0, 0, 0]	n/a	catFR1	0	R1303E
2359.031	1.618	2364424	WORD	n/a	wordpools/wordpool_categorized_EN.txt	HILLS	Landscapes	9	19	[0, 0, 0]	n/a	catFR1	0	R1303E
2360.649	0.9	2366042	WORD_OFF	n/a	n/a	HILLS	n/a	9	19	[0, 0, 0]	n/a	catFR1	0	R1303E
2361.549	1.616	2366942	WORD	n/a	wordpools/wordpool_categorized_EN.txt	ISLAND	Landscapes	10	19	[0, 0, 0]	n/a	catFR1	0	R1303E
2363.165	0.95	2368558	WORD_OFF	n/a	n/a	ISLAND	n/a	10	19	[0, 0, 0]	n/a	catFR1	0	R1303E
2364.115	1.618	2369508	WORD	n/a	wordpools/wordpool_categorized_EN.txt	FORK	KitchenTools	11	19	[0, 0, 0]	n/a	catFR1	0	R1303E
2365.733	0.867	2371126	WORD_OFF	n/a	n/a	FORK	n/a	11	19	[0, 0, 0]	n/a	catFR1	0	R1303E
2366.6	1.617	2371993	WORD	n/a	wordpools/wordpool_categorized_EN.txt	COLANDER	KitchenTools	12	19	[0, 0, 0]	n/a	catFR1	0	R1303E
2368.217	0.0	2373610	ENCODING_END	n/a	n/a	n/a	n/a	-999	19	[0, 0, 0]	n/a	catFR1	0	R1303E
2368.217	0.097	2373610	WORD_OFF	n/a	n/a	COLANDER	n/a	12	19	[0, 0, 0]	n/a	catFR1	0	R1303E
2368.314	0.001	2373707	DISTRACT_START	n/a	n/a	n/a	n/a	-999	19	[0, 0, 0]	n/a	catFR1	0	R1303E
2368.315	0.019	2373708	START	n/a	n/a	n/a	n/a	-999	19	[-999, -999, -999]	n/a	catFR1	0	R1303E
2368.334	8.551	2373727	PROB	8.551	n/a	n/a	n/a	-999	19	[2, 1, 5]	8	catFR1	0	R1303E
2376.885	3.951	2382278	PROB	3.951	n/a	n/a	n/a	-999	19	[7, 9, 8]	22	catFR1	0	R1303E
2380.836	8.032	2386229	PROB	8.032	n/a	n/a	n/a	-999	19	[6, 6, 5]	17	catFR1	0	R1303E
2388.868	0.02	2394260	STOP	n/a	n/a	n/a	n/a	-999	19	[-999, -999, -999]	n/a	catFR1	0	R1303E
2388.888	0.583	2394280	DISTRACT_END	n/a	n/a	n/a	n/a	-999	19	[0, 0, 0]	n/a	catFR1	0	R1303E
2389.471	0.517	2394863	RETRIEVAL_ORIENT	n/a	n/a	n/a	n/a	-999	19	[0, 0, 0]	n/a	catFR1	0	R1303E
2389.988	4.315	2395380	REC_START	n/a	n/a	n/a	n/a	-999	19	[0, 0, 0]	n/a	catFR1	0	R1303E
2394.303	2.998	2399695	REC_WORD	2.998	n/a	RUM	Beverages	1	19	[0, 0, 0]	n/a	catFR1	0	R1303E
2397.301	6.029	2402693	REC_WORD	6.029	n/a	CIDER	n/a	-999	19	[0, 0, 0]	n/a	catFR1	0	R1303E
2403.33	1.188	2408722	REC_WORD	1.188	n/a	MOUNTAIN	n/a	-999	19	[0, 0, 0]	n/a	catFR1	0	R1303E
2404.518	0.698	2409910	REC_WORD	0.698	n/a	HILLS	Landscapes	9	19	[0, 0, 0]	n/a	catFR1	0	R1303E
2405.216	14.781	2410608	REC_WORD	14.781	n/a	TREES	n/a	-999	19	[0, 0, 0]	n/a	catFR1	0	R1303E
2419.997	32.218	2425388	REC_END	n/a	n/a	n/a	n/a	-999	19	[0, 0, 0]	n/a	catFR1	0	R1303E
2452.215	0.5	2457605	TRIAL	n/a	n/a	n/a	n/a	-999	20	[0, 0, 0]	n/a	catFR1	0	R1303E
2452.715	10.428	2458105	COUNTDOWN_START	n/a	n/a	n/a	n/a	-999	20	[0, 0, 0]	n/a	catFR1	0	R1303E
2463.143	0.006	2468532	COUNTDOWN_END	n/a	n/a	n/a	n/a	-999	20	[0, 0, 0]	n/a	catFR1	0	R1303E
2463.149	1.618	2468538	ORIENT	n/a	n/a	n/a	n/a	-999	20	[0, 0, 0]	n/a	catFR1	0	R1303E
2464.767	2.101	2470156	ORIENT_OFF	n/a	n/a	n/a	n/a	-999	20	[0, 0, 0]	n/a	catFR1	0	R1303E
2466.868	1.617	2472257	WORD	n/a	wordpools/wordpool_categorized_EN.txt	TRUCK	Vehicles	1	20	[0, 0, 0]	n/a	catFR1	0	R1303E
2468.485	0.85	2473874	WORD_OFF	n/a	n/a	TRUCK	n/a	1	20	[0, 0, 0]	n/a	catFR1	0	R1303E
2469.335	1.617	2474724	WORD	n/a	wordpools/wordpool_categorized_EN.txt	CAR	Vehicles	2	20	[0, 0, 0]	n/a	catFR1	0	R1303E
2470.952	0.883	2476341	WORD_OFF	n/a	n/a	CAR	n/a	2	20	[0, 0, 0]	n/a	catFR1	0	R1303E
2471.835	1.617	2477224	WORD	n/a	wordpools/wordpool_categorized_EN.txt	SHORTS	Clothing	3	20	[0, 0, 0]	n/a	catFR1	0	R1303E
2473.452	0.834	2478841	WORD_OFF	n/a	n/a	SHORTS	n/a	3	20	[0, 0, 0]	n/a	catFR1	0	R1303E
2474.286	1.617	2479675	WORD	n/a	wordpools/wordpool_categorized_EN.txt	BLOUSE	Clothing	4	20	[0, 0, 0]	n/a	catFR1	0	R1303E
2475.903	0.766	2481292	WORD_OFF	n/a	n/a	BLOUSE	n/a	4	20	[0, 0, 0]	n/a	catFR1	0	R1303E
2476.669	1.617	2482058	WORD	n/a	wordpools/wordpool_categorized_EN.txt	BINDER	OfficeSupplies	5	20	[0, 0, 0]	n/a	catFR1	0	R1303E
2478.286	0.783	2483675	WORD_OFF	n/a	n/a	BINDER	n/a	5	20	[0, 0, 0]	n/a	catFR1	0	R1303E
2479.069	1.618	2484458	WORD	n/a	wordpools/wordpool_categorized_EN.txt	PENCIL	OfficeSupplies	6	20	[0, 0, 0]	n/a	catFR1	0	R1303E
2480.687	0.967	2486076	WORD_OFF	n/a	n/a	PENCIL	n/a	6	20	[0, 0, 0]	n/a	catFR1	0	R1303E
2481.654	1.617	2487043	WORD	n/a	wordpools/wordpool_categorized_EN.txt	SHOES	Clothing	7	20	[0, 0, 0]	n/a	catFR1	0	R1303E
2483.271	0.899	2488659	WORD_OFF	n/a	n/a	SHOES	n/a	7	20	[0, 0, 0]	n/a	catFR1	0	R1303E
2484.17	1.618	2489558	WORD	n/a	wordpools/wordpool_categorized_EN.txt	SKIRT	Clothing	8	20	[0, 0, 0]	n/a	catFR1	0	R1303E
2485.788	0.866	2491176	WORD_OFF	n/a	n/a	SKIRT	n/a	8	20	[0, 0, 0]	n/a	catFR1	0	R1303E
2486.654	1.618	2492042	WORD	n/a	wordpools/wordpool_categorized_EN.txt	MOPED	Vehicles	9	20	[0, 0, 0]	n/a	catFR1	0	R1303E
2488.272	1.016	2493660	WORD_OFF	n/a	n/a	MOPED	n/a	9	20	[0, 0, 0]	n/a	catFR1	0	R1303E
2489.288	1.617	2494676	WORD	n/a	wordpools/wordpool_categorized_EN.txt	BUS	Vehicles	10	20	[0, 0, 0]	n/a	catFR1	0	R1303E
2490.905	0.95	2496293	WORD_OFF	n/a	n/a	BUS	n/a	10	20	[0, 0, 0]	n/a	catFR1	0	R1303E
2491.855	1.617	2497243	WORD	n/a	wordpools/wordpool_categorized_EN.txt	ERASER	OfficeSupplies	11	20	[0, 0, 0]	n/a	catFR1	0	R1303E
2493.472	0.784	2498860	WORD_OFF	n/a	n/a	ERASER	n/a	11	20	[0, 0, 0]	n/a	catFR1	0	R1303E
2494.256	1.617	2499644	WORD	n/a	wordpools/wordpool_categorized_EN.txt	TAPE	OfficeSupplies	12	20	[0, 0, 0]	n/a	catFR1	0	R1303E
2495.873	0.0	2501261	WORD_OFF	n/a	n/a	TAPE	n/a	12	20	[0, 0, 0]	n/a	catFR1	0	R1303E
2495.873	0.124	2501261	ENCODING_END	n/a	n/a	n/a	n/a	-999	20	[0, 0, 0]	n/a	catFR1	0	R1303E
2495.997	0.001	2501385	DISTRACT_START	n/a	n/a	n/a	n/a	-999	20	[0, 0, 0]	n/a	catFR1	0	R1303E
2495.998	0.007	2501386	START	n/a	n/a	n/a	n/a	-999	20	[-999, -999, -999]	n/a	catFR1	0	R1303E
2496.005	8.286	2501393	PROB	8.286	n/a	n/a	n/a	-999	20	[4, 9, 5]	18	catFR1	0	R1303E
2504.291	5.051	2509679	PROB	5.051	n/a	n/a	n/a	-999	20	[5, 4, 5]	15	catFR1	0	R1303E
2509.342	8.961	2514729	PROB	8.961	n/a	n/a	n/a	-999	20	[3, 9, 8]	20	catFR1	0	R1303E
2518.303	0.007	2523690	STOP	n/a	n/a	n/a	n/a	-999	20	[-999, -999, -999]	n/a	catFR1	0	R1303E
2518.31	0.6	2523697	DISTRACT_END	n/a	n/a	n/a	n/a	-999	20	[0, 0, 0]	n/a	catFR1	0	R1303E
2518.91	0.518	2524297	RETRIEVAL_ORIENT	n/a	n/a	n/a	n/a	-999	20	[0, 0, 0]	n/a	catFR1	0	R1303E
2519.428	4.12	2524815	REC_START	n/a	n/a	n/a	n/a	-999	20	[0, 0, 0]	n/a	catFR1	0	R1303E
2523.548	1.38	2528935	REC_WORD	1.38	n/a	BUS	Vehicles	10	20	[0, 0, 0]	n/a	catFR1	0	R1303E
2524.928	4.363	2530315	REC_WORD	4.363	n/a	CAR	Vehicles	2	20	[0, 0, 0]	n/a	catFR1	0	R1303E
2529.291	10.23	2534678	REC_WORD	10.23	n/a	TRANSPORTATION	n/a	-999	20	[0, 0, 0]	n/a	catFR1	0	R1303E
2539.521	1.614	2544907	REC_WORD	1.614	n/a	BLOUSE	Clothing	4	20	[0, 0, 0]	n/a	catFR1	0	R1303E
2541.135	2.066	2546521	REC_WORD	2.066	n/a	SHIRT	n/a	-999	20	[0, 0, 0]	n/a	catFR1	0	R1303E
2543.201	6.239	2548587	REC_WORD	6.239	n/a	PANTS	n/a	-999	20	[0, 0, 0]	n/a	catFR1	0	R1303E
2549.44	4.876	2554826	REC_END	n/a	n/a	n/a	n/a	-999	20	[0, 0, 0]	n/a	catFR1	0	R1303E
2554.316	0.5	2559702	TRIAL	n/a	n/a	n/a	n/a	-999	21	[0, 0, 0]	n/a	catFR1	0	R1303E
2554.816	10.428	2560202	COUNTDOWN_START	n/a	n/a	n/a	n/a	-999	21	[0, 0, 0]	n/a	catFR1	0	R1303E
2565.244	0.008	2570629	COUNTDOWN_END	n/a	n/a	n/a	n/a	-999	21	[0, 0, 0]	n/a	catFR1	0	R1303E
2565.252	1.617	2570637	ORIENT	n/a	n/a	n/a	n/a	-999	21	[0, 0, 0]	n/a	catFR1	0	R1303E
2566.869	1.867	2572254	ORIENT_OFF	n/a	n/a	n/a	n/a	-999	21	[0, 0, 0]	n/a	catFR1	0	R1303E
2568.736	1.617	2574121	WORD	n/a	wordpools/wordpool_categorized_EN.txt	LEG	BodyParts	1	21	[0, 0, 0]	n/a	catFR1	0	R1303E
2570.353	0.782	2575738	WORD_OFF	n/a	n/a	LEG	n/a	1	21	[0, 0, 0]	n/a	catFR1	0	R1303E
2571.135	1.618	2576520	WORD	n/a	wordpools/wordpool_categorized_EN.txt	TOE	BodyParts	2	21	[0, 0, 0]	n/a	catFR1	0	R1303E
2572.753	0.967	2578138	WORD_OFF	n/a	n/a	TOE	n/a	2	21	[0, 0, 0]	n/a	catFR1	0	R1303E
2573.72	1.617	2579105	WORD	n/a	wordpools/wordpool_categorized_EN.txt	BLUEBIRD	Birds	3	21	[0, 0, 0]	n/a	catFR1	0	R1303E
2575.337	0.967	2580722	WORD_OFF	n/a	n/a	BLUEBIRD	n/a	3	21	[0, 0, 0]	n/a	catFR1	0	R1303E
2576.304	1.617	2581689	WORD	n/a	wordpools/wordpool_categorized_EN.txt	PIGEON	Birds	4	21	[0, 0, 0]	n/a	catFR1	0	R1303E
2577.921	0.8	2583306	WORD_OFF	n/a	n/a	PIGEON	n/a	4	21	[0, 0, 0]	n/a	catFR1	0	R1303E
2578.721	1.617	2584106	WORD	n/a	wordpools/wordpool_categorized_EN.txt	LAMB	FarmAnimals	5	21	[0, 0, 0]	n/a	catFR1	0	R1303E
2580.338	0.966	2585723	WORD_OFF	n/a	n/a	LAMB	n/a	5	21	[0, 0, 0]	n/a	catFR1	0	R1303E
2581.304	1.617	2586689	WORD	n/a	wordpools/wordpool_categorized_EN.txt	HEN	FarmAnimals	6	21	[0, 0, 0]	n/a	catFR1	0	R1303E
2582.921	0.851	2588306	WORD_OFF	n/a	n/a	HEN	n/a	6	21	[0, 0, 0]	n/a	catFR1	0	R1303E
2583.772	1.617	2589157	WORD	n/a	wordpools/wordpool_categorized_EN.txt	FINGERS	BodyParts	7	21	[0, 0, 0]	n/a	catFR1	0	R1303E
2585.389	0.783	2590773	WORD_OFF	n/a	n/a	FINGERS	n/a	7	21	[0, 0, 0]	n/a	catFR1	0	R1303E
2586.172	1.617	2591556	WORD	n/a	wordpools/wordpool_categorized_EN.txt	ARM	BodyParts	8	21	[0, 0, 0]	n/a	catFR1	0	R1303E
2587.789	0.984	2593173	WORD_OFF	n/a	n/a	ARM	n/a	8	21	[0, 0, 0]	n/a	catFR1	0	R1303E
2588.773	1.616	2594157	WORD	n/a	wordpools/wordpool_categorized_EN.txt	SEAGULL	Birds	9	21	[0, 0, 0]	n/a	catFR1	0	R1303E
2590.389	0.967	2595773	WORD_OFF	n/a	n/a	SEAGULL	n/a	9	21	[0, 0, 0]	n/a	catFR1	0	R1303E
2591.356	1.617	2596740	WORD	n/a	wordpools/wordpool_categorized_EN.txt	DUCK	Birds	10	21	[0, 0, 0]	n/a	catFR1	0	R1303E
2592.973	0.9	2598357	WORD_OFF	n/a	n/a	DUCK	n/a	10	21	[0, 0, 0]	n/a	catFR1	0	R1303E
2593.873	1.617	2599257	WORD	n/a	wordpools/wordpool_categorized_EN.txt	COW	FarmAnimals	11	21	[0, 0, 0]	n/a	catFR1	0	R1303E
2595.49	0.784	2600874	WORD_OFF	n/a	n/a	COW	n/a	11	21	[0, 0, 0]	n/a	catFR1	0	R1303E
2596.274	1.617	2601658	WORD	n/a	wordpools/wordpool_categorized_EN.txt	PIG	FarmAnimals	12	21	[0, 0, 0]	n/a	catFR1	0	R1303E
2597.891	0.0	2603275	ENCODING_END	n/a	n/a	n/a	n/a	-999	21	[0, 0, 0]	n/a	catFR1	0	R1303E
2597.891	0.094	2603275	WORD_OFF	n/a	n/a	PIG	n/a	12	21	[0, 0, 0]	n/a	catFR1	0	R1303E
2597.985	0.0	2603369	DISTRACT_START	n/a	n/a	n/a	n/a	-999	21	[0, 0, 0]	n/a	catFR1	0	R1303E
2597.985	0.021	2603369	START	n/a	n/a	n/a	n/a	-999	21	[-999, -999, -999]	n/a	catFR1	0	R1303E
2598.006	9.035	2603390	PROB	9.035	n/a	n/a	n/a	-999	21	[8, 6, 3]	17	catFR1	0	R1303E
2607.041	5.936	2612425	PROB	5.936	n/a	n/a	n/a	-999	21	[5, 9, 4]	18	catFR1	0	R1303E
2612.977	4.234	2618360	PROB	4.234	n/a	n/a	n/a	-999	21	[7, 1, 2]	10	catFR1	0	R1303E
2617.211	4.142	2622594	PROB	4.142	n/a	n/a	n/a	-999	21	[2, 7, 3]	12	catFR1	0	R1303E
2621.353	0.009	2626736	STOP	n/a	n/a	n/a	n/a	-999	21	[-999, -999, -999]	n/a	catFR1	0	R1303E
2621.362	0.566	2626745	DISTRACT_END	n/a	n/a	n/a	n/a	-999	21	[0, 0, 0]	n/a	catFR1	0	R1303E
2621.928	0.518	2627311	RETRIEVAL_ORIENT	n/a	n/a	n/a	n/a	-999	21	[0, 0, 0]	n/a	catFR1	0	R1303E
2622.446	23.466	2627829	REC_START	n/a	n/a	n/a	n/a	-999	21	[0, 0, 0]	n/a	catFR1	0	R1303E
2645.912	0.784	2651294	REC_WORD	0.784	n/a	BLOUSE	n/a	-999	21	[0, 0, 0]	n/a	catFR1	0	R1303E
2646.696	1.11	2652078	REC_WORD	1.11	n/a	SHORTS	n/a	-999	21	[0, 0, 0]	n/a	catFR1	0	R1303E
2647.806	2.13	2653188	REC_WORD	2.13	n/a	TOYS	n/a	-999	21	[0, 0, 0]	n/a	catFR1	0	R1303E
2649.936	0.794	2655318	REC_WORD	0.794	n/a	MOUNTAIN	n/a	-999	21	[0, 0, 0]	n/a	catFR1	0	R1303E
2650.73	1.461	2656112	REC_WORD	1.461	n/a	TRACE	n/a	-999	21	[0, 0, 0]	n/a	catFR1	0	R1303E
2652.191	0.266	2657573	REC_WORD	0.266	n/a	TREE	n/a	-999	21	[0, 0, 0]	n/a	catFR1	0	R1303E
2652.457	17.963	2657839	REC_END	n/a	n/a	n/a	n/a	-999	21	[0, 0, 0]	n/a	catFR1	0	R1303E
2670.42	0.5	2675801	TRIAL	n/a	n/a	n/a	n/a	-999	22	[0, 0, 0]	n/a	catFR1	0	R1303E
2670.92	10.428	2676301	COUNTDOWN_START	n/a	n/a	n/a	n/a	-999	22	[0, 0, 0]	n/a	catFR1	0	R1303E
2681.348	0.007	2686729	COUNTDOWN_END	n/a	n/a	n/a	n/a	-999	22	[0, 0, 0]	n/a	catFR1	0	R1303E
2681.355	1.617	2686736	ORIENT	n/a	n/a	n/a	n/a	-999	22	[0, 0, 0]	n/a	catFR1	0	R1303E
2682.972	1.951	2688353	ORIENT_OFF	n/a	n/a	n/a	n/a	-999	22	[0, 0, 0]	n/a	catFR1	0	R1303E
