onset	duration	sample	trial_type	response_time	stim_file	item_name	category	serialpos	list	test	answer	experiment	session	subject
0.0	0.0	6971	INSTRUCT_START	n/a	n/a	n/a	n/a	-999	-999	[0, 0, 0]	n/a	catFR1	3	R1269E
0.0	11.051	6971	INSTRUCT_END	n/a	n/a	n/a	n/a	-999	-999	[0, 0, 0]	n/a	catFR1	3	R1269E
11.051	0.0	18022	SESS_START	n/a	n/a	n/a	n/a	-999	-999	[0, 0, 0]	n/a	catFR1	3	R1269E
11.051	21.001	18022	MIC_TEST	n/a	n/a	n/a	n/a	-999	-999	[0, 0, 0]	n/a	catFR1	3	R1269E
32.052	8.121	39022	PRACTICE_TRIAL	n/a	n/a	n/a	n/a	-999	-1	[0, 0, 0]	n/a	catFR1	3	R1269E
40.173	10.428	47142	COUNTDOWN_START	n/a	n/a	n/a	n/a	-999	-1	[0, 0, 0]	n/a	catFR1	3	R1269E
50.601	0.007	57570	COUNTDOWN_END	n/a	n/a	n/a	n/a	-999	-1	[0, 0, 0]	n/a	catFR1	3	R1269E
50.608	1.618	57577	PRACTICE_ORIENT	n/a	n/a	n/a	n/a	-999	-1	[0, 0, 0]	n/a	catFR1	3	R1269E
52.226	2.234	59195	PRACTICE_ORIENT_OFF	n/a	n/a	n/a	n/a	-999	-1	[0, 0, 0]	n/a	catFR1	3	R1269E
54.46	1.617	61429	PRACTICE_WORD	n/a	n/a	RHINO	n/a	-1	-1	[0, 0, 0]	n/a	catFR1	3	R1269E
56.077	0.933	63046	PRACTICE_WORD_OFF	n/a	n/a	RHINO	n/a	-999	-1	[0, 0, 0]	n/a	catFR1	3	R1269E
57.01	1.616	63979	PRACTICE_WORD	n/a	n/a	RING	n/a	-1	-1	[0, 0, 0]	n/a	catFR1	3	R1269E
58.626	1.017	65595	PRACTICE_WORD_OFF	n/a	n/a	RING	n/a	-999	-1	[0, 0, 0]	n/a	catFR1	3	R1269E
59.643	1.618	66612	PRACTICE_WORD	n/a	n/a	CHEST	n/a	-1	-1	[0, 0, 0]	n/a	catFR1	3	R1269E
61.261	0.95	68230	PRACTICE_WORD_OFF	n/a	n/a	CHEST	n/a	-999	-1	[0, 0, 0]	n/a	catFR1	3	R1269E
62.211	1.617	69180	PRACTICE_WORD	n/a	n/a	ATTIC	n/a	-1	-1	[0, 0, 0]	n/a	catFR1	3	R1269E
63.828	0.966	70796	PRACTICE_WORD_OFF	n/a	n/a	ATTIC	n/a	-999	-1	[0, 0, 0]	n/a	catFR1	3	R1269E
64.794	1.618	71762	PRACTICE_WORD	n/a	n/a	BEAM	n/a	-1	-1	[0, 0, 0]	n/a	catFR1	3	R1269E
66.412	0.816	73380	PRACTICE_WORD_OFF	n/a	n/a	BEAM	n/a	-999	-1	[0, 0, 0]	n/a	catFR1	3	R1269E
67.228	1.617	74196	PRACTICE_WORD	n/a	n/a	WAGON	n/a	-1	-1	[0, 0, 0]	n/a	catFR1	3	R1269E
68.845	0.766	75813	PRACTICE_WORD_OFF	n/a	n/a	WAGON	n/a	-999	-1	[0, 0, 0]	n/a	catFR1	3	R1269E
69.611	1.601	76579	PRACTICE_WORD	n/a	n/a	WATCH	n/a	-1	-1	[0, 0, 0]	n/a	catFR1	3	R1269E
71.212	0.834	78180	PRACTICE_WORD_OFF	n/a	n/a	WATCH	n/a	-999	-1	[0, 0, 0]	n/a	catFR1	3	R1269E
72.046	1.616	79014	PRACTICE_WORD	n/a	n/a	IRON	n/a	-1	-1	[0, 0, 0]	n/a	catFR1	3	R1269E
73.662	0.801	80630	PRACTICE_WORD_OFF	n/a	n/a	IRON	n/a	-999	-1	[0, 0, 0]	n/a	catFR1	3	R1269E
74.463	1.617	81431	PRACTICE_WORD	n/a	n/a	CAMEL	n/a	-1	-1	[0, 0, 0]	n/a	catFR1	3	R1269E
76.08	0.95	83048	PRACTICE_WORD_OFF	n/a	n/a	CAMEL	n/a	-999	-1	[0, 0, 0]	n/a	catFR1	3	R1269E
77.03	1.616	83998	PRACTICE_WORD	n/a	n/a	TONGUE	n/a	-1	-1	[0, 0, 0]	n/a	catFR1	3	R1269E
78.646	0.785	85614	PRACTICE_WORD_OFF	n/a	n/a	TONGUE	n/a	-999	-1	[0, 0, 0]	n/a	catFR1	3	R1269E
79.431	1.617	86399	PRACTICE_WORD	n/a	n/a	COTTON	n/a	-1	-1	[0, 0, 0]	n/a	catFR1	3	R1269E
81.048	0.85	88016	PRACTICE_WORD_OFF	n/a	n/a	COTTON	n/a	-999	-1	[0, 0, 0]	n/a	catFR1	3	R1269E
81.898	1.617	88866	PRACTICE_WORD	n/a	n/a	FLOOD	n/a	-1	-1	[0, 0, 0]	n/a	catFR1	3	R1269E
83.515	0.0	90483	DISTRACT_START	n/a	n/a	n/a	n/a	-999	-1	[0, 0, 0]	n/a	catFR1	3	R1269E
83.515	0.0	90483	PRACTICE_WORD_OFF	n/a	n/a	FLOOD	n/a	-999	-1	[0, 0, 0]	n/a	catFR1	3	R1269E
83.515	0.0	90483	ENCODING_END	n/a	n/a	n/a	n/a	-999	-1	[0, 0, 0]	n/a	catFR1	3	R1269E
83.515	0.016	90483	START	n/a	n/a	n/a	n/a	-999	-1	[-999, -999, -999]	n/a	catFR1	3	R1269E
83.531	3.501	90499	PROB	3.501	n/a	n/a	n/a	-999	-1	[7, 1, 8]	16	catFR1	3	R1269E
87.032	3.0	94000	PROB	3.0	n/a	n/a	n/a	-999	-1	[5, 6, 2]	13	catFR1	3	R1269E
90.032	3.268	96999	PROB	3.268	n/a	n/a	n/a	-999	-1	[2, 8, 7]	17	catFR1	3	R1269E
93.3	3.85	100267	PROB	3.85	n/a	n/a	n/a	-999	-1	[2, 8, 4]	14	catFR1	3	R1269E
97.15	2.734	104117	PROB	2.734	n/a	n/a	n/a	-999	-1	[6, 2, 2]	10	catFR1	3	R1269E
99.884	3.627	106851	PROB	3.627	n/a	n/a	n/a	-999	-1	[9, 2, 9]	20	catFR1	3	R1269E
103.511	0.007	110478	STOP	n/a	n/a	n/a	n/a	-999	-1	[-999, -999, -999]	n/a	catFR1	3	R1269E
103.518	0.684	110485	DISTRACT_END	n/a	n/a	n/a	n/a	-999	-1	[0, 0, 0]	n/a	catFR1	3	R1269E
104.202	0.516	111169	RETRIEVAL_ORIENT	n/a	n/a	n/a	n/a	-999	-1	[0, 0, 0]	n/a	catFR1	3	R1269E
104.718	30.013	111685	PRACTICE_REC_START	n/a	n/a	n/a	n/a	-999	-1	[0, 0, 0]	n/a	catFR1	3	R1269E
134.731	10.161	141697	PRACTICE_REC_END	n/a	n/a	n/a	n/a	-999	-1	[0, 0, 0]	n/a	catFR1	3	R1269E
144.892	0.5	151857	TRIAL	n/a	n/a	n/a	n/a	-999	1	[0, 0, 0]	n/a	catFR1	3	R1269E
145.392	10.428	152357	COUNTDOWN_START	n/a	n/a	n/a	n/a	-999	1	[0, 0, 0]	n/a	catFR1	3	R1269E
155.82	0.007	162785	COUNTDOWN_END	n/a	n/a	n/a	n/a	-999	1	[0, 0, 0]	n/a	catFR1	3	R1269E
155.827	1.617	162792	ORIENT	n/a	n/a	n/a	n/a	-999	1	[0, 0, 0]	n/a	catFR1	3	R1269E
157.444	2.317	164409	ORIENT_OFF	n/a	n/a	n/a	n/a	-999	1	[0, 0, 0]	n/a	catFR1	3	R1269E
159.761	1.617	166726	WORD	n/a	wordpools/wordpool_categorized_EN.txt	IRON	Appliances	1	1	[0, 0, 0]	n/a	catFR1	3	R1269E
161.378	0.8	168343	WORD_OFF	n/a	n/a	IRON	n/a	1	1	[0, 0, 0]	n/a	catFR1	3	R1269E
162.178	1.617	169143	WORD	n/a	wordpools/wordpool_categorized_EN.txt	MIXER	Appliances	2	1	[0, 0, 0]	n/a	catFR1	3	R1269E
163.795	0.984	170760	WORD_OFF	n/a	n/a	MIXER	n/a	2	1	[0, 0, 0]	n/a	catFR1	3	R1269E
164.779	1.617	171744	WORD	n/a	wordpools/wordpool_categorized_EN.txt	PLUM	Fruit	3	1	[0, 0, 0]	n/a	catFR1	3	R1269E
166.396	1.0	173360	WORD_OFF	n/a	n/a	PLUM	n/a	3	1	[0, 0, 0]	n/a	catFR1	3	R1269E
167.396	1.617	174360	WORD	n/a	wordpools/wordpool_categorized_EN.txt	PEAR	Fruit	4	1	[0, 0, 0]	n/a	catFR1	3	R1269E
169.013	0.917	175977	WORD_OFF	n/a	n/a	PEAR	n/a	4	1	[0, 0, 0]	n/a	catFR1	3	R1269E
169.93	1.617	176894	WORD	n/a	wordpools/wordpool_categorized_EN.txt	HAWK	Birds	5	1	[0, 0, 0]	n/a	catFR1	3	R1269E
171.547	0.783	178511	WORD_OFF	n/a	n/a	HAWK	n/a	5	1	[0, 0, 0]	n/a	catFR1	3	R1269E
172.33	1.617	179294	WORD	n/a	wordpools/wordpool_categorized_EN.txt	PIGEON	Birds	6	1	[0, 0, 0]	n/a	catFR1	3	R1269E
173.947	0.784	180911	WORD_OFF	n/a	n/a	PIGEON	n/a	6	1	[0, 0, 0]	n/a	catFR1	3	R1269E
174.731	1.617	181695	WORD	n/a	wordpools/wordpool_categorized_EN.txt	APPLE	Fruit	7	1	[0, 0, 0]	n/a	catFR1	3	R1269E
176.348	0.766	183312	WORD_OFF	n/a	n/a	APPLE	n/a	7	1	[0, 0, 0]	n/a	catFR1	3	R1269E
177.114	1.617	184078	WORD	n/a	wordpools/wordpool_categorized_EN.txt	PEACH	Fruit	8	1	[0, 0, 0]	n/a	catFR1	3	R1269E
178.731	0.817	185695	WORD_OFF	n/a	n/a	PEACH	n/a	8	1	[0, 0, 0]	n/a	catFR1	3	R1269E
179.548	1.617	186512	WORD	n/a	wordpools/wordpool_categorized_EN.txt	VACUUM	Appliances	9	1	[0, 0, 0]	n/a	catFR1	3	R1269E
181.165	0.884	188129	WORD_OFF	n/a	n/a	VACUUM	n/a	9	1	[0, 0, 0]	n/a	catFR1	3	R1269E
182.049	1.616	189013	WORD	n/a	wordpools/wordpool_categorized_EN.txt	DISHWASHER	Appliances	10	1	[0, 0, 0]	n/a	catFR1	3	R1269E
183.665	0.851	190629	WORD_OFF	n/a	n/a	DISHWASHER	n/a	10	1	[0, 0, 0]	n/a	catFR1	3	R1269E
184.516	1.617	191480	WORD	n/a	wordpools/wordpool_categorized_EN.txt	SPARROW	Birds	11	1	[0, 0, 0]	n/a	catFR1	3	R1269E
186.133	0.899	193097	WORD_OFF	n/a	n/a	SPARROW	n/a	11	1	[0, 0, 0]	n/a	catFR1	3	R1269E
187.032	1.617	193996	WORD	n/a	wordpools/wordpool_categorized_EN.txt	BLUEBIRD	Birds	12	1	[0, 0, 0]	n/a	catFR1	3	R1269E
188.649	0.0	195613	WORD_OFF	n/a	n/a	BLUEBIRD	n/a	12	1	[0, 0, 0]	n/a	catFR1	3	R1269E
188.649	0.169	195613	ENCODING_END	n/a	n/a	n/a	n/a	-999	1	[0, 0, 0]	n/a	catFR1	3	R1269E
188.818	0.0	195782	DISTRACT_START	n/a	n/a	n/a	n/a	-999	1	[0, 0, 0]	n/a	catFR1	3	R1269E
188.818	0.015	195782	START	n/a	n/a	n/a	n/a	-999	1	[-999, -999, -999]	n/a	catFR1	3	R1269E
188.833	2.984	195797	PROB	2.984	n/a	n/a	n/a	-999	1	[7, 1, 7]	15	catFR1	3	R1269E
191.817	8.068	198780	PROB	8.068	n/a	n/a	n/a	-999	1	[8, 6, 8]	22	catFR1	3	R1269E
199.885	2.467	206848	PROB	2.467	n/a	n/a	n/a	-999	1	[7, 8, 1]	16	catFR1	3	R1269E
202.352	2.717	209315	PROB	2.717	n/a	n/a	n/a	-999	1	[4, 5, 2]	11	catFR1	3	R1269E
205.069	7.054	212032	PROB	7.054	n/a	n/a	n/a	-999	1	[3, 8, 3]	14	catFR1	3	R1269E
212.123	0.014	219086	STOP	n/a	n/a	n/a	n/a	-999	1	[-999, -999, -999]	n/a	catFR1	3	R1269E
212.137	0.533	219100	DISTRACT_END	n/a	n/a	n/a	n/a	-999	1	[0, 0, 0]	n/a	catFR1	3	R1269E
212.67	0.518	219633	RETRIEVAL_ORIENT	n/a	n/a	n/a	n/a	-999	1	[0, 0, 0]	n/a	catFR1	3	R1269E
213.188	1.214	220151	REC_START	n/a	n/a	n/a	n/a	-999	1	[0, 0, 0]	n/a	catFR1	3	R1269E
214.402	0.709	221365	REC_WORD	0.709	n/a	PIGEON	Birds	6	1	[0, 0, 0]	n/a	catFR1	3	R1269E
215.111	3.634	222074	REC_WORD	3.634	n/a	DISHWASHER	Appliances	10	1	[0, 0, 0]	n/a	catFR1	3	R1269E
218.745	0.905	225707	REC_WORD	0.905	n/a	SPARROW	Birds	11	1	[0, 0, 0]	n/a	catFR1	3	R1269E
219.65	8.937	226612	REC_WORD	8.937	n/a	BLUEBIRD	Birds	12	1	[0, 0, 0]	n/a	catFR1	3	R1269E
228.587	10.322	235549	REC_WORD	10.322	n/a	IRON	Appliances	1	1	[0, 0, 0]	n/a	catFR1	3	R1269E
238.909	4.289	245871	REC_WORD	4.289	n/a	OVEN	n/a	-999	1	[0, 0, 0]	n/a	catFR1	3	R1269E
243.198	5.329	250159	REC_END	n/a	n/a	n/a	n/a	-999	1	[0, 0, 0]	n/a	catFR1	3	R1269E
248.527	0.5	255488	TRIAL	n/a	n/a	n/a	n/a	-999	2	[0, 0, 0]	n/a	catFR1	3	R1269E
249.027	10.428	255988	COUNTDOWN_START	n/a	n/a	n/a	n/a	-999	2	[0, 0, 0]	n/a	catFR1	3	R1269E
259.455	0.007	266416	COUNTDOWN_END	n/a	n/a	n/a	n/a	-999	2	[0, 0, 0]	n/a	catFR1	3	R1269E
259.462	1.617	266423	ORIENT	n/a	n/a	n/a	n/a	-999	2	[0, 0, 0]	n/a	catFR1	3	R1269E
261.079	1.884	268040	ORIENT_OFF	n/a	n/a	n/a	n/a	-999	2	[0, 0, 0]	n/a	catFR1	3	R1269E
262.963	1.616	269924	WORD	n/a	wordpools/wordpool_categorized_EN.txt	LEMONADE	Beverages	1	2	[0, 0, 0]	n/a	catFR1	3	R1269E
264.579	0.851	271540	WORD_OFF	n/a	n/a	LEMONADE	n/a	1	2	[0, 0, 0]	n/a	catFR1	3	R1269E
265.43	1.617	272391	WORD	n/a	wordpools/wordpool_categorized_EN.txt	COLA	Beverages	2	2	[0, 0, 0]	n/a	catFR1	3	R1269E
267.047	0.983	274007	WORD_OFF	n/a	n/a	COLA	n/a	2	2	[0, 0, 0]	n/a	catFR1	3	R1269E
268.03	1.616	274990	WORD	n/a	wordpools/wordpool_categorized_EN.txt	RATCHET	Tools	3	2	[0, 0, 0]	n/a	catFR1	3	R1269E
269.646	0.885	276606	WORD_OFF	n/a	n/a	RATCHET	n/a	3	2	[0, 0, 0]	n/a	catFR1	3	R1269E
270.531	1.617	277491	WORD	n/a	wordpools/wordpool_categorized_EN.txt	SANDER	Tools	4	2	[0, 0, 0]	n/a	catFR1	3	R1269E
272.148	0.983	279108	WORD_OFF	n/a	n/a	SANDER	n/a	4	2	[0, 0, 0]	n/a	catFR1	3	R1269E
273.131	1.617	280091	WORD	n/a	wordpools/wordpool_categorized_EN.txt	BINDER	OfficeSupplies	5	2	[0, 0, 0]	n/a	catFR1	3	R1269E
274.748	0.767	281708	WORD_OFF	n/a	n/a	BINDER	n/a	5	2	[0, 0, 0]	n/a	catFR1	3	R1269E
275.515	1.617	282475	WORD	n/a	wordpools/wordpool_categorized_EN.txt	TAPE	OfficeSupplies	6	2	[0, 0, 0]	n/a	catFR1	3	R1269E
277.132	0.917	284092	WORD_OFF	n/a	n/a	TAPE	n/a	6	2	[0, 0, 0]	n/a	catFR1	3	R1269E
278.049	1.616	285009	WORD	n/a	wordpools/wordpool_categorized_EN.txt	DRILL	Tools	7	2	[0, 0, 0]	n/a	catFR1	3	R1269E
279.665	0.817	286625	WORD_OFF	n/a	n/a	DRILL	n/a	7	2	[0, 0, 0]	n/a	catFR1	3	R1269E
280.482	1.617	287442	WORD	n/a	wordpools/wordpool_categorized_EN.txt	LEVEL	Tools	8	2	[0, 0, 0]	n/a	catFR1	3	R1269E
282.099	0.801	289059	WORD_OFF	n/a	n/a	LEVEL	n/a	8	2	[0, 0, 0]	n/a	catFR1	3	R1269E
282.9	1.617	289860	WORD	n/a	wordpools/wordpool_categorized_EN.txt	BEER	Beverages	9	2	[0, 0, 0]	n/a	catFR1	3	R1269E
284.517	0.85	291477	WORD_OFF	n/a	n/a	BEER	n/a	9	2	[0, 0, 0]	n/a	catFR1	3	R1269E
285.367	1.617	292327	WORD	n/a	wordpools/wordpool_categorized_EN.txt	JUICE	Beverages	10	2	[0, 0, 0]	n/a	catFR1	3	R1269E
286.984	0.95	293944	WORD_OFF	n/a	n/a	JUICE	n/a	10	2	[0, 0, 0]	n/a	catFR1	3	R1269E
287.934	1.617	294894	WORD	n/a	wordpools/wordpool_categorized_EN.txt	MARKER	OfficeSupplies	11	2	[0, 0, 0]	n/a	catFR1	3	R1269E
289.551	0.783	296511	WORD_OFF	n/a	n/a	MARKER	n/a	11	2	[0, 0, 0]	n/a	catFR1	3	R1269E
290.334	1.617	297294	WORD	n/a	wordpools/wordpool_categorized_EN.txt	ERASER	OfficeSupplies	12	2	[0, 0, 0]	n/a	catFR1	3	R1269E
291.951	0.0	298910	ENCODING_END	n/a	n/a	n/a	n/a	-999	2	[0, 0, 0]	n/a	catFR1	3	R1269E
291.951	0.133	298910	WORD_OFF	n/a	n/a	ERASER	n/a	12	2	[0, 0, 0]	n/a	catFR1	3	R1269E
292.084	0.0	299043	DISTRACT_START	n/a	n/a	n/a	n/a	-999	2	[0, 0, 0]	n/a	catFR1	3	R1269E
292.084	0.017	299043	START	n/a	n/a	n/a	n/a	-999	2	[-999, -999, -999]	n/a	catFR1	3	R1269E
292.101	4.583	299060	PROB	4.583	n/a	n/a	n/a	-999	2	[4, 7, 7]	18	catFR1	3	R1269E
296.684	3.569	303643	PROB	3.569	n/a	n/a	n/a	-999	2	[1, 4, 7]	13	catFR1	3	R1269E
300.253	6.034	307212	PROB	6.034	n/a	n/a	n/a	-999	2	[8, 4, 2]	14	catFR1	3	R1269E
306.287	3.534	313246	PROB	3.534	n/a	n/a	n/a	-999	2	[2, 2, 4]	8	catFR1	3	R1269E
309.821	3.549	316780	PROB	3.549	n/a	n/a	n/a	-999	2	[8, 8, 3]	19	catFR1	3	R1269E
313.37	0.018	320329	STOP	n/a	n/a	n/a	n/a	-999	2	[-999, -999, -999]	n/a	catFR1	3	R1269E
313.388	0.684	320347	DISTRACT_END	n/a	n/a	n/a	n/a	-999	2	[0, 0, 0]	n/a	catFR1	3	R1269E
314.072	0.516	321031	RETRIEVAL_ORIENT	n/a	n/a	n/a	n/a	-999	2	[0, 0, 0]	n/a	catFR1	3	R1269E
314.588	2.044	321547	REC_START	n/a	n/a	n/a	n/a	-999	2	[0, 0, 0]	n/a	catFR1	3	R1269E
316.632	1.712	323590	REC_WORD_VV	1.712	n/a	<>	n/a	-999	2	[0, 0, 0]	n/a	catFR1	3	R1269E
318.344	3.113	325302	REC_WORD	3.113	n/a	SANDER	Tools	4	2	[0, 0, 0]	n/a	catFR1	3	R1269E
321.457	0.982	328415	REC_WORD	0.982	n/a	BEER	Beverages	9	2	[0, 0, 0]	n/a	catFR1	3	R1269E
322.439	0.851	329397	REC_WORD	0.851	n/a	LEMONADE	Beverages	1	2	[0, 0, 0]	n/a	catFR1	3	R1269E
323.29	2.231	330248	REC_WORD	2.231	n/a	COLA	Beverages	2	2	[0, 0, 0]	n/a	catFR1	3	R1269E
325.521	4.649	332479	REC_WORD	4.649	n/a	RATCHET	Tools	3	2	[0, 0, 0]	n/a	catFR1	3	R1269E
330.17	4.871	337128	REC_WORD	4.871	n/a	TAPE	OfficeSupplies	6	2	[0, 0, 0]	n/a	catFR1	3	R1269E
335.041	9.321	341999	REC_WORD	9.321	n/a	SCREWDRIVER	n/a	-999	2	[0, 0, 0]	n/a	catFR1	3	R1269E
344.362	0.236	351319	REC_WORD	0.236	n/a	LEVEL	Tools	8	2	[0, 0, 0]	n/a	catFR1	3	R1269E
344.598	5.513	351555	REC_END	n/a	n/a	n/a	n/a	-999	2	[0, 0, 0]	n/a	catFR1	3	R1269E
350.111	0.5	357068	TRIAL	n/a	n/a	n/a	n/a	-999	3	[0, 0, 0]	n/a	catFR1	3	R1269E
350.611	10.428	357568	COUNTDOWN_START	n/a	n/a	n/a	n/a	-999	3	[0, 0, 0]	n/a	catFR1	3	R1269E
361.039	0.007	367996	COUNTDOWN_END	n/a	n/a	n/a	n/a	-999	3	[0, 0, 0]	n/a	catFR1	3	R1269E
361.046	1.616	368003	ORIENT	n/a	n/a	n/a	n/a	-999	3	[0, 0, 0]	n/a	catFR1	3	R1269E
362.662	2.169	369619	ORIENT_OFF	n/a	n/a	n/a	n/a	-999	3	[0, 0, 0]	n/a	catFR1	3	R1269E
364.831	1.617	371788	WORD	n/a	wordpools/wordpool_categorized_EN.txt	CALCULATOR	Electronics	1	3	[0, 0, 0]	n/a	catFR1	3	R1269E
366.448	0.95	373405	WORD_OFF	n/a	n/a	CALCULATOR	n/a	1	3	[0, 0, 0]	n/a	catFR1	3	R1269E
367.398	1.617	374354	WORD	n/a	wordpools/wordpool_categorized_EN.txt	STEREO	Electronics	2	3	[0, 0, 0]	n/a	catFR1	3	R1269E
369.015	0.783	375971	WORD_OFF	n/a	n/a	STEREO	n/a	2	3	[0, 0, 0]	n/a	catFR1	3	R1269E
369.798	1.617	376754	WORD	n/a	wordpools/wordpool_categorized_EN.txt	MOPED	Vehicles	3	3	[0, 0, 0]	n/a	catFR1	3	R1269E
371.415	1.0	378371	WORD_OFF	n/a	n/a	MOPED	n/a	3	3	[0, 0, 0]	n/a	catFR1	3	R1269E
372.415	1.617	379371	WORD	n/a	wordpools/wordpool_categorized_EN.txt	TRAIN	Vehicles	4	3	[0, 0, 0]	n/a	catFR1	3	R1269E
374.032	0.817	380988	WORD_OFF	n/a	n/a	TRAIN	n/a	4	3	[0, 0, 0]	n/a	catFR1	3	R1269E
374.849	1.617	381805	WORD	n/a	wordpools/wordpool_categorized_EN.txt	DRIZZLE	Weather	5	3	[0, 0, 0]	n/a	catFR1	3	R1269E
376.466	0.783	383422	WORD_OFF	n/a	n/a	DRIZZLE	n/a	5	3	[0, 0, 0]	n/a	catFR1	3	R1269E
377.249	1.617	384205	WORD	n/a	wordpools/wordpool_categorized_EN.txt	WIND	Weather	6	3	[0, 0, 0]	n/a	catFR1	3	R1269E
378.866	0.783	385822	WORD_OFF	n/a	n/a	WIND	n/a	6	3	[0, 0, 0]	n/a	catFR1	3	R1269E
379.649	1.618	386605	WORD	n/a	wordpools/wordpool_categorized_EN.txt	CAR	Vehicles	7	3	[0, 0, 0]	n/a	catFR1	3	R1269E
381.267	0.767	388223	WORD_OFF	n/a	n/a	CAR	n/a	7	3	[0, 0, 0]	n/a	catFR1	3	R1269E
382.034	1.615	388990	WORD	n/a	wordpools/wordpool_categorized_EN.txt	SCOOTER	Vehicles	8	3	[0, 0, 0]	n/a	catFR1	3	R1269E
383.649	0.818	390605	WORD_OFF	n/a	n/a	SCOOTER	n/a	8	3	[0, 0, 0]	n/a	catFR1	3	R1269E
384.467	1.617	391423	WORD	n/a	wordpools/wordpool_categorized_EN.txt	COMPUTER	Electronics	9	3	[0, 0, 0]	n/a	catFR1	3	R1269E
386.084	1.0	393040	WORD_OFF	n/a	n/a	COMPUTER	n/a	9	3	[0, 0, 0]	n/a	catFR1	3	R1269E
387.084	1.616	394040	WORD	n/a	wordpools/wordpool_categorized_EN.txt	TELEVISION	Electronics	10	3	[0, 0, 0]	n/a	catFR1	3	R1269E
388.7	0.867	395656	WORD_OFF	n/a	n/a	TELEVISION	n/a	10	3	[0, 0, 0]	n/a	catFR1	3	R1269E
389.567	1.618	396523	WORD	n/a	wordpools/wordpool_categorized_EN.txt	THUNDERSTORM	Weather	11	3	[0, 0, 0]	n/a	catFR1	3	R1269E
391.185	0.934	398141	WORD_OFF	n/a	n/a	THUNDERSTORM	n/a	11	3	[0, 0, 0]	n/a	catFR1	3	R1269E
392.119	1.617	399075	WORD	n/a	wordpools/wordpool_categorized_EN.txt	LIGHTNING	Weather	12	3	[0, 0, 0]	n/a	catFR1	3	R1269E
393.736	0.0	400691	ENCODING_END	n/a	n/a	n/a	n/a	-999	3	[0, 0, 0]	n/a	catFR1	3	R1269E
393.736	0.132	400691	WORD_OFF	n/a	n/a	LIGHTNING	n/a	12	3	[0, 0, 0]	n/a	catFR1	3	R1269E
393.868	0.001	400823	DISTRACT_START	n/a	n/a	n/a	n/a	-999	3	[0, 0, 0]	n/a	catFR1	3	R1269E
393.869	0.017	400824	START	n/a	n/a	n/a	n/a	-999	3	[-999, -999, -999]	n/a	catFR1	3	R1269E
393.886	5.101	400841	PROB	5.101	n/a	n/a	n/a	-999	3	[4, 8, 5]	16	catFR1	3	R1269E
398.987	4.367	405942	PROB	4.367	n/a	n/a	n/a	-999	3	[1, 4, 7]	12	catFR1	3	R1269E
403.354	3.434	410309	PROB	3.434	n/a	n/a	n/a	-999	3	[7, 3, 3]	13	catFR1	3	R1269E
406.788	2.933	413743	PROB	2.933	n/a	n/a	n/a	-999	3	[9, 3, 1]	13	catFR1	3	R1269E
409.721	3.385	416676	PROB	3.385	n/a	n/a	n/a	-999	3	[1, 3, 1]	5	catFR1	3	R1269E
413.106	2.844	420061	PROB	2.844	n/a	n/a	n/a	-999	3	[1, 3, 6]	10	catFR1	3	R1269E
415.95	0.023	422905	STOP	n/a	n/a	n/a	n/a	-999	3	[-999, -999, -999]	n/a	catFR1	3	R1269E
415.973	0.632	422928	DISTRACT_END	n/a	n/a	n/a	n/a	-999	3	[0, 0, 0]	n/a	catFR1	3	R1269E
416.605	0.519	423560	RETRIEVAL_ORIENT	n/a	n/a	n/a	n/a	-999	3	[0, 0, 0]	n/a	catFR1	3	R1269E
417.124	3.475	424079	REC_START	n/a	n/a	n/a	n/a	-999	3	[0, 0, 0]	n/a	catFR1	3	R1269E
420.599	1.609	427553	REC_WORD	1.609	n/a	TELEVISION	Electronics	10	3	[0, 0, 0]	n/a	catFR1	3	R1269E
422.208	1.951	429162	REC_WORD	1.951	n/a	MICROWAVE	n/a	-999	3	[0, 0, 0]	n/a	catFR1	3	R1269E
424.159	6.058	431113	REC_WORD	6.058	n/a	STEREO	Electronics	2	3	[0, 0, 0]	n/a	catFR1	3	R1269E
430.217	3.486	437171	REC_WORD	3.486	n/a	DISHWASHER	n/a	-999	3	[0, 0, 0]	n/a	catFR1	3	R1269E
433.703	0.953	440657	REC_WORD	0.953	n/a	DRIZZLE	Weather	5	3	[0, 0, 0]	n/a	catFR1	3	R1269E
434.656	5.246	441610	REC_WORD	5.246	n/a	THUNDERSTORM	Weather	11	3	[0, 0, 0]	n/a	catFR1	3	R1269E
439.902	7.233	446856	REC_WORD	7.233	n/a	TORNADO	n/a	-999	3	[0, 0, 0]	n/a	catFR1	3	R1269E
447.135	5.644	454088	REC_END	n/a	n/a	n/a	n/a	-999	3	[0, 0, 0]	n/a	catFR1	3	R1269E
452.779	0.5	459732	TRIAL	n/a	n/a	n/a	n/a	-999	4	[0, 0, 0]	n/a	catFR1	3	R1269E
453.279	10.428	460232	COUNTDOWN_START	n/a	n/a	n/a	n/a	-999	4	[0, 0, 0]	n/a	catFR1	3	R1269E
463.707	0.007	470660	COUNTDOWN_END	n/a	n/a	n/a	n/a	-999	4	[0, 0, 0]	n/a	catFR1	3	R1269E
463.714	1.617	470667	ORIENT	n/a	n/a	n/a	n/a	-999	4	[0, 0, 0]	n/a	catFR1	3	R1269E
465.331	2.018	472284	ORIENT_OFF	n/a	n/a	n/a	n/a	-999	4	[0, 0, 0]	n/a	catFR1	3	R1269E
467.349	1.617	474302	WORD	n/a	wordpools/wordpool_categorized_EN.txt	WINDOW	Building	1	4	[0, 0, 0]	n/a	catFR1	3	R1269E
468.966	0.933	475918	WORD_OFF	n/a	n/a	WINDOW	n/a	1	4	[0, 0, 0]	n/a	catFR1	3	R1269E
469.899	1.617	476851	WORD	n/a	wordpools/wordpool_categorized_EN.txt	DOOR	Building	2	4	[0, 0, 0]	n/a	catFR1	3	R1269E
471.516	0.833	478468	WORD_OFF	n/a	n/a	DOOR	n/a	2	4	[0, 0, 0]	n/a	catFR1	3	R1269E
472.349	1.617	479301	WORD	n/a	wordpools/wordpool_categorized_EN.txt	NOTEBOOK	OfficeSupplies	3	4	[0, 0, 0]	n/a	catFR1	3	R1269E
473.966	0.967	480918	WORD_OFF	n/a	n/a	NOTEBOOK	n/a	3	4	[0, 0, 0]	n/a	catFR1	3	R1269E
474.933	1.617	481885	WORD	n/a	wordpools/wordpool_categorized_EN.txt	STAPLER	OfficeSupplies	4	4	[0, 0, 0]	n/a	catFR1	3	R1269E
476.55	0.967	483502	WORD_OFF	n/a	n/a	STAPLER	n/a	4	4	[0, 0, 0]	n/a	catFR1	3	R1269E
477.517	1.617	484469	WORD	n/a	wordpools/wordpool_categorized_EN.txt	FORK	KitchenTools	5	4	[0, 0, 0]	n/a	catFR1	3	R1269E
479.134	0.8	486086	WORD_OFF	n/a	n/a	FORK	n/a	5	4	[0, 0, 0]	n/a	catFR1	3	R1269E
479.934	1.617	486886	WORD	n/a	wordpools/wordpool_categorized_EN.txt	STRAINER	KitchenTools	6	4	[0, 0, 0]	n/a	catFR1	3	R1269E
481.551	0.783	488503	WORD_OFF	n/a	n/a	STRAINER	n/a	6	4	[0, 0, 0]	n/a	catFR1	3	R1269E
482.334	1.618	489286	WORD	n/a	wordpools/wordpool_categorized_EN.txt	FOLDER	OfficeSupplies	7	4	[0, 0, 0]	n/a	catFR1	3	R1269E
483.952	0.983	490904	WORD_OFF	n/a	n/a	FOLDER	n/a	7	4	[0, 0, 0]	n/a	catFR1	3	R1269E
484.935	1.617	491887	WORD	n/a	wordpools/wordpool_categorized_EN.txt	PEN	OfficeSupplies	8	4	[0, 0, 0]	n/a	catFR1	3	R1269E
486.552	0.983	493504	WORD_OFF	n/a	n/a	PEN	n/a	8	4	[0, 0, 0]	n/a	catFR1	3	R1269E
487.535	1.617	494487	WORD	n/a	wordpools/wordpool_categorized_EN.txt	ROOM	Building	9	4	[0, 0, 0]	n/a	catFR1	3	R1269E
489.152	0.884	496104	WORD_OFF	n/a	n/a	ROOM	n/a	9	4	[0, 0, 0]	n/a	catFR1	3	R1269E
490.036	1.616	496988	WORD	n/a	wordpools/wordpool_categorized_EN.txt	FOUNDATION	Building	10	4	[0, 0, 0]	n/a	catFR1	3	R1269E
491.652	0.933	498604	WORD_OFF	n/a	n/a	FOUNDATION	n/a	10	4	[0, 0, 0]	n/a	catFR1	3	R1269E
492.585	1.601	499537	WORD	n/a	wordpools/wordpool_categorized_EN.txt	WHISK	KitchenTools	11	4	[0, 0, 0]	n/a	catFR1	3	R1269E
494.186	0.867	501137	WORD_OFF	n/a	n/a	WHISK	n/a	11	4	[0, 0, 0]	n/a	catFR1	3	R1269E
495.053	1.616	502004	WORD	n/a	wordpools/wordpool_categorized_EN.txt	SPOON	KitchenTools	12	4	[0, 0, 0]	n/a	catFR1	3	R1269E
496.669	0.0	503620	ENCODING_END	n/a	n/a	n/a	n/a	-999	4	[0, 0, 0]	n/a	catFR1	3	R1269E
496.669	0.171	503620	WORD_OFF	n/a	n/a	SPOON	n/a	12	4	[0, 0, 0]	n/a	catFR1	3	R1269E
496.84	0.0	503791	DISTRACT_START	n/a	n/a	n/a	n/a	-999	4	[0, 0, 0]	n/a	catFR1	3	R1269E
496.84	0.014	503791	START	n/a	n/a	n/a	n/a	-999	4	[-999, -999, -999]	n/a	catFR1	3	R1269E
496.854	3.0	503805	PROB	3.0	n/a	n/a	n/a	-999	4	[1, 9, 7]	17	catFR1	3	R1269E
499.854	3.317	506805	PROB	3.317	n/a	n/a	n/a	-999	4	[7, 2, 4]	13	catFR1	3	R1269E
503.171	4.351	510122	PROB	4.351	n/a	n/a	n/a	-999	4	[4, 7, 7]	18	catFR1	3	R1269E
507.522	4.001	514473	PROB	4.001	n/a	n/a	n/a	-999	4	[2, 7, 6]	15	catFR1	3	R1269E
511.523	6.989	518474	PROB	6.989	n/a	n/a	n/a	-999	4	[7, 9, 8]	24	catFR1	3	R1269E
518.512	0.012	525463	STOP	n/a	n/a	n/a	n/a	-999	4	[-999, -999, -999]	n/a	catFR1	3	R1269E
518.524	0.7	525475	DISTRACT_END	n/a	n/a	n/a	n/a	-999	4	[0, 0, 0]	n/a	catFR1	3	R1269E
519.224	0.518	526174	RETRIEVAL_ORIENT	n/a	n/a	n/a	n/a	-999	4	[0, 0, 0]	n/a	catFR1	3	R1269E
519.742	0.73	526692	REC_START	n/a	n/a	n/a	n/a	-999	4	[0, 0, 0]	n/a	catFR1	3	R1269E
520.472	1.928	527422	REC_WORD	1.928	n/a	STRAINER	KitchenTools	6	4	[0, 0, 0]	n/a	catFR1	3	R1269E
522.4	0.728	529350	REC_WORD	0.728	n/a	PEN	OfficeSupplies	8	4	[0, 0, 0]	n/a	catFR1	3	R1269E
523.128	6.053	530078	REC_WORD	6.053	n/a	NOTEBOOK	OfficeSupplies	3	4	[0, 0, 0]	n/a	catFR1	3	R1269E
529.181	3.326	536131	REC_WORD	3.326	n/a	RULER	n/a	-999	4	[0, 0, 0]	n/a	catFR1	3	R1269E
532.507	3.06	539457	REC_WORD	3.06	n/a	TAPE	n/a	-999	4	[0, 0, 0]	n/a	catFR1	3	R1269E
535.567	0.869	542517	REC_WORD	0.869	n/a	FORK	KitchenTools	5	4	[0, 0, 0]	n/a	catFR1	3	R1269E
536.436	1.568	543386	REC_WORD	1.568	n/a	KNIFE	n/a	-999	4	[0, 0, 0]	n/a	catFR1	3	R1269E
538.004	11.749	544954	REC_WORD	11.749	n/a	SPOON	KitchenTools	12	4	[0, 0, 0]	n/a	catFR1	3	R1269E
549.753	5.261	556702	REC_END	n/a	n/a	n/a	n/a	-999	4	[0, 0, 0]	n/a	catFR1	3	R1269E
555.014	0.5	561963	TRIAL	n/a	n/a	n/a	n/a	-999	5	[0, 0, 0]	n/a	catFR1	3	R1269E
555.514	10.428	562463	COUNTDOWN_START	n/a	n/a	n/a	n/a	-999	5	[0, 0, 0]	n/a	catFR1	3	R1269E
565.942	0.007	572891	COUNTDOWN_END	n/a	n/a	n/a	n/a	-999	5	[0, 0, 0]	n/a	catFR1	3	R1269E
565.949	1.616	572898	ORIENT	n/a	n/a	n/a	n/a	-999	5	[0, 0, 0]	n/a	catFR1	3	R1269E
567.565	2.402	574514	ORIENT_OFF	n/a	n/a	n/a	n/a	-999	5	[0, 0, 0]	n/a	catFR1	3	R1269E
569.967	1.615	576915	WORD	n/a	wordpools/wordpool_categorized_EN.txt	FINGERS	BodyParts	1	5	[0, 0, 0]	n/a	catFR1	3	R1269E
571.582	0.952	578530	WORD_OFF	n/a	n/a	FINGERS	n/a	1	5	[0, 0, 0]	n/a	catFR1	3	R1269E
572.534	1.617	579482	WORD	n/a	wordpools/wordpool_categorized_EN.txt	TOE	BodyParts	2	5	[0, 0, 0]	n/a	catFR1	3	R1269E
574.151	0.95	581099	WORD_OFF	n/a	n/a	TOE	n/a	2	5	[0, 0, 0]	n/a	catFR1	3	R1269E
575.101	1.616	582049	WORD	n/a	wordpools/wordpool_categorized_EN.txt	TIGER	Zoo	3	5	[0, 0, 0]	n/a	catFR1	3	R1269E
576.717	0.983	583665	WORD_OFF	n/a	n/a	TIGER	n/a	3	5	[0, 0, 0]	n/a	catFR1	3	R1269E
577.7	1.618	584648	WORD	n/a	wordpools/wordpool_categorized_EN.txt	CHEETAH	Zoo	4	5	[0, 0, 0]	n/a	catFR1	3	R1269E
579.318	0.884	586266	WORD_OFF	n/a	n/a	CHEETAH	n/a	4	5	[0, 0, 0]	n/a	catFR1	3	R1269E
580.202	1.617	587150	WORD	n/a	wordpools/wordpool_categorized_EN.txt	ATTIC	Building	5	5	[0, 0, 0]	n/a	catFR1	3	R1269E
581.819	0.882	588767	WORD_OFF	n/a	n/a	ATTIC	n/a	5	5	[0, 0, 0]	n/a	catFR1	3	R1269E
582.701	1.618	589649	WORD	n/a	wordpools/wordpool_categorized_EN.txt	BATHROOM	Building	6	5	[0, 0, 0]	n/a	catFR1	3	R1269E
584.319	0.85	591267	WORD_OFF	n/a	n/a	BATHROOM	n/a	6	5	[0, 0, 0]	n/a	catFR1	3	R1269E
585.169	1.617	592117	WORD	n/a	wordpools/wordpool_categorized_EN.txt	LEG	BodyParts	7	5	[0, 0, 0]	n/a	catFR1	3	R1269E
586.786	0.916	593734	WORD_OFF	n/a	n/a	LEG	n/a	7	5	[0, 0, 0]	n/a	catFR1	3	R1269E
587.702	1.618	594650	WORD	n/a	wordpools/wordpool_categorized_EN.txt	HAND	BodyParts	8	5	[0, 0, 0]	n/a	catFR1	3	R1269E
589.32	0.8	596268	WORD_OFF	n/a	n/a	HAND	n/a	8	5	[0, 0, 0]	n/a	catFR1	3	R1269E
590.12	1.617	597068	WORD	n/a	wordpools/wordpool_categorized_EN.txt	GORILLA	Zoo	9	5	[0, 0, 0]	n/a	catFR1	3	R1269E
591.737	0.966	598685	WORD_OFF	n/a	n/a	GORILLA	n/a	9	5	[0, 0, 0]	n/a	catFR1	3	R1269E
592.703	1.601	599651	WORD	n/a	wordpools/wordpool_categorized_EN.txt	ELEPHANT	Zoo	10	5	[0, 0, 0]	n/a	catFR1	3	R1269E
594.304	0.967	601252	WORD_OFF	n/a	n/a	ELEPHANT	n/a	10	5	[0, 0, 0]	n/a	catFR1	3	R1269E
595.271	1.617	602218	WORD	n/a	wordpools/wordpool_categorized_EN.txt	FLOOR	Building	11	5	[0, 0, 0]	n/a	catFR1	3	R1269E
596.888	0.883	603835	WORD_OFF	n/a	n/a	FLOOR	n/a	11	5	[0, 0, 0]	n/a	catFR1	3	R1269E
597.771	1.617	604718	WORD	n/a	wordpools/wordpool_categorized_EN.txt	ROOF	Building	12	5	[0, 0, 0]	n/a	catFR1	3	R1269E
599.388	0.001	606335	WORD_OFF	n/a	n/a	ROOF	n/a	12	5	[0, 0, 0]	n/a	catFR1	3	R1269E
599.389	0.129	606336	ENCODING_END	n/a	n/a	n/a	n/a	-999	5	[0, 0, 0]	n/a	catFR1	3	R1269E
599.518	0.0	606465	DISTRACT_START	n/a	n/a	n/a	n/a	-999	5	[0, 0, 0]	n/a	catFR1	3	R1269E
599.518	0.02	606465	START	n/a	n/a	n/a	n/a	-999	5	[-999, -999, -999]	n/a	catFR1	3	R1269E
599.538	2.918	606485	PROB	2.918	n/a	n/a	n/a	-999	5	[2, 9, 7]	18	catFR1	3	R1269E
602.456	3.283	609403	PROB	3.283	n/a	n/a	n/a	-999	5	[2, 8, 6]	16	catFR1	3	R1269E
605.739	8.068	612686	PROB	8.068	n/a	n/a	n/a	-999	5	[8, 5, 6]	19	catFR1	3	R1269E
613.807	5.891	620754	PROB	5.891	n/a	n/a	n/a	-999	5	[7, 8, 9]	24	catFR1	3	R1269E
619.698	0.01	626645	STOP	n/a	n/a	n/a	n/a	-999	5	[-999, -999, -999]	n/a	catFR1	3	R1269E
619.708	0.517	626655	DISTRACT_END	n/a	n/a	n/a	n/a	-999	5	[0, 0, 0]	n/a	catFR1	3	R1269E
620.225	0.518	627171	RETRIEVAL_ORIENT	n/a	n/a	n/a	n/a	-999	5	[0, 0, 0]	n/a	catFR1	3	R1269E
620.743	0.894	627689	REC_START	n/a	n/a	n/a	n/a	-999	5	[0, 0, 0]	n/a	catFR1	3	R1269E
621.637	1.735	628583	REC_WORD	1.735	n/a	ELEPHANT	Zoo	10	5	[0, 0, 0]	n/a	catFR1	3	R1269E
623.372	0.92	630318	REC_WORD	0.92	n/a	GORILLA	Zoo	9	5	[0, 0, 0]	n/a	catFR1	3	R1269E
624.292	2.4	631238	REC_WORD	2.4	n/a	CHEETAH	Zoo	4	5	[0, 0, 0]	n/a	catFR1	3	R1269E
626.692	1.384	633638	REC_WORD	1.384	n/a	HAND	BodyParts	8	5	[0, 0, 0]	n/a	catFR1	3	R1269E
628.076	1.241	635022	REC_WORD	1.241	n/a	FOOT	n/a	-999	5	[0, 0, 0]	n/a	catFR1	3	R1269E
629.317	0.913	636263	REC_WORD	0.913	n/a	FINGERS	BodyParts	1	5	[0, 0, 0]	n/a	catFR1	3	R1269E
630.23	3.397	637176	REC_WORD	3.397	n/a	TOE	BodyParts	2	5	[0, 0, 0]	n/a	catFR1	3	R1269E
633.627	8.761	640573	REC_WORD	8.761	n/a	CHEEK	n/a	-999	5	[0, 0, 0]	n/a	catFR1	3	R1269E
642.388	8.366	649334	REC_WORD	8.366	n/a	ARM	n/a	-999	5	[0, 0, 0]	n/a	catFR1	3	R1269E
650.754	7.428	657699	REC_END	n/a	n/a	n/a	n/a	-999	5	[0, 0, 0]	n/a	catFR1	3	R1269E
658.182	0.5	665127	TRIAL	n/a	n/a	n/a	n/a	-999	6	[0, 0, 0]	n/a	catFR1	3	R1269E
658.682	10.428	665627	COUNTDOWN_START	n/a	n/a	n/a	n/a	-999	6	[0, 0, 0]	n/a	catFR1	3	R1269E
669.11	0.007	676055	COUNTDOWN_END	n/a	n/a	n/a	n/a	-999	6	[0, 0, 0]	n/a	catFR1	3	R1269E
669.117	1.617	676062	ORIENT	n/a	n/a	n/a	n/a	-999	6	[0, 0, 0]	n/a	catFR1	3	R1269E
670.734	2.017	677678	ORIENT_OFF	n/a	n/a	n/a	n/a	-999	6	[0, 0, 0]	n/a	catFR1	3	R1269E
672.751	1.617	679695	WORD	n/a	wordpools/wordpool_categorized_EN.txt	VAN	Vehicles	1	6	[0, 0, 0]	n/a	catFR1	3	R1269E
674.368	1.017	681312	WORD_OFF	n/a	n/a	VAN	n/a	1	6	[0, 0, 0]	n/a	catFR1	3	R1269E
675.385	1.617	682329	WORD	n/a	wordpools/wordpool_categorized_EN.txt	BUS	Vehicles	2	6	[0, 0, 0]	n/a	catFR1	3	R1269E
677.002	0.817	683946	WORD_OFF	n/a	n/a	BUS	n/a	2	6	[0, 0, 0]	n/a	catFR1	3	R1269E
677.819	1.617	684763	WORD	n/a	wordpools/wordpool_categorized_EN.txt	CELERY	Vegetables	3	6	[0, 0, 0]	n/a	catFR1	3	R1269E
679.436	0.867	686380	WORD_OFF	n/a	n/a	CELERY	n/a	3	6	[0, 0, 0]	n/a	catFR1	3	R1269E
680.303	1.617	687247	WORD	n/a	wordpools/wordpool_categorized_EN.txt	ONION	Vegetables	4	6	[0, 0, 0]	n/a	catFR1	3	R1269E
681.92	0.782	688864	WORD_OFF	n/a	n/a	ONION	n/a	4	6	[0, 0, 0]	n/a	catFR1	3	R1269E
682.702	1.601	689646	WORD	n/a	wordpools/wordpool_categorized_EN.txt	HAMMER	Tools	5	6	[0, 0, 0]	n/a	catFR1	3	R1269E
684.303	0.9	691247	WORD_OFF	n/a	n/a	HAMMER	n/a	5	6	[0, 0, 0]	n/a	catFR1	3	R1269E
685.203	1.617	692147	WORD	n/a	wordpools/wordpool_categorized_EN.txt	WRENCH	Tools	6	6	[0, 0, 0]	n/a	catFR1	3	R1269E
686.82	0.917	693764	WORD_OFF	n/a	n/a	WRENCH	n/a	6	6	[0, 0, 0]	n/a	catFR1	3	R1269E
687.737	1.617	694681	WORD	n/a	wordpools/wordpool_categorized_EN.txt	PLANE	Vehicles	7	6	[0, 0, 0]	n/a	catFR1	3	R1269E
689.354	0.884	696298	WORD_OFF	n/a	n/a	PLANE	n/a	7	6	[0, 0, 0]	n/a	catFR1	3	R1269E
690.238	1.617	697182	WORD	n/a	wordpools/wordpool_categorized_EN.txt	MOTORCYCLE	Vehicles	8	6	[0, 0, 0]	n/a	catFR1	3	R1269E
691.855	0.9	698799	WORD_OFF	n/a	n/a	MOTORCYCLE	n/a	8	6	[0, 0, 0]	n/a	catFR1	3	R1269E
692.755	1.617	699699	WORD	n/a	wordpools/wordpool_categorized_EN.txt	POTATO	Vegetables	9	6	[0, 0, 0]	n/a	catFR1	3	R1269E
694.372	0.983	701316	WORD_OFF	n/a	n/a	POTATO	n/a	9	6	[0, 0, 0]	n/a	catFR1	3	R1269E
695.355	1.617	702299	WORD	n/a	wordpools/wordpool_categorized_EN.txt	CORN	Vegetables	10	6	[0, 0, 0]	n/a	catFR1	3	R1269E
696.972	0.967	703915	WORD_OFF	n/a	n/a	CORN	n/a	10	6	[0, 0, 0]	n/a	catFR1	3	R1269E
697.939	1.616	704882	WORD	n/a	wordpools/wordpool_categorized_EN.txt	SCREWDRIVER	Tools	11	6	[0, 0, 0]	n/a	catFR1	3	R1269E
699.555	0.834	706498	WORD_OFF	n/a	n/a	SCREWDRIVER	n/a	11	6	[0, 0, 0]	n/a	catFR1	3	R1269E
700.389	1.617	707332	WORD	n/a	wordpools/wordpool_categorized_EN.txt	AXE	Tools	12	6	[0, 0, 0]	n/a	catFR1	3	R1269E
702.006	0.001	708949	WORD_OFF	n/a	n/a	AXE	n/a	12	6	[0, 0, 0]	n/a	catFR1	3	R1269E
702.007	0.13	708950	ENCODING_END	n/a	n/a	n/a	n/a	-999	6	[0, 0, 0]	n/a	catFR1	3	R1269E
702.137	0.0	709080	DISTRACT_START	n/a	n/a	n/a	n/a	-999	6	[0, 0, 0]	n/a	catFR1	3	R1269E
702.137	0.019	709080	START	n/a	n/a	n/a	n/a	-999	6	[-999, -999, -999]	n/a	catFR1	3	R1269E
702.156	2.618	709099	PROB	2.618	n/a	n/a	n/a	-999	6	[1, 8, 3]	12	catFR1	3	R1269E
704.774	3.183	711717	PROB	3.183	n/a	n/a	n/a	-999	6	[3, 9, 8]	20	catFR1	3	R1269E
707.957	2.6	714900	PROB	2.6	n/a	n/a	n/a	-999	6	[4, 4, 4]	12	catFR1	3	R1269E
710.557	3.084	717500	PROB	3.084	n/a	n/a	n/a	-999	6	[3, 3, 4]	10	catFR1	3	R1269E
713.641	2.751	720584	PROB	2.751	n/a	n/a	n/a	-999	6	[6, 3, 2]	11	catFR1	3	R1269E
716.392	3.751	723335	PROB	3.751	n/a	n/a	n/a	-999	6	[8, 1, 6]	15	catFR1	3	R1269E
720.143	4.93	727086	PROB	4.93	n/a	n/a	n/a	-999	6	[6, 4, 8]	18	catFR1	3	R1269E
725.073	0.021	732015	STOP	n/a	n/a	n/a	n/a	-999	6	[-999, -999, -999]	n/a	catFR1	3	R1269E
725.094	0.565	732036	DISTRACT_END	n/a	n/a	n/a	n/a	-999	6	[0, 0, 0]	n/a	catFR1	3	R1269E
725.659	0.519	732601	RETRIEVAL_ORIENT	n/a	n/a	n/a	n/a	-999	6	[0, 0, 0]	n/a	catFR1	3	R1269E
726.178	1.134	733120	REC_START	n/a	n/a	n/a	n/a	-999	6	[0, 0, 0]	n/a	catFR1	3	R1269E
727.312	1.477	734254	REC_WORD	1.477	n/a	SCREWDRIVER	Tools	11	6	[0, 0, 0]	n/a	catFR1	3	R1269E
728.789	4.46	735731	REC_WORD	4.46	n/a	MOTORCYCLE	Vehicles	8	6	[0, 0, 0]	n/a	catFR1	3	R1269E
733.249	3.978	740191	REC_WORD	3.978	n/a	AIRPLANE	n/a	-999	6	[0, 0, 0]	n/a	catFR1	3	R1269E
737.227	2.624	744169	REC_WORD	2.624	n/a	BUS	Vehicles	2	6	[0, 0, 0]	n/a	catFR1	3	R1269E
739.851	3.723	746793	REC_WORD	3.723	n/a	VAN	Vehicles	1	6	[0, 0, 0]	n/a	catFR1	3	R1269E
743.574	3.203	750516	REC_WORD	3.203	n/a	CAR	n/a	-999	6	[0, 0, 0]	n/a	catFR1	3	R1269E
746.777	0.805	753718	REC_WORD	0.805	n/a	CELERY	Vegetables	3	6	[0, 0, 0]	n/a	catFR1	3	R1269E
747.582	8.607	754523	REC_WORD	8.607	n/a	ONION	Vegetables	4	6	[0, 0, 0]	n/a	catFR1	3	R1269E
756.189	5.127	763130	REC_END	n/a	n/a	n/a	n/a	-999	6	[0, 0, 0]	n/a	catFR1	3	R1269E
761.316	0.5	768257	TRIAL	n/a	n/a	n/a	n/a	-999	7	[0, 0, 0]	n/a	catFR1	3	R1269E
761.816	10.428	768757	COUNTDOWN_START	n/a	n/a	n/a	n/a	-999	7	[0, 0, 0]	n/a	catFR1	3	R1269E
772.244	0.008	779184	COUNTDOWN_END	n/a	n/a	n/a	n/a	-999	7	[0, 0, 0]	n/a	catFR1	3	R1269E
772.252	1.617	779192	ORIENT	n/a	n/a	n/a	n/a	-999	7	[0, 0, 0]	n/a	catFR1	3	R1269E
773.869	1.967	780809	ORIENT_OFF	n/a	n/a	n/a	n/a	-999	7	[0, 0, 0]	n/a	catFR1	3	R1269E
775.836	1.617	782776	WORD	n/a	wordpools/wordpool_categorized_EN.txt	LIME	Fruit	1	7	[0, 0, 0]	n/a	catFR1	3	R1269E
777.453	0.883	784393	WORD_OFF	n/a	n/a	LIME	n/a	1	7	[0, 0, 0]	n/a	catFR1	3	R1269E
778.336	1.617	785276	WORD	n/a	wordpools/wordpool_categorized_EN.txt	GRAPE	Fruit	2	7	[0, 0, 0]	n/a	catFR1	3	R1269E
779.953	0.901	786893	WORD_OFF	n/a	n/a	GRAPE	n/a	2	7	[0, 0, 0]	n/a	catFR1	3	R1269E
780.854	1.616	787794	WORD	n/a	wordpools/wordpool_categorized_EN.txt	HALLWAY	Building	3	7	[0, 0, 0]	n/a	catFR1	3	R1269E
782.47	0.767	789410	WORD_OFF	n/a	n/a	HALLWAY	n/a	3	7	[0, 0, 0]	n/a	catFR1	3	R1269E
783.237	1.617	790177	WORD	n/a	wordpools/wordpool_categorized_EN.txt	CEILING	Building	4	7	[0, 0, 0]	n/a	catFR1	3	R1269E
784.854	0.917	791794	WORD_OFF	n/a	n/a	CEILING	n/a	4	7	[0, 0, 0]	n/a	catFR1	3	R1269E
785.771	1.617	792711	WORD	n/a	wordpools/wordpool_categorized_EN.txt	MOTH	Insects	5	7	[0, 0, 0]	n/a	catFR1	3	R1269E
787.388	0.817	794328	WORD_OFF	n/a	n/a	MOTH	n/a	5	7	[0, 0, 0]	n/a	catFR1	3	R1269E
788.205	1.617	795145	WORD	n/a	wordpools/wordpool_categorized_EN.txt	ROACH	Insects	6	7	[0, 0, 0]	n/a	catFR1	3	R1269E
789.822	1.017	796762	WORD_OFF	n/a	n/a	ROACH	n/a	6	7	[0, 0, 0]	n/a	catFR1	3	R1269E
790.839	1.617	797779	WORD	n/a	wordpools/wordpool_categorized_EN.txt	STAIRS	Building	7	7	[0, 0, 0]	n/a	catFR1	3	R1269E
792.456	0.85	799396	WORD_OFF	n/a	n/a	STAIRS	n/a	7	7	[0, 0, 0]	n/a	catFR1	3	R1269E
793.306	1.617	800246	WORD	n/a	wordpools/wordpool_categorized_EN.txt	WALL	Building	8	7	[0, 0, 0]	n/a	catFR1	3	R1269E
794.923	0.967	801863	WORD_OFF	n/a	n/a	WALL	n/a	8	7	[0, 0, 0]	n/a	catFR1	3	R1269E
795.89	1.616	802830	WORD	n/a	wordpools/wordpool_categorized_EN.txt	STRAWBERRY	Fruit	9	7	[0, 0, 0]	n/a	catFR1	3	R1269E
797.506	0.867	804445	WORD_OFF	n/a	n/a	STRAWBERRY	n/a	9	7	[0, 0, 0]	n/a	catFR1	3	R1269E
798.373	1.617	805312	WORD	n/a	wordpools/wordpool_categorized_EN.txt	CHERRY	Fruit	10	7	[0, 0, 0]	n/a	catFR1	3	R1269E
799.99	0.967	806929	WORD_OFF	n/a	n/a	CHERRY	n/a	10	7	[0, 0, 0]	n/a	catFR1	3	R1269E
800.957	1.616	807896	WORD	n/a	wordpools/wordpool_categorized_EN.txt	LADYBUG	Insects	11	7	[0, 0, 0]	n/a	catFR1	3	R1269E
802.573	0.951	809512	WORD_OFF	n/a	n/a	LADYBUG	n/a	11	7	[0, 0, 0]	n/a	catFR1	3	R1269E
803.524	1.617	810463	WORD	n/a	wordpools/wordpool_categorized_EN.txt	ANT	Insects	12	7	[0, 0, 0]	n/a	catFR1	3	R1269E
805.141	0.0	812080	ENCODING_END	n/a	n/a	n/a	n/a	-999	7	[0, 0, 0]	n/a	catFR1	3	R1269E
805.141	0.167	812080	WORD_OFF	n/a	n/a	ANT	n/a	12	7	[0, 0, 0]	n/a	catFR1	3	R1269E
805.308	0.0	812247	DISTRACT_START	n/a	n/a	n/a	n/a	-999	7	[0, 0, 0]	n/a	catFR1	3	R1269E
805.308	0.016	812247	START	n/a	n/a	n/a	n/a	-999	7	[-999, -999, -999]	n/a	catFR1	3	R1269E
805.324	6.251	812263	PROB	6.251	n/a	n/a	n/a	-999	7	[8, 6, 9]	23	catFR1	3	R1269E
811.575	3.518	818514	PROB	3.518	n/a	n/a	n/a	-999	7	[7, 3, 8]	18	catFR1	3	R1269E
815.093	4.284	822032	PROB	4.284	n/a	n/a	n/a	-999	7	[9, 5, 2]	16	catFR1	3	R1269E
819.377	3.567	826316	PROB	3.567	n/a	n/a	n/a	-999	7	[5, 7, 3]	15	catFR1	3	R1269E
822.944	3.505	829882	PROB	3.505	n/a	n/a	n/a	-999	7	[1, 2, 3]	6	catFR1	3	R1269E
826.449	0.013	833387	STOP	n/a	n/a	n/a	n/a	-999	7	[-999, -999, -999]	n/a	catFR1	3	R1269E
826.462	0.583	833400	DISTRACT_END	n/a	n/a	n/a	n/a	-999	7	[0, 0, 0]	n/a	catFR1	3	R1269E
827.045	0.516	833983	RETRIEVAL_ORIENT	n/a	n/a	n/a	n/a	-999	7	[0, 0, 0]	n/a	catFR1	3	R1269E
827.561	1.079	834499	REC_START	n/a	n/a	n/a	n/a	-999	7	[0, 0, 0]	n/a	catFR1	3	R1269E
828.64	0.847	835578	REC_WORD	0.847	n/a	LIME	Fruit	1	7	[0, 0, 0]	n/a	catFR1	3	R1269E
829.487	0.793	836425	REC_WORD	0.793	n/a	ROACH	Insects	6	7	[0, 0, 0]	n/a	catFR1	3	R1269E
830.28	1.601	837218	REC_WORD	1.601	n/a	ANT	Insects	12	7	[0, 0, 0]	n/a	catFR1	3	R1269E
831.881	3.702	838819	REC_WORD	3.702	n/a	MOTH	Insects	5	7	[0, 0, 0]	n/a	catFR1	3	R1269E
835.583	3.458	842521	REC_WORD	3.458	n/a	LADYBUG	Insects	11	7	[0, 0, 0]	n/a	catFR1	3	R1269E
839.041	1.101	845979	REC_WORD	1.101	n/a	HALLWAY	Building	3	7	[0, 0, 0]	n/a	catFR1	3	R1269E
840.142	4.469	847080	REC_WORD	4.469	n/a	CEILING	Building	4	7	[0, 0, 0]	n/a	catFR1	3	R1269E
844.611	7.26	851549	REC_WORD	7.26	n/a	STRAWBERRY	Fruit	9	7	[0, 0, 0]	n/a	catFR1	3	R1269E
851.871	5.701	858808	REC_WORD	5.701	n/a	FLOOR	n/a	-999	7	[0, 0, 0]	n/a	catFR1	3	R1269E
857.572	5.563	864509	REC_END	n/a	n/a	n/a	n/a	-999	7	[0, 0, 0]	n/a	catFR1	3	R1269E
863.135	0.5	870072	TRIAL	n/a	n/a	n/a	n/a	-999	8	[0, 0, 0]	n/a	catFR1	3	R1269E
863.635	10.428	870572	COUNTDOWN_START	n/a	n/a	n/a	n/a	-999	8	[0, 0, 0]	n/a	catFR1	3	R1269E
874.063	0.007	880999	COUNTDOWN_END	n/a	n/a	n/a	n/a	-999	8	[0, 0, 0]	n/a	catFR1	3	R1269E
874.07	1.616	881006	ORIENT	n/a	n/a	n/a	n/a	-999	8	[0, 0, 0]	n/a	catFR1	3	R1269E
875.686	2.118	882622	ORIENT_OFF	n/a	n/a	n/a	n/a	-999	8	[0, 0, 0]	n/a	catFR1	3	R1269E
877.804	1.617	884740	WORD	n/a	wordpools/wordpool_categorized_EN.txt	HURRICANE	Weather	1	8	[0, 0, 0]	n/a	catFR1	3	R1269E
879.421	0.833	886357	WORD_OFF	n/a	n/a	HURRICANE	n/a	1	8	[0, 0, 0]	n/a	catFR1	3	R1269E
880.254	1.617	887190	WORD	n/a	wordpools/wordpool_categorized_EN.txt	TORNADO	Weather	2	8	[0, 0, 0]	n/a	catFR1	3	R1269E
881.871	1.0	888807	WORD_OFF	n/a	n/a	TORNADO	n/a	2	8	[0, 0, 0]	n/a	catFR1	3	R1269E
882.871	1.617	889807	WORD	n/a	wordpools/wordpool_categorized_EN.txt	COAT	Clothing	3	8	[0, 0, 0]	n/a	catFR1	3	R1269E
884.488	0.784	891424	WORD_OFF	n/a	n/a	COAT	n/a	3	8	[0, 0, 0]	n/a	catFR1	3	R1269E
885.272	1.617	892208	WORD	n/a	wordpools/wordpool_categorized_EN.txt	SKIRT	Clothing	4	8	[0, 0, 0]	n/a	catFR1	3	R1269E
886.889	0.766	893825	WORD_OFF	n/a	n/a	SKIRT	n/a	4	8	[0, 0, 0]	n/a	catFR1	3	R1269E
887.655	1.618	894591	WORD	n/a	wordpools/wordpool_categorized_EN.txt	VIOLIN	Instruments	5	8	[0, 0, 0]	n/a	catFR1	3	R1269E
889.273	0.9	896209	WORD_OFF	n/a	n/a	VIOLIN	n/a	5	8	[0, 0, 0]	n/a	catFR1	3	R1269E
890.173	1.617	897109	WORD	n/a	wordpools/wordpool_categorized_EN.txt	DRUM	Instruments	6	8	[0, 0, 0]	n/a	catFR1	3	R1269E
891.79	0.849	898726	WORD_OFF	n/a	n/a	DRUM	n/a	6	8	[0, 0, 0]	n/a	catFR1	3	R1269E
892.639	1.618	899575	WORD	n/a	wordpools/wordpool_categorized_EN.txt	HUMIDITY	Weather	7	8	[0, 0, 0]	n/a	catFR1	3	R1269E
894.257	1.0	901193	WORD_OFF	n/a	n/a	HUMIDITY	n/a	7	8	[0, 0, 0]	n/a	catFR1	3	R1269E
895.257	1.617	902193	WORD	n/a	wordpools/wordpool_categorized_EN.txt	RAIN	Weather	8	8	[0, 0, 0]	n/a	catFR1	3	R1269E
896.874	0.867	903810	WORD_OFF	n/a	n/a	RAIN	n/a	8	8	[0, 0, 0]	n/a	catFR1	3	R1269E
897.741	1.617	904676	WORD	n/a	wordpools/wordpool_categorized_EN.txt	BLOUSE	Clothing	9	8	[0, 0, 0]	n/a	catFR1	3	R1269E
899.358	1.0	906293	WORD_OFF	n/a	n/a	BLOUSE	n/a	9	8	[0, 0, 0]	n/a	catFR1	3	R1269E
900.358	1.617	907293	WORD	n/a	wordpools/wordpool_categorized_EN.txt	SHORTS	Clothing	10	8	[0, 0, 0]	n/a	catFR1	3	R1269E
901.975	0.8	908910	WORD_OFF	n/a	n/a	SHORTS	n/a	10	8	[0, 0, 0]	n/a	catFR1	3	R1269E
902.775	1.617	909710	WORD	n/a	wordpools/wordpool_categorized_EN.txt	FLUTE	Instruments	11	8	[0, 0, 0]	n/a	catFR1	3	R1269E
904.392	0.883	911327	WORD_OFF	n/a	n/a	FLUTE	n/a	11	8	[0, 0, 0]	n/a	catFR1	3	R1269E
905.275	1.617	912210	WORD	n/a	wordpools/wordpool_categorized_EN.txt	TROMBONE	Instruments	12	8	[0, 0, 0]	n/a	catFR1	3	R1269E
906.892	0.001	913827	WORD_OFF	n/a	n/a	TROMBONE	n/a	12	8	[0, 0, 0]	n/a	catFR1	3	R1269E
906.893	0.131	913828	ENCODING_END	n/a	n/a	n/a	n/a	-999	8	[0, 0, 0]	n/a	catFR1	3	R1269E
907.024	0.0	913959	DISTRACT_START	n/a	n/a	n/a	n/a	-999	8	[0, 0, 0]	n/a	catFR1	3	R1269E
907.024	0.018	913959	START	n/a	n/a	n/a	n/a	-999	8	[-999, -999, -999]	n/a	catFR1	3	R1269E
907.042	2.533	913977	PROB	2.533	n/a	n/a	n/a	-999	8	[1, 4, 4]	9	catFR1	3	R1269E
909.575	2.485	916510	PROB	2.485	n/a	n/a	n/a	-999	8	[5, 8, 2]	17	catFR1	3	R1269E
912.06	3.084	918995	PROB	3.084	n/a	n/a	n/a	-999	8	[1, 9, 9]	19	catFR1	3	R1269E
915.144	5.416	922079	PROB	5.416	n/a	n/a	n/a	-999	8	[5, 9, 4]	18	catFR1	3	R1269E
920.56	5.636	927495	PROB	5.636	n/a	n/a	n/a	-999	8	[3, 9, 4]	16	catFR1	3	R1269E
926.196	4.612	933130	PROB	4.612	n/a	n/a	n/a	-999	8	[9, 4, 5]	18	catFR1	3	R1269E
930.808	0.022	937742	STOP	n/a	n/a	n/a	n/a	-999	8	[-999, -999, -999]	n/a	catFR1	3	R1269E
930.83	0.583	937764	DISTRACT_END	n/a	n/a	n/a	n/a	-999	8	[0, 0, 0]	n/a	catFR1	3	R1269E
931.413	0.518	938347	RETRIEVAL_ORIENT	n/a	n/a	n/a	n/a	-999	8	[0, 0, 0]	n/a	catFR1	3	R1269E
931.931	2.896	938865	REC_START	n/a	n/a	n/a	n/a	-999	8	[0, 0, 0]	n/a	catFR1	3	R1269E
934.827	0.687	941761	REC_WORD	0.687	n/a	BLOUSE	Clothing	9	8	[0, 0, 0]	n/a	catFR1	3	R1269E
935.514	0.839	942448	REC_WORD	0.839	n/a	SKIRT	Clothing	4	8	[0, 0, 0]	n/a	catFR1	3	R1269E
936.353	1.12	943287	REC_WORD	1.12	n/a	SHORTS	Clothing	10	8	[0, 0, 0]	n/a	catFR1	3	R1269E
937.473	3.29	944407	REC_WORD	3.29	n/a	COAT	Clothing	3	8	[0, 0, 0]	n/a	catFR1	3	R1269E
940.763	0.72	947697	REC_WORD	0.72	n/a	HURRICANE	Weather	1	8	[0, 0, 0]	n/a	catFR1	3	R1269E
941.483	2.258	948417	REC_WORD	2.258	n/a	TORNADO	Weather	2	8	[0, 0, 0]	n/a	catFR1	3	R1269E
943.741	9.327	950675	REC_WORD	9.327	n/a	THUNDERSTORM	n/a	-999	8	[0, 0, 0]	n/a	catFR1	3	R1269E
953.068	0.96	960001	REC_WORD	0.96	n/a	DRIZZLE	n/a	-999	8	[0, 0, 0]	n/a	catFR1	3	R1269E
954.028	1.78	960961	REC_WORD	1.78	n/a	TROMBONE	Instruments	12	8	[0, 0, 0]	n/a	catFR1	3	R1269E
955.808	2.779	962741	REC_WORD	2.779	n/a	VIOLIN	Instruments	5	8	[0, 0, 0]	n/a	catFR1	3	R1269E
958.587	3.354	965520	REC_WORD	3.354	n/a	DRUM	Instruments	6	8	[0, 0, 0]	n/a	catFR1	3	R1269E
961.941	5.395	968874	REC_END	n/a	n/a	n/a	n/a	-999	8	[0, 0, 0]	n/a	catFR1	3	R1269E
967.336	0.5	974269	TRIAL	n/a	n/a	n/a	n/a	-999	9	[0, 0, 0]	n/a	catFR1	3	R1269E
967.836	10.428	974769	COUNTDOWN_START	n/a	n/a	n/a	n/a	-999	9	[0, 0, 0]	n/a	catFR1	3	R1269E
978.264	0.008	985196	COUNTDOWN_END	n/a	n/a	n/a	n/a	-999	9	[0, 0, 0]	n/a	catFR1	3	R1269E
978.272	1.616	985204	ORIENT	n/a	n/a	n/a	n/a	-999	9	[0, 0, 0]	n/a	catFR1	3	R1269E
979.888	2.001	986820	ORIENT_OFF	n/a	n/a	n/a	n/a	-999	9	[0, 0, 0]	n/a	catFR1	3	R1269E
981.889	1.617	988821	WORD	n/a	wordpools/wordpool_categorized_EN.txt	LOBSTER	OceanAnimals	1	9	[0, 0, 0]	n/a	catFR1	3	R1269E
983.506	0.817	990438	WORD_OFF	n/a	n/a	LOBSTER	n/a	1	9	[0, 0, 0]	n/a	catFR1	3	R1269E
984.323	1.617	991255	WORD	n/a	wordpools/wordpool_categorized_EN.txt	PLANKTON	OceanAnimals	2	9	[0, 0, 0]	n/a	catFR1	3	R1269E
985.94	0.782	992872	WORD_OFF	n/a	n/a	PLANKTON	n/a	2	9	[0, 0, 0]	n/a	catFR1	3	R1269E
986.722	1.618	993654	WORD	n/a	wordpools/wordpool_categorized_EN.txt	TUBA	Instruments	3	9	[0, 0, 0]	n/a	catFR1	3	R1269E
988.34	0.783	995272	WORD_OFF	n/a	n/a	TUBA	n/a	3	9	[0, 0, 0]	n/a	catFR1	3	R1269E
989.123	1.617	996055	WORD	n/a	wordpools/wordpool_categorized_EN.txt	BANJO	Instruments	4	9	[0, 0, 0]	n/a	catFR1	3	R1269E
990.74	1.001	997672	WORD_OFF	n/a	n/a	BANJO	n/a	4	9	[0, 0, 0]	n/a	catFR1	3	R1269E
991.741	1.616	998673	WORD	n/a	wordpools/wordpool_categorized_EN.txt	DOLL	Toys	5	9	[0, 0, 0]	n/a	catFR1	3	R1269E
993.357	0.95	1000289	WORD_OFF	n/a	n/a	DOLL	n/a	5	9	[0, 0, 0]	n/a	catFR1	3	R1269E
994.307	1.618	1001239	WORD	n/a	wordpools/wordpool_categorized_EN.txt	BASKETBALL	Toys	6	9	[0, 0, 0]	n/a	catFR1	3	R1269E
995.925	0.799	1002857	WORD_OFF	n/a	n/a	BASKETBALL	n/a	6	9	[0, 0, 0]	n/a	catFR1	3	R1269E
996.724	1.618	1003656	WORD	n/a	wordpools/wordpool_categorized_EN.txt	OYSTER	OceanAnimals	7	9	[0, 0, 0]	n/a	catFR1	3	R1269E
998.342	0.817	1005274	WORD_OFF	n/a	n/a	OYSTER	n/a	7	9	[0, 0, 0]	n/a	catFR1	3	R1269E
999.159	1.616	1006090	WORD	n/a	wordpools/wordpool_categorized_EN.txt	JELLYFISH	OceanAnimals	8	9	[0, 0, 0]	n/a	catFR1	3	R1269E
1000.775	0.9	1007706	WORD_OFF	n/a	n/a	JELLYFISH	n/a	8	9	[0, 0, 0]	n/a	catFR1	3	R1269E
1001.675	1.618	1008606	WORD	n/a	wordpools/wordpool_categorized_EN.txt	CELLO	Instruments	9	9	[0, 0, 0]	n/a	catFR1	3	R1269E
1003.293	0.883	1010224	WORD_OFF	n/a	n/a	CELLO	n/a	9	9	[0, 0, 0]	n/a	catFR1	3	R1269E
1004.176	1.617	1011107	WORD	n/a	wordpools/wordpool_categorized_EN.txt	ORGAN	Instruments	10	9	[0, 0, 0]	n/a	catFR1	3	R1269E
1005.793	0.932	1012724	WORD_OFF	n/a	n/a	ORGAN	n/a	10	9	[0, 0, 0]	n/a	catFR1	3	R1269E
1006.725	1.618	1013656	WORD	n/a	wordpools/wordpool_categorized_EN.txt	PUZZLE	Toys	11	9	[0, 0, 0]	n/a	catFR1	3	R1269E
1008.343	0.867	1015274	WORD_OFF	n/a	n/a	PUZZLE	n/a	11	9	[0, 0, 0]	n/a	catFR1	3	R1269E
1009.21	1.617	1016141	WORD	n/a	wordpools/wordpool_categorized_EN.txt	SLINKY	Toys	12	9	[0, 0, 0]	n/a	catFR1	3	R1269E
1010.827	0.001	1017758	WORD_OFF	n/a	n/a	SLINKY	n/a	12	9	[0, 0, 0]	n/a	catFR1	3	R1269E
1010.828	0.132	1017759	ENCODING_END	n/a	n/a	n/a	n/a	-999	9	[0, 0, 0]	n/a	catFR1	3	R1269E
1010.96	0.001	1017891	DISTRACT_START	n/a	n/a	n/a	n/a	-999	9	[0, 0, 0]	n/a	catFR1	3	R1269E
1010.961	0.016	1017892	START	n/a	n/a	n/a	n/a	-999	9	[-999, -999, -999]	n/a	catFR1	3	R1269E
1010.977	4.301	1017908	PROB	4.301	n/a	n/a	n/a	-999	9	[3, 5, 8]	16	catFR1	3	R1269E
1015.278	5.367	1022209	PROB	5.367	n/a	n/a	n/a	-999	9	[4, 6, 2]	12	catFR1	3	R1269E
1020.645	4.017	1027576	PROB	4.017	n/a	n/a	n/a	-999	9	[1, 5, 8]	14	catFR1	3	R1269E
1024.662	6.387	1031592	PROB	6.387	n/a	n/a	n/a	-999	9	[6, 7, 6]	19	catFR1	3	R1269E
1031.049	0.015	1037979	STOP	n/a	n/a	n/a	n/a	-999	9	[-999, -999, -999]	n/a	catFR1	3	R1269E
1031.064	0.516	1037994	DISTRACT_END	n/a	n/a	n/a	n/a	-999	9	[0, 0, 0]	n/a	catFR1	3	R1269E
1031.58	0.501	1038510	RETRIEVAL_ORIENT	n/a	n/a	n/a	n/a	-999	9	[0, 0, 0]	n/a	catFR1	3	R1269E
1032.081	0.59	1039011	REC_START	n/a	n/a	n/a	n/a	-999	9	[0, 0, 0]	n/a	catFR1	3	R1269E
1032.671	0.888	1039601	REC_WORD	0.888	n/a	LOBSTER	OceanAnimals	1	9	[0, 0, 0]	n/a	catFR1	3	R1269E
1033.559	2.053	1040489	REC_WORD	2.053	n/a	PLANKTON	OceanAnimals	2	9	[0, 0, 0]	n/a	catFR1	3	R1269E
1035.612	5.705	1042542	REC_WORD	5.705	n/a	WHALE	n/a	-999	9	[0, 0, 0]	n/a	catFR1	3	R1269E
1041.317	5.739	1048247	REC_WORD	5.739	n/a	TUBA	Instruments	3	9	[0, 0, 0]	n/a	catFR1	3	R1269E
1047.056	7.934	1053986	REC_WORD	7.934	n/a	CELLO	Instruments	9	9	[0, 0, 0]	n/a	catFR1	3	R1269E
1054.99	7.102	1061919	REC_WORD	7.102	n/a	PIANO	n/a	-999	9	[0, 0, 0]	n/a	catFR1	3	R1269E
1062.092	5.945	1069021	REC_END	n/a	n/a	n/a	n/a	-999	9	[0, 0, 0]	n/a	catFR1	3	R1269E
1068.037	0.5	1074966	TRIAL	n/a	n/a	n/a	n/a	-999	10	[0, 0, 0]	n/a	catFR1	3	R1269E
1068.537	10.428	1075466	COUNTDOWN_START	n/a	n/a	n/a	n/a	-999	10	[0, 0, 0]	n/a	catFR1	3	R1269E
1078.965	0.008	1085893	COUNTDOWN_END	n/a	n/a	n/a	n/a	-999	10	[0, 0, 0]	n/a	catFR1	3	R1269E
1078.973	1.616	1085901	ORIENT	n/a	n/a	n/a	n/a	-999	10	[0, 0, 0]	n/a	catFR1	3	R1269E
1080.589	1.884	1087517	ORIENT_OFF	n/a	n/a	n/a	n/a	-999	10	[0, 0, 0]	n/a	catFR1	3	R1269E
1082.473	1.617	1089401	WORD	n/a	wordpools/wordpool_categorized_EN.txt	FREEZER	Appliances	1	10	[0, 0, 0]	n/a	catFR1	3	R1269E
1084.09	0.967	1091018	WORD_OFF	n/a	n/a	FREEZER	n/a	1	10	[0, 0, 0]	n/a	catFR1	3	R1269E
1085.057	1.616	1091985	WORD	n/a	wordpools/wordpool_categorized_EN.txt	STOVE	Appliances	2	10	[0, 0, 0]	n/a	catFR1	3	R1269E
1086.673	1.017	1093601	WORD_OFF	n/a	n/a	STOVE	n/a	2	10	[0, 0, 0]	n/a	catFR1	3	R1269E
1087.69	1.618	1094618	WORD	n/a	wordpools/wordpool_categorized_EN.txt	MOSQUITO	Insects	3	10	[0, 0, 0]	n/a	catFR1	3	R1269E
1089.308	0.983	1096236	WORD_OFF	n/a	n/a	MOSQUITO	n/a	3	10	[0, 0, 0]	n/a	catFR1	3	R1269E
1090.291	1.617	1097219	WORD	n/a	wordpools/wordpool_categorized_EN.txt	BEETLE	Insects	4	10	[0, 0, 0]	n/a	catFR1	3	R1269E
1091.908	1.0	1098836	WORD_OFF	n/a	n/a	BEETLE	n/a	4	10	[0, 0, 0]	n/a	catFR1	3	R1269E
1092.908	1.617	1099836	WORD	n/a	wordpools/wordpool_categorized_EN.txt	BIKE	Vehicles	5	10	[0, 0, 0]	n/a	catFR1	3	R1269E
1094.525	0.917	1101453	WORD_OFF	n/a	n/a	BIKE	n/a	5	10	[0, 0, 0]	n/a	catFR1	3	R1269E
1095.442	1.617	1102370	WORD	n/a	wordpools/wordpool_categorized_EN.txt	BOAT	Vehicles	6	10	[0, 0, 0]	n/a	catFR1	3	R1269E
1097.059	0.834	1103987	WORD_OFF	n/a	n/a	BOAT	n/a	6	10	[0, 0, 0]	n/a	catFR1	3	R1269E
1097.893	1.617	1104821	WORD	n/a	wordpools/wordpool_categorized_EN.txt	OVEN	Appliances	7	10	[0, 0, 0]	n/a	catFR1	3	R1269E
1099.51	0.833	1106438	WORD_OFF	n/a	n/a	OVEN	n/a	7	10	[0, 0, 0]	n/a	catFR1	3	R1269E
1100.343	1.617	1107270	WORD	n/a	wordpools/wordpool_categorized_EN.txt	WASHER	Appliances	8	10	[0, 0, 0]	n/a	catFR1	3	R1269E
1101.96	0.983	1108887	WORD_OFF	n/a	n/a	WASHER	n/a	8	10	[0, 0, 0]	n/a	catFR1	3	R1269E
1102.943	1.616	1109870	WORD	n/a	wordpools/wordpool_categorized_EN.txt	BUTTERFLY	Insects	9	10	[0, 0, 0]	n/a	catFR1	3	R1269E
1104.559	0.918	1111486	WORD_OFF	n/a	n/a	BUTTERFLY	n/a	9	10	[0, 0, 0]	n/a	catFR1	3	R1269E
1105.477	1.617	1112404	WORD	n/a	wordpools/wordpool_categorized_EN.txt	BEE	Insects	10	10	[0, 0, 0]	n/a	catFR1	3	R1269E
1107.094	0.85	1114021	WORD_OFF	n/a	n/a	BEE	n/a	10	10	[0, 0, 0]	n/a	catFR1	3	R1269E
1107.944	1.616	1114871	WORD	n/a	wordpools/wordpool_categorized_EN.txt	TRUCK	Vehicles	11	10	[0, 0, 0]	n/a	catFR1	3	R1269E
1109.56	0.918	1116487	WORD_OFF	n/a	n/a	TRUCK	n/a	11	10	[0, 0, 0]	n/a	catFR1	3	R1269E
1110.478	1.617	1117405	WORD	n/a	wordpools/wordpool_categorized_EN.txt	JEEP	Vehicles	12	10	[0, 0, 0]	n/a	catFR1	3	R1269E
1112.095	0.0	1119022	ENCODING_END	n/a	n/a	n/a	n/a	-999	10	[0, 0, 0]	n/a	catFR1	3	R1269E
1112.095	0.164	1119022	WORD_OFF	n/a	n/a	JEEP	n/a	12	10	[0, 0, 0]	n/a	catFR1	3	R1269E
1112.259	0.0	1119186	DISTRACT_START	n/a	n/a	n/a	n/a	-999	10	[0, 0, 0]	n/a	catFR1	3	R1269E
1112.259	0.019	1119186	START	n/a	n/a	n/a	n/a	-999	10	[-999, -999, -999]	n/a	catFR1	3	R1269E
1112.278	5.701	1119205	PROB	5.701	n/a	n/a	n/a	-999	10	[5, 8, 6]	19	catFR1	3	R1269E
1117.979	3.518	1124906	PROB	3.518	n/a	n/a	n/a	-999	10	[2, 1, 9]	13	catFR1	3	R1269E
1121.497	5.667	1128424	PROB	5.667	n/a	n/a	n/a	-999	10	[4, 7, 9]	20	catFR1	3	R1269E
1127.164	6.021	1134090	PROB	6.021	n/a	n/a	n/a	-999	10	[9, 9, 3]	21	catFR1	3	R1269E
1133.185	0.014	1140111	STOP	n/a	n/a	n/a	n/a	-999	10	[-999, -999, -999]	n/a	catFR1	3	R1269E
1133.199	0.65	1140125	DISTRACT_END	n/a	n/a	n/a	n/a	-999	10	[0, 0, 0]	n/a	catFR1	3	R1269E
1133.849	0.517	1140775	RETRIEVAL_ORIENT	n/a	n/a	n/a	n/a	-999	10	[0, 0, 0]	n/a	catFR1	3	R1269E
1134.366	0.496	1141292	REC_START	n/a	n/a	n/a	n/a	-999	10	[0, 0, 0]	n/a	catFR1	3	R1269E
1134.862	2.49	1141788	REC_WORD	2.49	n/a	JEEP	Vehicles	12	10	[0, 0, 0]	n/a	catFR1	3	R1269E
1137.352	0.327	1144278	REC_WORD_VV	0.327	n/a	<>	n/a	-999	10	[0, 0, 0]	n/a	catFR1	3	R1269E
1137.679	0.913	1144605	REC_WORD	0.913	n/a	BIKE	Vehicles	5	10	[0, 0, 0]	n/a	catFR1	3	R1269E
1138.592	2.214	1145518	REC_WORD	2.214	n/a	TRUCK	Vehicles	11	10	[0, 0, 0]	n/a	catFR1	3	R1269E
1140.806	0.84	1147732	REC_WORD_VV	0.84	n/a	<>	n/a	-999	10	[0, 0, 0]	n/a	catFR1	3	R1269E
1141.646	3.754	1148572	REC_WORD	3.754	n/a	BUTTERFLY	Insects	9	10	[0, 0, 0]	n/a	catFR1	3	R1269E
1145.4	8.729	1152326	REC_WORD	8.729	n/a	BEETLE	Insects	4	10	[0, 0, 0]	n/a	catFR1	3	R1269E
1154.129	10.25	1161054	REC_WORD	10.25	n/a	BANJO	n/a	-999	10	[0, 0, 0]	n/a	catFR1	3	R1269E
1164.379	10.094	1171304	REC_END	n/a	n/a	n/a	n/a	-999	10	[0, 0, 0]	n/a	catFR1	3	R1269E
1174.473	0.5	1181398	TRIAL	n/a	n/a	n/a	n/a	-999	11	[0, 0, 0]	n/a	catFR1	3	R1269E
1174.973	10.428	1181898	COUNTDOWN_START	n/a	n/a	n/a	n/a	-999	11	[0, 0, 0]	n/a	catFR1	3	R1269E
1185.401	0.007	1192325	COUNTDOWN_END	n/a	n/a	n/a	n/a	-999	11	[0, 0, 0]	n/a	catFR1	3	R1269E
1185.408	1.617	1192332	ORIENT	n/a	n/a	n/a	n/a	-999	11	[0, 0, 0]	n/a	catFR1	3	R1269E
1187.025	2.334	1193949	ORIENT_OFF	n/a	n/a	n/a	n/a	-999	11	[0, 0, 0]	n/a	catFR1	3	R1269E
1189.359	1.617	1196283	WORD	n/a	wordpools/wordpool_categorized_EN.txt	PAPER	OfficeSupplies	1	11	[0, 0, 0]	n/a	catFR1	3	R1269E
1190.976	0.833	1197900	WORD_OFF	n/a	n/a	PAPER	n/a	1	11	[0, 0, 0]	n/a	catFR1	3	R1269E
1191.809	1.617	1198733	WORD	n/a	wordpools/wordpool_categorized_EN.txt	GLUE	OfficeSupplies	2	11	[0, 0, 0]	n/a	catFR1	3	R1269E
1193.426	0.95	1200350	WORD_OFF	n/a	n/a	GLUE	n/a	2	11	[0, 0, 0]	n/a	catFR1	3	R1269E
1194.376	1.617	1201300	WORD	n/a	wordpools/wordpool_categorized_EN.txt	CHICKEN	FarmAnimals	3	11	[0, 0, 0]	n/a	catFR1	3	R1269E
1195.993	0.817	1202917	WORD_OFF	n/a	n/a	CHICKEN	n/a	3	11	[0, 0, 0]	n/a	catFR1	3	R1269E
1196.81	1.617	1203734	WORD	n/a	wordpools/wordpool_categorized_EN.txt	ROOSTER	FarmAnimals	4	11	[0, 0, 0]	n/a	catFR1	3	R1269E
1198.427	0.783	1205351	WORD_OFF	n/a	n/a	ROOSTER	n/a	4	11	[0, 0, 0]	n/a	catFR1	3	R1269E
1199.21	1.617	1206134	WORD	n/a	wordpools/wordpool_categorized_EN.txt	PEAS	Vegetables	5	11	[0, 0, 0]	n/a	catFR1	3	R1269E
1200.827	0.934	1207751	WORD_OFF	n/a	n/a	PEAS	n/a	5	11	[0, 0, 0]	n/a	catFR1	3	R1269E
1201.761	1.617	1208684	WORD	n/a	wordpools/wordpool_categorized_EN.txt	LETTUCE	Vegetables	6	11	[0, 0, 0]	n/a	catFR1	3	R1269E
1203.378	0.85	1210301	WORD_OFF	n/a	n/a	LETTUCE	n/a	6	11	[0, 0, 0]	n/a	catFR1	3	R1269E
1204.228	1.617	1211151	WORD	n/a	wordpools/wordpool_categorized_EN.txt	PIG	FarmAnimals	7	11	[0, 0, 0]	n/a	catFR1	3	R1269E
1205.845	0.866	1212768	WORD_OFF	n/a	n/a	PIG	n/a	7	11	[0, 0, 0]	n/a	catFR1	3	R1269E
1206.711	1.618	1213634	WORD	n/a	wordpools/wordpool_categorized_EN.txt	SHEEP	FarmAnimals	8	11	[0, 0, 0]	n/a	catFR1	3	R1269E
1208.329	0.9	1215252	WORD_OFF	n/a	n/a	SHEEP	n/a	8	11	[0, 0, 0]	n/a	catFR1	3	R1269E
1209.229	1.617	1216152	WORD	n/a	wordpools/wordpool_categorized_EN.txt	PENCIL	OfficeSupplies	9	11	[0, 0, 0]	n/a	catFR1	3	R1269E
1210.846	0.782	1217769	WORD_OFF	n/a	n/a	PENCIL	n/a	9	11	[0, 0, 0]	n/a	catFR1	3	R1269E
1211.628	1.601	1218551	WORD	n/a	wordpools/wordpool_categorized_EN.txt	RULER	OfficeSupplies	10	11	[0, 0, 0]	n/a	catFR1	3	R1269E
1213.229	0.851	1220152	WORD_OFF	n/a	n/a	RULER	n/a	10	11	[0, 0, 0]	n/a	catFR1	3	R1269E
1214.08	1.616	1221003	WORD	n/a	wordpools/wordpool_categorized_EN.txt	SPINACH	Vegetables	11	11	[0, 0, 0]	n/a	catFR1	3	R1269E
1215.696	0.983	1222619	WORD_OFF	n/a	n/a	SPINACH	n/a	11	11	[0, 0, 0]	n/a	catFR1	3	R1269E
1216.679	1.618	1223602	WORD	n/a	wordpools/wordpool_categorized_EN.txt	CUCUMBER	Vegetables	12	11	[0, 0, 0]	n/a	catFR1	3	R1269E
1218.297	0.0	1225220	ENCODING_END	n/a	n/a	n/a	n/a	-999	11	[0, 0, 0]	n/a	catFR1	3	R1269E
1218.297	0.13	1225220	WORD_OFF	n/a	n/a	CUCUMBER	n/a	12	11	[0, 0, 0]	n/a	catFR1	3	R1269E
1218.427	0.0	1225350	DISTRACT_START	n/a	n/a	n/a	n/a	-999	11	[0, 0, 0]	n/a	catFR1	3	R1269E
1218.427	0.02	1225350	START	n/a	n/a	n/a	n/a	-999	11	[-999, -999, -999]	n/a	catFR1	3	R1269E
1218.447	3.467	1225370	PROB	3.467	n/a	n/a	n/a	-999	11	[7, 8, 2]	17	catFR1	3	R1269E
1221.914	2.666	1228837	PROB	2.666	n/a	n/a	n/a	-999	11	[4, 6, 3]	13	catFR1	3	R1269E
1224.58	2.935	1231503	PROB	2.935	n/a	n/a	n/a	-999	11	[4, 1, 5]	10	catFR1	3	R1269E
1227.515	2.384	1234437	PROB	2.384	n/a	n/a	n/a	-999	11	[1, 6, 3]	10	catFR1	3	R1269E
1229.899	4.918	1236821	PROB	4.918	n/a	n/a	n/a	-999	11	[3, 4, 9]	16	catFR1	3	R1269E
1234.817	4.368	1241739	PROB	4.368	n/a	n/a	n/a	-999	11	[3, 5, 3]	11	catFR1	3	R1269E
1239.185	0.016	1246107	STOP	n/a	n/a	n/a	n/a	-999	11	[-999, -999, -999]	n/a	catFR1	3	R1269E
1239.201	0.567	1246123	DISTRACT_END	n/a	n/a	n/a	n/a	-999	11	[0, 0, 0]	n/a	catFR1	3	R1269E
1239.768	0.517	1246690	RETRIEVAL_ORIENT	n/a	n/a	n/a	n/a	-999	11	[0, 0, 0]	n/a	catFR1	3	R1269E
1240.285	0.41	1247207	REC_START	n/a	n/a	n/a	n/a	-999	11	[0, 0, 0]	n/a	catFR1	3	R1269E
1240.695	0.831	1247617	REC_WORD	0.831	n/a	CHICKEN	FarmAnimals	3	11	[0, 0, 0]	n/a	catFR1	3	R1269E
1241.526	3.006	1248448	REC_WORD	3.006	n/a	ROOSTER	FarmAnimals	4	11	[0, 0, 0]	n/a	catFR1	3	R1269E
1244.532	1.412	1251454	REC_WORD	1.412	n/a	GOAT	n/a	-999	11	[0, 0, 0]	n/a	catFR1	3	R1269E
1245.944	0.971	1252866	REC_WORD	0.971	n/a	SHEEP	FarmAnimals	8	11	[0, 0, 0]	n/a	catFR1	3	R1269E
1246.915	3.613	1253837	REC_WORD	3.613	n/a	EGG	n/a	-999	11	[0, 0, 0]	n/a	catFR1	3	R1269E
1250.528	0.965	1257450	REC_WORD	0.965	n/a	CUCUMBER	Vegetables	12	11	[0, 0, 0]	n/a	catFR1	3	R1269E
1251.493	2.77	1258414	REC_WORD	2.77	n/a	LETTUCE	Vegetables	6	11	[0, 0, 0]	n/a	catFR1	3	R1269E
1254.263	2.927	1261184	REC_WORD	2.927	n/a	SPINACH	Vegetables	11	11	[0, 0, 0]	n/a	catFR1	3	R1269E
1257.19	11.64	1264111	REC_WORD	11.64	n/a	PEAS	Vegetables	5	11	[0, 0, 0]	n/a	catFR1	3	R1269E
1268.83	1.465	1275751	REC_WORD	1.465	n/a	HORSE	n/a	-999	11	[0, 0, 0]	n/a	catFR1	3	R1269E
1270.295	6.261	1277216	REC_END	n/a	n/a	n/a	n/a	-999	11	[0, 0, 0]	n/a	catFR1	3	R1269E
1276.556	0.5	1283477	TRIAL	n/a	n/a	n/a	n/a	-999	12	[0, 0, 0]	n/a	catFR1	3	R1269E
1277.056	10.428	1283976	COUNTDOWN_START	n/a	n/a	n/a	n/a	-999	12	[0, 0, 0]	n/a	catFR1	3	R1269E
1287.484	0.009	1294404	COUNTDOWN_END	n/a	n/a	n/a	n/a	-999	12	[0, 0, 0]	n/a	catFR1	3	R1269E
1287.493	1.617	1294413	ORIENT	n/a	n/a	n/a	n/a	-999	12	[0, 0, 0]	n/a	catFR1	3	R1269E
1289.11	2.017	1296030	ORIENT_OFF	n/a	n/a	n/a	n/a	-999	12	[0, 0, 0]	n/a	catFR1	3	R1269E
1291.127	1.616	1298047	WORD	n/a	wordpools/wordpool_categorized_EN.txt	LAKE	Landscapes	1	12	[0, 0, 0]	n/a	catFR1	3	R1269E
1292.743	1.001	1299663	WORD_OFF	n/a	n/a	LAKE	n/a	1	12	[0, 0, 0]	n/a	catFR1	3	R1269E
1293.744	1.617	1300664	WORD	n/a	wordpools/wordpool_categorized_EN.txt	OCEAN	Landscapes	2	12	[0, 0, 0]	n/a	catFR1	3	R1269E
1295.361	0.766	1302281	WORD_OFF	n/a	n/a	OCEAN	n/a	2	12	[0, 0, 0]	n/a	catFR1	3	R1269E
1296.127	1.617	1303047	WORD	n/a	wordpools/wordpool_categorized_EN.txt	TOASTER	Appliances	3	12	[0, 0, 0]	n/a	catFR1	3	R1269E
1297.744	1.001	1304664	WORD_OFF	n/a	n/a	TOASTER	n/a	3	12	[0, 0, 0]	n/a	catFR1	3	R1269E
1298.745	1.616	1305665	WORD	n/a	wordpools/wordpool_categorized_EN.txt	REFRIGERATOR	Appliances	4	12	[0, 0, 0]	n/a	catFR1	3	R1269E
1300.361	1.001	1307281	WORD_OFF	n/a	n/a	REFRIGERATOR	n/a	4	12	[0, 0, 0]	n/a	catFR1	3	R1269E
1301.362	1.617	1308282	WORD	n/a	wordpools/wordpool_categorized_EN.txt	SNOW	Weather	5	12	[0, 0, 0]	n/a	catFR1	3	R1269E
1302.979	0.983	1309898	WORD_OFF	n/a	n/a	SNOW	n/a	5	12	[0, 0, 0]	n/a	catFR1	3	R1269E
1303.962	1.616	1310881	WORD	n/a	wordpools/wordpool_categorized_EN.txt	CLOUD	Weather	6	12	[0, 0, 0]	n/a	catFR1	3	R1269E
1305.578	0.918	1312497	WORD_OFF	n/a	n/a	CLOUD	n/a	6	12	[0, 0, 0]	n/a	catFR1	3	R1269E
1306.496	1.617	1313415	WORD	n/a	wordpools/wordpool_categorized_EN.txt	BLENDER	Appliances	7	12	[0, 0, 0]	n/a	catFR1	3	R1269E
1308.113	0.933	1315032	WORD_OFF	n/a	n/a	BLENDER	n/a	7	12	[0, 0, 0]	n/a	catFR1	3	R1269E
1309.046	1.616	1315965	WORD	n/a	wordpools/wordpool_categorized_EN.txt	DRYER	Appliances	8	12	[0, 0, 0]	n/a	catFR1	3	R1269E
1310.662	1.0	1317581	WORD_OFF	n/a	n/a	DRYER	n/a	8	12	[0, 0, 0]	n/a	catFR1	3	R1269E
1311.662	1.602	1318581	WORD	n/a	wordpools/wordpool_categorized_EN.txt	CREEK	Landscapes	9	12	[0, 0, 0]	n/a	catFR1	3	R1269E
1313.264	0.917	1320183	WORD_OFF	n/a	n/a	CREEK	n/a	9	12	[0, 0, 0]	n/a	catFR1	3	R1269E
1314.181	1.617	1321100	WORD	n/a	wordpools/wordpool_categorized_EN.txt	MOUNTAIN	Landscapes	10	12	[0, 0, 0]	n/a	catFR1	3	R1269E
1315.798	0.983	1322717	WORD_OFF	n/a	n/a	MOUNTAIN	n/a	10	12	[0, 0, 0]	n/a	catFR1	3	R1269E
1316.781	1.617	1323700	WORD	n/a	wordpools/wordpool_categorized_EN.txt	FOG	Weather	11	12	[0, 0, 0]	n/a	catFR1	3	R1269E
1318.398	0.834	1325317	WORD_OFF	n/a	n/a	FOG	n/a	11	12	[0, 0, 0]	n/a	catFR1	3	R1269E
1319.232	1.616	1326151	WORD	n/a	wordpools/wordpool_categorized_EN.txt	THUNDER	Weather	12	12	[0, 0, 0]	n/a	catFR1	3	R1269E
1320.848	0.001	1327767	WORD_OFF	n/a	n/a	THUNDER	n/a	12	12	[0, 0, 0]	n/a	catFR1	3	R1269E
1320.849	0.174	1327768	ENCODING_END	n/a	n/a	n/a	n/a	-999	12	[0, 0, 0]	n/a	catFR1	3	R1269E
1321.023	0.001	1327942	DISTRACT_START	n/a	n/a	n/a	n/a	-999	12	[0, 0, 0]	n/a	catFR1	3	R1269E
1321.024	0.024	1327943	START	n/a	n/a	n/a	n/a	-999	12	[-999, -999, -999]	n/a	catFR1	3	R1269E
1321.048	3.384	1327967	PROB	3.384	n/a	n/a	n/a	-999	12	[1, 2, 4]	7	catFR1	3	R1269E
1324.432	2.551	1331351	PROB	2.551	n/a	n/a	n/a	-999	12	[4, 2, 6]	12	catFR1	3	R1269E
1326.983	6.834	1333902	PROB	6.834	n/a	n/a	n/a	-999	12	[5, 6, 7]	18	catFR1	3	R1269E
1333.817	2.8	1340735	PROB	2.8	n/a	n/a	n/a	-999	12	[3, 5, 2]	10	catFR1	3	R1269E
1336.617	4.302	1343535	PROB	4.302	n/a	n/a	n/a	-999	12	[4, 5, 5]	14	catFR1	3	R1269E
1340.919	5.871	1347837	PROB	5.871	n/a	n/a	n/a	-999	12	[3, 8, 5]	16	catFR1	3	R1269E
1346.79	0.013	1353708	STOP	n/a	n/a	n/a	n/a	-999	12	[-999, -999, -999]	n/a	catFR1	3	R1269E
1346.803	0.7	1353721	DISTRACT_END	n/a	n/a	n/a	n/a	-999	12	[0, 0, 0]	n/a	catFR1	3	R1269E
1347.503	0.518	1354421	RETRIEVAL_ORIENT	n/a	n/a	n/a	n/a	-999	12	[0, 0, 0]	n/a	catFR1	3	R1269E
1348.021	0.809	1354939	REC_START	n/a	n/a	n/a	n/a	-999	12	[0, 0, 0]	n/a	catFR1	3	R1269E
1348.83	0.745	1355748	REC_WORD	0.745	n/a	RIVER	n/a	-999	12	[0, 0, 0]	n/a	catFR1	3	R1269E
1349.575	1.049	1356493	REC_WORD	1.049	n/a	MOUNTAIN	Landscapes	10	12	[0, 0, 0]	n/a	catFR1	3	R1269E
1350.624	1.339	1357542	REC_WORD	1.339	n/a	CREEK	Landscapes	9	12	[0, 0, 0]	n/a	catFR1	3	R1269E
1351.963	2.953	1358881	REC_WORD	2.953	n/a	LAKE	Landscapes	1	12	[0, 0, 0]	n/a	catFR1	3	R1269E
1354.916	2.534	1361833	REC_WORD	2.534	n/a	TOASTER	Appliances	3	12	[0, 0, 0]	n/a	catFR1	3	R1269E
1357.45	1.825	1364367	REC_WORD	1.825	n/a	DRYER	Appliances	8	12	[0, 0, 0]	n/a	catFR1	3	R1269E
1359.275	5.91	1366192	REC_WORD	5.91	n/a	OVEN	n/a	-999	12	[0, 0, 0]	n/a	catFR1	3	R1269E
1365.185	12.846	1372102	REC_WORD	12.846	n/a	PENCIL	n/a	-999	12	[0, 0, 0]	n/a	catFR1	3	R1269E
1378.031	7.062	1384947	REC_END	n/a	n/a	n/a	n/a	-999	12	[0, 0, 0]	n/a	catFR1	3	R1269E
1385.093	0.5	1392009	TRIAL	n/a	n/a	n/a	n/a	-999	13	[0, 0, 0]	n/a	catFR1	3	R1269E
1385.593	10.428	1392509	COUNTDOWN_START	n/a	n/a	n/a	n/a	-999	13	[0, 0, 0]	n/a	catFR1	3	R1269E
1396.021	0.007	1402937	COUNTDOWN_END	n/a	n/a	n/a	n/a	-999	13	[0, 0, 0]	n/a	catFR1	3	R1269E
1396.028	1.616	1402944	ORIENT	n/a	n/a	n/a	n/a	-999	13	[0, 0, 0]	n/a	catFR1	3	R1269E
1397.644	2.034	1404560	ORIENT_OFF	n/a	n/a	n/a	n/a	-999	13	[0, 0, 0]	n/a	catFR1	3	R1269E
1399.678	1.618	1406594	WORD	n/a	wordpools/wordpool_categorized_EN.txt	DOLLHOUSE	Toys	1	13	[0, 0, 0]	n/a	catFR1	3	R1269E
1401.296	0.783	1408212	WORD_OFF	n/a	n/a	DOLLHOUSE	n/a	1	13	[0, 0, 0]	n/a	catFR1	3	R1269E
1402.079	1.616	1408995	WORD	n/a	wordpools/wordpool_categorized_EN.txt	FRISBEE	Toys	2	13	[0, 0, 0]	n/a	catFR1	3	R1269E
1403.695	0.802	1410610	WORD_OFF	n/a	n/a	FRISBEE	n/a	2	13	[0, 0, 0]	n/a	catFR1	3	R1269E
1404.497	1.616	1411412	WORD	n/a	wordpools/wordpool_categorized_EN.txt	CUPCAKE	Desserts	3	13	[0, 0, 0]	n/a	catFR1	3	R1269E
1406.113	0.967	1413028	WORD_OFF	n/a	n/a	CUPCAKE	n/a	3	13	[0, 0, 0]	n/a	catFR1	3	R1269E
1407.08	1.616	1413995	WORD	n/a	wordpools/wordpool_categorized_EN.txt	CHEESECAKE	Desserts	4	13	[0, 0, 0]	n/a	catFR1	3	R1269E
1408.696	0.884	1415611	WORD_OFF	n/a	n/a	CHEESECAKE	n/a	4	13	[0, 0, 0]	n/a	catFR1	3	R1269E
1409.58	1.618	1416495	WORD	n/a	wordpools/wordpool_categorized_EN.txt	MILK	Beverages	5	13	[0, 0, 0]	n/a	catFR1	3	R1269E
1411.198	0.883	1418113	WORD_OFF	n/a	n/a	MILK	n/a	5	13	[0, 0, 0]	n/a	catFR1	3	R1269E
1412.081	1.616	1418996	WORD	n/a	wordpools/wordpool_categorized_EN.txt	WINE	Beverages	6	13	[0, 0, 0]	n/a	catFR1	3	R1269E
1413.697	0.818	1420612	WORD_OFF	n/a	n/a	WINE	n/a	6	13	[0, 0, 0]	n/a	catFR1	3	R1269E
1414.515	1.617	1421430	WORD	n/a	wordpools/wordpool_categorized_EN.txt	PIE	Desserts	7	13	[0, 0, 0]	n/a	catFR1	3	R1269E
1416.132	0.917	1423047	WORD_OFF	n/a	n/a	PIE	n/a	7	13	[0, 0, 0]	n/a	catFR1	3	R1269E
1417.049	1.616	1423964	WORD	n/a	wordpools/wordpool_categorized_EN.txt	CAKE	Desserts	8	13	[0, 0, 0]	n/a	catFR1	3	R1269E
1418.665	0.966	1425580	WORD_OFF	n/a	n/a	CAKE	n/a	8	13	[0, 0, 0]	n/a	catFR1	3	R1269E
1419.631	1.601	1426546	WORD	n/a	wordpools/wordpool_categorized_EN.txt	BASEBALL	Toys	9	13	[0, 0, 0]	n/a	catFR1	3	R1269E
1421.232	0.768	1428147	WORD_OFF	n/a	n/a	BASEBALL	n/a	9	13	[0, 0, 0]	n/a	catFR1	3	R1269E
1422.0	1.616	1428915	WORD	n/a	wordpools/wordpool_categorized_EN.txt	MARBLES	Toys	10	13	[0, 0, 0]	n/a	catFR1	3	R1269E
1423.616	0.966	1430531	WORD_OFF	n/a	n/a	MARBLES	n/a	10	13	[0, 0, 0]	n/a	catFR1	3	R1269E
1424.582	1.601	1431497	WORD	n/a	wordpools/wordpool_categorized_EN.txt	SODA	Beverages	11	13	[0, 0, 0]	n/a	catFR1	3	R1269E
1426.183	0.934	1433098	WORD_OFF	n/a	n/a	SODA	n/a	11	13	[0, 0, 0]	n/a	catFR1	3	R1269E
1427.117	1.617	1434032	WORD	n/a	wordpools/wordpool_categorized_EN.txt	TEA	Beverages	12	13	[0, 0, 0]	n/a	catFR1	3	R1269E
1428.734	0.0	1435648	ENCODING_END	n/a	n/a	n/a	n/a	-999	13	[0, 0, 0]	n/a	catFR1	3	R1269E
1428.734	0.165	1435648	WORD_OFF	n/a	n/a	TEA	n/a	12	13	[0, 0, 0]	n/a	catFR1	3	R1269E
1428.899	0.001	1435813	DISTRACT_START	n/a	n/a	n/a	n/a	-999	13	[0, 0, 0]	n/a	catFR1	3	R1269E
1428.9	0.017	1435814	START	n/a	n/a	n/a	n/a	-999	13	[-999, -999, -999]	n/a	catFR1	3	R1269E
1428.917	3.034	1435831	PROB	3.034	n/a	n/a	n/a	-999	13	[5, 1, 3]	9	catFR1	3	R1269E
1431.951	4.001	1438865	PROB	4.001	n/a	n/a	n/a	-999	13	[2, 7, 6]	15	catFR1	3	R1269E
1435.952	4.001	1442866	PROB	4.001	n/a	n/a	n/a	-999	13	[9, 3, 5]	14	catFR1	3	R1269E
1439.953	6.134	1446867	PROB	6.134	n/a	n/a	n/a	-999	13	[8, 4, 6]	18	catFR1	3	R1269E
1446.087	4.325	1453001	PROB	4.325	n/a	n/a	n/a	-999	13	[8, 1, 3]	12	catFR1	3	R1269E
1450.412	0.01	1457326	STOP	n/a	n/a	n/a	n/a	-999	13	[-999, -999, -999]	n/a	catFR1	3	R1269E
1450.422	0.549	1457336	DISTRACT_END	n/a	n/a	n/a	n/a	-999	13	[0, 0, 0]	n/a	catFR1	3	R1269E
1450.971	0.518	1457885	RETRIEVAL_ORIENT	n/a	n/a	n/a	n/a	-999	13	[0, 0, 0]	n/a	catFR1	3	R1269E
1451.489	0.364	1458403	REC_START	n/a	n/a	n/a	n/a	-999	13	[0, 0, 0]	n/a	catFR1	3	R1269E
1451.853	0.747	1458767	REC_WORD	0.747	n/a	MARBLES	Toys	10	13	[0, 0, 0]	n/a	catFR1	3	R1269E
1452.6	0.916	1459514	REC_WORD	0.916	n/a	DOLLHOUSE	Toys	1	13	[0, 0, 0]	n/a	catFR1	3	R1269E
1453.516	3.727	1460430	REC_WORD	3.727	n/a	FRISBEE	Toys	2	13	[0, 0, 0]	n/a	catFR1	3	R1269E
1457.243	0.808	1464156	REC_WORD	0.808	n/a	CAKE	Desserts	8	13	[0, 0, 0]	n/a	catFR1	3	R1269E
1458.051	4.235	1464964	REC_WORD	4.235	n/a	CUPCAKE	Desserts	3	13	[0, 0, 0]	n/a	catFR1	3	R1269E
1462.286	0.253	1469199	REC_WORD_VV	0.253	n/a	<>	n/a	-999	13	[0, 0, 0]	n/a	catFR1	3	R1269E
1462.539	1.872	1469452	REC_WORD	1.872	n/a	COLA	n/a	-999	13	[0, 0, 0]	n/a	catFR1	3	R1269E
1464.411	1.098	1471324	REC_WORD	1.098	n/a	TEA	Beverages	12	13	[0, 0, 0]	n/a	catFR1	3	R1269E
1465.509	9.144	1472422	REC_WORD	9.144	n/a	MILK	Beverages	5	13	[0, 0, 0]	n/a	catFR1	3	R1269E
1474.653	6.847	1481566	REC_WORD	6.847	n/a	PIE	Desserts	7	13	[0, 0, 0]	n/a	catFR1	3	R1269E
1481.5	3.827	1488412	REC_END	n/a	n/a	n/a	n/a	-999	13	[0, 0, 0]	n/a	catFR1	3	R1269E
1485.327	0.5	1492239	TRIAL	n/a	n/a	n/a	n/a	-999	14	[0, 0, 0]	n/a	catFR1	3	R1269E
1485.827	10.428	1492739	COUNTDOWN_START	n/a	n/a	n/a	n/a	-999	14	[0, 0, 0]	n/a	catFR1	3	R1269E
1496.255	0.008	1503167	COUNTDOWN_END	n/a	n/a	n/a	n/a	-999	14	[0, 0, 0]	n/a	catFR1	3	R1269E
1496.263	1.617	1503175	ORIENT	n/a	n/a	n/a	n/a	-999	14	[0, 0, 0]	n/a	catFR1	3	R1269E
1497.88	2.017	1504792	ORIENT_OFF	n/a	n/a	n/a	n/a	-999	14	[0, 0, 0]	n/a	catFR1	3	R1269E
1499.897	1.617	1506809	WORD	n/a	wordpools/wordpool_categorized_EN.txt	CORKSCREW	KitchenTools	1	14	[0, 0, 0]	n/a	catFR1	3	R1269E
1501.514	0.8	1508426	WORD_OFF	n/a	n/a	CORKSCREW	n/a	1	14	[0, 0, 0]	n/a	catFR1	3	R1269E
1502.314	1.617	1509226	WORD	n/a	wordpools/wordpool_categorized_EN.txt	TONGS	KitchenTools	2	14	[0, 0, 0]	n/a	catFR1	3	R1269E
1503.931	0.782	1510843	WORD_OFF	n/a	n/a	TONGS	n/a	2	14	[0, 0, 0]	n/a	catFR1	3	R1269E
1504.713	1.618	1511624	WORD	n/a	wordpools/wordpool_categorized_EN.txt	BLUEBERRY	Fruit	3	14	[0, 0, 0]	n/a	catFR1	3	R1269E
1506.331	0.8	1513242	WORD_OFF	n/a	n/a	BLUEBERRY	n/a	3	14	[0, 0, 0]	n/a	catFR1	3	R1269E
1507.131	1.617	1514042	WORD	n/a	wordpools/wordpool_categorized_EN.txt	ORANGE	Fruit	4	14	[0, 0, 0]	n/a	catFR1	3	R1269E
1508.748	0.8	1515659	WORD_OFF	n/a	n/a	ORANGE	n/a	4	14	[0, 0, 0]	n/a	catFR1	3	R1269E
1509.548	1.617	1516459	WORD	n/a	wordpools/wordpool_categorized_EN.txt	ORCHID	Flowers	5	14	[0, 0, 0]	n/a	catFR1	3	R1269E
1511.165	0.784	1518076	WORD_OFF	n/a	n/a	ORCHID	n/a	5	14	[0, 0, 0]	n/a	catFR1	3	R1269E
1511.949	1.616	1518860	WORD	n/a	wordpools/wordpool_categorized_EN.txt	DAFFODIL	Flowers	6	14	[0, 0, 0]	n/a	catFR1	3	R1269E
1513.565	0.967	1520476	WORD_OFF	n/a	n/a	DAFFODIL	n/a	6	14	[0, 0, 0]	n/a	catFR1	3	R1269E
1514.532	1.618	1521443	WORD	n/a	wordpools/wordpool_categorized_EN.txt	LEMON	Fruit	7	14	[0, 0, 0]	n/a	catFR1	3	R1269E
1516.15	0.85	1523061	WORD_OFF	n/a	n/a	LEMON	n/a	7	14	[0, 0, 0]	n/a	catFR1	3	R1269E
1517.0	1.615	1523911	WORD	n/a	wordpools/wordpool_categorized_EN.txt	BANANA	Fruit	8	14	[0, 0, 0]	n/a	catFR1	3	R1269E
1518.615	0.785	1525526	WORD_OFF	n/a	n/a	BANANA	n/a	8	14	[0, 0, 0]	n/a	catFR1	3	R1269E
1519.4	1.617	1526311	WORD	n/a	wordpools/wordpool_categorized_EN.txt	SPATULA	KitchenTools	9	14	[0, 0, 0]	n/a	catFR1	3	R1269E
1521.017	0.933	1527928	WORD_OFF	n/a	n/a	SPATULA	n/a	9	14	[0, 0, 0]	n/a	catFR1	3	R1269E
1521.95	1.616	1528861	WORD	n/a	wordpools/wordpool_categorized_EN.txt	COLANDER	KitchenTools	10	14	[0, 0, 0]	n/a	catFR1	3	R1269E
1523.566	0.852	1530477	WORD_OFF	n/a	n/a	COLANDER	n/a	10	14	[0, 0, 0]	n/a	catFR1	3	R1269E
1524.418	1.617	1531329	WORD	n/a	wordpools/wordpool_categorized_EN.txt	VIOLET	Flowers	11	14	[0, 0, 0]	n/a	catFR1	3	R1269E
1526.035	0.833	1532946	WORD_OFF	n/a	n/a	VIOLET	n/a	11	14	[0, 0, 0]	n/a	catFR1	3	R1269E
1526.868	1.617	1533779	WORD	n/a	wordpools/wordpool_categorized_EN.txt	DAISY	Flowers	12	14	[0, 0, 0]	n/a	catFR1	3	R1269E
1528.485	0.0	1535396	ENCODING_END	n/a	n/a	n/a	n/a	-999	14	[0, 0, 0]	n/a	catFR1	3	R1269E
1528.485	0.129	1535396	WORD_OFF	n/a	n/a	DAISY	n/a	12	14	[0, 0, 0]	n/a	catFR1	3	R1269E
1528.614	0.001	1535525	DISTRACT_START	n/a	n/a	n/a	n/a	-999	14	[0, 0, 0]	n/a	catFR1	3	R1269E
1528.615	0.019	1535526	START	n/a	n/a	n/a	n/a	-999	14	[-999, -999, -999]	n/a	catFR1	3	R1269E
1528.634	5.135	1535545	PROB	5.135	n/a	n/a	n/a	-999	14	[8, 5, 8]	20	catFR1	3	R1269E
1533.769	3.551	1540679	PROB	3.551	n/a	n/a	n/a	-999	14	[9, 1, 2]	12	catFR1	3	R1269E
1537.32	2.95	1544230	PROB	2.95	n/a	n/a	n/a	-999	14	[2, 5, 8]	15	catFR1	3	R1269E
1540.27	6.401	1547180	PROB	6.401	n/a	n/a	n/a	-999	14	[8, 9, 9]	26	catFR1	3	R1269E
1546.671	2.455	1553581	PROB	2.455	n/a	n/a	n/a	-999	14	[4, 2, 4]	10	catFR1	3	R1269E
1549.126	0.013	1556036	STOP	n/a	n/a	n/a	n/a	-999	14	[-999, -999, -999]	n/a	catFR1	3	R1269E
1549.139	0.548	1556049	DISTRACT_END	n/a	n/a	n/a	n/a	-999	14	[0, 0, 0]	n/a	catFR1	3	R1269E
1549.687	0.519	1556597	RETRIEVAL_ORIENT	n/a	n/a	n/a	n/a	-999	14	[0, 0, 0]	n/a	catFR1	3	R1269E
1550.206	0.629	1557116	REC_START	n/a	n/a	n/a	n/a	-999	14	[0, 0, 0]	n/a	catFR1	3	R1269E
1550.835	0.795	1557745	REC_WORD	0.795	n/a	DAFFODIL	Flowers	6	14	[0, 0, 0]	n/a	catFR1	3	R1269E
1551.63	1.498	1558540	REC_WORD	1.498	n/a	CORKSCREW	KitchenTools	1	14	[0, 0, 0]	n/a	catFR1	3	R1269E
1553.128	1.662	1560038	REC_WORD	1.662	n/a	LEMON	Fruit	7	14	[0, 0, 0]	n/a	catFR1	3	R1269E
1554.79	1.0	1561699	REC_WORD	1.0	n/a	STRAWBERRY	n/a	-999	14	[0, 0, 0]	n/a	catFR1	3	R1269E
1555.79	0.543	1562699	REC_WORD_VV	0.543	n/a	<>	n/a	-999	14	[0, 0, 0]	n/a	catFR1	3	R1269E
1556.333	4.705	1563242	REC_WORD	4.705	n/a	BLUEBERRY	Fruit	3	14	[0, 0, 0]	n/a	catFR1	3	R1269E
1561.038	2.365	1567947	REC_WORD	2.365	n/a	COLANDER	KitchenTools	10	14	[0, 0, 0]	n/a	catFR1	3	R1269E
1563.403	4.623	1570312	REC_WORD	4.623	n/a	SPATULA	KitchenTools	9	14	[0, 0, 0]	n/a	catFR1	3	R1269E
1568.026	2.523	1574935	REC_WORD	2.523	n/a	DAFFODIL	Flowers	6	14	[0, 0, 0]	n/a	catFR1	3	R1269E
1570.549	2.172	1577458	REC_WORD	2.172	n/a	DAISY	Flowers	12	14	[0, 0, 0]	n/a	catFR1	3	R1269E
1572.721	7.496	1579630	REC_WORD	7.496	n/a	ORCHID	Flowers	5	14	[0, 0, 0]	n/a	catFR1	3	R1269E
1580.217	6.212	1587125	REC_END	n/a	n/a	n/a	n/a	-999	14	[0, 0, 0]	n/a	catFR1	3	R1269E
1586.429	0.5	1593337	TRIAL	n/a	n/a	n/a	n/a	-999	15	[0, 0, 0]	n/a	catFR1	3	R1269E
1586.929	10.428	1593837	COUNTDOWN_START	n/a	n/a	n/a	n/a	-999	15	[0, 0, 0]	n/a	catFR1	3	R1269E
1597.357	0.007	1604265	COUNTDOWN_END	n/a	n/a	n/a	n/a	-999	15	[0, 0, 0]	n/a	catFR1	3	R1269E
1597.364	1.617	1604272	ORIENT	n/a	n/a	n/a	n/a	-999	15	[0, 0, 0]	n/a	catFR1	3	R1269E
1598.981	2.133	1605889	ORIENT_OFF	n/a	n/a	n/a	n/a	-999	15	[0, 0, 0]	n/a	catFR1	3	R1269E
1601.114	1.617	1608022	WORD	n/a	wordpools/wordpool_categorized_EN.txt	PANTS	Clothing	1	15	[0, 0, 0]	n/a	catFR1	3	R1269E
1602.731	0.85	1609639	WORD_OFF	n/a	n/a	PANTS	n/a	1	15	[0, 0, 0]	n/a	catFR1	3	R1269E
1603.581	1.618	1610489	WORD	n/a	wordpools/wordpool_categorized_EN.txt	JEANS	Clothing	2	15	[0, 0, 0]	n/a	catFR1	3	R1269E
1605.199	1.0	1612106	WORD_OFF	n/a	n/a	JEANS	n/a	2	15	[0, 0, 0]	n/a	catFR1	3	R1269E
1606.199	1.617	1613106	WORD	n/a	wordpools/wordpool_categorized_EN.txt	CROWBAR	Tools	3	15	[0, 0, 0]	n/a	catFR1	3	R1269E
1607.816	0.916	1614723	WORD_OFF	n/a	n/a	CROWBAR	n/a	3	15	[0, 0, 0]	n/a	catFR1	3	R1269E
1608.732	1.617	1615639	WORD	n/a	wordpools/wordpool_categorized_EN.txt	SHOVEL	Tools	4	15	[0, 0, 0]	n/a	catFR1	3	R1269E
1610.349	0.867	1617256	WORD_OFF	n/a	n/a	SHOVEL	n/a	4	15	[0, 0, 0]	n/a	catFR1	3	R1269E
1611.216	1.617	1618123	WORD	n/a	wordpools/wordpool_categorized_EN.txt	PANDA	Zoo	5	15	[0, 0, 0]	n/a	catFR1	3	R1269E
1612.833	0.967	1619740	WORD_OFF	n/a	n/a	PANDA	n/a	5	15	[0, 0, 0]	n/a	catFR1	3	R1269E
1613.8	1.617	1620707	WORD	n/a	wordpools/wordpool_categorized_EN.txt	CHIMPANZEE	Zoo	6	15	[0, 0, 0]	n/a	catFR1	3	R1269E
1615.417	0.95	1622324	WORD_OFF	n/a	n/a	CHIMPANZEE	n/a	6	15	[0, 0, 0]	n/a	catFR1	3	R1269E
1616.367	1.617	1623274	WORD	n/a	wordpools/wordpool_categorized_EN.txt	SHOES	Clothing	7	15	[0, 0, 0]	n/a	catFR1	3	R1269E
1617.984	0.867	1624891	WORD_OFF	n/a	n/a	SHOES	n/a	7	15	[0, 0, 0]	n/a	catFR1	3	R1269E
1618.851	1.617	1625758	WORD	n/a	wordpools/wordpool_categorized_EN.txt	JACKET	Clothing	8	15	[0, 0, 0]	n/a	catFR1	3	R1269E
1620.468	0.933	1627375	WORD_OFF	n/a	n/a	JACKET	n/a	8	15	[0, 0, 0]	n/a	catFR1	3	R1269E
1621.401	1.617	1628308	WORD	n/a	wordpools/wordpool_categorized_EN.txt	PLIERS	Tools	9	15	[0, 0, 0]	n/a	catFR1	3	R1269E
1623.018	0.834	1629925	WORD_OFF	n/a	n/a	PLIERS	n/a	9	15	[0, 0, 0]	n/a	catFR1	3	R1269E
1623.852	1.617	1630759	WORD	n/a	wordpools/wordpool_categorized_EN.txt	SAW	Tools	10	15	[0, 0, 0]	n/a	catFR1	3	R1269E
1625.469	0.967	1632376	WORD_OFF	n/a	n/a	SAW	n/a	10	15	[0, 0, 0]	n/a	catFR1	3	R1269E
1626.436	1.616	1633343	WORD	n/a	wordpools/wordpool_categorized_EN.txt	BEAR	Zoo	11	15	[0, 0, 0]	n/a	catFR1	3	R1269E
1628.052	0.984	1634959	WORD_OFF	n/a	n/a	BEAR	n/a	11	15	[0, 0, 0]	n/a	catFR1	3	R1269E
1629.036	1.616	1635943	WORD	n/a	wordpools/wordpool_categorized_EN.txt	ZEBRA	Zoo	12	15	[0, 0, 0]	n/a	catFR1	3	R1269E
1630.652	0.0	1637558	WORD_OFF	n/a	n/a	ZEBRA	n/a	12	15	[0, 0, 0]	n/a	catFR1	3	R1269E
1630.652	0.173	1637558	ENCODING_END	n/a	n/a	n/a	n/a	-999	15	[0, 0, 0]	n/a	catFR1	3	R1269E
1630.825	0.0	1637731	DISTRACT_START	n/a	n/a	n/a	n/a	-999	15	[0, 0, 0]	n/a	catFR1	3	R1269E
1630.825	0.011	1637731	START	n/a	n/a	n/a	n/a	-999	15	[-999, -999, -999]	n/a	catFR1	3	R1269E
1630.836	4.783	1637742	PROB	4.783	n/a	n/a	n/a	-999	15	[4, 7, 8]	19	catFR1	3	R1269E
1635.619	6.002	1642525	PROB	6.002	n/a	n/a	n/a	-999	15	[7, 7, 6]	20	catFR1	3	R1269E
1641.621	2.618	1648527	PROB	2.618	n/a	n/a	n/a	-999	15	[8, 1, 2]	11	catFR1	3	R1269E
1644.239	2.683	1651145	PROB	2.683	n/a	n/a	n/a	-999	15	[6, 2, 6]	14	catFR1	3	R1269E
1646.922	2.767	1653828	PROB	2.767	n/a	n/a	n/a	-999	15	[8, 2, 7]	17	catFR1	3	R1269E
1649.689	4.677	1656595	PROB	4.677	n/a	n/a	n/a	-999	15	[7, 4, 4]	11	catFR1	3	R1269E
1654.366	0.008	1661272	STOP	n/a	n/a	n/a	n/a	-999	15	[-999, -999, -999]	n/a	catFR1	3	R1269E
1654.374	0.617	1661280	DISTRACT_END	n/a	n/a	n/a	n/a	-999	15	[0, 0, 0]	n/a	catFR1	3	R1269E
1654.991	0.517	1661897	RETRIEVAL_ORIENT	n/a	n/a	n/a	n/a	-999	15	[0, 0, 0]	n/a	catFR1	3	R1269E
1655.508	0.78	1662414	REC_START	n/a	n/a	n/a	n/a	-999	15	[0, 0, 0]	n/a	catFR1	3	R1269E
1656.288	2.442	1663193	REC_WORD	2.442	n/a	PLIERS	Tools	9	15	[0, 0, 0]	n/a	catFR1	3	R1269E
1658.73	0.715	1665635	REC_WORD	0.715	n/a	PANTS	Clothing	1	15	[0, 0, 0]	n/a	catFR1	3	R1269E
1659.445	1.931	1666350	REC_WORD	1.931	n/a	JEANS	Clothing	2	15	[0, 0, 0]	n/a	catFR1	3	R1269E
1661.376	7.508	1668281	REC_WORD	7.508	n/a	JACKET	Clothing	8	15	[0, 0, 0]	n/a	catFR1	3	R1269E
1668.884	6.71	1675789	REC_WORD	6.71	n/a	SHIRT	n/a	-999	15	[0, 0, 0]	n/a	catFR1	3	R1269E
1675.594	9.926	1682499	REC_WORD	9.926	n/a	CORKSCREW	n/a	-999	15	[0, 0, 0]	n/a	catFR1	3	R1269E
1685.52	5.827	1692424	REC_END	n/a	n/a	n/a	n/a	-999	15	[0, 0, 0]	n/a	catFR1	3	R1269E
1691.347	0.5	1698251	TRIAL	n/a	n/a	n/a	n/a	-999	16	[0, 0, 0]	n/a	catFR1	3	R1269E
1691.847	10.428	1698751	COUNTDOWN_START	n/a	n/a	n/a	n/a	-999	16	[0, 0, 0]	n/a	catFR1	3	R1269E
1702.275	0.007	1709179	COUNTDOWN_END	n/a	n/a	n/a	n/a	-999	16	[0, 0, 0]	n/a	catFR1	3	R1269E
1702.282	1.617	1709186	ORIENT	n/a	n/a	n/a	n/a	-999	16	[0, 0, 0]	n/a	catFR1	3	R1269E
1703.899	2.067	1710803	ORIENT_OFF	n/a	n/a	n/a	n/a	-999	16	[0, 0, 0]	n/a	catFR1	3	R1269E
1705.966	1.616	1712870	WORD	n/a	wordpools/wordpool_categorized_EN.txt	RUM	Beverages	1	16	[0, 0, 0]	n/a	catFR1	3	R1269E
1707.582	0.968	1714485	WORD_OFF	n/a	n/a	RUM	n/a	1	16	[0, 0, 0]	n/a	catFR1	3	R1269E
1708.55	1.617	1715453	WORD	n/a	wordpools/wordpool_categorized_EN.txt	WATER	Beverages	2	16	[0, 0, 0]	n/a	catFR1	3	R1269E
1710.167	0.8	1717070	WORD_OFF	n/a	n/a	WATER	n/a	2	16	[0, 0, 0]	n/a	catFR1	3	R1269E
1710.967	1.616	1717870	WORD	n/a	wordpools/wordpool_categorized_EN.txt	COW	FarmAnimals	3	16	[0, 0, 0]	n/a	catFR1	3	R1269E
1712.583	0.885	1719486	WORD_OFF	n/a	n/a	COW	n/a	3	16	[0, 0, 0]	n/a	catFR1	3	R1269E
1713.468	1.617	1720371	WORD	n/a	wordpools/wordpool_categorized_EN.txt	TURKEY	FarmAnimals	4	16	[0, 0, 0]	n/a	catFR1	3	R1269E
1715.085	0.783	1721988	WORD_OFF	n/a	n/a	TURKEY	n/a	4	16	[0, 0, 0]	n/a	catFR1	3	R1269E
1715.868	1.617	1722771	WORD	n/a	wordpools/wordpool_categorized_EN.txt	COUCH	Furniture	5	16	[0, 0, 0]	n/a	catFR1	3	R1269E
1717.485	1.0	1724388	WORD_OFF	n/a	n/a	COUCH	n/a	5	16	[0, 0, 0]	n/a	catFR1	3	R1269E
1718.485	1.617	1725388	WORD	n/a	wordpools/wordpool_categorized_EN.txt	DESK	Furniture	6	16	[0, 0, 0]	n/a	catFR1	3	R1269E
1720.102	1.0	1727005	WORD_OFF	n/a	n/a	DESK	n/a	6	16	[0, 0, 0]	n/a	catFR1	3	R1269E
1721.102	1.616	1728005	WORD	n/a	wordpools/wordpool_categorized_EN.txt	COFFEE	Beverages	7	16	[0, 0, 0]	n/a	catFR1	3	R1269E
1722.718	0.834	1729621	WORD_OFF	n/a	n/a	COFFEE	n/a	7	16	[0, 0, 0]	n/a	catFR1	3	R1269E
1723.552	1.618	1730455	WORD	n/a	wordpools/wordpool_categorized_EN.txt	CIDER	Beverages	8	16	[0, 0, 0]	n/a	catFR1	3	R1269E
1725.17	0.966	1732073	WORD_OFF	n/a	n/a	CIDER	n/a	8	16	[0, 0, 0]	n/a	catFR1	3	R1269E
1726.136	1.617	1733039	WORD	n/a	wordpools/wordpool_categorized_EN.txt	BULL	FarmAnimals	9	16	[0, 0, 0]	n/a	catFR1	3	R1269E
1727.753	0.8	1734656	WORD_OFF	n/a	n/a	BULL	n/a	9	16	[0, 0, 0]	n/a	catFR1	3	R1269E
1728.553	1.617	1735456	WORD	n/a	wordpools/wordpool_categorized_EN.txt	LAMB	FarmAnimals	10	16	[0, 0, 0]	n/a	catFR1	3	R1269E
1730.17	0.951	1737073	WORD_OFF	n/a	n/a	LAMB	n/a	10	16	[0, 0, 0]	n/a	catFR1	3	R1269E
1731.121	1.617	1738024	WORD	n/a	wordpools/wordpool_categorized_EN.txt	RECLINER	Furniture	11	16	[0, 0, 0]	n/a	catFR1	3	R1269E
1732.738	0.982	1739640	WORD_OFF	n/a	n/a	RECLINER	n/a	11	16	[0, 0, 0]	n/a	catFR1	3	R1269E
1733.72	1.618	1740622	WORD	n/a	wordpools/wordpool_categorized_EN.txt	CABINET	Furniture	12	16	[0, 0, 0]	n/a	catFR1	3	R1269E
1735.338	0.0	1742240	ENCODING_END	n/a	n/a	n/a	n/a	-999	16	[0, 0, 0]	n/a	catFR1	3	R1269E
1735.338	0.13	1742240	WORD_OFF	n/a	n/a	CABINET	n/a	12	16	[0, 0, 0]	n/a	catFR1	3	R1269E
1735.468	0.0	1742370	DISTRACT_START	n/a	n/a	n/a	n/a	-999	16	[0, 0, 0]	n/a	catFR1	3	R1269E
1735.468	0.02	1742370	START	n/a	n/a	n/a	n/a	-999	16	[-999, -999, -999]	n/a	catFR1	3	R1269E
1735.488	2.617	1742390	PROB	2.617	n/a	n/a	n/a	-999	16	[4, 1, 4]	9	catFR1	3	R1269E
1738.105	6.001	1745007	PROB	6.001	n/a	n/a	n/a	-999	16	[7, 6, 6]	19	catFR1	3	R1269E
1744.106	5.018	1751008	PROB	5.018	n/a	n/a	n/a	-999	16	[4, 8, 9]	21	catFR1	3	R1269E
1749.124	3.25	1756026	PROB	3.25	n/a	n/a	n/a	-999	16	[6, 1, 5]	12	catFR1	3	R1269E
1752.374	2.601	1759276	PROB	2.601	n/a	n/a	n/a	-999	16	[5, 1, 2]	8	catFR1	3	R1269E
1754.975	3.946	1761877	PROB	3.946	n/a	n/a	n/a	-999	16	[3, 7, 4]	14	catFR1	3	R1269E
1758.921	0.021	1765822	STOP	n/a	n/a	n/a	n/a	-999	16	[-999, -999, -999]	n/a	catFR1	3	R1269E
1758.942	0.666	1765843	DISTRACT_END	n/a	n/a	n/a	n/a	-999	16	[0, 0, 0]	n/a	catFR1	3	R1269E
1759.608	0.518	1766509	RETRIEVAL_ORIENT	n/a	n/a	n/a	n/a	-999	16	[0, 0, 0]	n/a	catFR1	3	R1269E
1760.126	1.098	1767027	REC_START	n/a	n/a	n/a	n/a	-999	16	[0, 0, 0]	n/a	catFR1	3	R1269E
1761.224	0.78	1768125	REC_WORD	0.78	n/a	RUM	Beverages	1	16	[0, 0, 0]	n/a	catFR1	3	R1269E
1762.004	0.611	1768905	REC_WORD	0.611	n/a	WATER	Beverages	2	16	[0, 0, 0]	n/a	catFR1	3	R1269E
1762.615	3.537	1769516	REC_WORD	3.537	n/a	CIDER	Beverages	8	16	[0, 0, 0]	n/a	catFR1	3	R1269E
1766.152	3.822	1773053	REC_WORD	3.822	n/a	BULL	FarmAnimals	9	16	[0, 0, 0]	n/a	catFR1	3	R1269E
1769.974	20.163	1776875	REC_WORD	20.163	n/a	CHIMPANZEE	n/a	-999	16	[0, 0, 0]	n/a	catFR1	3	R1269E
1790.137	5.712	1797037	REC_END	n/a	n/a	n/a	n/a	-999	16	[0, 0, 0]	n/a	catFR1	3	R1269E
1795.849	0.5	1802749	TRIAL	n/a	n/a	n/a	n/a	-999	17	[0, 0, 0]	n/a	catFR1	3	R1269E
1796.349	10.428	1803249	COUNTDOWN_START	n/a	n/a	n/a	n/a	-999	17	[0, 0, 0]	n/a	catFR1	3	R1269E
1806.777	0.007	1813677	COUNTDOWN_END	n/a	n/a	n/a	n/a	-999	17	[0, 0, 0]	n/a	catFR1	3	R1269E
1806.784	1.617	1813684	ORIENT	n/a	n/a	n/a	n/a	-999	17	[0, 0, 0]	n/a	catFR1	3	R1269E
1808.401	2.05	1815300	ORIENT_OFF	n/a	n/a	n/a	n/a	-999	17	[0, 0, 0]	n/a	catFR1	3	R1269E
1810.451	1.617	1817350	WORD	n/a	wordpools/wordpool_categorized_EN.txt	SUNFLOWER	Flowers	1	17	[0, 0, 0]	n/a	catFR1	3	R1269E
1812.068	0.967	1818967	WORD_OFF	n/a	n/a	SUNFLOWER	n/a	1	17	[0, 0, 0]	n/a	catFR1	3	R1269E
1813.035	1.616	1819934	WORD	n/a	wordpools/wordpool_categorized_EN.txt	ROSE	Flowers	2	17	[0, 0, 0]	n/a	catFR1	3	R1269E
1814.651	0.95	1821550	WORD_OFF	n/a	n/a	ROSE	n/a	2	17	[0, 0, 0]	n/a	catFR1	3	R1269E
1815.601	1.618	1822500	WORD	n/a	wordpools/wordpool_categorized_EN.txt	ARM	BodyParts	3	17	[0, 0, 0]	n/a	catFR1	3	R1269E
1817.219	0.834	1824118	WORD_OFF	n/a	n/a	ARM	n/a	3	17	[0, 0, 0]	n/a	catFR1	3	R1269E
1818.053	1.616	1824952	WORD	n/a	wordpools/wordpool_categorized_EN.txt	EYE	BodyParts	4	17	[0, 0, 0]	n/a	catFR1	3	R1269E
1819.669	1.016	1826568	WORD_OFF	n/a	n/a	EYE	n/a	4	17	[0, 0, 0]	n/a	catFR1	3	R1269E
1820.685	1.618	1827584	WORD	n/a	wordpools/wordpool_categorized_EN.txt	PIANO	Instruments	5	17	[0, 0, 0]	n/a	catFR1	3	R1269E
1822.303	0.834	1829202	WORD_OFF	n/a	n/a	PIANO	n/a	5	17	[0, 0, 0]	n/a	catFR1	3	R1269E
1823.137	1.617	1830036	WORD	n/a	wordpools/wordpool_categorized_EN.txt	TRUMPET	Instruments	6	17	[0, 0, 0]	n/a	catFR1	3	R1269E
1824.754	0.882	1831653	WORD_OFF	n/a	n/a	TRUMPET	n/a	6	17	[0, 0, 0]	n/a	catFR1	3	R1269E
1825.636	1.618	1832535	WORD	n/a	wordpools/wordpool_categorized_EN.txt	KNEE	BodyParts	7	17	[0, 0, 0]	n/a	catFR1	3	R1269E
1827.254	0.767	1834153	WORD_OFF	n/a	n/a	KNEE	n/a	7	17	[0, 0, 0]	n/a	catFR1	3	R1269E
1828.021	1.616	1834920	WORD	n/a	wordpools/wordpool_categorized_EN.txt	ELBOW	BodyParts	8	17	[0, 0, 0]	n/a	catFR1	3	R1269E
1829.637	0.95	1836536	WORD_OFF	n/a	n/a	ELBOW	n/a	8	17	[0, 0, 0]	n/a	catFR1	3	R1269E
1830.587	1.601	1837486	WORD	n/a	wordpools/wordpool_categorized_EN.txt	CARNATION	Flowers	9	17	[0, 0, 0]	n/a	catFR1	3	R1269E
1832.188	0.784	1839087	WORD_OFF	n/a	n/a	CARNATION	n/a	9	17	[0, 0, 0]	n/a	catFR1	3	R1269E
1832.972	1.616	1839870	WORD	n/a	wordpools/wordpool_categorized_EN.txt	LILY	Flowers	10	17	[0, 0, 0]	n/a	catFR1	3	R1269E
1834.588	1.0	1841486	WORD_OFF	n/a	n/a	LILY	n/a	10	17	[0, 0, 0]	n/a	catFR1	3	R1269E
1835.588	1.618	1842486	WORD	n/a	wordpools/wordpool_categorized_EN.txt	GUITAR	Instruments	11	17	[0, 0, 0]	n/a	catFR1	3	R1269E
1837.206	1.0	1844104	WORD_OFF	n/a	n/a	GUITAR	n/a	11	17	[0, 0, 0]	n/a	catFR1	3	R1269E
1838.206	1.617	1845104	WORD	n/a	wordpools/wordpool_categorized_EN.txt	BASS	Instruments	12	17	[0, 0, 0]	n/a	catFR1	3	R1269E
1839.823	0.0	1846721	ENCODING_END	n/a	n/a	n/a	n/a	-999	17	[0, 0, 0]	n/a	catFR1	3	R1269E
1839.823	0.13	1846721	WORD_OFF	n/a	n/a	BASS	n/a	12	17	[0, 0, 0]	n/a	catFR1	3	R1269E
1839.953	0.001	1846851	DISTRACT_START	n/a	n/a	n/a	n/a	-999	17	[0, 0, 0]	n/a	catFR1	3	R1269E
1839.954	0.019	1846852	START	n/a	n/a	n/a	n/a	-999	17	[-999, -999, -999]	n/a	catFR1	3	R1269E
1839.973	6.385	1846871	PROB	6.385	n/a	n/a	n/a	-999	17	[6, 9, 7]	22	catFR1	3	R1269E
1846.358	2.433	1853256	PROB	2.433	n/a	n/a	n/a	-999	17	[2, 3, 3]	8	catFR1	3	R1269E
1848.791	3.084	1855689	PROB	3.084	n/a	n/a	n/a	-999	17	[6, 1, 7]	14	catFR1	3	R1269E
1851.875	3.551	1858773	PROB	3.551	n/a	n/a	n/a	-999	17	[3, 6, 9]	18	catFR1	3	R1269E
1855.426	3.467	1862324	PROB	3.467	n/a	n/a	n/a	-999	17	[9, 2, 5]	16	catFR1	3	R1269E
1858.893	5.018	1865790	PROB	5.018	n/a	n/a	n/a	-999	17	[8, 5, 4]	17	catFR1	3	R1269E
1863.911	0.017	1870808	STOP	n/a	n/a	n/a	n/a	-999	17	[-999, -999, -999]	n/a	catFR1	3	R1269E
1863.928	0.566	1870825	DISTRACT_END	n/a	n/a	n/a	n/a	-999	17	[0, 0, 0]	n/a	catFR1	3	R1269E
1864.494	0.518	1871391	RETRIEVAL_ORIENT	n/a	n/a	n/a	n/a	-999	17	[0, 0, 0]	n/a	catFR1	3	R1269E
1865.012	0.519	1871909	REC_START	n/a	n/a	n/a	n/a	-999	17	[0, 0, 0]	n/a	catFR1	3	R1269E
1865.531	0.846	1872428	REC_WORD	0.846	n/a	ROSE	Flowers	2	17	[0, 0, 0]	n/a	catFR1	3	R1269E
1866.377	0.706	1873274	REC_WORD	0.706	n/a	GUITAR	Instruments	11	17	[0, 0, 0]	n/a	catFR1	3	R1269E
1867.083	3.308	1873980	REC_WORD	3.308	n/a	BASS	Instruments	12	17	[0, 0, 0]	n/a	catFR1	3	R1269E
1870.391	1.451	1877288	REC_WORD	1.451	n/a	CARNATION	Flowers	9	17	[0, 0, 0]	n/a	catFR1	3	R1269E
1871.842	0.658	1878739	REC_WORD	0.658	n/a	DAISY	n/a	-999	17	[0, 0, 0]	n/a	catFR1	3	R1269E
1872.5	3.117	1879397	REC_WORD	3.117	n/a	SUNFLOWER	Flowers	1	17	[0, 0, 0]	n/a	catFR1	3	R1269E
1875.617	6.034	1882514	REC_WORD	6.034	n/a	PIANO	Instruments	5	17	[0, 0, 0]	n/a	catFR1	3	R1269E
1881.651	13.373	1888548	REC_WORD	13.373	n/a	DRUMS	n/a	-999	17	[0, 0, 0]	n/a	catFR1	3	R1269E
1895.024	4.675	1901920	REC_END	n/a	n/a	n/a	n/a	-999	17	[0, 0, 0]	n/a	catFR1	3	R1269E
1899.699	0.5	1906595	TRIAL	n/a	n/a	n/a	n/a	-999	18	[0, 0, 0]	n/a	catFR1	3	R1269E
1900.199	10.428	1907095	COUNTDOWN_START	n/a	n/a	n/a	n/a	-999	18	[0, 0, 0]	n/a	catFR1	3	R1269E
1910.627	0.008	1917522	COUNTDOWN_END	n/a	n/a	n/a	n/a	-999	18	[0, 0, 0]	n/a	catFR1	3	R1269E
1910.635	1.617	1917530	ORIENT	n/a	n/a	n/a	n/a	-999	18	[0, 0, 0]	n/a	catFR1	3	R1269E
1912.252	1.901	1919147	ORIENT_OFF	n/a	n/a	n/a	n/a	-999	18	[0, 0, 0]	n/a	catFR1	3	R1269E
1914.153	1.617	1921048	WORD	n/a	wordpools/wordpool_categorized_EN.txt	ORANGUTAN	Zoo	1	18	[0, 0, 0]	n/a	catFR1	3	R1269E
1915.77	0.949	1922665	WORD_OFF	n/a	n/a	ORANGUTAN	n/a	1	18	[0, 0, 0]	n/a	catFR1	3	R1269E
1916.719	1.618	1923614	WORD	n/a	wordpools/wordpool_categorized_EN.txt	MONKEY	Zoo	2	18	[0, 0, 0]	n/a	catFR1	3	R1269E
1918.337	0.933	1925232	WORD_OFF	n/a	n/a	MONKEY	n/a	2	18	[0, 0, 0]	n/a	catFR1	3	R1269E
1919.27	1.617	1926165	WORD	n/a	wordpools/wordpool_categorized_EN.txt	OAK	Trees	3	18	[0, 0, 0]	n/a	catFR1	3	R1269E
1920.887	0.917	1927782	WORD_OFF	n/a	n/a	OAK	n/a	3	18	[0, 0, 0]	n/a	catFR1	3	R1269E
1921.804	1.617	1928699	WORD	n/a	wordpools/wordpool_categorized_EN.txt	WILLOW	Trees	4	18	[0, 0, 0]	n/a	catFR1	3	R1269E
1923.421	0.884	1930316	WORD_OFF	n/a	n/a	WILLOW	n/a	4	18	[0, 0, 0]	n/a	catFR1	3	R1269E
1924.305	1.617	1931200	WORD	n/a	wordpools/wordpool_categorized_EN.txt	BARBIE	Toys	5	18	[0, 0, 0]	n/a	catFR1	3	R1269E
1925.922	0.983	1932817	WORD_OFF	n/a	n/a	BARBIE	n/a	5	18	[0, 0, 0]	n/a	catFR1	3	R1269E
1926.905	1.617	1933800	WORD	n/a	wordpools/wordpool_categorized_EN.txt	FOOTBALL	Toys	6	18	[0, 0, 0]	n/a	catFR1	3	R1269E
1928.522	0.85	1935417	WORD_OFF	n/a	n/a	FOOTBALL	n/a	6	18	[0, 0, 0]	n/a	catFR1	3	R1269E
1929.372	1.617	1936267	WORD	n/a	wordpools/wordpool_categorized_EN.txt	CYPRESS	Trees	7	18	[0, 0, 0]	n/a	catFR1	3	R1269E
1930.989	0.8	1937884	WORD_OFF	n/a	n/a	CYPRESS	n/a	7	18	[0, 0, 0]	n/a	catFR1	3	R1269E
1931.789	1.617	1938684	WORD	n/a	wordpools/wordpool_categorized_EN.txt	MAPLE	Trees	8	18	[0, 0, 0]	n/a	catFR1	3	R1269E
1933.406	0.834	1940301	WORD_OFF	n/a	n/a	MAPLE	n/a	8	18	[0, 0, 0]	n/a	catFR1	3	R1269E
1934.24	1.617	1941134	WORD	n/a	wordpools/wordpool_categorized_EN.txt	LION	Zoo	9	18	[0, 0, 0]	n/a	catFR1	3	R1269E
1935.857	0.782	1942751	WORD_OFF	n/a	n/a	LION	n/a	9	18	[0, 0, 0]	n/a	catFR1	3	R1269E
1936.639	1.618	1943533	WORD	n/a	wordpools/wordpool_categorized_EN.txt	GIRAFFE	Zoo	10	18	[0, 0, 0]	n/a	catFR1	3	R1269E
1938.257	0.967	1945151	WORD_OFF	n/a	n/a	GIRAFFE	n/a	10	18	[0, 0, 0]	n/a	catFR1	3	R1269E
1939.224	1.617	1946118	WORD	n/a	wordpools/wordpool_categorized_EN.txt	BALL	Toys	11	18	[0, 0, 0]	n/a	catFR1	3	R1269E
1940.841	0.816	1947735	WORD_OFF	n/a	n/a	BALL	n/a	11	18	[0, 0, 0]	n/a	catFR1	3	R1269E
1941.657	1.618	1948551	WORD	n/a	wordpools/wordpool_categorized_EN.txt	BLOCKS	Toys	12	18	[0, 0, 0]	n/a	catFR1	3	R1269E
1943.275	0.0	1950169	ENCODING_END	n/a	n/a	n/a	n/a	-999	18	[0, 0, 0]	n/a	catFR1	3	R1269E
1943.275	0.168	1950169	WORD_OFF	n/a	n/a	BLOCKS	n/a	12	18	[0, 0, 0]	n/a	catFR1	3	R1269E
1943.443	0.0	1950337	DISTRACT_START	n/a	n/a	n/a	n/a	-999	18	[0, 0, 0]	n/a	catFR1	3	R1269E
1943.443	0.015	1950337	START	n/a	n/a	n/a	n/a	-999	18	[-999, -999, -999]	n/a	catFR1	3	R1269E
1943.458	3.051	1950352	PROB	3.051	n/a	n/a	n/a	-999	18	[8, 6, 2]	16	catFR1	3	R1269E
1946.509	4.7	1953403	PROB	4.7	n/a	n/a	n/a	-999	18	[5, 8, 9]	22	catFR1	3	R1269E
1951.209	1.601	1958103	PROB	1.601	n/a	n/a	n/a	-999	18	[5, 5, 1]	11	catFR1	3	R1269E
1952.81	2.433	1959704	PROB	2.433	n/a	n/a	n/a	-999	18	[1, 7, 5]	13	catFR1	3	R1269E
1955.243	2.801	1962137	PROB	2.801	n/a	n/a	n/a	-999	18	[1, 7, 2]	11	catFR1	3	R1269E
1958.044	3.384	1964938	PROB	3.384	n/a	n/a	n/a	-999	18	[2, 9, 2]	13	catFR1	3	R1269E
1961.428	2.442	1968321	PROB	2.442	n/a	n/a	n/a	-999	18	[2, 9, 8]	19	catFR1	3	R1269E
1963.87	0.009	1970763	STOP	n/a	n/a	n/a	n/a	-999	18	[-999, -999, -999]	n/a	catFR1	3	R1269E
1963.879	0.583	1970772	DISTRACT_END	n/a	n/a	n/a	n/a	-999	18	[0, 0, 0]	n/a	catFR1	3	R1269E
1964.462	0.517	1971355	RETRIEVAL_ORIENT	n/a	n/a	n/a	n/a	-999	18	[0, 0, 0]	n/a	catFR1	3	R1269E
1964.979	0.836	1971872	REC_START	n/a	n/a	n/a	n/a	-999	18	[0, 0, 0]	n/a	catFR1	3	R1269E
1965.815	0.732	1972708	REC_WORD	0.732	n/a	GIRAFFE	Zoo	10	18	[0, 0, 0]	n/a	catFR1	3	R1269E
1966.547	11.746	1973440	REC_WORD	11.746	n/a	ORANGUTAN	Zoo	1	18	[0, 0, 0]	n/a	catFR1	3	R1269E
1978.293	1.499	1985186	REC_WORD	1.499	n/a	MONKEY	Zoo	2	18	[0, 0, 0]	n/a	catFR1	3	R1269E
1979.792	13.719	1986685	REC_WORD	13.719	n/a	LION	Zoo	9	18	[0, 0, 0]	n/a	catFR1	3	R1269E
1993.511	1.479	2000403	REC_WORD	1.479	n/a	TREE	n/a	-999	18	[0, 0, 0]	n/a	catFR1	3	R1269E
1994.99	5.411	2001882	REC_END	n/a	n/a	n/a	n/a	-999	18	[0, 0, 0]	n/a	catFR1	3	R1269E
2000.401	0.5	2007293	TRIAL	n/a	n/a	n/a	n/a	-999	19	[0, 0, 0]	n/a	catFR1	3	R1269E
2000.901	10.428	2007793	COUNTDOWN_START	n/a	n/a	n/a	n/a	-999	19	[0, 0, 0]	n/a	catFR1	3	R1269E
2011.329	0.008	2018220	COUNTDOWN_END	n/a	n/a	n/a	n/a	-999	19	[0, 0, 0]	n/a	catFR1	3	R1269E
2011.337	1.617	2018228	ORIENT	n/a	n/a	n/a	n/a	-999	19	[0, 0, 0]	n/a	catFR1	3	R1269E
2012.954	2.033	2019845	ORIENT_OFF	n/a	n/a	n/a	n/a	-999	19	[0, 0, 0]	n/a	catFR1	3	R1269E
2014.987	1.616	2021878	WORD	n/a	wordpools/wordpool_categorized_EN.txt	STREAM	Landscapes	1	19	[0, 0, 0]	n/a	catFR1	3	R1269E
2016.603	0.835	2023494	WORD_OFF	n/a	n/a	STREAM	n/a	1	19	[0, 0, 0]	n/a	catFR1	3	R1269E
2017.438	1.617	2024329	WORD	n/a	wordpools/wordpool_categorized_EN.txt	FOREST	Landscapes	2	19	[0, 0, 0]	n/a	catFR1	3	R1269E
2019.055	0.95	2025946	WORD_OFF	n/a	n/a	FOREST	n/a	2	19	[0, 0, 0]	n/a	catFR1	3	R1269E
2020.005	1.616	2026896	WORD	n/a	wordpools/wordpool_categorized_EN.txt	TABLET	Electronics	3	19	[0, 0, 0]	n/a	catFR1	3	R1269E
2021.621	0.901	2028512	WORD_OFF	n/a	n/a	TABLET	n/a	3	19	[0, 0, 0]	n/a	catFR1	3	R1269E
2022.522	1.617	2029413	WORD	n/a	wordpools/wordpool_categorized_EN.txt	SCANNER	Electronics	4	19	[0, 0, 0]	n/a	catFR1	3	R1269E
2024.139	0.85	2031030	WORD_OFF	n/a	n/a	SCANNER	n/a	4	19	[0, 0, 0]	n/a	catFR1	3	R1269E
2024.989	1.616	2031880	WORD	n/a	wordpools/wordpool_categorized_EN.txt	CAULIFLOWER	Vegetables	5	19	[0, 0, 0]	n/a	catFR1	3	R1269E
2026.605	0.834	2033496	WORD_OFF	n/a	n/a	CAULIFLOWER	n/a	5	19	[0, 0, 0]	n/a	catFR1	3	R1269E
2027.439	1.617	2034330	WORD	n/a	wordpools/wordpool_categorized_EN.txt	BROCCOLI	Vegetables	6	19	[0, 0, 0]	n/a	catFR1	3	R1269E
2029.056	0.951	2035947	WORD_OFF	n/a	n/a	BROCCOLI	n/a	6	19	[0, 0, 0]	n/a	catFR1	3	R1269E
2030.007	1.616	2036898	WORD	n/a	wordpools/wordpool_categorized_EN.txt	VALLEY	Landscapes	7	19	[0, 0, 0]	n/a	catFR1	3	R1269E
2031.623	0.966	2038514	WORD_OFF	n/a	n/a	VALLEY	n/a	7	19	[0, 0, 0]	n/a	catFR1	3	R1269E
2032.589	1.601	2039480	WORD	n/a	wordpools/wordpool_categorized_EN.txt	HILLS	Landscapes	8	19	[0, 0, 0]	n/a	catFR1	3	R1269E
2034.19	0.917	2041081	WORD_OFF	n/a	n/a	HILLS	n/a	8	19	[0, 0, 0]	n/a	catFR1	3	R1269E
2035.107	1.616	2041997	WORD	n/a	wordpools/wordpool_categorized_EN.txt	RADIO	Electronics	9	19	[0, 0, 0]	n/a	catFR1	3	R1269E
2036.723	0.884	2043613	WORD_OFF	n/a	n/a	RADIO	n/a	9	19	[0, 0, 0]	n/a	catFR1	3	R1269E
2037.607	1.618	2044497	WORD	n/a	wordpools/wordpool_categorized_EN.txt	SPEAKER	Electronics	10	19	[0, 0, 0]	n/a	catFR1	3	R1269E
2039.225	0.8	2046115	WORD_OFF	n/a	n/a	SPEAKER	n/a	10	19	[0, 0, 0]	n/a	catFR1	3	R1269E
2040.025	1.616	2046915	WORD	n/a	wordpools/wordpool_categorized_EN.txt	CABBAGE	Vegetables	11	19	[0, 0, 0]	n/a	catFR1	3	R1269E
2041.641	0.901	2048531	WORD_OFF	n/a	n/a	CABBAGE	n/a	11	19	[0, 0, 0]	n/a	catFR1	3	R1269E
2042.542	1.617	2049432	WORD	n/a	wordpools/wordpool_categorized_EN.txt	CARROT	Vegetables	12	19	[0, 0, 0]	n/a	catFR1	3	R1269E
2044.159	0.0	2051049	ENCODING_END	n/a	n/a	n/a	n/a	-999	19	[0, 0, 0]	n/a	catFR1	3	R1269E
2044.159	0.136	2051049	WORD_OFF	n/a	n/a	CARROT	n/a	12	19	[0, 0, 0]	n/a	catFR1	3	R1269E
2044.295	0.0	2051185	DISTRACT_START	n/a	n/a	n/a	n/a	-999	19	[0, 0, 0]	n/a	catFR1	3	R1269E
2044.295	0.014	2051185	START	n/a	n/a	n/a	n/a	-999	19	[-999, -999, -999]	n/a	catFR1	3	R1269E
2044.309	3.134	2051199	PROB	3.134	n/a	n/a	n/a	-999	19	[8, 1, 7]	16	catFR1	3	R1269E
2047.443	3.851	2054333	PROB	3.851	n/a	n/a	n/a	-999	19	[5, 3, 4]	13	catFR1	3	R1269E
2051.294	3.316	2058184	PROB	3.316	n/a	n/a	n/a	-999	19	[6, 6, 3]	16	catFR1	3	R1269E
2054.61	6.202	2061500	PROB	6.202	n/a	n/a	n/a	-999	19	[9, 3, 4]	16	catFR1	3	R1269E
2060.812	2.799	2067701	PROB	2.799	n/a	n/a	n/a	-999	19	[2, 2, 5]	9	catFR1	3	R1269E
2063.611	2.943	2070500	PROB	2.943	n/a	n/a	n/a	-999	19	[2, 6, 2]	10	catFR1	3	R1269E
2066.554	0.008	2073443	STOP	n/a	n/a	n/a	n/a	-999	19	[-999, -999, -999]	n/a	catFR1	3	R1269E
2066.562	0.701	2073451	DISTRACT_END	n/a	n/a	n/a	n/a	-999	19	[0, 0, 0]	n/a	catFR1	3	R1269E
2067.263	0.518	2074152	RETRIEVAL_ORIENT	n/a	n/a	n/a	n/a	-999	19	[0, 0, 0]	n/a	catFR1	3	R1269E
2067.781	1.303	2074670	REC_START	n/a	n/a	n/a	n/a	-999	19	[0, 0, 0]	n/a	catFR1	3	R1269E
2069.084	0.917	2075973	REC_WORD	0.917	n/a	STREAM	Landscapes	1	19	[0, 0, 0]	n/a	catFR1	3	R1269E
2070.001	0.62	2076890	REC_WORD	0.62	n/a	FOREST	Landscapes	2	19	[0, 0, 0]	n/a	catFR1	3	R1269E
2070.621	1.579	2077510	REC_WORD	1.579	n/a	HILLS	Landscapes	8	19	[0, 0, 0]	n/a	catFR1	3	R1269E
2072.2	0.831	2079089	REC_WORD	0.831	n/a	BROCCOLI	Vegetables	6	19	[0, 0, 0]	n/a	catFR1	3	R1269E
2073.031	1.001	2079920	REC_WORD	1.001	n/a	CAULIFLOWER	Vegetables	5	19	[0, 0, 0]	n/a	catFR1	3	R1269E
2074.032	3.851	2080921	REC_WORD	3.851	n/a	CABBAGE	Vegetables	11	19	[0, 0, 0]	n/a	catFR1	3	R1269E
2077.883	1.767	2084772	REC_WORD	1.767	n/a	MOUNTAIN	n/a	-999	19	[0, 0, 0]	n/a	catFR1	3	R1269E
2079.65	1.849	2086539	REC_WORD	1.849	n/a	LAKE	n/a	-999	19	[0, 0, 0]	n/a	catFR1	3	R1269E
2081.499	4.722	2088388	REC_WORD	4.722	n/a	VALLEY	Landscapes	7	19	[0, 0, 0]	n/a	catFR1	3	R1269E
2086.221	11.57	2093109	REC_WORD	11.57	n/a	CELERY	n/a	-999	19	[0, 0, 0]	n/a	catFR1	3	R1269E
2097.791	5.378	2104679	REC_END	n/a	n/a	n/a	n/a	-999	19	[0, 0, 0]	n/a	catFR1	3	R1269E
2103.169	0.5	2110057	TRIAL	n/a	n/a	n/a	n/a	-999	20	[0, 0, 0]	n/a	catFR1	3	R1269E
2103.669	10.428	2110557	COUNTDOWN_START	n/a	n/a	n/a	n/a	-999	20	[0, 0, 0]	n/a	catFR1	3	R1269E
2114.097	0.008	2120984	COUNTDOWN_END	n/a	n/a	n/a	n/a	-999	20	[0, 0, 0]	n/a	catFR1	3	R1269E
2114.105	1.616	2120992	ORIENT	n/a	n/a	n/a	n/a	-999	20	[0, 0, 0]	n/a	catFR1	3	R1269E
2115.721	1.883	2122608	ORIENT_OFF	n/a	n/a	n/a	n/a	-999	20	[0, 0, 0]	n/a	catFR1	3	R1269E
2117.604	1.618	2124491	WORD	n/a	wordpools/wordpool_categorized_EN.txt	PEELER	KitchenTools	1	20	[0, 0, 0]	n/a	catFR1	3	R1269E
2119.222	0.967	2126109	WORD_OFF	n/a	n/a	PEELER	n/a	1	20	[0, 0, 0]	n/a	catFR1	3	R1269E
2120.189	1.617	2127076	WORD	n/a	wordpools/wordpool_categorized_EN.txt	KNIFE	KitchenTools	2	20	[0, 0, 0]	n/a	catFR1	3	R1269E
2121.806	0.984	2128693	WORD_OFF	n/a	n/a	KNIFE	n/a	2	20	[0, 0, 0]	n/a	catFR1	3	R1269E
2122.79	1.617	2129677	WORD	n/a	wordpools/wordpool_categorized_EN.txt	RIVER	Landscapes	3	20	[0, 0, 0]	n/a	catFR1	3	R1269E
2124.407	1.0	2131294	WORD_OFF	n/a	n/a	RIVER	n/a	3	20	[0, 0, 0]	n/a	catFR1	3	R1269E
2125.407	1.617	2132294	WORD	n/a	wordpools/wordpool_categorized_EN.txt	BEACH	Landscapes	4	20	[0, 0, 0]	n/a	catFR1	3	R1269E
2127.024	0.983	2133911	WORD_OFF	n/a	n/a	BEACH	n/a	4	20	[0, 0, 0]	n/a	catFR1	3	R1269E
2128.007	1.616	2134894	WORD	n/a	wordpools/wordpool_categorized_EN.txt	UNDERWEAR	Clothing	5	20	[0, 0, 0]	n/a	catFR1	3	R1269E
2129.623	0.967	2136510	WORD_OFF	n/a	n/a	UNDERWEAR	n/a	5	20	[0, 0, 0]	n/a	catFR1	3	R1269E
2130.59	1.618	2137477	WORD	n/a	wordpools/wordpool_categorized_EN.txt	DRESS	Clothing	6	20	[0, 0, 0]	n/a	catFR1	3	R1269E
2132.208	0.95	2139095	WORD_OFF	n/a	n/a	DRESS	n/a	6	20	[0, 0, 0]	n/a	catFR1	3	R1269E
2133.158	1.617	2140045	WORD	n/a	wordpools/wordpool_categorized_EN.txt	ISLAND	Landscapes	7	20	[0, 0, 0]	n/a	catFR1	3	R1269E
2134.775	0.783	2141662	WORD_OFF	n/a	n/a	ISLAND	n/a	7	20	[0, 0, 0]	n/a	catFR1	3	R1269E
2135.558	1.618	2142445	WORD	n/a	wordpools/wordpool_categorized_EN.txt	WOODS	Landscapes	8	20	[0, 0, 0]	n/a	catFR1	3	R1269E
2137.176	0.783	2144062	WORD_OFF	n/a	n/a	WOODS	n/a	8	20	[0, 0, 0]	n/a	catFR1	3	R1269E
2137.959	1.616	2144845	WORD	n/a	wordpools/wordpool_categorized_EN.txt	LADLE	KitchenTools	9	20	[0, 0, 0]	n/a	catFR1	3	R1269E
2139.575	0.951	2146461	WORD_OFF	n/a	n/a	LADLE	n/a	9	20	[0, 0, 0]	n/a	catFR1	3	R1269E
2140.526	1.617	2147412	WORD	n/a	wordpools/wordpool_categorized_EN.txt	GRATER	KitchenTools	10	20	[0, 0, 0]	n/a	catFR1	3	R1269E
2142.143	0.917	2149029	WORD_OFF	n/a	n/a	GRATER	n/a	10	20	[0, 0, 0]	n/a	catFR1	3	R1269E
2143.06	1.616	2149946	WORD	n/a	wordpools/wordpool_categorized_EN.txt	SOCKS	Clothing	11	20	[0, 0, 0]	n/a	catFR1	3	R1269E
2144.676	1.0	2151562	WORD_OFF	n/a	n/a	SOCKS	n/a	11	20	[0, 0, 0]	n/a	catFR1	3	R1269E
2145.676	1.618	2152562	WORD	n/a	wordpools/wordpool_categorized_EN.txt	SHIRT	Clothing	12	20	[0, 0, 0]	n/a	catFR1	3	R1269E
2147.294	0.0	2154180	ENCODING_END	n/a	n/a	n/a	n/a	-999	20	[0, 0, 0]	n/a	catFR1	3	R1269E
2147.294	0.131	2154180	WORD_OFF	n/a	n/a	SHIRT	n/a	12	20	[0, 0, 0]	n/a	catFR1	3	R1269E
2147.425	0.0	2154311	DISTRACT_START	n/a	n/a	n/a	n/a	-999	20	[0, 0, 0]	n/a	catFR1	3	R1269E
2147.425	0.019	2154311	START	n/a	n/a	n/a	n/a	-999	20	[-999, -999, -999]	n/a	catFR1	3	R1269E
2147.444	3.183	2154330	PROB	3.183	n/a	n/a	n/a	-999	20	[3, 8, 7]	18	catFR1	3	R1269E
2150.627	2.268	2157513	PROB	2.268	n/a	n/a	n/a	-999	20	[4, 1, 4]	9	catFR1	3	R1269E
2152.895	2.85	2159781	PROB	2.85	n/a	n/a	n/a	-999	20	[5, 6, 5]	16	catFR1	3	R1269E
2155.745	2.467	2162631	PROB	2.467	n/a	n/a	n/a	-999	20	[1, 8, 9]	18	catFR1	3	R1269E
2158.212	4.251	2165098	PROB	4.251	n/a	n/a	n/a	-999	20	[6, 8, 2]	16	catFR1	3	R1269E
2162.463	6.703	2169348	PROB	6.703	n/a	n/a	n/a	-999	20	[8, 7, 8]	23	catFR1	3	R1269E
2169.166	0.015	2176051	STOP	n/a	n/a	n/a	n/a	-999	20	[-999, -999, -999]	n/a	catFR1	3	R1269E
2169.181	0.533	2176066	DISTRACT_END	n/a	n/a	n/a	n/a	-999	20	[0, 0, 0]	n/a	catFR1	3	R1269E
2169.714	0.518	2176599	RETRIEVAL_ORIENT	n/a	n/a	n/a	n/a	-999	20	[0, 0, 0]	n/a	catFR1	3	R1269E
2170.232	0.346	2177117	REC_START	n/a	n/a	n/a	n/a	-999	20	[0, 0, 0]	n/a	catFR1	3	R1269E
2170.578	0.788	2177463	REC_WORD	0.788	n/a	PEELER	KitchenTools	1	20	[0, 0, 0]	n/a	catFR1	3	R1269E
2171.366	1.931	2178251	REC_WORD	1.931	n/a	GRATER	KitchenTools	10	20	[0, 0, 0]	n/a	catFR1	3	R1269E
2173.297	0.91	2180182	REC_WORD	0.91	n/a	DRESS	Clothing	6	20	[0, 0, 0]	n/a	catFR1	3	R1269E
2174.207	0.785	2181092	REC_WORD	0.785	n/a	UNDERWEAR	Clothing	5	20	[0, 0, 0]	n/a	catFR1	3	R1269E
2174.992	5.606	2181877	REC_WORD	5.606	n/a	SOCKS	Clothing	11	20	[0, 0, 0]	n/a	catFR1	3	R1269E
2180.598	10.501	2187483	REC_WORD	10.501	n/a	SHOES	n/a	-999	20	[0, 0, 0]	n/a	catFR1	3	R1269E
2191.099	9.143	2197983	REC_WORD	9.143	n/a	STRAINER	n/a	-999	20	[0, 0, 0]	n/a	catFR1	3	R1269E
2200.242	4.879	2207126	REC_END	n/a	n/a	n/a	n/a	-999	20	[0, 0, 0]	n/a	catFR1	3	R1269E
2205.121	0.5	2212005	TRIAL	n/a	n/a	n/a	n/a	-999	21	[0, 0, 0]	n/a	catFR1	3	R1269E
2205.621	10.428	2212505	COUNTDOWN_START	n/a	n/a	n/a	n/a	-999	21	[0, 0, 0]	n/a	catFR1	3	R1269E
2216.049	0.007	2222932	COUNTDOWN_END	n/a	n/a	n/a	n/a	-999	21	[0, 0, 0]	n/a	catFR1	3	R1269E
