onset	duration	sample	trial_type	response_time	stim_file	item_name	category	serialpos	list	test	answer	experiment	session	subject
0.0	0.681	6618	INSTRUCT_START	n/a	n/a	n/a	n/a	-999	-999	[0, 0, 0]	n/a	catFR1	4	R1499T
0.681	23.965	7298	INSTRUCT_END	n/a	n/a	n/a	n/a	-999	-999	[0, 0, 0]	n/a	catFR1	4	R1499T
24.646	10.402	31276	COUNTDOWN_START	n/a	n/a	n/a	n/a	-999	-999	[0, 0, 0]	n/a	catFR1	4	R1499T
35.048	0.0	41664	COUNTDOWN_END	n/a	n/a	n/a	n/a	-999	-999	[0, 0, 0]	n/a	catFR1	4	R1499T
35.048	2.2	41678	ENCODING_START	n/a	n/a	n/a	n/a	-999	-1	[0, 0, 0]	n/a	catFR1	4	R1499T
37.248	1.599	43874	WORD	n/a	n/a	TRUENO	Weather	1	-1	[0, 0, 0]	n/a	catFR1	4	R1499T
38.847	0.917	45461	WORD_OFF	n/a	n/a	TRUENO	Weather	1	-1	[0, 0, 0]	n/a	catFR1	4	R1499T
39.764	1.617	46383	WORD	n/a	n/a	RELAMPAGO	Weather	2	-1	[0, 0, 0]	n/a	catFR1	4	R1499T
41.381	0.849	47998	WORD_OFF	n/a	n/a	RELAMPAGO	Weather	2	-1	[0, 0, 0]	n/a	catFR1	4	R1499T
42.23	1.601	48848	WORD	n/a	n/a	DULCE	Desserts	3	-1	[0, 0, 0]	n/a	catFR1	4	R1499T
43.831	0.966	50450	WORD_OFF	n/a	n/a	DULCE	Desserts	3	-1	[0, 0, 0]	n/a	catFR1	4	R1499T
44.797	1.601	51413	WORD	n/a	n/a	PAY	Desserts	4	-1	[0, 0, 0]	n/a	catFR1	4	R1499T
46.398	0.783	53015	WORD_OFF	n/a	n/a	PAY	Desserts	4	-1	[0, 0, 0]	n/a	catFR1	4	R1499T
47.181	1.616	53794	WORD	n/a	n/a	PULPO	OceanAnimals	5	-1	[0, 0, 0]	n/a	catFR1	4	R1499T
48.797	0.8	55410	WORD_OFF	n/a	n/a	PULPO	OceanAnimals	5	-1	[0, 0, 0]	n/a	catFR1	4	R1499T
49.597	1.616	56218	WORD	n/a	n/a	OSTRA	OceanAnimals	6	-1	[0, 0, 0]	n/a	catFR1	4	R1499T
51.213	0.883	57833	WORD_OFF	n/a	n/a	OSTRA	OceanAnimals	6	-1	[0, 0, 0]	n/a	catFR1	4	R1499T
52.096	1.601	58712	WORD	n/a	n/a	TARTA	Desserts	7	-1	[0, 0, 0]	n/a	catFR1	4	R1499T
53.697	0.816	60313	WORD_OFF	n/a	n/a	TARTA	Desserts	7	-1	[0, 0, 0]	n/a	catFR1	4	R1499T
54.513	1.601	61135	WORD	n/a	n/a	PASTELILLO	Desserts	8	-1	[0, 0, 0]	n/a	catFR1	4	R1499T
56.114	0.983	62736	WORD_OFF	n/a	n/a	PASTELILLO	Desserts	8	-1	[0, 0, 0]	n/a	catFR1	4	R1499T
57.097	1.617	63714	WORD	n/a	n/a	VIENTO	Weather	9	-1	[0, 0, 0]	n/a	catFR1	4	R1499T
58.714	0.949	65330	WORD_OFF	n/a	n/a	VIENTO	Weather	9	-1	[0, 0, 0]	n/a	catFR1	4	R1499T
59.663	1.617	66279	WORD	n/a	n/a	TORMENTA	Weather	10	-1	[0, 0, 0]	n/a	catFR1	4	R1499T
61.28	0.816	67895	WORD_OFF	n/a	n/a	TORMENTA	Weather	10	-1	[0, 0, 0]	n/a	catFR1	4	R1499T
62.096	1.601	68717	WORD	n/a	n/a	TORTUGA	OceanAnimals	11	-1	[0, 0, 0]	n/a	catFR1	4	R1499T
63.697	0.817	70318	WORD_OFF	n/a	n/a	TORTUGA	OceanAnimals	11	-1	[0, 0, 0]	n/a	catFR1	4	R1499T
64.514	1.616	71126	WORD	n/a	n/a	LANGOSTA	OceanAnimals	12	-1	[0, 0, 0]	n/a	catFR1	4	R1499T
66.13	0.002	72741	WORD_OFF	n/a	n/a	LANGOSTA	OceanAnimals	12	-1	[0, 0, 0]	n/a	catFR1	4	R1499T
66.132	0.0	72750	START	n/a	n/a	n/a	n/a	-999	-1	[-999, -999, -999]	n/a	catFR1	4	R1499T
66.132	0.0	72750	PROB	0.0	n/a	n/a	n/a	-999	-1	[1, 2, 6]	9	catFR1	4	R1499T
66.132	0.0	72756	ENCODING_END	n/a	n/a	n/a	n/a	-999	-1	[0, 0, 0]	n/a	catFR1	4	R1499T
66.132	4.748	72756	DISTRACT_START	n/a	n/a	n/a	n/a	-999	-1	[0, 0, 0]	n/a	catFR1	4	R1499T
70.88	3.001	77497	PROB	3.001	n/a	n/a	n/a	-999	-1	[3, 1, 5]	9	catFR1	4	R1499T
73.881	4.75	80498	PROB	4.75	n/a	n/a	n/a	-999	-1	[6, 2, 5]	13	catFR1	4	R1499T
78.631	3.984	85248	PROB	3.984	n/a	n/a	n/a	-999	-1	[8, 1, 1]	10	catFR1	4	R1499T
82.615	4.949	89232	PROB	4.949	n/a	n/a	n/a	-999	-1	[8, 3, 8]	19	catFR1	4	R1499T
87.564	0.0	94181	STOP	n/a	n/a	n/a	n/a	-999	-1	[-999, -999, -999]	n/a	catFR1	4	R1499T
87.564	1.15	94183	DISTRACT_END	n/a	n/a	n/a	n/a	-999	-1	[0, 0, 0]	n/a	catFR1	4	R1499T
88.714	1.455	95331	REC_START	n/a	n/a	n/a	n/a	-999	-1	[0, 0, 0]	n/a	catFR1	4	R1499T
90.169	0.861	96785	REC_WORD	0.861	n/a	TRUENO	Weather	1	-1	[0, 0, 0]	n/a	catFR1	4	R1499T
91.03	1.0	97646	REC_WORD	1.0	n/a	RELAMPAGO	Weather	2	-1	[0, 0, 0]	n/a	catFR1	4	R1499T
92.03	0.458	98646	REC_WORD	0.458	n/a	RELAMPAGO	Weather	2	-1	[0, 0, 0]	n/a	catFR1	4	R1499T
92.488	1.0	99104	REC_WORD	1.0	n/a	VIENTO	Weather	9	-1	[0, 0, 0]	n/a	catFR1	4	R1499T
93.488	2.21	100104	REC_WORD	2.21	n/a	VIENTO	Weather	9	-1	[0, 0, 0]	n/a	catFR1	4	R1499T
95.698	3.226	102314	REC_WORD	3.226	n/a	TORTUGA	OceanAnimals	11	-1	[0, 0, 0]	n/a	catFR1	4	R1499T
98.924	3.935	105540	REC_WORD_VV	3.935	n/a	<>	n/a	-999	-1	[0, 0, 0]	n/a	catFR1	4	R1499T
102.859	1.0	109475	REC_WORD_VV	1.0	n/a	<>	n/a	-999	-1	[0, 0, 0]	n/a	catFR1	4	R1499T
103.859	4.682	110475	REC_WORD_VV	4.682	n/a	<>	n/a	-999	-1	[0, 0, 0]	n/a	catFR1	4	R1499T
108.541	2.647	115157	REC_WORD_VV	2.647	n/a	<>	n/a	-999	-1	[0, 0, 0]	n/a	catFR1	4	R1499T
111.188	3.841	117803	REC_WORD_VV	3.841	n/a	<>	n/a	-999	-1	[0, 0, 0]	n/a	catFR1	4	R1499T
115.029	1.0	121644	REC_WORD_VV	1.0	n/a	<>	n/a	-999	-1	[0, 0, 0]	n/a	catFR1	4	R1499T
116.029	3.899	122644	REC_WORD_VV	3.899	n/a	<>	n/a	-999	-1	[0, 0, 0]	n/a	catFR1	4	R1499T
119.928	4.202	126550	REC_END	n/a	n/a	n/a	n/a	-999	-1	[0, 0, 0]	n/a	catFR1	4	R1499T
124.13	10.351	130745	COUNTDOWN_START	n/a	n/a	n/a	n/a	-999	1	[0, 0, 0]	n/a	catFR1	4	R1499T
134.481	0.0	141090	COUNTDOWN_END	n/a	n/a	n/a	n/a	-999	1	[0, 0, 0]	n/a	catFR1	4	R1499T
134.481	1.915	141104	ENCODING_START	n/a	n/a	n/a	n/a	-999	1	[0, 0, 0]	n/a	catFR1	4	R1499T
136.396	1.601	143017	WORD	n/a	wordpools/wordpool_categorized_SP.txt	DIENTE	BodyParts	1	1	[0, 0, 0]	n/a	catFR1	4	R1499T
137.997	0.817	144605	WORD_OFF	n/a	n/a	DIENTE	BodyParts	1	1	[0, 0, 0]	n/a	catFR1	4	R1499T
138.814	1.616	145427	WORD	n/a	wordpools/wordpool_categorized_SP.txt	MANO	BodyParts	2	1	[0, 0, 0]	n/a	catFR1	4	R1499T
140.43	0.917	147042	WORD_OFF	n/a	n/a	MANO	BodyParts	2	1	[0, 0, 0]	n/a	catFR1	4	R1499T
141.347	1.617	147963	WORD	n/a	wordpools/wordpool_categorized_SP.txt	PIEL	Fabric	3	1	[0, 0, 0]	n/a	catFR1	4	R1499T
142.964	0.883	149579	WORD_OFF	n/a	n/a	PIEL	Fabric	3	1	[0, 0, 0]	n/a	catFR1	4	R1499T
143.847	1.617	150457	WORD	n/a	wordpools/wordpool_categorized_SP.txt	SATEN	Fabric	4	1	[0, 0, 0]	n/a	catFR1	4	R1499T
145.464	0.983	152073	WORD_OFF	n/a	n/a	SATEN	Fabric	4	1	[0, 0, 0]	n/a	catFR1	4	R1499T
146.447	1.617	153065	WORD	n/a	wordpools/wordpool_categorized_SP.txt	MANZANA	Fruit	5	1	[0, 0, 0]	n/a	catFR1	4	R1499T
148.064	0.816	154681	WORD_OFF	n/a	n/a	MANZANA	Fruit	5	1	[0, 0, 0]	n/a	catFR1	4	R1499T
148.88	1.601	155502	WORD	n/a	wordpools/wordpool_categorized_SP.txt	DURAZNO	Fruit	6	1	[0, 0, 0]	n/a	catFR1	4	R1499T
150.481	0.85	157090	WORD_OFF	n/a	n/a	DURAZNO	Fruit	6	1	[0, 0, 0]	n/a	catFR1	4	R1499T
151.331	1.615	157940	WORD	n/a	wordpools/wordpool_categorized_SP.txt	RODILLA	BodyParts	7	1	[0, 0, 0]	n/a	catFR1	4	R1499T
152.946	0.817	159556	WORD_OFF	n/a	n/a	RODILLA	BodyParts	7	1	[0, 0, 0]	n/a	catFR1	4	R1499T
153.763	1.601	160377	WORD	n/a	wordpools/wordpool_categorized_SP.txt	OREJA	BodyParts	8	1	[0, 0, 0]	n/a	catFR1	4	R1499T
155.364	0.767	161979	WORD_OFF	n/a	n/a	OREJA	BodyParts	8	1	[0, 0, 0]	n/a	catFR1	4	R1499T
156.131	1.616	162744	WORD	n/a	wordpools/wordpool_categorized_SP.txt	LIMA	Fruit	9	1	[0, 0, 0]	n/a	catFR1	4	R1499T
157.747	0.767	164360	WORD_OFF	n/a	n/a	LIMA	Fruit	9	1	[0, 0, 0]	n/a	catFR1	4	R1499T
158.514	1.616	165125	WORD	n/a	wordpools/wordpool_categorized_SP.txt	PERA	Fruit	10	1	[0, 0, 0]	n/a	catFR1	4	R1499T
160.13	0.767	166740	WORD_OFF	n/a	n/a	PERA	Fruit	10	1	[0, 0, 0]	n/a	catFR1	4	R1499T
160.897	1.617	167506	WORD	n/a	wordpools/wordpool_categorized_SP.txt	LINO	Fabric	11	1	[0, 0, 0]	n/a	catFR1	4	R1499T
162.514	0.767	169121	WORD_OFF	n/a	n/a	LINO	Fabric	11	1	[0, 0, 0]	n/a	catFR1	4	R1499T
163.281	1.618	169901	WORD	n/a	wordpools/wordpool_categorized_SP.txt	LANA	Fabric	12	1	[0, 0, 0]	n/a	catFR1	4	R1499T
164.899	0.001	171512	START	n/a	n/a	n/a	n/a	-999	1	[-999, -999, -999]	n/a	catFR1	4	R1499T
164.9	0.0	171513	PROB	0.0	n/a	n/a	n/a	-999	1	[4, 5, 2]	11	catFR1	4	R1499T
164.897	0.002	171516	WORD_OFF	n/a	n/a	LANA	Fabric	12	1	[0, 0, 0]	n/a	catFR1	4	R1499T
164.899	0.0	171516	ENCODING_END	n/a	n/a	n/a	n/a	-999	1	[0, 0, 0]	n/a	catFR1	4	R1499T
164.899	3.848	171516	DISTRACT_START	n/a	n/a	n/a	n/a	-999	1	[0, 0, 0]	n/a	catFR1	4	R1499T
168.747	3.318	175360	PROB	3.318	n/a	n/a	n/a	-999	1	[3, 3, 7]	13	catFR1	4	R1499T
172.065	4.05	178677	PROB	4.05	n/a	n/a	n/a	-999	1	[8, 6, 5]	19	catFR1	4	R1499T
176.115	4.716	182727	PROB	4.716	n/a	n/a	n/a	-999	1	[3, 7, 7]	17	catFR1	4	R1499T
180.831	7.083	187443	PROB	7.083	n/a	n/a	n/a	-999	1	[7, 6, 5]	18	catFR1	4	R1499T
187.914	0.0	194526	STOP	n/a	n/a	n/a	n/a	-999	1	[-999, -999, -999]	n/a	catFR1	4	R1499T
187.914	1.033	194531	DISTRACT_END	n/a	n/a	n/a	n/a	-999	1	[0, 0, 0]	n/a	catFR1	4	R1499T
188.947	3.049	195565	REC_START	n/a	n/a	n/a	n/a	-999	1	[0, 0, 0]	n/a	catFR1	4	R1499T
191.996	1.439	198607	REC_WORD	1.439	n/a	MANO	BodyParts	2	1	[0, 0, 0]	n/a	catFR1	4	R1499T
193.435	1.371	200046	REC_WORD	1.371	n/a	RODILLA	BodyParts	7	1	[0, 0, 0]	n/a	catFR1	4	R1499T
194.806	0.739	201417	REC_WORD	0.739	n/a	PERA	Fruit	10	1	[0, 0, 0]	n/a	catFR1	4	R1499T
195.545	0.653	202156	REC_WORD	0.653	n/a	LIMA	Fruit	9	1	[0, 0, 0]	n/a	catFR1	4	R1499T
196.198	0.788	202809	REC_WORD	0.788	n/a	DURAZNO	Fruit	6	1	[0, 0, 0]	n/a	catFR1	4	R1499T
196.986	1.0	203597	REC_WORD	1.0	n/a	MANZANA	Fruit	5	1	[0, 0, 0]	n/a	catFR1	4	R1499T
197.986	2.105	204597	REC_WORD	2.105	n/a	MANZANA	Fruit	5	1	[0, 0, 0]	n/a	catFR1	4	R1499T
200.091	1.023	206702	REC_WORD	1.023	n/a	MANO	BodyParts	2	1	[0, 0, 0]	n/a	catFR1	4	R1499T
201.114	1.444	207725	REC_WORD_VV	1.444	n/a	<>	n/a	-999	1	[0, 0, 0]	n/a	catFR1	4	R1499T
202.558	0.768	209169	REC_WORD	0.768	n/a	MANO	BodyParts	2	1	[0, 0, 0]	n/a	catFR1	4	R1499T
203.326	2.303	209937	REC_WORD_VV	2.303	n/a	<>	n/a	-999	1	[0, 0, 0]	n/a	catFR1	4	R1499T
205.629	1.0	212240	REC_WORD_VV	1.0	n/a	<>	n/a	-999	1	[0, 0, 0]	n/a	catFR1	4	R1499T
206.629	0.871	213240	REC_WORD_VV	0.871	n/a	<>	n/a	-999	1	[0, 0, 0]	n/a	catFR1	4	R1499T
207.5	2.9	214111	REC_WORD	2.9	n/a	LIMA	Fruit	9	1	[0, 0, 0]	n/a	catFR1	4	R1499T
210.4	9.781	217011	REC_WORD_VV	9.781	n/a	<>	n/a	-999	1	[0, 0, 0]	n/a	catFR1	4	R1499T
220.181	0.016	226785	REC_END	n/a	n/a	n/a	n/a	-999	1	[0, 0, 0]	n/a	catFR1	4	R1499T
220.197	10.35	226813	COUNTDOWN_START	n/a	n/a	n/a	n/a	-999	1	[0, 0, 0]	n/a	catFR1	4	R1499T
230.547	0.0	237158	COUNTDOWN_END	n/a	n/a	n/a	n/a	-999	1	[0, 0, 0]	n/a	catFR1	4	R1499T
230.547	1.934	237158	ENCODING_START	n/a	n/a	n/a	n/a	-999	2	[0, 0, 0]	n/a	catFR1	4	R1499T
232.481	1.616	239086	WORD	n/a	wordpools/wordpool_categorized_SP.txt	LAVAPLATOS	Appliances	1	2	[0, 0, 0]	n/a	catFR1	4	R1499T
234.097	0.817	240701	WORD_OFF	n/a	n/a	LAVAPLATOS	Appliances	1	2	[0, 0, 0]	n/a	catFR1	4	R1499T
234.914	1.601	241523	WORD	n/a	wordpools/wordpool_categorized_SP.txt	ASPIRADORA	Appliances	2	2	[0, 0, 0]	n/a	catFR1	4	R1499T
236.515	0.782	243124	WORD_OFF	n/a	n/a	ASPIRADORA	Appliances	2	2	[0, 0, 0]	n/a	catFR1	4	R1499T
237.297	1.6	243904	WORD	n/a	wordpools/wordpool_categorized_SP.txt	BLOQUE	Toys	3	2	[0, 0, 0]	n/a	catFR1	4	R1499T
238.897	0.921	245505	WORD_OFF	n/a	n/a	BLOQUE	Toys	3	2	[0, 0, 0]	n/a	catFR1	4	R1499T
239.818	1.613	246426	WORD	n/a	wordpools/wordpool_categorized_SP.txt	FUTBOL	Toys	4	2	[0, 0, 0]	n/a	catFR1	4	R1499T
241.431	0.999	248042	WORD_OFF	n/a	n/a	FUTBOL	Toys	4	2	[0, 0, 0]	n/a	catFR1	4	R1499T
242.43	1.617	249034	WORD	n/a	wordpools/wordpool_categorized_SP.txt	ZANAHORIA	Vegetables	5	2	[0, 0, 0]	n/a	catFR1	4	R1499T
244.047	0.867	250664	WORD_OFF	n/a	n/a	ZANAHORIA	Vegetables	5	2	[0, 0, 0]	n/a	catFR1	4	R1499T
244.914	1.6	251528	WORD	n/a	wordpools/wordpool_categorized_SP.txt	PEPINO	Vegetables	6	2	[0, 0, 0]	n/a	catFR1	4	R1499T
246.514	0.9	253129	WORD_OFF	n/a	n/a	PEPINO	Vegetables	6	2	[0, 0, 0]	n/a	catFR1	4	R1499T
247.414	1.6	254022	WORD	n/a	wordpools/wordpool_categorized_SP.txt	CONGELADOR	Appliances	7	2	[0, 0, 0]	n/a	catFR1	4	R1499T
249.014	0.817	255624	WORD_OFF	n/a	n/a	CONGELADOR	Appliances	7	2	[0, 0, 0]	n/a	catFR1	4	R1499T
249.831	1.616	256445	WORD	n/a	wordpools/wordpool_categorized_SP.txt	HORNO	Appliances	8	2	[0, 0, 0]	n/a	catFR1	4	R1499T
251.447	0.884	258061	WORD_OFF	n/a	n/a	HORNO	Appliances	8	2	[0, 0, 0]	n/a	catFR1	4	R1499T
252.331	1.616	258940	WORD	n/a	wordpools/wordpool_categorized_SP.txt	MAIZ	Vegetables	9	2	[0, 0, 0]	n/a	catFR1	4	R1499T
253.947	0.95	260555	WORD_OFF	n/a	n/a	MAIZ	Vegetables	9	2	[0, 0, 0]	n/a	catFR1	4	R1499T
254.897	1.617	261505	WORD	n/a	wordpools/wordpool_categorized_SP.txt	BROCOLI	Vegetables	10	2	[0, 0, 0]	n/a	catFR1	4	R1499T
256.514	0.983	263120	WORD_OFF	n/a	n/a	BROCOLI	Vegetables	10	2	[0, 0, 0]	n/a	catFR1	4	R1499T
257.497	1.6	264112	WORD	n/a	wordpools/wordpool_categorized_SP.txt	BARBIE	Toys	11	2	[0, 0, 0]	n/a	catFR1	4	R1499T
259.097	0.984	265699	WORD_OFF	n/a	n/a	BARBIE	Toys	11	2	[0, 0, 0]	n/a	catFR1	4	R1499T
260.081	1.617	266691	WORD	n/a	wordpools/wordpool_categorized_SP.txt	MUNECO	Toys	12	2	[0, 0, 0]	n/a	catFR1	4	R1499T
261.698	0.0	268306	PROB	0.0	n/a	n/a	n/a	-999	2	[3, 7, 4]	14	catFR1	4	R1499T
261.697	0.002	268307	WORD_OFF	n/a	n/a	MUNECO	Toys	12	2	[0, 0, 0]	n/a	catFR1	4	R1499T
261.699	0.0	268307	ENCODING_END	n/a	n/a	n/a	n/a	-999	2	[0, 0, 0]	n/a	catFR1	4	R1499T
261.699	0.0	268307	DISTRACT_START	n/a	n/a	n/a	n/a	-999	2	[0, 0, 0]	n/a	catFR1	4	R1499T
261.699	4.666	268307	START	n/a	n/a	n/a	n/a	-999	2	[-999, -999, -999]	n/a	catFR1	4	R1499T
266.365	4.983	272973	PROB	4.983	n/a	n/a	n/a	-999	2	[8, 8, 7]	13	catFR1	4	R1499T
271.348	4.982	277956	PROB	4.982	n/a	n/a	n/a	-999	2	[4, 8, 8]	20	catFR1	4	R1499T
276.33	4.184	282937	PROB	4.184	n/a	n/a	n/a	-999	2	[2, 1, 4]	7	catFR1	4	R1499T
280.514	6.083	287121	PROB	6.083	n/a	n/a	n/a	-999	2	[8, 8, 7]	23	catFR1	4	R1499T
286.597	0.0	293204	STOP	n/a	n/a	n/a	n/a	-999	2	[-999, -999, -999]	n/a	catFR1	4	R1499T
286.597	1.217	293206	DISTRACT_END	n/a	n/a	n/a	n/a	-999	2	[0, 0, 0]	n/a	catFR1	4	R1499T
287.814	1.382	294425	REC_START	n/a	n/a	n/a	n/a	-999	2	[0, 0, 0]	n/a	catFR1	4	R1499T
289.196	1.0	295803	REC_WORD	1.0	n/a	LAVAPLATOS	Appliances	1	2	[0, 0, 0]	n/a	catFR1	4	R1499T
290.196	1.816	296803	REC_WORD	1.816	n/a	LAVAPLATOS	Appliances	1	2	[0, 0, 0]	n/a	catFR1	4	R1499T
292.012	0.357	298618	REC_WORD_VV	0.357	n/a	<>	n/a	-999	2	[0, 0, 0]	n/a	catFR1	4	R1499T
292.369	1.001	298975	REC_WORD	1.001	n/a	LAVAPLATOS	Appliances	1	2	[0, 0, 0]	n/a	catFR1	4	R1499T
293.37	1.332	299976	REC_WORD	1.332	n/a	LAVAPLATOS	Appliances	1	2	[0, 0, 0]	n/a	catFR1	4	R1499T
294.702	1.0	301308	REC_WORD	1.0	n/a	LIMA	Fruit	-999	2	[0, 0, 0]	n/a	catFR1	4	R1499T
295.702	1.415	302308	REC_WORD	1.415	n/a	LIMA	Fruit	-999	2	[0, 0, 0]	n/a	catFR1	4	R1499T
297.117	1.109	303723	REC_WORD_VV	1.109	n/a	<>	n/a	-999	2	[0, 0, 0]	n/a	catFR1	4	R1499T
298.226	1.0	304832	REC_WORD	1.0	n/a	FUTBOL	Toys	4	2	[0, 0, 0]	n/a	catFR1	4	R1499T
299.226	1.364	305832	REC_WORD	1.364	n/a	FUTBOL	Toys	4	2	[0, 0, 0]	n/a	catFR1	4	R1499T
300.59	1.0	307196	REC_WORD_VV	1.0	n/a	<>	n/a	-999	2	[0, 0, 0]	n/a	catFR1	4	R1499T
301.59	1.152	308196	REC_WORD_VV	1.152	n/a	<>	n/a	-999	2	[0, 0, 0]	n/a	catFR1	4	R1499T
302.742	0.86	309348	REC_WORD	0.86	n/a	FUTBOL	Toys	4	2	[0, 0, 0]	n/a	catFR1	4	R1499T
303.602	1.0	310208	REC_WORD_VV	1.0	n/a	<>	n/a	-999	2	[0, 0, 0]	n/a	catFR1	4	R1499T
304.602	1.0	311208	REC_WORD_VV	1.0	n/a	<>	n/a	-999	2	[0, 0, 0]	n/a	catFR1	4	R1499T
305.602	4.49	312208	REC_WORD_VV	4.49	n/a	<>	n/a	-999	2	[0, 0, 0]	n/a	catFR1	4	R1499T
310.092	3.603	316698	REC_WORD_VV	3.603	n/a	<>	n/a	-999	2	[0, 0, 0]	n/a	catFR1	4	R1499T
313.695	0.394	320300	REC_WORD	0.394	n/a	PLATOS	n/a	-999	2	[0, 0, 0]	n/a	catFR1	4	R1499T
314.089	2.066	320694	REC_WORD	2.066	n/a	ESTUFA	n/a	-999	2	[0, 0, 0]	n/a	catFR1	4	R1499T
316.155	0.821	322760	REC_WORD	0.821	n/a	ZANAHORIA	Vegetables	5	2	[0, 0, 0]	n/a	catFR1	4	R1499T
316.976	2.026	323581	REC_WORD	2.026	n/a	BROCOLI	Vegetables	10	2	[0, 0, 0]	n/a	catFR1	4	R1499T
319.002	3.746	325602	REC_END	n/a	n/a	n/a	n/a	-999	2	[0, 0, 0]	n/a	catFR1	4	R1499T
322.748	10.35	329357	COUNTDOWN_START	n/a	n/a	n/a	n/a	-999	2	[0, 0, 0]	n/a	catFR1	4	R1499T
333.098	0.0	339703	COUNTDOWN_END	n/a	n/a	n/a	n/a	-999	2	[0, 0, 0]	n/a	catFR1	4	R1499T
333.098	2.199	339703	ENCODING_START	n/a	n/a	n/a	n/a	-999	3	[0, 0, 0]	n/a	catFR1	4	R1499T
335.297	1.6	341899	WORD	n/a	wordpools/wordpool_categorized_SP.txt	ESCALERAS	Building	1	3	[0, 0, 0]	n/a	catFR1	4	R1499T
336.897	0.95	343500	WORD_OFF	n/a	n/a	ESCALERAS	Building	1	3	[0, 0, 0]	n/a	catFR1	4	R1499T
337.847	1.6	344450	WORD	n/a	wordpools/wordpool_categorized_SP.txt	PARED	Building	2	3	[0, 0, 0]	n/a	catFR1	4	R1499T
339.447	0.799	346051	WORD_OFF	n/a	n/a	PARED	Building	2	3	[0, 0, 0]	n/a	catFR1	4	R1499T
340.246	1.601	346845	WORD	n/a	wordpools/wordpool_categorized_SP.txt	AVION	Vehicles	3	3	[0, 0, 0]	n/a	catFR1	4	R1499T
341.847	0.85	348460	WORD_OFF	n/a	n/a	AVION	Vehicles	3	3	[0, 0, 0]	n/a	catFR1	4	R1499T
342.697	1.617	349297	WORD	n/a	wordpools/wordpool_categorized_SP.txt	AUTOBUS	Vehicles	4	3	[0, 0, 0]	n/a	catFR1	4	R1499T
344.314	0.867	350912	WORD_OFF	n/a	n/a	AUTOBUS	Vehicles	4	3	[0, 0, 0]	n/a	catFR1	4	R1499T
345.181	1.6	351791	WORD	n/a	wordpools/wordpool_categorized_SP.txt	CALENDULA	Flowers	5	3	[0, 0, 0]	n/a	catFR1	4	R1499T
346.781	0.983	353378	WORD_OFF	n/a	n/a	CALENDULA	Flowers	5	3	[0, 0, 0]	n/a	catFR1	4	R1499T
347.764	1.616	354370	WORD	n/a	wordpools/wordpool_categorized_SP.txt	ORQUIDEA	Flowers	6	3	[0, 0, 0]	n/a	catFR1	4	R1499T
349.38	0.784	355986	WORD_OFF	n/a	n/a	ORQUIDEA	Flowers	6	3	[0, 0, 0]	n/a	catFR1	4	R1499T
350.164	1.6	356765	WORD	n/a	wordpools/wordpool_categorized_SP.txt	BICICLETA	Vehicles	7	3	[0, 0, 0]	n/a	catFR1	4	R1499T
351.764	0.9	358366	WORD_OFF	n/a	n/a	BICICLETA	Vehicles	7	3	[0, 0, 0]	n/a	catFR1	4	R1499T
352.664	1.617	359273	WORD	n/a	wordpools/wordpool_categorized_SP.txt	PATINETA	Vehicles	8	3	[0, 0, 0]	n/a	catFR1	4	R1499T
354.281	0.783	360889	WORD_OFF	n/a	n/a	PATINETA	Vehicles	8	3	[0, 0, 0]	n/a	catFR1	4	R1499T
355.064	1.616	361668	WORD	n/a	wordpools/wordpool_categorized_SP.txt	PISO	Building	9	3	[0, 0, 0]	n/a	catFR1	4	R1499T
356.68	0.867	363284	WORD_OFF	n/a	n/a	PISO	Building	9	3	[0, 0, 0]	n/a	catFR1	4	R1499T
357.547	1.6	364148	WORD	n/a	wordpools/wordpool_categorized_SP.txt	ATICO	Building	10	3	[0, 0, 0]	n/a	catFR1	4	R1499T
359.147	0.966	365750	WORD_OFF	n/a	n/a	ATICO	Building	10	3	[0, 0, 0]	n/a	catFR1	4	R1499T
360.113	1.618	366713	WORD	n/a	wordpools/wordpool_categorized_SP.txt	PETUNIA	Flowers	11	3	[0, 0, 0]	n/a	catFR1	4	R1499T
361.731	0.784	368329	WORD_OFF	n/a	n/a	PETUNIA	Flowers	11	3	[0, 0, 0]	n/a	catFR1	4	R1499T
362.515	1.599	369122	WORD	n/a	wordpools/wordpool_categorized_SP.txt	VIOLETA	Flowers	12	3	[0, 0, 0]	n/a	catFR1	4	R1499T
364.114	0.002	370717	PROB	0.002	n/a	n/a	n/a	-999	3	[2, 1, 3]	6	catFR1	4	R1499T
364.116	0.0	370719	START	n/a	n/a	n/a	n/a	-999	3	[-999, -999, -999]	n/a	catFR1	4	R1499T
364.114	0.002	370724	WORD_OFF	n/a	n/a	VIOLETA	Flowers	12	3	[0, 0, 0]	n/a	catFR1	4	R1499T
364.116	0.0	370724	ENCODING_END	n/a	n/a	n/a	n/a	-999	3	[0, 0, 0]	n/a	catFR1	4	R1499T
364.116	4.898	370724	DISTRACT_START	n/a	n/a	n/a	n/a	-999	3	[0, 0, 0]	n/a	catFR1	4	R1499T
369.014	3.8	375617	PROB	3.8	n/a	n/a	n/a	-999	3	[3, 8, 2]	13	catFR1	4	R1499T
372.814	3.966	379416	PROB	3.966	n/a	n/a	n/a	-999	3	[3, 4, 7]	14	catFR1	4	R1499T
376.78	2.984	383382	PROB	2.984	n/a	n/a	n/a	-999	3	[2, 2, 8]	12	catFR1	4	R1499T
379.764	2.868	386366	PROB	2.868	n/a	n/a	n/a	-999	3	[3, 1, 1]	4	catFR1	4	R1499T
382.632	6.631	389234	PROB	6.631	n/a	n/a	n/a	-999	3	[6, 6, 7]	19	catFR1	4	R1499T
389.263	0.0	395864	DISTRACT_END	n/a	n/a	n/a	n/a	-999	3	[0, 0, 0]	n/a	catFR1	4	R1499T
389.263	1.068	395865	STOP	n/a	n/a	n/a	n/a	-999	3	[-999, -999, -999]	n/a	catFR1	4	R1499T
390.331	4.01	396927	REC_START	n/a	n/a	n/a	n/a	-999	3	[0, 0, 0]	n/a	catFR1	4	R1499T
394.341	0.602	400942	REC_WORD	0.602	n/a	PLATO	n/a	-999	3	[0, 0, 0]	n/a	catFR1	4	R1499T
394.943	0.958	401544	REC_WORD	0.958	n/a	AVION	Vehicles	3	3	[0, 0, 0]	n/a	catFR1	4	R1499T
395.901	1.0	402502	REC_WORD	1.0	n/a	BICICLETA	Vehicles	7	3	[0, 0, 0]	n/a	catFR1	4	R1499T
396.901	0.354	403502	REC_WORD	0.354	n/a	BICICLETA	Vehicles	7	3	[0, 0, 0]	n/a	catFR1	4	R1499T
397.255	1.0	403856	REC_WORD_VV	1.0	n/a	<>	n/a	-999	3	[0, 0, 0]	n/a	catFR1	4	R1499T
398.255	1.009	404856	REC_WORD_VV	1.009	n/a	<>	n/a	-999	3	[0, 0, 0]	n/a	catFR1	4	R1499T
399.264	1.0	405865	REC_WORD	1.0	n/a	AUTOBUS	Vehicles	4	3	[0, 0, 0]	n/a	catFR1	4	R1499T
400.264	2.491	406865	REC_WORD	2.491	n/a	AUTOBUS	Vehicles	4	3	[0, 0, 0]	n/a	catFR1	4	R1499T
402.755	1.71	409356	REC_WORD_VV	1.71	n/a	<>	n/a	-999	3	[0, 0, 0]	n/a	catFR1	4	R1499T
404.465	1.0	411066	REC_WORD	1.0	n/a	AUTOBUS	Vehicles	4	3	[0, 0, 0]	n/a	catFR1	4	R1499T
405.465	3.104	412066	REC_WORD	3.104	n/a	AUTOBUS	Vehicles	4	3	[0, 0, 0]	n/a	catFR1	4	R1499T
408.569	1.552	415170	REC_WORD	1.552	n/a	CAMION	n/a	-999	3	[0, 0, 0]	n/a	catFR1	4	R1499T
410.121	0.34	416722	REC_WORD_VV	0.34	n/a	<>	n/a	-999	3	[0, 0, 0]	n/a	catFR1	4	R1499T
410.461	1.0	417062	REC_WORD	1.0	n/a	AUTOBUS	Vehicles	4	3	[0, 0, 0]	n/a	catFR1	4	R1499T
411.461	1.518	418062	REC_WORD	1.518	n/a	AUTOBUS	Vehicles	4	3	[0, 0, 0]	n/a	catFR1	4	R1499T
412.979	1.0	419580	REC_WORD	1.0	n/a	PATINETA	Vehicles	8	3	[0, 0, 0]	n/a	catFR1	4	R1499T
413.979	1.251	420579	REC_WORD	1.251	n/a	PATINETA	Vehicles	8	3	[0, 0, 0]	n/a	catFR1	4	R1499T
415.23	0.483	421830	REC_WORD_VV	0.483	n/a	<>	n/a	-999	3	[0, 0, 0]	n/a	catFR1	4	R1499T
415.713	5.841	422313	REC_WORD	5.841	n/a	VIOLETA	Flowers	12	3	[0, 0, 0]	n/a	catFR1	4	R1499T
421.554	2.644	428160	REC_END	n/a	n/a	n/a	n/a	-999	3	[0, 0, 0]	n/a	catFR1	4	R1499T
424.198	10.35	430796	COUNTDOWN_START	n/a	n/a	n/a	n/a	-999	3	[0, 0, 0]	n/a	catFR1	4	R1499T
434.548	0.0	441142	COUNTDOWN_END	n/a	n/a	n/a	n/a	-999	3	[0, 0, 0]	n/a	catFR1	4	R1499T
434.548	1.833	441156	ENCODING_START	n/a	n/a	n/a	n/a	-999	4	[0, 0, 0]	n/a	catFR1	4	R1499T
436.381	1.6	442984	WORD	n/a	wordpools/wordpool_categorized_SP.txt	PETIRROJO	Birds	1	4	[0, 0, 0]	n/a	catFR1	4	R1499T
437.981	0.767	444585	WORD_OFF	n/a	n/a	PETIRROJO	Birds	1	4	[0, 0, 0]	n/a	catFR1	4	R1499T
438.748	1.616	445350	WORD	n/a	wordpools/wordpool_categorized_SP.txt	PATO	Birds	2	4	[0, 0, 0]	n/a	catFR1	4	R1499T
440.364	0.867	446966	WORD_OFF	n/a	n/a	PATO	Birds	2	4	[0, 0, 0]	n/a	catFR1	4	R1499T
441.231	1.6	447830	WORD	n/a	wordpools/wordpool_categorized_SP.txt	MARIQUITA	Insects	3	4	[0, 0, 0]	n/a	catFR1	4	R1499T
442.831	0.8	449432	WORD_OFF	n/a	n/a	MARIQUITA	Insects	3	4	[0, 0, 0]	n/a	catFR1	4	R1499T
443.631	1.6	450225	WORD	n/a	wordpools/wordpool_categorized_SP.txt	MARIPOSA	Insects	4	4	[0, 0, 0]	n/a	catFR1	4	R1499T
445.231	0.85	451827	WORD_OFF	n/a	n/a	MARIPOSA	Insects	4	4	[0, 0, 0]	n/a	catFR1	4	R1499T
446.081	1.6	452677	WORD	n/a	wordpools/wordpool_categorized_SP.txt	PLATANO	Fruit	5	4	[0, 0, 0]	n/a	catFR1	4	R1499T
447.681	0.883	454278	WORD_OFF	n/a	n/a	PLATANO	Fruit	5	4	[0, 0, 0]	n/a	catFR1	4	R1499T
448.564	1.6	455157	WORD	n/a	wordpools/wordpool_categorized_SP.txt	FRESA	Fruit	6	4	[0, 0, 0]	n/a	catFR1	4	R1499T
450.164	0.967	456758	WORD_OFF	n/a	n/a	FRESA	Fruit	6	4	[0, 0, 0]	n/a	catFR1	4	R1499T
451.131	1.616	457736	WORD	n/a	wordpools/wordpool_categorized_SP.txt	GANZO	Birds	7	4	[0, 0, 0]	n/a	catFR1	4	R1499T
452.747	0.917	459352	WORD_OFF	n/a	n/a	GANZO	Birds	7	4	[0, 0, 0]	n/a	catFR1	4	R1499T
453.664	1.617	460259	WORD	n/a	wordpools/wordpool_categorized_SP.txt	GORRION	Birds	8	4	[0, 0, 0]	n/a	catFR1	4	R1499T
455.281	0.966	461874	WORD_OFF	n/a	n/a	GORRION	Birds	8	4	[0, 0, 0]	n/a	catFR1	4	R1499T
456.247	1.617	462852	WORD	n/a	wordpools/wordpool_categorized_SP.txt	ARANA	Insects	9	4	[0, 0, 0]	n/a	catFR1	4	R1499T
457.864	0.999	464468	WORD_OFF	n/a	n/a	ARANA	Insects	9	4	[0, 0, 0]	n/a	catFR1	4	R1499T
458.863	1.6	465460	WORD	n/a	wordpools/wordpool_categorized_SP.txt	HORMIGA	Insects	10	4	[0, 0, 0]	n/a	catFR1	4	R1499T
460.463	0.833	467061	WORD_OFF	n/a	n/a	HORMIGA	Insects	10	4	[0, 0, 0]	n/a	catFR1	4	R1499T
461.296	1.601	467897	WORD	n/a	wordpools/wordpool_categorized_SP.txt	LIMON	Fruit	11	4	[0, 0, 0]	n/a	catFR1	4	R1499T
462.897	0.884	469499	WORD_OFF	n/a	n/a	LIMON	Fruit	11	4	[0, 0, 0]	n/a	catFR1	4	R1499T
463.781	1.616	470377	WORD	n/a	wordpools/wordpool_categorized_SP.txt	UVA	Fruit	12	4	[0, 0, 0]	n/a	catFR1	4	R1499T
465.397	0.002	471993	WORD_OFF	n/a	n/a	UVA	Fruit	12	4	[0, 0, 0]	n/a	catFR1	4	R1499T
465.399	0.0	471993	ENCODING_END	n/a	n/a	n/a	n/a	-999	4	[0, 0, 0]	n/a	catFR1	4	R1499T
465.399	0.0	471993	DISTRACT_START	n/a	n/a	n/a	n/a	-999	4	[0, 0, 0]	n/a	catFR1	4	R1499T
465.397	0.002	471995	PROB	0.002	n/a	n/a	n/a	-999	4	[6, 6, 7]	19	catFR1	4	R1499T
465.399	4.265	471997	START	n/a	n/a	n/a	n/a	-999	4	[-999, -999, -999]	n/a	catFR1	4	R1499T
469.664	4.117	476262	PROB	4.117	n/a	n/a	n/a	-999	4	[7, 2, 7]	16	catFR1	4	R1499T
473.781	3.667	480378	PROB	3.667	n/a	n/a	n/a	-999	4	[8, 2, 8]	18	catFR1	4	R1499T
477.448	4.132	484045	PROB	4.132	n/a	n/a	n/a	-999	4	[8, 3, 5]	16	catFR1	4	R1499T
481.58	5.5	488177	PROB	5.5	n/a	n/a	n/a	-999	4	[4, 7, 8]	19	catFR1	4	R1499T
487.08	0.0	493675	DISTRACT_END	n/a	n/a	n/a	n/a	-999	4	[0, 0, 0]	n/a	catFR1	4	R1499T
487.08	1.283	493677	STOP	n/a	n/a	n/a	n/a	-999	4	[-999, -999, -999]	n/a	catFR1	4	R1499T
488.363	5.981	494965	REC_START	n/a	n/a	n/a	n/a	-999	4	[0, 0, 0]	n/a	catFR1	4	R1499T
494.344	1.082	500940	REC_WORD	1.082	n/a	PLATANO	Fruit	5	4	[0, 0, 0]	n/a	catFR1	4	R1499T
495.426	0.767	502022	REC_WORD	0.767	n/a	UVA	Fruit	12	4	[0, 0, 0]	n/a	catFR1	4	R1499T
496.193	1.0	502789	REC_WORD	1.0	n/a	FRESA	Fruit	6	4	[0, 0, 0]	n/a	catFR1	4	R1499T
497.193	1.166	503789	REC_WORD	1.166	n/a	FRESA	Fruit	6	4	[0, 0, 0]	n/a	catFR1	4	R1499T
498.359	4.134	504955	REC_WORD_VV	4.134	n/a	<>	n/a	-999	4	[0, 0, 0]	n/a	catFR1	4	R1499T
502.493	1.606	509089	REC_WORD_VV	1.606	n/a	<>	n/a	-999	4	[0, 0, 0]	n/a	catFR1	4	R1499T
504.099	1.0	510695	REC_WORD	1.0	n/a	MARIPOSA	Insects	4	4	[0, 0, 0]	n/a	catFR1	4	R1499T
505.099	0.978	511695	REC_WORD	0.978	n/a	MARIPOSA	Insects	4	4	[0, 0, 0]	n/a	catFR1	4	R1499T
506.077	1.0	512673	REC_WORD	1.0	n/a	MARIPOSA	Insects	4	4	[0, 0, 0]	n/a	catFR1	4	R1499T
507.077	0.881	513673	REC_WORD	0.881	n/a	MARIPOSA	Insects	4	4	[0, 0, 0]	n/a	catFR1	4	R1499T
507.958	2.244	514554	REC_WORD	2.244	n/a	HORMIGA	Insects	10	4	[0, 0, 0]	n/a	catFR1	4	R1499T
510.202	9.358	516798	REC_WORD	9.358	n/a	ORUGA	n/a	-999	4	[0, 0, 0]	n/a	catFR1	4	R1499T
519.56	2.337	526156	REC_END	n/a	n/a	n/a	n/a	-999	4	[0, 0, 0]	n/a	catFR1	4	R1499T
521.897	10.351	528494	COUNTDOWN_START	n/a	n/a	n/a	n/a	-999	4	[0, 0, 0]	n/a	catFR1	4	R1499T
532.248	0.0	538839	COUNTDOWN_END	n/a	n/a	n/a	n/a	-999	4	[0, 0, 0]	n/a	catFR1	4	R1499T
532.248	2.283	538839	ENCODING_START	n/a	n/a	n/a	n/a	-999	5	[0, 0, 0]	n/a	catFR1	4	R1499T
534.531	1.616	541121	WORD	n/a	wordpools/wordpool_categorized_SP.txt	HALCON	Birds	1	5	[0, 0, 0]	n/a	catFR1	4	R1499T
536.147	0.967	542736	WORD_OFF	n/a	n/a	HALCON	Birds	1	5	[0, 0, 0]	n/a	catFR1	4	R1499T
537.114	1.6	543714	WORD	n/a	wordpools/wordpool_categorized_SP.txt	PINZON	Birds	2	5	[0, 0, 0]	n/a	catFR1	4	R1499T
538.714	0.967	545301	WORD_OFF	n/a	n/a	PINZON	Birds	2	5	[0, 0, 0]	n/a	catFR1	4	R1499T
539.681	1.6	546279	WORD	n/a	wordpools/wordpool_categorized_SP.txt	COMPUTADOR	Electronics	3	5	[0, 0, 0]	n/a	catFR1	4	R1499T
541.281	0.766	547881	WORD_OFF	n/a	n/a	COMPUTADOR	Electronics	3	5	[0, 0, 0]	n/a	catFR1	4	R1499T
542.047	1.6	548646	WORD	n/a	wordpools/wordpool_categorized_SP.txt	ESTEREO	Electronics	4	5	[0, 0, 0]	n/a	catFR1	4	R1499T
543.647	0.9	550247	WORD_OFF	n/a	n/a	ESTEREO	Electronics	4	5	[0, 0, 0]	n/a	catFR1	4	R1499T
544.547	1.6	551140	WORD	n/a	wordpools/wordpool_categorized_SP.txt	CUCHARON	KitchenTools	5	5	[0, 0, 0]	n/a	catFR1	4	R1499T
546.147	0.784	552741	WORD_OFF	n/a	n/a	CUCHARON	KitchenTools	5	5	[0, 0, 0]	n/a	catFR1	4	R1499T
546.931	1.6	553521	WORD	n/a	wordpools/wordpool_categorized_SP.txt	SACACORCHOS	KitchenTools	6	5	[0, 0, 0]	n/a	catFR1	4	R1499T
548.531	0.999	555122	WORD_OFF	n/a	n/a	SACACORCHOS	KitchenTools	6	5	[0, 0, 0]	n/a	catFR1	4	R1499T
549.53	1.601	556128	WORD	n/a	wordpools/wordpool_categorized_SP.txt	IMPRESORA	Electronics	7	5	[0, 0, 0]	n/a	catFR1	4	R1499T
551.131	0.999	557730	WORD_OFF	n/a	n/a	IMPRESORA	Electronics	7	5	[0, 0, 0]	n/a	catFR1	4	R1499T
552.13	1.601	558722	WORD	n/a	wordpools/wordpool_categorized_SP.txt	ESCANER	Electronics	8	5	[0, 0, 0]	n/a	catFR1	4	R1499T
553.731	0.9	560323	WORD_OFF	n/a	n/a	ESCANER	Electronics	8	5	[0, 0, 0]	n/a	catFR1	4	R1499T
554.631	1.615	561230	WORD	n/a	wordpools/wordpool_categorized_SP.txt	CUCHARA	KitchenTools	9	5	[0, 0, 0]	n/a	catFR1	4	R1499T
556.246	0.967	562846	WORD_OFF	n/a	n/a	CUCHARA	KitchenTools	9	5	[0, 0, 0]	n/a	catFR1	4	R1499T
557.213	1.601	563809	WORD	n/a	wordpools/wordpool_categorized_SP.txt	TENEDOR	KitchenTools	10	5	[0, 0, 0]	n/a	catFR1	4	R1499T
558.814	0.868	565411	WORD_OFF	n/a	n/a	TENEDOR	KitchenTools	10	5	[0, 0, 0]	n/a	catFR1	4	R1499T
559.682	1.599	566275	WORD	n/a	wordpools/wordpool_categorized_SP.txt	AGUILA	Birds	11	5	[0, 0, 0]	n/a	catFR1	4	R1499T
561.281	0.8	567876	WORD_OFF	n/a	n/a	AGUILA	Birds	11	5	[0, 0, 0]	n/a	catFR1	4	R1499T
562.081	1.616	568670	WORD	n/a	wordpools/wordpool_categorized_SP.txt	PALOMA	Birds	12	5	[0, 0, 0]	n/a	catFR1	4	R1499T
563.697	0.001	570286	WORD_OFF	n/a	n/a	PALOMA	Birds	12	5	[0, 0, 0]	n/a	catFR1	4	R1499T
563.698	0.001	570291	PROB	0.001	n/a	n/a	n/a	-999	5	[1, 3, 6]	10	catFR1	4	R1499T
563.699	0.0	570292	START	n/a	n/a	n/a	n/a	-999	5	[-999, -999, -999]	n/a	catFR1	4	R1499T
563.699	0.0	570300	ENCODING_END	n/a	n/a	n/a	n/a	-999	5	[0, 0, 0]	n/a	catFR1	4	R1499T
563.699	3.882	570300	DISTRACT_START	n/a	n/a	n/a	n/a	-999	5	[0, 0, 0]	n/a	catFR1	4	R1499T
567.581	3.183	574174	PROB	3.183	n/a	n/a	n/a	-999	5	[2, 2, 3]	6	catFR1	4	R1499T
570.764	4.4	577357	PROB	4.4	n/a	n/a	n/a	-999	5	[5, 2, 8]	15	catFR1	4	R1499T
575.164	2.6	581756	PROB	2.6	n/a	n/a	n/a	-999	5	[1, 5, 5]	11	catFR1	4	R1499T
577.764	7.367	584356	PROB	7.367	n/a	n/a	n/a	-999	5	[5, 6, 5]	116	catFR1	4	R1499T
585.131	0.0	591723	STOP	n/a	n/a	n/a	n/a	-999	5	[-999, -999, -999]	n/a	catFR1	4	R1499T
585.131	1.133	591727	DISTRACT_END	n/a	n/a	n/a	n/a	-999	5	[0, 0, 0]	n/a	catFR1	4	R1499T
586.264	1.297	592861	REC_START	n/a	n/a	n/a	n/a	-999	5	[0, 0, 0]	n/a	catFR1	4	R1499T
587.561	1.0	594153	REC_WORD_VV	1.0	n/a	<>	n/a	-999	5	[0, 0, 0]	n/a	catFR1	4	R1499T
588.561	2.589	595153	REC_WORD_VV	2.589	n/a	<>	n/a	-999	5	[0, 0, 0]	n/a	catFR1	4	R1499T
591.15	1.0	597742	REC_WORD	1.0	n/a	ESCANER	Electronics	8	5	[0, 0, 0]	n/a	catFR1	4	R1499T
592.15	0.703	598742	REC_WORD	0.703	n/a	ESCANER	Electronics	8	5	[0, 0, 0]	n/a	catFR1	4	R1499T
592.853	1.0	599445	REC_WORD	1.0	n/a	COMPUTADOR	Electronics	3	5	[0, 0, 0]	n/a	catFR1	4	R1499T
593.853	2.156	600445	REC_WORD	2.156	n/a	COMPUTADOR	Electronics	3	5	[0, 0, 0]	n/a	catFR1	4	R1499T
596.009	4.012	602600	REC_WORD_VV	4.012	n/a	<>	n/a	-999	5	[0, 0, 0]	n/a	catFR1	4	R1499T
600.021	1.0	606612	REC_WORD_VV	1.0	n/a	<>	n/a	-999	5	[0, 0, 0]	n/a	catFR1	4	R1499T
601.021	1.0	607612	REC_WORD_VV	1.0	n/a	<>	n/a	-999	5	[0, 0, 0]	n/a	catFR1	4	R1499T
602.021	1.0	608612	REC_WORD_VV	1.0	n/a	<>	n/a	-999	5	[0, 0, 0]	n/a	catFR1	4	R1499T
603.021	1.0	609612	REC_WORD_VV	1.0	n/a	<>	n/a	-999	5	[0, 0, 0]	n/a	catFR1	4	R1499T
604.021	1.592	610612	REC_WORD_VV	1.592	n/a	<>	n/a	-999	5	[0, 0, 0]	n/a	catFR1	4	R1499T
605.613	1.0	612204	REC_WORD_VV	1.0	n/a	<>	n/a	-999	5	[0, 0, 0]	n/a	catFR1	4	R1499T
606.613	1.0	613204	REC_WORD_VV	1.0	n/a	<>	n/a	-999	5	[0, 0, 0]	n/a	catFR1	4	R1499T
607.613	1.464	614204	REC_WORD_VV	1.464	n/a	<>	n/a	-999	5	[0, 0, 0]	n/a	catFR1	4	R1499T
609.077	1.0	615668	REC_WORD_VV	1.0	n/a	<>	n/a	-999	5	[0, 0, 0]	n/a	catFR1	4	R1499T
610.077	1.0	616668	REC_WORD_VV	1.0	n/a	<>	n/a	-999	5	[0, 0, 0]	n/a	catFR1	4	R1499T
611.077	1.0	617668	REC_WORD_VV	1.0	n/a	<>	n/a	-999	5	[0, 0, 0]	n/a	catFR1	4	R1499T
612.077	1.0	618668	REC_WORD_VV	1.0	n/a	<>	n/a	-999	5	[0, 0, 0]	n/a	catFR1	4	R1499T
613.077	4.413	619668	REC_WORD_VV	4.413	n/a	<>	n/a	-999	5	[0, 0, 0]	n/a	catFR1	4	R1499T
617.49	2.558	624080	REC_END	n/a	n/a	n/a	n/a	-999	5	[0, 0, 0]	n/a	catFR1	4	R1499T
620.048	10.349	626645	COUNTDOWN_START	n/a	n/a	n/a	n/a	-999	5	[0, 0, 0]	n/a	catFR1	4	R1499T
630.397	0.0	636990	COUNTDOWN_END	n/a	n/a	n/a	n/a	-999	5	[0, 0, 0]	n/a	catFR1	4	R1499T
630.397	1.984	636990	ENCODING_START	n/a	n/a	n/a	n/a	-999	6	[0, 0, 0]	n/a	catFR1	4	R1499T
632.381	1.6	638974	WORD	n/a	wordpools/wordpool_categorized_SP.txt	LICUADORA	Appliances	1	6	[0, 0, 0]	n/a	catFR1	4	R1499T
633.981	0.967	640576	WORD_OFF	n/a	n/a	LICUADORA	Appliances	1	6	[0, 0, 0]	n/a	catFR1	4	R1499T
634.948	1.616	641540	WORD	n/a	wordpools/wordpool_categorized_SP.txt	MEZCLA	Appliances	2	6	[0, 0, 0]	n/a	catFR1	4	R1499T
636.564	0.95	643155	WORD_OFF	n/a	n/a	MEZCLA	Appliances	2	6	[0, 0, 0]	n/a	catFR1	4	R1499T
637.514	1.616	644105	WORD	n/a	wordpools/wordpool_categorized_SP.txt	ESPATULA	KitchenTools	3	6	[0, 0, 0]	n/a	catFR1	4	R1499T
639.13	0.868	645720	WORD_OFF	n/a	n/a	ESPATULA	KitchenTools	3	6	[0, 0, 0]	n/a	catFR1	4	R1499T
639.998	1.616	646585	WORD	n/a	wordpools/wordpool_categorized_SP.txt	RALLADOR	KitchenTools	4	6	[0, 0, 0]	n/a	catFR1	4	R1499T
641.614	0.95	648200	WORD_OFF	n/a	n/a	RALLADOR	KitchenTools	4	6	[0, 0, 0]	n/a	catFR1	4	R1499T
642.564	1.617	649150	WORD	n/a	wordpools/wordpool_categorized_SP.txt	TE	Beverages	5	6	[0, 0, 0]	n/a	catFR1	4	R1499T
644.181	0.85	650765	WORD_OFF	n/a	n/a	TE	Beverages	5	6	[0, 0, 0]	n/a	catFR1	4	R1499T
645.031	1.6	651615	WORD	n/a	wordpools/wordpool_categorized_SP.txt	RON	Beverages	6	6	[0, 0, 0]	n/a	catFR1	4	R1499T
646.631	0.783	653217	WORD_OFF	n/a	n/a	RON	Beverages	6	6	[0, 0, 0]	n/a	catFR1	4	R1499T
647.414	1.6	653996	WORD	n/a	wordpools/wordpool_categorized_SP.txt	COLADOR	KitchenTools	7	6	[0, 0, 0]	n/a	catFR1	4	R1499T
649.014	0.883	655598	WORD_OFF	n/a	n/a	COLADOR	KitchenTools	7	6	[0, 0, 0]	n/a	catFR1	4	R1499T
649.897	1.617	656490	WORD	n/a	wordpools/wordpool_categorized_SP.txt	TENAZAS	KitchenTools	8	6	[0, 0, 0]	n/a	catFR1	4	R1499T
651.514	0.85	658106	WORD_OFF	n/a	n/a	TENAZAS	KitchenTools	8	6	[0, 0, 0]	n/a	catFR1	4	R1499T
652.364	1.617	658956	WORD	n/a	wordpools/wordpool_categorized_SP.txt	TOSTADORA	Appliances	9	6	[0, 0, 0]	n/a	catFR1	4	R1499T
653.981	0.8	660572	WORD_OFF	n/a	n/a	TOSTADORA	Appliances	9	6	[0, 0, 0]	n/a	catFR1	4	R1499T
654.781	1.616	661365	WORD	n/a	wordpools/wordpool_categorized_SP.txt	LAVADORA	Appliances	10	6	[0, 0, 0]	n/a	catFR1	4	R1499T
656.397	0.883	662981	WORD_OFF	n/a	n/a	LAVADORA	Appliances	10	6	[0, 0, 0]	n/a	catFR1	4	R1499T
657.28	1.601	663874	WORD	n/a	wordpools/wordpool_categorized_SP.txt	AGUA	Beverages	11	6	[0, 0, 0]	n/a	catFR1	4	R1499T
658.881	0.9	665475	WORD_OFF	n/a	n/a	AGUA	Beverages	11	6	[0, 0, 0]	n/a	catFR1	4	R1499T
659.781	1.616	666368	WORD	n/a	wordpools/wordpool_categorized_SP.txt	CERVEZA	Beverages	12	6	[0, 0, 0]	n/a	catFR1	4	R1499T
661.397	0.002	667983	WORD_OFF	n/a	n/a	CERVEZA	Beverages	12	6	[0, 0, 0]	n/a	catFR1	4	R1499T
661.399	0.0	667983	ENCODING_END	n/a	n/a	n/a	n/a	-999	6	[0, 0, 0]	n/a	catFR1	4	R1499T
661.398	0.001	667986	PROB	0.001	n/a	n/a	n/a	-999	6	[3, 7, 8]	18	catFR1	4	R1499T
661.399	0.0	667987	START	n/a	n/a	n/a	n/a	-999	6	[-999, -999, -999]	n/a	catFR1	4	R1499T
661.399	4.899	667998	DISTRACT_START	n/a	n/a	n/a	n/a	-999	6	[0, 0, 0]	n/a	catFR1	4	R1499T
666.298	3.55	672886	PROB	3.55	n/a	n/a	n/a	-999	6	[1, 2, 8]	11	catFR1	4	R1499T
669.848	5.251	676436	PROB	5.251	n/a	n/a	n/a	-999	6	[1, 8, 4]	13	catFR1	4	R1499T
675.099	3.782	681687	PROB	3.782	n/a	n/a	n/a	-999	6	[4, 3, 7]	14	catFR1	4	R1499T
678.881	4.749	685468	PROB	4.749	n/a	n/a	n/a	-999	6	[8, 5, 1]	14	catFR1	4	R1499T
683.63	0.0	690217	STOP	n/a	n/a	n/a	n/a	-999	6	[-999, -999, -999]	n/a	catFR1	4	R1499T
683.63	1.183	690218	DISTRACT_END	n/a	n/a	n/a	n/a	-999	6	[0, 0, 0]	n/a	catFR1	4	R1499T
684.813	2.48	691395	REC_START	n/a	n/a	n/a	n/a	-999	6	[0, 0, 0]	n/a	catFR1	4	R1499T
687.293	1.0	693880	REC_WORD	1.0	n/a	COMPUTADOR	Electronics	-999	6	[0, 0, 0]	n/a	catFR1	4	R1499T
688.293	1.068	694880	REC_WORD	1.068	n/a	COMPUTADOR	Electronics	-999	6	[0, 0, 0]	n/a	catFR1	4	R1499T
689.361	3.108	695948	REC_WORD_VV	3.108	n/a	<>	n/a	-999	6	[0, 0, 0]	n/a	catFR1	4	R1499T
692.469	0.752	699056	REC_WORD	0.752	n/a	COMPUTADOR	Electronics	-999	6	[0, 0, 0]	n/a	catFR1	4	R1499T
693.221	2.842	699808	REC_WORD_VV	2.842	n/a	<>	n/a	-999	6	[0, 0, 0]	n/a	catFR1	4	R1499T
696.063	0.843	702649	REC_WORD_VV	0.843	n/a	<>	n/a	-999	6	[0, 0, 0]	n/a	catFR1	4	R1499T
696.906	0.797	703492	REC_WORD	0.797	n/a	AGUA	Beverages	11	6	[0, 0, 0]	n/a	catFR1	4	R1499T
697.703	1.581	704289	REC_WORD	1.581	n/a	CERVEZA	Beverages	12	6	[0, 0, 0]	n/a	catFR1	4	R1499T
699.284	0.999	705870	REC_WORD	0.999	n/a	SACACORCHOS	KitchenTools	-999	6	[0, 0, 0]	n/a	catFR1	4	R1499T
700.283	2.862	706869	REC_WORD	2.862	n/a	SACACORCHOS	KitchenTools	-999	6	[0, 0, 0]	n/a	catFR1	4	R1499T
703.145	1.002	709731	REC_WORD	1.002	n/a	SACACORCHOS	KitchenTools	-999	6	[0, 0, 0]	n/a	catFR1	4	R1499T
704.147	2.106	710733	REC_WORD	2.106	n/a	SACACORCHOS	KitchenTools	-999	6	[0, 0, 0]	n/a	catFR1	4	R1499T
706.253	1.414	712839	REC_WORD_VV	1.414	n/a	<>	n/a	-999	6	[0, 0, 0]	n/a	catFR1	4	R1499T
707.667	0.269	714253	REC_WORD_VV	0.269	n/a	<>	n/a	-999	6	[0, 0, 0]	n/a	catFR1	4	R1499T
707.936	3.474	714522	REC_WORD	3.474	n/a	PLATOS	n/a	-999	6	[0, 0, 0]	n/a	catFR1	4	R1499T
711.41	4.652	717996	REC_WORD	4.652	n/a	TE	Beverages	5	6	[0, 0, 0]	n/a	catFR1	4	R1499T
716.062	2.351	722642	REC_END	n/a	n/a	n/a	n/a	-999	6	[0, 0, 0]	n/a	catFR1	4	R1499T
718.413	10.351	724995	COUNTDOWN_START	n/a	n/a	n/a	n/a	-999	6	[0, 0, 0]	n/a	catFR1	4	R1499T
728.764	0.0	735354	COUNTDOWN_END	n/a	n/a	n/a	n/a	-999	6	[0, 0, 0]	n/a	catFR1	4	R1499T
728.764	2.216	735354	ENCODING_START	n/a	n/a	n/a	n/a	-999	7	[0, 0, 0]	n/a	catFR1	4	R1499T
730.98	1.601	737565	WORD	n/a	wordpools/wordpool_categorized_SP.txt	NARANJA	Fruit	1	7	[0, 0, 0]	n/a	catFR1	4	R1499T
732.581	0.883	739166	WORD_OFF	n/a	n/a	NARANJA	Fruit	1	7	[0, 0, 0]	n/a	catFR1	4	R1499T
733.464	1.6	740045	WORD	n/a	wordpools/wordpool_categorized_SP.txt	ARANDANO	Fruit	2	7	[0, 0, 0]	n/a	catFR1	4	R1499T
735.064	0.8	741646	WORD_OFF	n/a	n/a	ARANDANO	Fruit	2	7	[0, 0, 0]	n/a	catFR1	4	R1499T
735.864	1.617	742454	WORD	n/a	wordpools/wordpool_categorized_SP.txt	CAFE	Beverages	3	7	[0, 0, 0]	n/a	catFR1	4	R1499T
737.481	0.966	744070	WORD_OFF	n/a	n/a	CAFE	Beverages	3	7	[0, 0, 0]	n/a	catFR1	4	R1499T
738.447	1.617	745033	WORD	n/a	wordpools/wordpool_categorized_SP.txt	SIDRA	Beverages	4	7	[0, 0, 0]	n/a	catFR1	4	R1499T
740.064	0.833	746649	WORD_OFF	n/a	n/a	SIDRA	Beverages	4	7	[0, 0, 0]	n/a	catFR1	4	R1499T
740.897	1.617	747485	WORD	n/a	wordpools/wordpool_categorized_SP.txt	LIJADORA	Tools	5	7	[0, 0, 0]	n/a	catFR1	4	R1499T
742.514	0.916	749101	WORD_OFF	n/a	n/a	LIJADORA	Tools	5	7	[0, 0, 0]	n/a	catFR1	4	R1499T
743.43	1.601	750008	WORD	n/a	wordpools/wordpool_categorized_SP.txt	TRINQUETE	Tools	6	7	[0, 0, 0]	n/a	catFR1	4	R1499T
745.031	0.816	751609	WORD_OFF	n/a	n/a	TRINQUETE	Tools	6	7	[0, 0, 0]	n/a	catFR1	4	R1499T
745.847	1.6	752431	WORD	n/a	wordpools/wordpool_categorized_SP.txt	SODA	Beverages	7	7	[0, 0, 0]	n/a	catFR1	4	R1499T
747.447	0.833	754032	WORD_OFF	n/a	n/a	SODA	Beverages	7	7	[0, 0, 0]	n/a	catFR1	4	R1499T
748.28	1.617	754868	WORD	n/a	wordpools/wordpool_categorized_SP.txt	JUGO	Beverages	8	7	[0, 0, 0]	n/a	catFR1	4	R1499T
749.897	0.866	756484	WORD_OFF	n/a	n/a	JUGO	Beverages	8	7	[0, 0, 0]	n/a	catFR1	4	R1499T
750.763	1.601	757348	WORD	n/a	wordpools/wordpool_categorized_SP.txt	CIRUELA	Fruit	9	7	[0, 0, 0]	n/a	catFR1	4	R1499T
752.364	0.833	758950	WORD_OFF	n/a	n/a	CIRUELA	Fruit	9	7	[0, 0, 0]	n/a	catFR1	4	R1499T
753.197	1.6	759786	WORD	n/a	wordpools/wordpool_categorized_SP.txt	CEREZA	Fruit	10	7	[0, 0, 0]	n/a	catFR1	4	R1499T
754.797	0.967	761387	WORD_OFF	n/a	n/a	CEREZA	Fruit	10	7	[0, 0, 0]	n/a	catFR1	4	R1499T
755.764	1.6	762351	WORD	n/a	wordpools/wordpool_categorized_SP.txt	MARTILLO	Tools	11	7	[0, 0, 0]	n/a	catFR1	4	R1499T
757.364	0.983	763952	WORD_OFF	n/a	n/a	MARTILLO	Tools	11	7	[0, 0, 0]	n/a	catFR1	4	R1499T
758.347	1.6	764930	WORD	n/a	wordpools/wordpool_categorized_SP.txt	HACHA	Tools	12	7	[0, 0, 0]	n/a	catFR1	4	R1499T
759.947	0.002	766531	WORD_OFF	n/a	n/a	HACHA	Tools	12	7	[0, 0, 0]	n/a	catFR1	4	R1499T
759.949	0.0	766531	ENCODING_END	n/a	n/a	n/a	n/a	-999	7	[0, 0, 0]	n/a	catFR1	4	R1499T
759.949	0.0	766531	DISTRACT_START	n/a	n/a	n/a	n/a	-999	7	[0, 0, 0]	n/a	catFR1	4	R1499T
759.948	0.001	766531	PROB	0.001	n/a	n/a	n/a	-999	7	[8, 6, 4]	18	catFR1	4	R1499T
759.949	6.199	766532	START	n/a	n/a	n/a	n/a	-999	7	[-999, -999, -999]	n/a	catFR1	4	R1499T
766.148	5.216	772731	PROB	5.216	n/a	n/a	n/a	-999	7	[4, 3, 5]	12	catFR1	4	R1499T
771.364	6.568	777947	PROB	6.568	n/a	n/a	n/a	-999	7	[5, 8, 7]	20	catFR1	4	R1499T
777.932	9.081	784514	PROB	9.081	n/a	n/a	n/a	-999	7	[5, 6, 8]	19	catFR1	4	R1499T
787.013	0.0	793595	STOP	n/a	n/a	n/a	n/a	-999	7	[-999, -999, -999]	n/a	catFR1	4	R1499T
787.013	1.351	793599	DISTRACT_END	n/a	n/a	n/a	n/a	-999	7	[0, 0, 0]	n/a	catFR1	4	R1499T
788.364	2.623	794945	REC_START	n/a	n/a	n/a	n/a	-999	7	[0, 0, 0]	n/a	catFR1	4	R1499T
790.987	1.0	797569	REC_WORD	1.0	n/a	SACACORCHOS	KitchenTools	-999	7	[0, 0, 0]	n/a	catFR1	4	R1499T
791.987	0.538	798569	REC_WORD	0.538	n/a	SACACORCHOS	KitchenTools	-999	7	[0, 0, 0]	n/a	catFR1	4	R1499T
792.525	0.993	799107	REC_WORD	0.993	n/a	CAFE	Beverages	3	7	[0, 0, 0]	n/a	catFR1	4	R1499T
793.518	3.423	800100	REC_WORD	3.423	n/a	SODA	Beverages	7	7	[0, 0, 0]	n/a	catFR1	4	R1499T
796.941	0.922	803522	REC_WORD	0.922	n/a	SODA	Beverages	7	7	[0, 0, 0]	n/a	catFR1	4	R1499T
797.863	1.789	804444	REC_WORD_VV	1.789	n/a	<>	n/a	-999	7	[0, 0, 0]	n/a	catFR1	4	R1499T
799.652	1.0	806233	REC_WORD_VV	1.0	n/a	<>	n/a	-999	7	[0, 0, 0]	n/a	catFR1	4	R1499T
800.652	1.998	807233	REC_WORD_VV	1.998	n/a	<>	n/a	-999	7	[0, 0, 0]	n/a	catFR1	4	R1499T
802.65	2.21	809231	REC_WORD_VV	2.21	n/a	<>	n/a	-999	7	[0, 0, 0]	n/a	catFR1	4	R1499T
804.86	3.436	811441	REC_WORD	3.436	n/a	CAFE	Beverages	3	7	[0, 0, 0]	n/a	catFR1	4	R1499T
808.296	2.583	814877	REC_WORD_VV	2.583	n/a	<>	n/a	-999	7	[0, 0, 0]	n/a	catFR1	4	R1499T
810.879	1.243	817460	REC_WORD_VV	1.243	n/a	<>	n/a	-999	7	[0, 0, 0]	n/a	catFR1	4	R1499T
812.122	7.458	818703	REC_WORD	7.458	n/a	NARANJA	Fruit	1	7	[0, 0, 0]	n/a	catFR1	4	R1499T
819.58	8.7	826165	REC_END	n/a	n/a	n/a	n/a	-999	7	[0, 0, 0]	n/a	catFR1	4	R1499T
828.28	10.351	834866	COUNTDOWN_START	n/a	n/a	n/a	n/a	-999	7	[0, 0, 0]	n/a	catFR1	4	R1499T
838.631	0.0	845211	COUNTDOWN_END	n/a	n/a	n/a	n/a	-999	7	[0, 0, 0]	n/a	catFR1	4	R1499T
838.631	2.366	845211	ENCODING_START	n/a	n/a	n/a	n/a	-999	8	[0, 0, 0]	n/a	catFR1	4	R1499T
840.997	1.617	847578	WORD	n/a	wordpools/wordpool_categorized_SP.txt	CABALLO	FarmAnimals	1	8	[0, 0, 0]	n/a	catFR1	4	R1499T
842.614	0.916	849193	WORD_OFF	n/a	n/a	CABALLO	FarmAnimals	1	8	[0, 0, 0]	n/a	catFR1	4	R1499T
843.53	1.601	850114	WORD	n/a	wordpools/wordpool_categorized_SP.txt	VACA	FarmAnimals	2	8	[0, 0, 0]	n/a	catFR1	4	R1499T
845.131	0.783	851716	WORD_OFF	n/a	n/a	VACA	FarmAnimals	2	8	[0, 0, 0]	n/a	catFR1	4	R1499T
845.914	1.6	852495	WORD	n/a	wordpools/wordpool_categorized_SP.txt	TELEVISION	Electronics	3	8	[0, 0, 0]	n/a	catFR1	4	R1499T
847.514	0.783	854097	WORD_OFF	n/a	n/a	TELEVISION	Electronics	3	8	[0, 0, 0]	n/a	catFR1	4	R1499T
848.297	1.617	854876	WORD	n/a	wordpools/wordpool_categorized_SP.txt	PARLANTE	Electronics	4	8	[0, 0, 0]	n/a	catFR1	4	R1499T
849.914	0.766	856492	WORD_OFF	n/a	n/a	PARLANTE	Electronics	4	8	[0, 0, 0]	n/a	catFR1	4	R1499T
850.68	1.601	857257	WORD	n/a	wordpools/wordpool_categorized_SP.txt	GAVIOTA	Birds	5	8	[0, 0, 0]	n/a	catFR1	4	R1499T
852.281	0.8	858858	WORD_OFF	n/a	n/a	GAVIOTA	Birds	5	8	[0, 0, 0]	n/a	catFR1	4	R1499T
853.081	1.616	859666	WORD	n/a	wordpools/wordpool_categorized_SP.txt	CUERVO	Birds	6	8	[0, 0, 0]	n/a	catFR1	4	R1499T
854.697	0.95	861281	WORD_OFF	n/a	n/a	CUERVO	Birds	6	8	[0, 0, 0]	n/a	catFR1	4	R1499T
855.647	1.602	862231	WORD	n/a	wordpools/wordpool_categorized_SP.txt	MICROONDAS	Electronics	7	8	[0, 0, 0]	n/a	catFR1	4	R1499T
857.249	0.981	863832	WORD_OFF	n/a	n/a	MICROONDAS	Electronics	7	8	[0, 0, 0]	n/a	catFR1	4	R1499T
858.23	1.6	864810	WORD	n/a	wordpools/wordpool_categorized_SP.txt	RADIO	Electronics	8	8	[0, 0, 0]	n/a	catFR1	4	R1499T
859.83	0.767	866412	WORD_OFF	n/a	n/a	RADIO	Electronics	8	8	[0, 0, 0]	n/a	catFR1	4	R1499T
860.597	1.6	867177	WORD	n/a	wordpools/wordpool_categorized_SP.txt	PICHON	Birds	9	8	[0, 0, 0]	n/a	catFR1	4	R1499T
862.197	0.834	868778	WORD_OFF	n/a	n/a	PICHON	Birds	9	8	[0, 0, 0]	n/a	catFR1	4	R1499T
863.031	1.6	869614	WORD	n/a	wordpools/wordpool_categorized_SP.txt	CARDENAL	Birds	10	8	[0, 0, 0]	n/a	catFR1	4	R1499T
864.631	0.966	871216	WORD_OFF	n/a	n/a	CARDENAL	Birds	10	8	[0, 0, 0]	n/a	catFR1	4	R1499T
865.597	1.6	872179	WORD	n/a	wordpools/wordpool_categorized_SP.txt	CERDO	FarmAnimals	11	8	[0, 0, 0]	n/a	catFR1	4	R1499T
867.197	0.784	873781	WORD_OFF	n/a	n/a	CERDO	FarmAnimals	11	8	[0, 0, 0]	n/a	catFR1	4	R1499T
867.981	1.616	874560	WORD	n/a	wordpools/wordpool_categorized_SP.txt	BECERRO	FarmAnimals	12	8	[0, 0, 0]	n/a	catFR1	4	R1499T
869.597	0.002	876176	WORD_OFF	n/a	n/a	BECERRO	FarmAnimals	12	8	[0, 0, 0]	n/a	catFR1	4	R1499T
869.599	0.0	876176	ENCODING_END	n/a	n/a	n/a	n/a	-999	8	[0, 0, 0]	n/a	catFR1	4	R1499T
869.599	0.0	876176	DISTRACT_START	n/a	n/a	n/a	n/a	-999	8	[0, 0, 0]	n/a	catFR1	4	R1499T
869.598	0.001	876176	PROB	0.001	n/a	n/a	n/a	-999	8	[1, 7, 2]	10	catFR1	4	R1499T
869.599	3.749	876177	START	n/a	n/a	n/a	n/a	-999	8	[-999, -999, -999]	n/a	catFR1	4	R1499T
873.348	3.283	879926	PROB	3.283	n/a	n/a	n/a	-999	8	[4, 3, 3]	10	catFR1	4	R1499T
876.631	8.099	883209	PROB	8.099	n/a	n/a	n/a	-999	8	[1, 5, 6]	12	catFR1	4	R1499T
884.73	3.818	891307	PROB	3.818	n/a	n/a	n/a	-999	8	[5, 3, 2]	10	catFR1	4	R1499T
888.548	3.433	895125	PROB	3.433	n/a	n/a	n/a	-999	8	[4, 5, 2]	11	catFR1	4	R1499T
891.981	0.0	898552	DISTRACT_END	n/a	n/a	n/a	n/a	-999	8	[0, 0, 0]	n/a	catFR1	4	R1499T
891.981	1.033	898558	STOP	n/a	n/a	n/a	n/a	-999	8	[-999, -999, -999]	n/a	catFR1	4	R1499T
893.014	0.989	899587	REC_START	n/a	n/a	n/a	n/a	-999	8	[0, 0, 0]	n/a	catFR1	4	R1499T
894.003	1.028	900580	REC_WORD	1.028	n/a	VACA	FarmAnimals	2	8	[0, 0, 0]	n/a	catFR1	4	R1499T
895.031	1.106	901608	REC_WORD	1.106	n/a	CERDO	FarmAnimals	11	8	[0, 0, 0]	n/a	catFR1	4	R1499T
896.137	2.756	902714	REC_WORD	2.756	n/a	CORDERO	n/a	-999	8	[0, 0, 0]	n/a	catFR1	4	R1499T
898.893	3.509	905469	REC_WORD	3.509	n/a	BECERRO	FarmAnimals	12	8	[0, 0, 0]	n/a	catFR1	4	R1499T
902.402	4.615	908978	REC_WORD_VV	4.615	n/a	<>	n/a	-999	8	[0, 0, 0]	n/a	catFR1	4	R1499T
907.017	0.349	913593	REC_WORD	0.349	n/a	VACA	FarmAnimals	2	8	[0, 0, 0]	n/a	catFR1	4	R1499T
907.366	0.576	913942	REC_WORD	0.576	n/a	BECERRO	FarmAnimals	12	8	[0, 0, 0]	n/a	catFR1	4	R1499T
907.942	1.436	914518	REC_WORD	1.436	n/a	CORDERO	n/a	-999	8	[0, 0, 0]	n/a	catFR1	4	R1499T
909.378	9.718	915954	REC_WORD_VV	9.718	n/a	<>	n/a	-999	8	[0, 0, 0]	n/a	catFR1	4	R1499T
919.096	2.552	925671	REC_WORD_VV	2.552	n/a	<>	n/a	-999	8	[0, 0, 0]	n/a	catFR1	4	R1499T
921.648	2.551	928223	REC_WORD_VV	2.551	n/a	<>	n/a	-999	8	[0, 0, 0]	n/a	catFR1	4	R1499T
924.199	1.065	930778	REC_END	n/a	n/a	n/a	n/a	-999	8	[0, 0, 0]	n/a	catFR1	4	R1499T
925.264	10.35	931841	COUNTDOWN_START	n/a	n/a	n/a	n/a	-999	8	[0, 0, 0]	n/a	catFR1	4	R1499T
935.614	0.0	942186	COUNTDOWN_END	n/a	n/a	n/a	n/a	-999	8	[0, 0, 0]	n/a	catFR1	4	R1499T
935.614	2.067	942186	ENCODING_START	n/a	n/a	n/a	n/a	-999	9	[0, 0, 0]	n/a	catFR1	4	R1499T
937.681	1.616	944255	WORD	n/a	wordpools/wordpool_categorized_SP.txt	NUBE	Weather	1	9	[0, 0, 0]	n/a	catFR1	4	R1499T
939.297	0.816	945871	WORD_OFF	n/a	n/a	NUBE	Weather	1	9	[0, 0, 0]	n/a	catFR1	4	R1499T
940.113	1.601	946693	WORD	n/a	wordpools/wordpool_categorized_SP.txt	NIEVE	Weather	2	9	[0, 0, 0]	n/a	catFR1	4	R1499T
941.714	0.9	948294	WORD_OFF	n/a	n/a	NIEVE	Weather	2	9	[0, 0, 0]	n/a	catFR1	4	R1499T
942.614	1.617	949187	WORD	n/a	wordpools/wordpool_categorized_SP.txt	DESTORNILLADOR	Tools	3	9	[0, 0, 0]	n/a	catFR1	4	R1499T
944.231	0.816	950802	WORD_OFF	n/a	n/a	DESTORNILLADOR	Tools	3	9	[0, 0, 0]	n/a	catFR1	4	R1499T
945.047	1.616	951624	WORD	n/a	wordpools/wordpool_categorized_SP.txt	ALICATES	Tools	4	9	[0, 0, 0]	n/a	catFR1	4	R1499T
946.663	0.918	953240	WORD_OFF	n/a	n/a	ALICATES	Tools	4	9	[0, 0, 0]	n/a	catFR1	4	R1499T
947.581	1.6	954161	WORD	n/a	wordpools/wordpool_categorized_SP.txt	ORGANO	Instruments	5	9	[0, 0, 0]	n/a	catFR1	4	R1499T
949.181	0.966	955748	WORD_OFF	n/a	n/a	ORGANO	Instruments	5	9	[0, 0, 0]	n/a	catFR1	4	R1499T
950.147	1.617	956726	WORD	n/a	wordpools/wordpool_categorized_SP.txt	TAMBOR	Instruments	6	9	[0, 0, 0]	n/a	catFR1	4	R1499T
951.764	0.85	958342	WORD_OFF	n/a	n/a	TAMBOR	Instruments	6	9	[0, 0, 0]	n/a	catFR1	4	R1499T
952.614	1.617	959192	WORD	n/a	wordpools/wordpool_categorized_SP.txt	LLAVE	Tools	7	9	[0, 0, 0]	n/a	catFR1	4	R1499T
954.231	0.933	960807	WORD_OFF	n/a	n/a	LLAVE	Tools	7	9	[0, 0, 0]	n/a	catFR1	4	R1499T
955.164	1.6	961743	WORD	n/a	wordpools/wordpool_categorized_SP.txt	SIERRA	Tools	8	9	[0, 0, 0]	n/a	catFR1	4	R1499T
956.764	0.967	963344	WORD_OFF	n/a	n/a	SIERRA	Tools	8	9	[0, 0, 0]	n/a	catFR1	4	R1499T
957.731	1.6	964308	WORD	n/a	wordpools/wordpool_categorized_SP.txt	LLOVIZNA	Weather	9	9	[0, 0, 0]	n/a	catFR1	4	R1499T
959.331	0.949	965909	WORD_OFF	n/a	n/a	LLOVIZNA	Weather	9	9	[0, 0, 0]	n/a	catFR1	4	R1499T
960.28	1.601	966858	WORD	n/a	wordpools/wordpool_categorized_SP.txt	HURACAN	Weather	10	9	[0, 0, 0]	n/a	catFR1	4	R1499T
961.881	0.799	968460	WORD_OFF	n/a	n/a	HURACAN	Weather	10	9	[0, 0, 0]	n/a	catFR1	4	R1499T
962.68	1.601	969253	WORD	n/a	wordpools/wordpool_categorized_SP.txt	TROMBON	Instruments	11	9	[0, 0, 0]	n/a	catFR1	4	R1499T
964.281	0.983	970855	WORD_OFF	n/a	n/a	TROMBON	Instruments	11	9	[0, 0, 0]	n/a	catFR1	4	R1499T
965.264	1.6	971833	WORD	n/a	wordpools/wordpool_categorized_SP.txt	PIANO	Instruments	12	9	[0, 0, 0]	n/a	catFR1	4	R1499T
966.864	0.002	973434	WORD_OFF	n/a	n/a	PIANO	Instruments	12	9	[0, 0, 0]	n/a	catFR1	4	R1499T
966.866	0.0	973434	ENCODING_END	n/a	n/a	n/a	n/a	-999	9	[0, 0, 0]	n/a	catFR1	4	R1499T
966.866	0.0	973434	DISTRACT_START	n/a	n/a	n/a	n/a	-999	9	[0, 0, 0]	n/a	catFR1	4	R1499T
966.865	0.001	973438	PROB	0.001	n/a	n/a	n/a	-999	9	[8, 8, 8]	24	catFR1	4	R1499T
966.866	3.999	973439	START	n/a	n/a	n/a	n/a	-999	9	[-999, -999, -999]	n/a	catFR1	4	R1499T
970.865	3.583	977438	PROB	3.583	n/a	n/a	n/a	-999	9	[3, 5, 4]	12	catFR1	4	R1499T
974.448	4.55	981021	PROB	4.55	n/a	n/a	n/a	-999	9	[3, 6, 3]	12	catFR1	4	R1499T
978.998	3.416	985570	PROB	3.416	n/a	n/a	n/a	-999	9	[6, 3, 4]	13	catFR1	4	R1499T
982.414	3.2	988986	PROB	3.2	n/a	n/a	n/a	-999	9	[7, 3, 4]	14	catFR1	4	R1499T
985.614	4.799	992186	PROB	4.799	n/a	n/a	n/a	-999	9	[1, 6, 5]	12	catFR1	4	R1499T
990.413	0.0	996985	STOP	n/a	n/a	n/a	n/a	-999	9	[-999, -999, -999]	n/a	catFR1	4	R1499T
990.413	1.034	996987	DISTRACT_END	n/a	n/a	n/a	n/a	-999	9	[0, 0, 0]	n/a	catFR1	4	R1499T
991.447	2.584	998021	REC_START	n/a	n/a	n/a	n/a	-999	9	[0, 0, 0]	n/a	catFR1	4	R1499T
994.031	0.997	1000603	REC_WORD	0.997	n/a	TORMENTA	Weather	-999	9	[0, 0, 0]	n/a	catFR1	4	R1499T
995.028	0.32	1001600	REC_WORD	0.32	n/a	TORMENTA	Weather	-999	9	[0, 0, 0]	n/a	catFR1	4	R1499T
995.348	3.57	1001920	REC_WORD	3.57	n/a	TRUENO	Weather	-999	9	[0, 0, 0]	n/a	catFR1	4	R1499T
998.918	1.001	1005489	REC_WORD	1.001	n/a	TORMENTA	Weather	-999	9	[0, 0, 0]	n/a	catFR1	4	R1499T
999.919	0.264	1006490	REC_WORD	0.264	n/a	TORMENTA	Weather	-999	9	[0, 0, 0]	n/a	catFR1	4	R1499T
1000.183	1.031	1006754	REC_WORD	1.031	n/a	TRUENO	Weather	-999	9	[0, 0, 0]	n/a	catFR1	4	R1499T
1001.214	1.0	1007785	REC_WORD_VV	1.0	n/a	<>	n/a	-999	9	[0, 0, 0]	n/a	catFR1	4	R1499T
1002.214	1.044	1008785	REC_WORD_VV	1.044	n/a	<>	n/a	-999	9	[0, 0, 0]	n/a	catFR1	4	R1499T
1003.258	0.605	1009829	REC_WORD_VV	0.605	n/a	<>	n/a	-999	9	[0, 0, 0]	n/a	catFR1	4	R1499T
1003.863	1.116	1010434	REC_WORD	1.116	n/a	LLAVE	Tools	7	9	[0, 0, 0]	n/a	catFR1	4	R1499T
1004.979	1.001	1011550	REC_WORD	1.001	n/a	CERUCHO	n/a	-999	9	[0, 0, 0]	n/a	catFR1	4	R1499T
1005.98	1.797	1012551	REC_WORD	1.797	n/a	CERUCHO	n/a	-999	9	[0, 0, 0]	n/a	catFR1	4	R1499T
1007.777	1.0	1014348	REC_WORD	1.0	n/a	CERUCHO	n/a	-999	9	[0, 0, 0]	n/a	catFR1	4	R1499T
1008.777	0.807	1015348	REC_WORD	0.807	n/a	CERUCHO	n/a	-999	9	[0, 0, 0]	n/a	catFR1	4	R1499T
1009.584	1.001	1016155	REC_WORD_VV	1.001	n/a	<>	n/a	-999	9	[0, 0, 0]	n/a	catFR1	4	R1499T
1010.585	2.881	1017156	REC_WORD_VV	2.881	n/a	<>	n/a	-999	9	[0, 0, 0]	n/a	catFR1	4	R1499T
1013.466	2.715	1020037	REC_WORD	2.715	n/a	TROMBON	Instruments	11	9	[0, 0, 0]	n/a	catFR1	4	R1499T
1016.181	6.463	1022752	REC_WORD	6.463	n/a	PIANO	Instruments	12	9	[0, 0, 0]	n/a	catFR1	4	R1499T
1022.644	2.187	1029213	REC_END	n/a	n/a	n/a	n/a	-999	9	[0, 0, 0]	n/a	catFR1	4	R1499T
1024.831	10.35	1031395	COUNTDOWN_START	n/a	n/a	n/a	n/a	-999	9	[0, 0, 0]	n/a	catFR1	4	R1499T
1035.181	0.0	1041754	COUNTDOWN_END	n/a	n/a	n/a	n/a	-999	9	[0, 0, 0]	n/a	catFR1	4	R1499T
1035.181	2.032	1041754	ENCODING_START	n/a	n/a	n/a	n/a	-999	10	[0, 0, 0]	n/a	catFR1	4	R1499T
1037.213	1.601	1043781	WORD	n/a	wordpools/wordpool_categorized_SP.txt	ARVEJA	Vegetables	1	10	[0, 0, 0]	n/a	catFR1	4	R1499T
1038.814	1.0	1045382	WORD_OFF	n/a	n/a	ARVEJA	Vegetables	1	10	[0, 0, 0]	n/a	catFR1	4	R1499T
1039.814	1.6	1046388	WORD	n/a	wordpools/wordpool_categorized_SP.txt	PAPA	Vegetables	2	10	[0, 0, 0]	n/a	catFR1	4	R1499T
1041.414	0.983	1047990	WORD_OFF	n/a	n/a	PAPA	Vegetables	2	10	[0, 0, 0]	n/a	catFR1	4	R1499T
1042.397	1.6	1048968	WORD	n/a	wordpools/wordpool_categorized_SP.txt	JEANS	Clothing	3	10	[0, 0, 0]	n/a	catFR1	4	R1499T
1043.997	0.917	1050569	WORD_OFF	n/a	n/a	JEANS	Clothing	3	10	[0, 0, 0]	n/a	catFR1	4	R1499T
1044.914	1.6	1051476	WORD	n/a	wordpools/wordpool_categorized_SP.txt	PANTALONES	Clothing	4	10	[0, 0, 0]	n/a	catFR1	4	R1499T
1046.514	0.9	1053077	WORD_OFF	n/a	n/a	PANTALONES	Clothing	4	10	[0, 0, 0]	n/a	catFR1	4	R1499T
1047.414	1.6	1053984	WORD	n/a	wordpools/wordpool_categorized_SP.txt	CORDERO	FarmAnimals	5	10	[0, 0, 0]	n/a	catFR1	4	R1499T
1049.014	0.85	1055586	WORD_OFF	n/a	n/a	CORDERO	FarmAnimals	5	10	[0, 0, 0]	n/a	catFR1	4	R1499T
1049.864	1.6	1056436	WORD	n/a	wordpools/wordpool_categorized_SP.txt	GALLINA	FarmAnimals	6	10	[0, 0, 0]	n/a	catFR1	4	R1499T
1051.464	0.932	1058037	WORD_OFF	n/a	n/a	GALLINA	FarmAnimals	6	10	[0, 0, 0]	n/a	catFR1	4	R1499T
1052.396	1.601	1058959	WORD	n/a	wordpools/wordpool_categorized_SP.txt	ESPINACA	Vegetables	7	10	[0, 0, 0]	n/a	catFR1	4	R1499T
1053.997	0.934	1060560	WORD_OFF	n/a	n/a	ESPINACA	Vegetables	7	10	[0, 0, 0]	n/a	catFR1	4	R1499T
1054.931	1.616	1061495	WORD	n/a	wordpools/wordpool_categorized_SP.txt	APIO	Vegetables	8	10	[0, 0, 0]	n/a	catFR1	4	R1499T
1056.547	0.967	1063111	WORD_OFF	n/a	n/a	APIO	Vegetables	8	10	[0, 0, 0]	n/a	catFR1	4	R1499T
1057.514	1.6	1064089	WORD	n/a	wordpools/wordpool_categorized_SP.txt	CAMISA	Clothing	9	10	[0, 0, 0]	n/a	catFR1	4	R1499T
1059.114	0.95	1065676	WORD_OFF	n/a	n/a	CAMISA	Clothing	9	10	[0, 0, 0]	n/a	catFR1	4	R1499T
1060.064	1.616	1066639	WORD	n/a	wordpools/wordpool_categorized_SP.txt	CALZON	Clothing	10	10	[0, 0, 0]	n/a	catFR1	4	R1499T
1061.68	0.784	1068241	WORD_OFF	n/a	n/a	CALZON	Clothing	10	10	[0, 0, 0]	n/a	catFR1	4	R1499T
1062.464	1.6	1069034	WORD	n/a	wordpools/wordpool_categorized_SP.txt	POLLO	FarmAnimals	11	10	[0, 0, 0]	n/a	catFR1	4	R1499T
1064.064	0.983	1070636	WORD_OFF	n/a	n/a	POLLO	FarmAnimals	11	10	[0, 0, 0]	n/a	catFR1	4	R1499T
1065.047	1.6	1071614	WORD	n/a	wordpools/wordpool_categorized_SP.txt	GALLO	FarmAnimals	12	10	[0, 0, 0]	n/a	catFR1	4	R1499T
1066.647	0.001	1073215	WORD_OFF	n/a	n/a	GALLO	FarmAnimals	12	10	[0, 0, 0]	n/a	catFR1	4	R1499T
1066.648	0.0	1073215	ENCODING_END	n/a	n/a	n/a	n/a	-999	10	[0, 0, 0]	n/a	catFR1	4	R1499T
1066.648	0.0	1073215	DISTRACT_START	n/a	n/a	n/a	n/a	-999	10	[0, 0, 0]	n/a	catFR1	4	R1499T
1066.648	0.0	1073216	START	n/a	n/a	n/a	n/a	-999	10	[-999, -999, -999]	n/a	catFR1	4	R1499T
1066.648	5.517	1073216	PROB	5.517	n/a	n/a	n/a	-999	10	[7, 8, 4]	19	catFR1	4	R1499T
1072.165	6.315	1078733	PROB	6.315	n/a	n/a	n/a	-999	10	[8, 6, 2]	16	catFR1	4	R1499T
1078.48	4.1	1085048	PROB	4.1	n/a	n/a	n/a	-999	10	[2, 8, 8]	18	catFR1	4	R1499T
1082.58	3.052	1089147	PROB	3.052	n/a	n/a	n/a	-999	10	[6, 2, 2]	10	catFR1	4	R1499T
1085.632	3.015	1092199	PROB	3.015	n/a	n/a	n/a	-999	10	[2, 6, 4]	12	catFR1	4	R1499T
1088.647	0.0	1095209	DISTRACT_END	n/a	n/a	n/a	n/a	-999	10	[0, 0, 0]	n/a	catFR1	4	R1499T
1088.647	1.067	1095214	STOP	n/a	n/a	n/a	n/a	-999	10	[-999, -999, -999]	n/a	catFR1	4	R1499T
1089.714	2.642	1096286	REC_START	n/a	n/a	n/a	n/a	-999	10	[0, 0, 0]	n/a	catFR1	4	R1499T
1092.356	1.131	1098923	REC_WORD	1.131	n/a	JEANS	Clothing	3	10	[0, 0, 0]	n/a	catFR1	4	R1499T
1093.487	1.291	1100054	REC_WORD	1.291	n/a	PANTALONES	Clothing	4	10	[0, 0, 0]	n/a	catFR1	4	R1499T
1094.778	1.264	1101345	REC_WORD	1.264	n/a	CAMISA	Clothing	9	10	[0, 0, 0]	n/a	catFR1	4	R1499T
1096.042	2.604	1102609	REC_WORD	2.604	n/a	CALZON	Clothing	10	10	[0, 0, 0]	n/a	catFR1	4	R1499T
1098.646	0.649	1105213	REC_WORD_VV	0.649	n/a	<>	n/a	-999	10	[0, 0, 0]	n/a	catFR1	4	R1499T
1099.295	2.043	1105862	REC_WORD	2.043	n/a	CORDERO	FarmAnimals	5	10	[0, 0, 0]	n/a	catFR1	4	R1499T
1101.338	1.668	1107904	REC_WORD_VV	1.668	n/a	<>	n/a	-999	10	[0, 0, 0]	n/a	catFR1	4	R1499T
1103.006	0.796	1109572	REC_WORD	0.796	n/a	CORDERO	FarmAnimals	5	10	[0, 0, 0]	n/a	catFR1	4	R1499T
1103.802	2.044	1110368	REC_WORD	2.044	n/a	CORDERO	FarmAnimals	5	10	[0, 0, 0]	n/a	catFR1	4	R1499T
1105.846	2.005	1112412	REC_WORD_VV	2.005	n/a	<>	n/a	-999	10	[0, 0, 0]	n/a	catFR1	4	R1499T
1107.851	1.0	1114417	REC_WORD_VV	1.0	n/a	<>	n/a	-999	10	[0, 0, 0]	n/a	catFR1	4	R1499T
1108.851	3.683	1115417	REC_WORD_VV	3.683	n/a	<>	n/a	-999	10	[0, 0, 0]	n/a	catFR1	4	R1499T
1112.534	8.365	1119100	REC_WORD	8.365	n/a	APIO	Vegetables	8	10	[0, 0, 0]	n/a	catFR1	4	R1499T
1120.899	1.915	1127463	REC_END	n/a	n/a	n/a	n/a	-999	10	[0, 0, 0]	n/a	catFR1	4	R1499T
1122.814	10.35	1129376	COUNTDOWN_START	n/a	n/a	n/a	n/a	-999	10	[0, 0, 0]	n/a	catFR1	4	R1499T
1133.164	0.0	1139736	COUNTDOWN_END	n/a	n/a	n/a	n/a	-999	10	[0, 0, 0]	n/a	catFR1	4	R1499T
1133.164	2.017	1139736	ENCODING_START	n/a	n/a	n/a	n/a	-999	11	[0, 0, 0]	n/a	catFR1	4	R1499T
1135.181	1.6	1141748	WORD	n/a	wordpools/wordpool_categorized_SP.txt	CABRA	FarmAnimals	1	11	[0, 0, 0]	n/a	catFR1	4	R1499T
1136.781	1.0	1143349	WORD_OFF	n/a	n/a	CABRA	FarmAnimals	1	11	[0, 0, 0]	n/a	catFR1	4	R1499T
1137.781	1.616	1144341	WORD	n/a	wordpools/wordpool_categorized_SP.txt	PAVO	FarmAnimals	2	11	[0, 0, 0]	n/a	catFR1	4	R1499T
1139.397	0.766	1145957	WORD_OFF	n/a	n/a	PAVO	FarmAnimals	2	11	[0, 0, 0]	n/a	catFR1	4	R1499T
1140.163	1.618	1146722	WORD	n/a	wordpools/wordpool_categorized_SP.txt	FRISBEE	Toys	3	11	[0, 0, 0]	n/a	catFR1	4	R1499T
1141.781	0.783	1148352	WORD_OFF	n/a	n/a	FRISBEE	Toys	3	11	[0, 0, 0]	n/a	catFR1	4	R1499T
1142.564	1.616	1149131	WORD	n/a	wordpools/wordpool_categorized_SP.txt	CANICAS	Toys	4	11	[0, 0, 0]	n/a	catFR1	4	R1499T
1144.18	0.767	1150747	WORD_OFF	n/a	n/a	CANICAS	Toys	4	11	[0, 0, 0]	n/a	catFR1	4	R1499T
1144.947	1.601	1151512	WORD	n/a	wordpools/wordpool_categorized_SP.txt	VIOLIN	Instruments	5	11	[0, 0, 0]	n/a	catFR1	4	R1499T
1146.548	0.815	1153113	WORD_OFF	n/a	n/a	VIOLIN	Instruments	5	11	[0, 0, 0]	n/a	catFR1	4	R1499T
1147.363	1.6	1153921	WORD	n/a	wordpools/wordpool_categorized_SP.txt	FLAUTA	Instruments	6	11	[0, 0, 0]	n/a	catFR1	4	R1499T
1148.963	0.851	1155523	WORD_OFF	n/a	n/a	FLAUTA	Instruments	6	11	[0, 0, 0]	n/a	catFR1	4	R1499T
1149.814	1.6	1156373	WORD	n/a	wordpools/wordpool_categorized_SP.txt	BALERO	Toys	7	11	[0, 0, 0]	n/a	catFR1	4	R1499T
1151.414	0.9	1157974	WORD_OFF	n/a	n/a	BALERO	Toys	7	11	[0, 0, 0]	n/a	catFR1	4	R1499T
1152.314	1.616	1158881	WORD	n/a	wordpools/wordpool_categorized_SP.txt	BEISBOL	Toys	8	11	[0, 0, 0]	n/a	catFR1	4	R1499T
1153.93	0.768	1160497	WORD_OFF	n/a	n/a	BEISBOL	Toys	8	11	[0, 0, 0]	n/a	catFR1	4	R1499T
1154.698	1.616	1161262	WORD	n/a	wordpools/wordpool_categorized_SP.txt	TORO	FarmAnimals	9	11	[0, 0, 0]	n/a	catFR1	4	R1499T
1156.314	0.833	1162878	WORD_OFF	n/a	n/a	TORO	FarmAnimals	9	11	[0, 0, 0]	n/a	catFR1	4	R1499T
1157.147	1.6	1163714	WORD	n/a	wordpools/wordpool_categorized_SP.txt	OVEJA	FarmAnimals	10	11	[0, 0, 0]	n/a	catFR1	4	R1499T
1158.747	0.851	1165315	WORD_OFF	n/a	n/a	OVEJA	FarmAnimals	10	11	[0, 0, 0]	n/a	catFR1	4	R1499T
1159.598	1.599	1166165	WORD	n/a	wordpools/wordpool_categorized_SP.txt	TUBA	Instruments	11	11	[0, 0, 0]	n/a	catFR1	4	R1499T
1161.197	0.8	1167767	WORD_OFF	n/a	n/a	TUBA	Instruments	11	11	[0, 0, 0]	n/a	catFR1	4	R1499T
1161.997	1.601	1168560	WORD	n/a	wordpools/wordpool_categorized_SP.txt	BANJO	Instruments	12	11	[0, 0, 0]	n/a	catFR1	4	R1499T
1163.598	0.0	1170161	PROB	0.0	n/a	n/a	n/a	-999	11	[3, 5, 2]	10	catFR1	4	R1499T
1163.597	0.002	1170162	WORD_OFF	n/a	n/a	BANJO	Instruments	12	11	[0, 0, 0]	n/a	catFR1	4	R1499T
1163.599	0.0	1170162	ENCODING_END	n/a	n/a	n/a	n/a	-999	11	[0, 0, 0]	n/a	catFR1	4	R1499T
1163.599	0.0	1170162	DISTRACT_START	n/a	n/a	n/a	n/a	-999	11	[0, 0, 0]	n/a	catFR1	4	R1499T
1163.599	4.066	1170162	START	n/a	n/a	n/a	n/a	-999	11	[-999, -999, -999]	n/a	catFR1	4	R1499T
1167.665	4.332	1174228	PROB	4.332	n/a	n/a	n/a	-999	11	[5, 1, 8]	14	catFR1	4	R1499T
1171.997	4.751	1178560	PROB	4.751	n/a	n/a	n/a	-999	11	[6, 7, 3]	16	catFR1	4	R1499T
1176.748	4.45	1183311	PROB	4.45	n/a	n/a	n/a	-999	11	[7, 2, 3]	12	catFR1	4	R1499T
1181.198	3.732	1187760	PROB	3.732	n/a	n/a	n/a	-999	11	[1, 1, 6]	8	catFR1	4	R1499T
1184.93	0.0	1191490	DISTRACT_END	n/a	n/a	n/a	n/a	-999	11	[0, 0, 0]	n/a	catFR1	4	R1499T
1184.93	1.184	1191492	STOP	n/a	n/a	n/a	n/a	-999	11	[-999, -999, -999]	n/a	catFR1	4	R1499T
1186.114	1.065	1192680	REC_START	n/a	n/a	n/a	n/a	-999	11	[0, 0, 0]	n/a	catFR1	4	R1499T
1187.179	1.136	1193741	REC_WORD	1.136	n/a	VIOLIN	Instruments	5	11	[0, 0, 0]	n/a	catFR1	4	R1499T
1188.315	1.626	1194877	REC_WORD	1.626	n/a	TROMBON	Instruments	-999	11	[0, 0, 0]	n/a	catFR1	4	R1499T
1189.941	2.815	1196503	REC_WORD_VV	2.815	n/a	<>	n/a	-999	11	[0, 0, 0]	n/a	catFR1	4	R1499T
1192.756	0.947	1199318	REC_WORD	0.947	n/a	VIOLIN	Instruments	5	11	[0, 0, 0]	n/a	catFR1	4	R1499T
1193.703	1.0	1200265	REC_WORD	1.0	n/a	TROMBON	Instruments	-999	11	[0, 0, 0]	n/a	catFR1	4	R1499T
1194.703	0.519	1201265	REC_WORD	0.519	n/a	TROMBON	Instruments	-999	11	[0, 0, 0]	n/a	catFR1	4	R1499T
1195.222	2.547	1201784	REC_WORD	2.547	n/a	GALLO	FarmAnimals	-999	11	[0, 0, 0]	n/a	catFR1	4	R1499T
1197.769	0.607	1204331	REC_WORD	0.607	n/a	GALLO	FarmAnimals	-999	11	[0, 0, 0]	n/a	catFR1	4	R1499T
1198.376	2.608	1204938	REC_WORD	2.608	n/a	POLLO	FarmAnimals	-999	11	[0, 0, 0]	n/a	catFR1	4	R1499T
1200.984	0.91	1207545	REC_WORD	0.91	n/a	POLLO	FarmAnimals	-999	11	[0, 0, 0]	n/a	catFR1	4	R1499T
1201.894	1.0	1208455	REC_WORD_VV	1.0	n/a	<>	n/a	-999	11	[0, 0, 0]	n/a	catFR1	4	R1499T
1202.894	1.431	1209455	REC_WORD_VV	1.431	n/a	<>	n/a	-999	11	[0, 0, 0]	n/a	catFR1	4	R1499T
1204.325	1.0	1210886	REC_WORD_VV	1.0	n/a	<>	n/a	-999	11	[0, 0, 0]	n/a	catFR1	4	R1499T
1205.325	1.676	1211886	REC_WORD_VV	1.676	n/a	<>	n/a	-999	11	[0, 0, 0]	n/a	catFR1	4	R1499T
1207.001	1.0	1213562	REC_WORD_VV	1.0	n/a	<>	n/a	-999	11	[0, 0, 0]	n/a	catFR1	4	R1499T
1208.001	1.649	1214562	REC_WORD_VV	1.649	n/a	<>	n/a	-999	11	[0, 0, 0]	n/a	catFR1	4	R1499T
1209.65	1.0	1216211	REC_WORD_VV	1.0	n/a	<>	n/a	-999	11	[0, 0, 0]	n/a	catFR1	4	R1499T
1210.65	2.969	1217211	REC_WORD_VV	2.969	n/a	<>	n/a	-999	11	[0, 0, 0]	n/a	catFR1	4	R1499T
1213.619	3.716	1220180	REC_WORD_VV	3.716	n/a	<>	n/a	-999	11	[0, 0, 0]	n/a	catFR1	4	R1499T
1217.335	2.528	1223900	REC_END	n/a	n/a	n/a	n/a	-999	11	[0, 0, 0]	n/a	catFR1	4	R1499T
1219.863	10.351	1226422	COUNTDOWN_START	n/a	n/a	n/a	n/a	-999	11	[0, 0, 0]	n/a	catFR1	4	R1499T
1230.214	0.0	1236781	COUNTDOWN_END	n/a	n/a	n/a	n/a	-999	11	[0, 0, 0]	n/a	catFR1	4	R1499T
1230.214	2.116	1236781	ENCODING_START	n/a	n/a	n/a	n/a	-999	12	[0, 0, 0]	n/a	catFR1	4	R1499T
1232.33	1.618	1238893	WORD	n/a	wordpools/wordpool_categorized_SP.txt	TABLETA	Electronics	1	12	[0, 0, 0]	n/a	catFR1	4	R1499T
1233.948	0.949	1240509	WORD_OFF	n/a	n/a	TABLETA	Electronics	1	12	[0, 0, 0]	n/a	catFR1	4	R1499T
1234.897	1.6	1241458	WORD	n/a	wordpools/wordpool_categorized_SP.txt	TELEFONO	Electronics	2	12	[0, 0, 0]	n/a	catFR1	4	R1499T
1236.497	0.833	1243059	WORD_OFF	n/a	n/a	TELEFONO	Electronics	2	12	[0, 0, 0]	n/a	catFR1	4	R1499T
1237.33	1.6	1243896	WORD	n/a	wordpools/wordpool_categorized_SP.txt	TORNADO	Weather	3	12	[0, 0, 0]	n/a	catFR1	4	R1499T
1238.93	0.9	1245483	WORD_OFF	n/a	n/a	TORNADO	Weather	3	12	[0, 0, 0]	n/a	catFR1	4	R1499T
1239.83	1.601	1246390	WORD	n/a	wordpools/wordpool_categorized_SP.txt	HUMEDAD	Weather	4	12	[0, 0, 0]	n/a	catFR1	4	R1499T
1241.431	0.949	1247991	WORD_OFF	n/a	n/a	HUMEDAD	Weather	4	12	[0, 0, 0]	n/a	catFR1	4	R1499T
1242.38	1.601	1248941	WORD	n/a	wordpools/wordpool_categorized_SP.txt	AUTO	Vehicles	5	12	[0, 0, 0]	n/a	catFR1	4	R1499T
1243.981	0.983	1250542	WORD_OFF	n/a	n/a	AUTO	Vehicles	5	12	[0, 0, 0]	n/a	catFR1	4	R1499T
1244.964	1.6	1251520	WORD	n/a	wordpools/wordpool_categorized_SP.txt	JEEP	Vehicles	6	12	[0, 0, 0]	n/a	catFR1	4	R1499T
1246.564	0.9	1253121	WORD_OFF	n/a	n/a	JEEP	Vehicles	6	12	[0, 0, 0]	n/a	catFR1	4	R1499T
1247.464	1.617	1254028	WORD	n/a	wordpools/wordpool_categorized_SP.txt	NIEBLA	Weather	7	12	[0, 0, 0]	n/a	catFR1	4	R1499T
1249.081	0.982	1255644	WORD_OFF	n/a	n/a	NIEBLA	Weather	7	12	[0, 0, 0]	n/a	catFR1	4	R1499T
1250.063	1.619	1256621	WORD	n/a	wordpools/wordpool_categorized_SP.txt	LLUVIA	Weather	8	12	[0, 0, 0]	n/a	catFR1	4	R1499T
1251.682	0.765	1258237	WORD_OFF	n/a	n/a	LLUVIA	Weather	8	12	[0, 0, 0]	n/a	catFR1	4	R1499T
1252.447	1.6	1259002	WORD	n/a	wordpools/wordpool_categorized_SP.txt	AUDIFONOS	Electronics	9	12	[0, 0, 0]	n/a	catFR1	4	R1499T
1254.047	0.984	1260604	WORD_OFF	n/a	n/a	AUDIFONOS	Electronics	9	12	[0, 0, 0]	n/a	catFR1	4	R1499T
1255.031	1.616	1261596	WORD	n/a	wordpools/wordpool_categorized_SP.txt	CALCULADORA	Electronics	10	12	[0, 0, 0]	n/a	catFR1	4	R1499T
1256.647	0.833	1263211	WORD_OFF	n/a	n/a	CALCULADORA	Electronics	10	12	[0, 0, 0]	n/a	catFR1	4	R1499T
1257.48	1.601	1264033	WORD	n/a	wordpools/wordpool_categorized_SP.txt	CICLOMOTOR	Vehicles	11	12	[0, 0, 0]	n/a	catFR1	4	R1499T
1259.081	0.767	1265634	WORD_OFF	n/a	n/a	CICLOMOTOR	Vehicles	11	12	[0, 0, 0]	n/a	catFR1	4	R1499T
1259.848	1.6	1266400	WORD	n/a	wordpools/wordpool_categorized_SP.txt	CAMIONETA	Vehicles	12	12	[0, 0, 0]	n/a	catFR1	4	R1499T
1261.448	0.006	1268006	PROB	0.006	n/a	n/a	n/a	-999	12	[3, 5, 5]	13	catFR1	4	R1499T
1261.454	0.0	1268012	START	n/a	n/a	n/a	n/a	-999	12	[-999, -999, -999]	n/a	catFR1	4	R1499T
1261.447	0.007	1268015	WORD_OFF	n/a	n/a	CAMIONETA	Vehicles	12	12	[0, 0, 0]	n/a	catFR1	4	R1499T
1261.454	0.0	1268015	ENCODING_END	n/a	n/a	n/a	n/a	-999	12	[0, 0, 0]	n/a	catFR1	4	R1499T
1261.454	4.144	1268015	DISTRACT_START	n/a	n/a	n/a	n/a	-999	12	[0, 0, 0]	n/a	catFR1	4	R1499T
1265.598	5.45	1272156	PROB	5.45	n/a	n/a	n/a	-999	12	[4, 4, 7]	15	catFR1	4	R1499T
1271.048	4.267	1277606	PROB	4.267	n/a	n/a	n/a	-999	12	[7, 2, 5]	14	catFR1	4	R1499T
1275.315	4.383	1281873	PROB	4.383	n/a	n/a	n/a	-999	12	[5, 7, 8]	20	catFR1	4	R1499T
1279.698	3.649	1286256	PROB	3.649	n/a	n/a	n/a	-999	12	[5, 3, 3]	11	catFR1	4	R1499T
1283.347	0.0	1289904	STOP	n/a	n/a	n/a	n/a	-999	12	[-999, -999, -999]	n/a	catFR1	4	R1499T
1283.347	1.3	1289910	DISTRACT_END	n/a	n/a	n/a	n/a	-999	12	[0, 0, 0]	n/a	catFR1	4	R1499T
1284.647	2.091	1291200	REC_START	n/a	n/a	n/a	n/a	-999	12	[0, 0, 0]	n/a	catFR1	4	R1499T
1286.738	1.0	1293295	REC_WORD	1.0	n/a	TABLETA	Electronics	1	12	[0, 0, 0]	n/a	catFR1	4	R1499T
1287.738	1.343	1294295	REC_WORD	1.343	n/a	TABLETA	Electronics	1	12	[0, 0, 0]	n/a	catFR1	4	R1499T
1289.081	2.343	1295638	REC_WORD	2.343	n/a	CAMION	n/a	-999	12	[0, 0, 0]	n/a	catFR1	4	R1499T
1291.424	1.976	1297981	REC_WORD_VV	1.976	n/a	<>	n/a	-999	12	[0, 0, 0]	n/a	catFR1	4	R1499T
1293.4	0.831	1299957	REC_WORD	0.831	n/a	TABLETA	Electronics	1	12	[0, 0, 0]	n/a	catFR1	4	R1499T
1294.231	2.661	1300788	REC_WORD	2.661	n/a	CAMION	n/a	-999	12	[0, 0, 0]	n/a	catFR1	4	R1499T
1296.892	0.955	1303449	REC_WORD_VV	0.955	n/a	<>	n/a	-999	12	[0, 0, 0]	n/a	catFR1	4	R1499T
1297.847	1.595	1304404	REC_WORD	1.595	n/a	AUTO	Vehicles	5	12	[0, 0, 0]	n/a	catFR1	4	R1499T
1299.442	0.755	1305999	REC_WORD_VV	0.755	n/a	<>	n/a	-999	12	[0, 0, 0]	n/a	catFR1	4	R1499T
1300.197	2.446	1306754	REC_WORD	2.446	n/a	NIEBLA	Weather	7	12	[0, 0, 0]	n/a	catFR1	4	R1499T
1302.643	1.893	1309199	REC_WORD	1.893	n/a	JEEP	Vehicles	6	12	[0, 0, 0]	n/a	catFR1	4	R1499T
1304.536	0.725	1311092	REC_WORD	0.725	n/a	NIEBLA	Weather	7	12	[0, 0, 0]	n/a	catFR1	4	R1499T
1305.261	1.0	1311817	REC_WORD	1.0	n/a	TORMENTA	Weather	-999	12	[0, 0, 0]	n/a	catFR1	4	R1499T
1306.261	1.471	1312817	REC_WORD	1.471	n/a	TORMENTA	Weather	-999	12	[0, 0, 0]	n/a	catFR1	4	R1499T
1307.732	1.0	1314288	REC_WORD	1.0	n/a	TORMENTA	Weather	-999	12	[0, 0, 0]	n/a	catFR1	4	R1499T
1308.732	1.787	1315288	REC_WORD	1.787	n/a	TORMENTA	Weather	-999	12	[0, 0, 0]	n/a	catFR1	4	R1499T
1310.519	5.326	1317075	REC_WORD_VV	5.326	n/a	<>	n/a	-999	12	[0, 0, 0]	n/a	catFR1	4	R1499T
1315.845	0.0	1322405	REC_END	n/a	n/a	n/a	n/a	-999	12	[0, 0, 0]	n/a	catFR1	4	R1499T
