onset	duration	sample	trial_type	response_time	stim_file	item_name	category	serialpos	list	test	answer	experiment	session	subject
0.0	0.565	96254	INSTRUCT_START	n/a	n/a	n/a	n/a	-999	-999	[0, 0, 0]	n/a	catFR1	2	R1486J
0.565	261.665	96817	INSTRUCT_END	n/a	n/a	n/a	n/a	-999	-999	[0, 0, 0]	n/a	catFR1	2	R1486J
262.23	10.367	358472	COUNTDOWN_START	n/a	n/a	n/a	n/a	-999	-999	[0, 0, 0]	n/a	catFR1	2	R1486J
272.597	0.0	368835	COUNTDOWN_END	n/a	n/a	n/a	n/a	-999	-999	[0, 0, 0]	n/a	catFR1	2	R1486J
272.597	1.95	368835	ENCODING_START	n/a	n/a	n/a	n/a	-999	-1	[0, 0, 0]	n/a	catFR1	2	R1486J
274.547	1.617	370782	WORD	n/a	n/a	MICROWAVE	Electronics	1	-1	[0, 0, 0]	n/a	catFR1	2	R1486J
276.164	0.867	372405	WORD_OFF	n/a	n/a	MICROWAVE	Electronics	1	-1	[0, 0, 0]	n/a	catFR1	2	R1486J
277.031	1.615	373269	WORD	n/a	n/a	PHONE	Electronics	2	-1	[0, 0, 0]	n/a	catFR1	2	R1486J
278.646	0.884	374885	WORD_OFF	n/a	n/a	PHONE	Electronics	2	-1	[0, 0, 0]	n/a	catFR1	2	R1486J
279.53	1.617	375764	WORD	n/a	n/a	CAKE	Desserts	3	-1	[0, 0, 0]	n/a	catFR1	2	R1486J
281.147	0.999	377388	WORD_OFF	n/a	n/a	CAKE	Desserts	3	-1	[0, 0, 0]	n/a	catFR1	2	R1486J
282.146	1.601	378387	WORD	n/a	n/a	BROWNIES	Desserts	4	-1	[0, 0, 0]	n/a	catFR1	2	R1486J
283.747	0.899	379981	WORD_OFF	n/a	n/a	BROWNIES	Desserts	4	-1	[0, 0, 0]	n/a	catFR1	2	R1486J
284.646	1.616	380882	WORD	n/a	n/a	SHORTS	Clothing	5	-1	[0, 0, 0]	n/a	catFR1	2	R1486J
286.262	0.901	382498	WORD_OFF	n/a	n/a	SHORTS	Clothing	5	-1	[0, 0, 0]	n/a	catFR1	2	R1486J
287.163	1.6	383400	WORD	n/a	n/a	JEANS	Clothing	6	-1	[0, 0, 0]	n/a	catFR1	2	R1486J
288.763	0.933	385001	WORD_OFF	n/a	n/a	JEANS	Clothing	6	-1	[0, 0, 0]	n/a	catFR1	2	R1486J
289.696	1.6	385932	WORD	n/a	n/a	COBBLER	Desserts	7	-1	[0, 0, 0]	n/a	catFR1	2	R1486J
291.296	0.951	387533	WORD_OFF	n/a	n/a	COBBLER	Desserts	7	-1	[0, 0, 0]	n/a	catFR1	2	R1486J
292.247	1.617	388480	WORD	n/a	n/a	FUDGE	Desserts	8	-1	[0, 0, 0]	n/a	catFR1	2	R1486J
293.864	0.898	390103	WORD_OFF	n/a	n/a	FUDGE	Desserts	8	-1	[0, 0, 0]	n/a	catFR1	2	R1486J
294.762	1.602	390998	WORD	n/a	n/a	TELEVISION	Electronics	9	-1	[0, 0, 0]	n/a	catFR1	2	R1486J
296.364	0.899	392598	WORD_OFF	n/a	n/a	TELEVISION	Electronics	9	-1	[0, 0, 0]	n/a	catFR1	2	R1486J
297.263	1.6	393500	WORD	n/a	n/a	PRINTER	Electronics	10	-1	[0, 0, 0]	n/a	catFR1	2	R1486J
298.863	0.832	395101	WORD_OFF	n/a	n/a	PRINTER	Electronics	10	-1	[0, 0, 0]	n/a	catFR1	2	R1486J
299.695	1.602	395935	WORD	n/a	n/a	SKIRT	Clothing	11	-1	[0, 0, 0]	n/a	catFR1	2	R1486J
301.297	0.849	397536	WORD_OFF	n/a	n/a	SKIRT	Clothing	11	-1	[0, 0, 0]	n/a	catFR1	2	R1486J
302.146	1.619	398385	WORD	n/a	n/a	JACKET	Clothing	12	-1	[0, 0, 0]	n/a	catFR1	2	R1486J
303.765	0.0	399999	PROB	0.0	n/a	n/a	n/a	-999	-1	[1, 4, 5]	10	catFR1	2	R1486J
303.764	0.004	400001	WORD_OFF	n/a	n/a	JACKET	Clothing	12	-1	[0, 0, 0]	n/a	catFR1	2	R1486J
303.768	0.0	400001	ENCODING_END	n/a	n/a	n/a	n/a	-999	-1	[0, 0, 0]	n/a	catFR1	2	R1486J
303.768	0.0	400002	START	n/a	n/a	n/a	n/a	-999	-1	[-999, -999, -999]	n/a	catFR1	2	R1486J
303.768	4.396	400008	DISTRACT_START	n/a	n/a	n/a	n/a	-999	-1	[0, 0, 0]	n/a	catFR1	2	R1486J
308.164	3.666	404398	PROB	3.666	n/a	n/a	n/a	-999	-1	[8, 5, 7]	20	catFR1	2	R1486J
311.83	3.667	408064	PROB	3.667	n/a	n/a	n/a	-999	-1	[8, 5, 2]	15	catFR1	2	R1486J
315.497	3.366	411731	PROB	3.366	n/a	n/a	n/a	-999	-1	[8, 1, 3]	12	catFR1	2	R1486J
318.863	2.066	415097	PROB	2.066	n/a	n/a	n/a	-999	-1	[1, 1, 1]	3	catFR1	2	R1486J
320.929	5.051	417163	PROB	5.051	n/a	n/a	n/a	-999	-1	[5, 3, 8]	16	catFR1	2	R1486J
325.98	0.0	422214	STOP	n/a	n/a	n/a	n/a	-999	-1	[-999, -999, -999]	n/a	catFR1	2	R1486J
325.98	1.167	422216	DISTRACT_END	n/a	n/a	n/a	n/a	-999	-1	[0, 0, 0]	n/a	catFR1	2	R1486J
327.147	0.563	423380	REC_START	n/a	n/a	n/a	n/a	-999	-1	[0, 0, 0]	n/a	catFR1	2	R1486J
327.71	0.992	423943	REC_WORD	0.992	n/a	MICROWAVE	Electronics	1	-1	[0, 0, 0]	n/a	catFR1	2	R1486J
328.702	1.66	424935	REC_WORD	1.66	n/a	PHONE	Electronics	2	-1	[0, 0, 0]	n/a	catFR1	2	R1486J
330.362	1.133	426595	REC_WORD	1.133	n/a	FUDGE	Desserts	8	-1	[0, 0, 0]	n/a	catFR1	2	R1486J
331.495	1.953	427728	REC_WORD	1.953	n/a	BROWNIES	Desserts	4	-1	[0, 0, 0]	n/a	catFR1	2	R1486J
333.448	3.442	429681	REC_WORD	3.442	n/a	COBBLER	Desserts	7	-1	[0, 0, 0]	n/a	catFR1	2	R1486J
336.89	4.732	433123	REC_WORD_VV	4.732	n/a	<>	n/a	-999	-1	[0, 0, 0]	n/a	catFR1	2	R1486J
341.622	6.362	437855	REC_WORD	6.362	n/a	CUPCAKE	n/a	-999	-1	[0, 0, 0]	n/a	catFR1	2	R1486J
347.984	1.44	444217	REC_WORD	1.44	n/a	SHORTS	Clothing	5	-1	[0, 0, 0]	n/a	catFR1	2	R1486J
349.424	2.457	445657	REC_WORD	2.457	n/a	SKIRT	Clothing	11	-1	[0, 0, 0]	n/a	catFR1	2	R1486J
351.881	5.023	448113	REC_WORD	5.023	n/a	JACKET	Clothing	12	-1	[0, 0, 0]	n/a	catFR1	2	R1486J
356.904	1.449	453136	REC_WORD_VV	1.449	n/a	<>	n/a	-999	-1	[0, 0, 0]	n/a	catFR1	2	R1486J
358.353	16.244	454590	REC_END	n/a	n/a	n/a	n/a	-999	-1	[0, 0, 0]	n/a	catFR1	2	R1486J
374.597	10.349	470831	COUNTDOWN_START	n/a	n/a	n/a	n/a	-999	1	[0, 0, 0]	n/a	catFR1	2	R1486J
384.946	0.0	481179	COUNTDOWN_END	n/a	n/a	n/a	n/a	-999	1	[0, 0, 0]	n/a	catFR1	2	R1486J
384.946	2.284	481179	ENCODING_START	n/a	n/a	n/a	n/a	-999	1	[0, 0, 0]	n/a	catFR1	2	R1486J
387.23	1.616	483464	WORD	n/a	wordpools/wordpool_categorized_EN.txt	DOLPHIN	OceanAnimals	1	1	[0, 0, 0]	n/a	catFR1	2	R1486J
388.846	0.916	485080	WORD_OFF	n/a	n/a	DOLPHIN	OceanAnimals	1	1	[0, 0, 0]	n/a	catFR1	2	R1486J
389.762	1.602	485997	WORD	n/a	wordpools/wordpool_categorized_EN.txt	TURTLE	OceanAnimals	2	1	[0, 0, 0]	n/a	catFR1	2	R1486J
391.364	0.916	487597	WORD_OFF	n/a	n/a	TURTLE	OceanAnimals	2	1	[0, 0, 0]	n/a	catFR1	2	R1486J
392.28	1.616	488514	WORD	n/a	wordpools/wordpool_categorized_EN.txt	DISHWASHER	Appliances	3	1	[0, 0, 0]	n/a	catFR1	2	R1486J
393.896	0.817	490130	WORD_OFF	n/a	n/a	DISHWASHER	Appliances	3	1	[0, 0, 0]	n/a	catFR1	2	R1486J
394.713	1.6	490949	WORD	n/a	wordpools/wordpool_categorized_EN.txt	VACUUM	Appliances	4	1	[0, 0, 0]	n/a	catFR1	2	R1486J
396.313	0.901	492542	WORD_OFF	n/a	n/a	VACUUM	Appliances	4	1	[0, 0, 0]	n/a	catFR1	2	R1486J
397.214	1.617	493444	WORD	n/a	wordpools/wordpool_categorized_EN.txt	ERASER	OfficeSupplies	5	1	[0, 0, 0]	n/a	catFR1	2	R1486J
398.831	0.932	495067	WORD_OFF	n/a	n/a	ERASER	OfficeSupplies	5	1	[0, 0, 0]	n/a	catFR1	2	R1486J
399.763	1.6	495999	WORD	n/a	wordpools/wordpool_categorized_EN.txt	RULER	OfficeSupplies	6	1	[0, 0, 0]	n/a	catFR1	2	R1486J
401.363	0.834	497592	WORD_OFF	n/a	n/a	RULER	OfficeSupplies	6	1	[0, 0, 0]	n/a	catFR1	2	R1486J
402.197	1.616	498427	WORD	n/a	wordpools/wordpool_categorized_EN.txt	OCTOPUS	OceanAnimals	7	1	[0, 0, 0]	n/a	catFR1	2	R1486J
403.813	0.783	500042	WORD_OFF	n/a	n/a	OCTOPUS	OceanAnimals	7	1	[0, 0, 0]	n/a	catFR1	2	R1486J
404.596	1.601	500824	WORD	n/a	wordpools/wordpool_categorized_EN.txt	WHALE	OceanAnimals	8	1	[0, 0, 0]	n/a	catFR1	2	R1486J
406.197	0.831	502432	WORD_OFF	n/a	n/a	WHALE	OceanAnimals	8	1	[0, 0, 0]	n/a	catFR1	2	R1486J
407.028	1.601	503259	WORD	n/a	wordpools/wordpool_categorized_EN.txt	PEN	OfficeSupplies	9	1	[0, 0, 0]	n/a	catFR1	2	R1486J
408.629	0.967	504867	WORD_OFF	n/a	n/a	PEN	OfficeSupplies	9	1	[0, 0, 0]	n/a	catFR1	2	R1486J
409.596	1.6	505829	WORD	n/a	wordpools/wordpool_categorized_EN.txt	PENCIL	OfficeSupplies	10	1	[0, 0, 0]	n/a	catFR1	2	R1486J
411.196	0.967	507430	WORD_OFF	n/a	n/a	PENCIL	OfficeSupplies	10	1	[0, 0, 0]	n/a	catFR1	2	R1486J
412.163	1.6	508392	WORD	n/a	wordpools/wordpool_categorized_EN.txt	DRYER	Appliances	11	1	[0, 0, 0]	n/a	catFR1	2	R1486J
413.763	0.867	509992	WORD_OFF	n/a	n/a	DRYER	Appliances	11	1	[0, 0, 0]	n/a	catFR1	2	R1486J
414.63	1.6	510864	WORD	n/a	wordpools/wordpool_categorized_EN.txt	TOASTER	Appliances	12	1	[0, 0, 0]	n/a	catFR1	2	R1486J
416.23	0.001	512457	WORD_OFF	n/a	n/a	TOASTER	Appliances	12	1	[0, 0, 0]	n/a	catFR1	2	R1486J
416.231	0.0	512461	START	n/a	n/a	n/a	n/a	-999	1	[-999, -999, -999]	n/a	catFR1	2	R1486J
416.231	0.0	512461	PROB	0.0	n/a	n/a	n/a	-999	1	[2, 5, 6]	13	catFR1	2	R1486J
416.231	0.0	512465	ENCODING_END	n/a	n/a	n/a	n/a	-999	1	[0, 0, 0]	n/a	catFR1	2	R1486J
416.231	4.567	512465	DISTRACT_START	n/a	n/a	n/a	n/a	-999	1	[0, 0, 0]	n/a	catFR1	2	R1486J
420.798	3.149	517028	PROB	3.149	n/a	n/a	n/a	-999	1	[2, 7, 1]	10	catFR1	2	R1486J
423.947	2.366	520177	PROB	2.366	n/a	n/a	n/a	-999	1	[3, 7, 1]	11	catFR1	2	R1486J
426.313	2.368	522542	PROB	2.368	n/a	n/a	n/a	-999	1	[1, 1, 5]	7	catFR1	2	R1486J
428.681	3.199	524910	PROB	3.199	n/a	n/a	n/a	-999	1	[1, 5, 7]	13	catFR1	2	R1486J
431.88	11.549	528109	PROB	11.549	n/a	n/a	n/a	-999	1	[6, 8, 8]	24	catFR1	2	R1486J
443.429	0.0	539658	STOP	n/a	n/a	n/a	n/a	-999	1	[-999, -999, -999]	n/a	catFR1	2	R1486J
443.429	1.3	539662	DISTRACT_END	n/a	n/a	n/a	n/a	-999	1	[0, 0, 0]	n/a	catFR1	2	R1486J
444.729	0.0	540958	REC_WORD	0.0	n/a	DISHWASHER	Appliances	3	1	[0, 0, 0]	n/a	catFR1	2	R1486J
444.729	2.114	540962	REC_START	n/a	n/a	n/a	n/a	-999	1	[0, 0, 0]	n/a	catFR1	2	R1486J
446.843	0.384	543072	REC_WORD_VV	0.384	n/a	<>	n/a	-999	1	[0, 0, 0]	n/a	catFR1	2	R1486J
447.227	1.11	543456	REC_WORD	1.11	n/a	DRYER	Appliances	11	1	[0, 0, 0]	n/a	catFR1	2	R1486J
448.337	1.9	544566	REC_WORD	1.9	n/a	WHALE	OceanAnimals	8	1	[0, 0, 0]	n/a	catFR1	2	R1486J
450.237	2.761	546465	REC_WORD	2.761	n/a	OCTOPUS	OceanAnimals	7	1	[0, 0, 0]	n/a	catFR1	2	R1486J
452.998	1.295	549226	REC_WORD	1.295	n/a	DOLPHIN	OceanAnimals	1	1	[0, 0, 0]	n/a	catFR1	2	R1486J
454.293	2.385	550521	REC_WORD	2.385	n/a	TURTLE	OceanAnimals	2	1	[0, 0, 0]	n/a	catFR1	2	R1486J
456.678	15.347	552906	REC_WORD_VV	15.347	n/a	<>	n/a	-999	1	[0, 0, 0]	n/a	catFR1	2	R1486J
472.025	2.248	568253	REC_WORD	2.248	n/a	MICROWAVE	Electronics	-999	1	[0, 0, 0]	n/a	catFR1	2	R1486J
474.273	1.621	570500	REC_WORD_VV	1.621	n/a	<>	n/a	-999	1	[0, 0, 0]	n/a	catFR1	2	R1486J
475.894	3.287	572120	REC_END	n/a	n/a	n/a	n/a	-999	1	[0, 0, 0]	n/a	catFR1	2	R1486J
479.181	10.349	575412	COUNTDOWN_START	n/a	n/a	n/a	n/a	-999	1	[0, 0, 0]	n/a	catFR1	2	R1486J
489.53	0.0	585760	COUNTDOWN_END	n/a	n/a	n/a	n/a	-999	1	[0, 0, 0]	n/a	catFR1	2	R1486J
489.53	2.001	585760	ENCODING_START	n/a	n/a	n/a	n/a	-999	2	[0, 0, 0]	n/a	catFR1	2	R1486J
491.531	1.616	587759	WORD	n/a	wordpools/wordpool_categorized_EN.txt	MARIGOLD	Flowers	1	2	[0, 0, 0]	n/a	catFR1	2	R1486J
493.147	0.817	589375	WORD_OFF	n/a	n/a	MARIGOLD	Flowers	1	2	[0, 0, 0]	n/a	catFR1	2	R1486J
493.964	1.616	590194	WORD	n/a	wordpools/wordpool_categorized_EN.txt	DAISY	Flowers	2	2	[0, 0, 0]	n/a	catFR1	2	R1486J
495.58	0.983	591810	WORD_OFF	n/a	n/a	DAISY	Flowers	2	2	[0, 0, 0]	n/a	catFR1	2	R1486J
496.563	1.616	592794	WORD	n/a	wordpools/wordpool_categorized_EN.txt	GRATER	KitchenTools	3	2	[0, 0, 0]	n/a	catFR1	2	R1486J
498.179	0.767	594410	WORD_OFF	n/a	n/a	GRATER	KitchenTools	3	2	[0, 0, 0]	n/a	catFR1	2	R1486J
498.946	1.601	595177	WORD	n/a	wordpools/wordpool_categorized_EN.txt	STRAINER	KitchenTools	4	2	[0, 0, 0]	n/a	catFR1	2	R1486J
500.547	0.915	596777	WORD_OFF	n/a	n/a	STRAINER	KitchenTools	4	2	[0, 0, 0]	n/a	catFR1	2	R1486J
501.462	1.601	597694	WORD	n/a	wordpools/wordpool_categorized_EN.txt	CHIMPANZEE	Zoo	5	2	[0, 0, 0]	n/a	catFR1	2	R1486J
503.063	0.817	599287	WORD_OFF	n/a	n/a	CHIMPANZEE	Zoo	5	2	[0, 0, 0]	n/a	catFR1	2	R1486J
503.88	1.6	600107	WORD	n/a	wordpools/wordpool_categorized_EN.txt	GORILLA	Zoo	6	2	[0, 0, 0]	n/a	catFR1	2	R1486J
505.48	0.883	601707	WORD_OFF	n/a	n/a	GORILLA	Zoo	6	2	[0, 0, 0]	n/a	catFR1	2	R1486J
506.363	1.616	602594	WORD	n/a	wordpools/wordpool_categorized_EN.txt	LILY	Flowers	7	2	[0, 0, 0]	n/a	catFR1	2	R1486J
507.979	0.784	604210	WORD_OFF	n/a	n/a	LILY	Flowers	7	2	[0, 0, 0]	n/a	catFR1	2	R1486J
508.763	1.601	604991	WORD	n/a	wordpools/wordpool_categorized_EN.txt	ROSE	Flowers	8	2	[0, 0, 0]	n/a	catFR1	2	R1486J
510.364	0.982	606592	WORD_OFF	n/a	n/a	ROSE	Flowers	8	2	[0, 0, 0]	n/a	catFR1	2	R1486J
511.346	1.601	607577	WORD	n/a	wordpools/wordpool_categorized_EN.txt	SPATULA	KitchenTools	9	2	[0, 0, 0]	n/a	catFR1	2	R1486J
512.947	0.883	609177	WORD_OFF	n/a	n/a	SPATULA	KitchenTools	9	2	[0, 0, 0]	n/a	catFR1	2	R1486J
513.83	1.616	610057	WORD	n/a	wordpools/wordpool_categorized_EN.txt	PEELER	KitchenTools	10	2	[0, 0, 0]	n/a	catFR1	2	R1486J
515.446	0.967	611672	WORD_OFF	n/a	n/a	PEELER	KitchenTools	10	2	[0, 0, 0]	n/a	catFR1	2	R1486J
516.413	1.617	612642	WORD	n/a	wordpools/wordpool_categorized_EN.txt	GIRAFFE	Zoo	11	2	[0, 0, 0]	n/a	catFR1	2	R1486J
518.03	0.8	614258	WORD_OFF	n/a	n/a	GIRAFFE	Zoo	11	2	[0, 0, 0]	n/a	catFR1	2	R1486J
518.83	1.616	615054	WORD	n/a	wordpools/wordpool_categorized_EN.txt	ZEBRA	Zoo	12	2	[0, 0, 0]	n/a	catFR1	2	R1486J
520.446	0.001	616670	WORD_OFF	n/a	n/a	ZEBRA	Zoo	12	2	[0, 0, 0]	n/a	catFR1	2	R1486J
520.447	0.0	616673	START	n/a	n/a	n/a	n/a	-999	2	[-999, -999, -999]	n/a	catFR1	2	R1486J
520.447	0.0	616673	PROB	0.0	n/a	n/a	n/a	-999	2	[3, 5, 8]	16	catFR1	2	R1486J
520.447	0.0	616678	ENCODING_END	n/a	n/a	n/a	n/a	-999	2	[0, 0, 0]	n/a	catFR1	2	R1486J
520.447	5.25	616678	DISTRACT_START	n/a	n/a	n/a	n/a	-999	2	[0, 0, 0]	n/a	catFR1	2	R1486J
525.697	3.617	621922	PROB	3.617	n/a	n/a	n/a	-999	2	[6, 8, 3]	17	catFR1	2	R1486J
529.314	2.266	625539	PROB	2.266	n/a	n/a	n/a	-999	2	[2, 1, 3]	6	catFR1	2	R1486J
531.58	2.95	627805	PROB	2.95	n/a	n/a	n/a	-999	2	[1, 3, 2]	6	catFR1	2	R1486J
534.53	3.183	630755	PROB	3.183	n/a	n/a	n/a	-999	2	[2, 7, 6]	15	catFR1	2	R1486J
537.713	3.518	633938	PROB	3.518	n/a	n/a	n/a	-999	2	[7, 4, 6]	17	catFR1	2	R1486J
541.231	0.0	637456	STOP	n/a	n/a	n/a	n/a	-999	2	[-999, -999, -999]	n/a	catFR1	2	R1486J
541.231	1.398	637457	DISTRACT_END	n/a	n/a	n/a	n/a	-999	2	[0, 0, 0]	n/a	catFR1	2	R1486J
542.629	0.139	638855	REC_START	n/a	n/a	n/a	n/a	-999	2	[0, 0, 0]	n/a	catFR1	2	R1486J
542.768	1.281	638993	REC_WORD	1.281	n/a	GIRAFFE	Zoo	11	2	[0, 0, 0]	n/a	catFR1	2	R1486J
544.049	2.316	640274	REC_WORD	2.316	n/a	ZEBRA	Zoo	12	2	[0, 0, 0]	n/a	catFR1	2	R1486J
546.365	0.405	642589	REC_WORD_VV	0.405	n/a	<>	n/a	-999	2	[0, 0, 0]	n/a	catFR1	2	R1486J
546.77	1.592	642994	REC_WORD	1.592	n/a	SPATULA	KitchenTools	9	2	[0, 0, 0]	n/a	catFR1	2	R1486J
548.362	0.991	644586	REC_WORD	0.991	n/a	PEELER	KitchenTools	10	2	[0, 0, 0]	n/a	catFR1	2	R1486J
549.353	2.297	645577	REC_WORD	2.297	n/a	STRAINER	KitchenTools	4	2	[0, 0, 0]	n/a	catFR1	2	R1486J
551.65	10.315	647874	REC_WORD_VV	10.315	n/a	<>	n/a	-999	2	[0, 0, 0]	n/a	catFR1	2	R1486J
561.965	0.999	658189	REC_WORD_VV	0.999	n/a	<>	n/a	-999	2	[0, 0, 0]	n/a	catFR1	2	R1486J
562.964	0.308	659188	REC_WORD_VV	0.308	n/a	<>	n/a	-999	2	[0, 0, 0]	n/a	catFR1	2	R1486J
563.272	0.577	659496	REC_WORD_VV	0.577	n/a	<>	n/a	-999	2	[0, 0, 0]	n/a	catFR1	2	R1486J
563.849	1.314	660073	REC_WORD	1.314	n/a	LILY	Flowers	7	2	[0, 0, 0]	n/a	catFR1	2	R1486J
565.163	1.05	661387	REC_WORD	1.05	n/a	DAISY	Flowers	2	2	[0, 0, 0]	n/a	catFR1	2	R1486J
566.213	7.583	662437	REC_WORD	7.583	n/a	MARIGOLD	Flowers	1	2	[0, 0, 0]	n/a	catFR1	2	R1486J
573.796	4.169	670020	REC_END	n/a	n/a	n/a	n/a	-999	2	[0, 0, 0]	n/a	catFR1	2	R1486J
577.965	10.35	674191	COUNTDOWN_START	n/a	n/a	n/a	n/a	-999	2	[0, 0, 0]	n/a	catFR1	2	R1486J
588.315	0.0	684539	COUNTDOWN_END	n/a	n/a	n/a	n/a	-999	2	[0, 0, 0]	n/a	catFR1	2	R1486J
588.315	2.183	684539	ENCODING_START	n/a	n/a	n/a	n/a	-999	3	[0, 0, 0]	n/a	catFR1	2	R1486J
590.498	1.6	686726	WORD	n/a	wordpools/wordpool_categorized_EN.txt	CHEESECAKE	Desserts	1	3	[0, 0, 0]	n/a	catFR1	2	R1486J
592.098	0.933	688319	WORD_OFF	n/a	n/a	CHEESECAKE	Desserts	1	3	[0, 0, 0]	n/a	catFR1	2	R1486J
593.031	1.617	689259	WORD	n/a	wordpools/wordpool_categorized_EN.txt	JELLO	Desserts	2	3	[0, 0, 0]	n/a	catFR1	2	R1486J
594.648	0.9	690875	WORD_OFF	n/a	n/a	JELLO	Desserts	2	3	[0, 0, 0]	n/a	catFR1	2	R1486J
595.548	1.6	691769	WORD	n/a	wordpools/wordpool_categorized_EN.txt	TONGS	KitchenTools	3	3	[0, 0, 0]	n/a	catFR1	2	R1486J
597.148	0.967	693370	WORD_OFF	n/a	n/a	TONGS	KitchenTools	3	3	[0, 0, 0]	n/a	catFR1	2	R1486J
598.115	1.616	694339	WORD	n/a	wordpools/wordpool_categorized_EN.txt	LADLE	KitchenTools	4	3	[0, 0, 0]	n/a	catFR1	2	R1486J
599.731	0.849	695955	WORD_OFF	n/a	n/a	LADLE	KitchenTools	4	3	[0, 0, 0]	n/a	catFR1	2	R1486J
600.58	1.6	696804	WORD	n/a	wordpools/wordpool_categorized_EN.txt	SPEAKER	Electronics	5	3	[0, 0, 0]	n/a	catFR1	2	R1486J
602.18	0.834	698405	WORD_OFF	n/a	n/a	SPEAKER	Electronics	5	3	[0, 0, 0]	n/a	catFR1	2	R1486J
603.014	1.6	699239	WORD	n/a	wordpools/wordpool_categorized_EN.txt	SCANNER	Electronics	6	3	[0, 0, 0]	n/a	catFR1	2	R1486J
604.614	0.9	700840	WORD_OFF	n/a	n/a	SCANNER	Electronics	6	3	[0, 0, 0]	n/a	catFR1	2	R1486J
605.514	1.6	701741	WORD	n/a	wordpools/wordpool_categorized_EN.txt	COLANDER	KitchenTools	7	3	[0, 0, 0]	n/a	catFR1	2	R1486J
607.114	0.802	703335	WORD_OFF	n/a	n/a	COLANDER	KitchenTools	7	3	[0, 0, 0]	n/a	catFR1	2	R1486J
607.916	1.598	704139	WORD	n/a	wordpools/wordpool_categorized_EN.txt	KNIFE	KitchenTools	8	3	[0, 0, 0]	n/a	catFR1	2	R1486J
609.514	0.817	705740	WORD_OFF	n/a	n/a	KNIFE	KitchenTools	8	3	[0, 0, 0]	n/a	catFR1	2	R1486J
610.331	1.617	706551	WORD	n/a	wordpools/wordpool_categorized_EN.txt	TABLET	Electronics	9	3	[0, 0, 0]	n/a	catFR1	2	R1486J
611.948	0.783	708174	WORD_OFF	n/a	n/a	TABLET	Electronics	9	3	[0, 0, 0]	n/a	catFR1	2	R1486J
612.731	1.6	708956	WORD	n/a	wordpools/wordpool_categorized_EN.txt	COMPUTER	Electronics	10	3	[0, 0, 0]	n/a	catFR1	2	R1486J
614.331	0.883	710557	WORD_OFF	n/a	n/a	COMPUTER	Electronics	10	3	[0, 0, 0]	n/a	catFR1	2	R1486J
615.214	1.601	711436	WORD	n/a	wordpools/wordpool_categorized_EN.txt	CUPCAKE	Desserts	11	3	[0, 0, 0]	n/a	catFR1	2	R1486J
616.815	0.783	713037	WORD_OFF	n/a	n/a	CUPCAKE	Desserts	11	3	[0, 0, 0]	n/a	catFR1	2	R1486J
617.598	1.6	713818	WORD	n/a	wordpools/wordpool_categorized_EN.txt	PUDDING	Desserts	12	3	[0, 0, 0]	n/a	catFR1	2	R1486J
619.198	0.0	715419	WORD_OFF	n/a	n/a	PUDDING	Desserts	12	3	[0, 0, 0]	n/a	catFR1	2	R1486J
619.198	0.001	715419	PROB	0.001	n/a	n/a	n/a	-999	3	[5, 2, 3]	10	catFR1	2	R1486J
619.199	0.0	715420	START	n/a	n/a	n/a	n/a	-999	3	[-999, -999, -999]	n/a	catFR1	2	R1486J
619.199	0.0	715427	ENCODING_END	n/a	n/a	n/a	n/a	-999	3	[0, 0, 0]	n/a	catFR1	2	R1486J
619.199	5.099	715427	DISTRACT_START	n/a	n/a	n/a	n/a	-999	3	[0, 0, 0]	n/a	catFR1	2	R1486J
624.298	2.5	720519	PROB	2.5	n/a	n/a	n/a	-999	3	[4, 6, 2]	12	catFR1	2	R1486J
626.798	2.999	723019	PROB	2.999	n/a	n/a	n/a	-999	3	[8, 3, 6]	17	catFR1	2	R1486J
629.797	3.051	726018	PROB	3.051	n/a	n/a	n/a	-999	3	[3, 2, 6]	11	catFR1	2	R1486J
632.848	3.95	729069	PROB	3.95	n/a	n/a	n/a	-999	3	[3, 5, 7]	15	catFR1	2	R1486J
636.798	2.983	733019	PROB	2.983	n/a	n/a	n/a	-999	3	[6, 1, 8]	15	catFR1	2	R1486J
639.781	0.0	736002	STOP	n/a	n/a	n/a	n/a	-999	3	[-999, -999, -999]	n/a	catFR1	2	R1486J
639.781	1.283	736003	DISTRACT_END	n/a	n/a	n/a	n/a	-999	3	[0, 0, 0]	n/a	catFR1	2	R1486J
641.064	0.462	737288	REC_START	n/a	n/a	n/a	n/a	-999	3	[0, 0, 0]	n/a	catFR1	2	R1486J
641.526	1.349	737747	REC_WORD	1.349	n/a	COMPUTER	Electronics	10	3	[0, 0, 0]	n/a	catFR1	2	R1486J
642.875	1.78	739095	REC_WORD	1.78	n/a	TABLET	Electronics	9	3	[0, 0, 0]	n/a	catFR1	2	R1486J
644.655	4.114	740875	REC_WORD_VV	4.114	n/a	<>	n/a	-999	3	[0, 0, 0]	n/a	catFR1	2	R1486J
648.769	12.871	744989	REC_WORD_VV	12.871	n/a	<>	n/a	-999	3	[0, 0, 0]	n/a	catFR1	2	R1486J
661.64	0.789	757860	REC_WORD	0.789	n/a	GORILLA	Zoo	-999	3	[0, 0, 0]	n/a	catFR1	2	R1486J
662.429	3.636	758649	REC_WORD	3.636	n/a	CHIMPANZEE	Zoo	-999	3	[0, 0, 0]	n/a	catFR1	2	R1486J
666.065	6.209	762285	REC_WORD_VV	6.209	n/a	<>	n/a	-999	3	[0, 0, 0]	n/a	catFR1	2	R1486J
672.274	22.556	768491	REC_END	n/a	n/a	n/a	n/a	-999	3	[0, 0, 0]	n/a	catFR1	2	R1486J
694.83	10.349	791051	COUNTDOWN_START	n/a	n/a	n/a	n/a	-999	3	[0, 0, 0]	n/a	catFR1	2	R1486J
705.179	0.0	801400	COUNTDOWN_END	n/a	n/a	n/a	n/a	-999	3	[0, 0, 0]	n/a	catFR1	2	R1486J
705.179	1.801	801400	ENCODING_START	n/a	n/a	n/a	n/a	-999	4	[0, 0, 0]	n/a	catFR1	2	R1486J
706.98	1.617	803196	WORD	n/a	wordpools/wordpool_categorized_EN.txt	ORANGUTAN	Zoo	1	4	[0, 0, 0]	n/a	catFR1	2	R1486J
708.597	0.982	804819	WORD_OFF	n/a	n/a	ORANGUTAN	Zoo	1	4	[0, 0, 0]	n/a	catFR1	2	R1486J
709.579	1.601	805796	WORD	n/a	wordpools/wordpool_categorized_EN.txt	MONKEY	Zoo	2	4	[0, 0, 0]	n/a	catFR1	2	R1486J
711.18	0.851	807397	WORD_OFF	n/a	n/a	MONKEY	Zoo	2	4	[0, 0, 0]	n/a	catFR1	2	R1486J
712.031	1.615	808254	WORD	n/a	wordpools/wordpool_categorized_EN.txt	CEDAR	Trees	3	4	[0, 0, 0]	n/a	catFR1	2	R1486J
713.646	0.967	809869	WORD_OFF	n/a	n/a	CEDAR	Trees	3	4	[0, 0, 0]	n/a	catFR1	2	R1486J
714.613	1.6	810831	WORD	n/a	wordpools/wordpool_categorized_EN.txt	BIRCH	Trees	4	4	[0, 0, 0]	n/a	catFR1	2	R1486J
716.213	0.867	812432	WORD_OFF	n/a	n/a	BIRCH	Trees	4	4	[0, 0, 0]	n/a	catFR1	2	R1486J
717.08	1.617	813296	WORD	n/a	wordpools/wordpool_categorized_EN.txt	SPOON	KitchenTools	5	4	[0, 0, 0]	n/a	catFR1	2	R1486J
718.697	0.816	814912	WORD_OFF	n/a	n/a	SPOON	KitchenTools	5	4	[0, 0, 0]	n/a	catFR1	2	R1486J
719.513	1.616	815731	WORD	n/a	wordpools/wordpool_categorized_EN.txt	FORK	KitchenTools	6	4	[0, 0, 0]	n/a	catFR1	2	R1486J
721.129	0.8	817347	WORD_OFF	n/a	n/a	FORK	KitchenTools	6	4	[0, 0, 0]	n/a	catFR1	2	R1486J
721.929	1.601	818151	WORD	n/a	wordpools/wordpool_categorized_EN.txt	EVERGREEN	Trees	7	4	[0, 0, 0]	n/a	catFR1	2	R1486J
723.53	0.85	819752	WORD_OFF	n/a	n/a	EVERGREEN	Trees	7	4	[0, 0, 0]	n/a	catFR1	2	R1486J
724.38	1.615	820601	WORD	n/a	wordpools/wordpool_categorized_EN.txt	ELM	Trees	8	4	[0, 0, 0]	n/a	catFR1	2	R1486J
725.995	0.801	822217	WORD_OFF	n/a	n/a	ELM	Trees	8	4	[0, 0, 0]	n/a	catFR1	2	R1486J
726.796	1.617	823013	WORD	n/a	wordpools/wordpool_categorized_EN.txt	WHISK	KitchenTools	9	4	[0, 0, 0]	n/a	catFR1	2	R1486J
728.413	0.984	824629	WORD_OFF	n/a	n/a	WHISK	KitchenTools	9	4	[0, 0, 0]	n/a	catFR1	2	R1486J
729.397	1.616	825614	WORD	n/a	wordpools/wordpool_categorized_EN.txt	CORKSCREW	KitchenTools	10	4	[0, 0, 0]	n/a	catFR1	2	R1486J
731.013	0.866	827229	WORD_OFF	n/a	n/a	CORKSCREW	KitchenTools	10	4	[0, 0, 0]	n/a	catFR1	2	R1486J
731.879	1.6	828101	WORD	n/a	wordpools/wordpool_categorized_EN.txt	ELEPHANT	Zoo	11	4	[0, 0, 0]	n/a	catFR1	2	R1486J
733.479	0.784	829694	WORD_OFF	n/a	n/a	ELEPHANT	Zoo	11	4	[0, 0, 0]	n/a	catFR1	2	R1486J
734.263	1.6	830483	WORD	n/a	wordpools/wordpool_categorized_EN.txt	BEAR	Zoo	12	4	[0, 0, 0]	n/a	catFR1	2	R1486J
735.863	0.001	832080	PROB	0.001	n/a	n/a	n/a	-999	4	[1, 4, 5]	10	catFR1	2	R1486J
735.864	0.0	832081	START	n/a	n/a	n/a	n/a	-999	4	[-999, -999, -999]	n/a	catFR1	2	R1486J
735.863	0.001	832084	WORD_OFF	n/a	n/a	BEAR	Zoo	12	4	[0, 0, 0]	n/a	catFR1	2	R1486J
735.864	0.0	832084	ENCODING_END	n/a	n/a	n/a	n/a	-999	4	[0, 0, 0]	n/a	catFR1	2	R1486J
735.864	3.932	832084	DISTRACT_START	n/a	n/a	n/a	n/a	-999	4	[0, 0, 0]	n/a	catFR1	2	R1486J
739.796	6.384	836012	PROB	6.384	n/a	n/a	n/a	-999	4	[5, 2, 3]	10	catFR1	2	R1486J
746.18	4.066	842396	PROB	4.066	n/a	n/a	n/a	-999	4	[8, 8, 1]	17	catFR1	2	R1486J
750.246	5.183	846462	PROB	5.183	n/a	n/a	n/a	-999	4	[6, 7, 2]	15	catFR1	2	R1486J
755.429	3.452	851645	PROB	3.452	n/a	n/a	n/a	-999	4	[8, 4, 1]	13	catFR1	2	R1486J
758.881	0.0	855096	DISTRACT_END	n/a	n/a	n/a	n/a	-999	4	[0, 0, 0]	n/a	catFR1	2	R1486J
758.881	1.3	855097	STOP	n/a	n/a	n/a	n/a	-999	4	[-999, -999, -999]	n/a	catFR1	2	R1486J
760.181	0.033	856396	REC_START	n/a	n/a	n/a	n/a	-999	4	[0, 0, 0]	n/a	catFR1	2	R1486J
760.214	0.723	856430	REC_WORD_VV	0.723	n/a	<>	n/a	-999	4	[0, 0, 0]	n/a	catFR1	2	R1486J
760.937	1.368	857153	REC_WORD	1.368	n/a	ORANGUTAN	Zoo	1	4	[0, 0, 0]	n/a	catFR1	2	R1486J
762.305	2.156	858521	REC_WORD	2.156	n/a	MONKEY	Zoo	2	4	[0, 0, 0]	n/a	catFR1	2	R1486J
764.461	1.496	860676	REC_WORD	1.496	n/a	SPOON	KitchenTools	5	4	[0, 0, 0]	n/a	catFR1	2	R1486J
765.957	2.176	862172	REC_WORD	2.176	n/a	FORK	KitchenTools	6	4	[0, 0, 0]	n/a	catFR1	2	R1486J
768.133	2.59	864348	REC_WORD	2.59	n/a	ELEPHANT	Zoo	11	4	[0, 0, 0]	n/a	catFR1	2	R1486J
770.723	3.326	866938	REC_WORD_VV	3.326	n/a	<>	n/a	-999	4	[0, 0, 0]	n/a	catFR1	2	R1486J
774.049	1.0	870264	REC_WORD_VV	1.0	n/a	<>	n/a	-999	4	[0, 0, 0]	n/a	catFR1	2	R1486J
775.049	5.232	871264	REC_WORD_VV	5.232	n/a	<>	n/a	-999	4	[0, 0, 0]	n/a	catFR1	2	R1486J
780.281	11.119	876496	REC_WORD	11.119	n/a	WHISK	KitchenTools	9	4	[0, 0, 0]	n/a	catFR1	2	R1486J
791.4	149.097	887614	REC_END	n/a	n/a	n/a	n/a	-999	4	[0, 0, 0]	n/a	catFR1	2	R1486J
940.497	10.349	1036707	COUNTDOWN_START	n/a	n/a	n/a	n/a	-999	4	[0, 0, 0]	n/a	catFR1	2	R1486J
950.846	0.0	1047055	COUNTDOWN_END	n/a	n/a	n/a	n/a	-999	4	[0, 0, 0]	n/a	catFR1	2	R1486J
950.846	2.083	1047055	ENCODING_START	n/a	n/a	n/a	n/a	-999	5	[0, 0, 0]	n/a	catFR1	2	R1486J
952.929	1.601	1049137	WORD	n/a	wordpools/wordpool_categorized_EN.txt	BASS	Instruments	1	5	[0, 0, 0]	n/a	catFR1	2	R1486J
954.53	0.85	1050737	WORD_OFF	n/a	n/a	BASS	Instruments	1	5	[0, 0, 0]	n/a	catFR1	2	R1486J
955.38	1.601	1051587	WORD	n/a	wordpools/wordpool_categorized_EN.txt	PIANO	Instruments	2	5	[0, 0, 0]	n/a	catFR1	2	R1486J
956.981	0.766	1053187	WORD_OFF	n/a	n/a	PIANO	Instruments	2	5	[0, 0, 0]	n/a	catFR1	2	R1486J
957.747	1.6	1053954	WORD	n/a	wordpools/wordpool_categorized_EN.txt	JUICE	Beverages	3	5	[0, 0, 0]	n/a	catFR1	2	R1486J
959.347	0.8	1055555	WORD_OFF	n/a	n/a	JUICE	Beverages	3	5	[0, 0, 0]	n/a	catFR1	2	R1486J
960.147	1.599	1056359	WORD	n/a	wordpools/wordpool_categorized_EN.txt	BEER	Beverages	4	5	[0, 0, 0]	n/a	catFR1	2	R1486J
961.746	0.867	1057959	WORD_OFF	n/a	n/a	BEER	Beverages	4	5	[0, 0, 0]	n/a	catFR1	2	R1486J
962.613	1.601	1058824	WORD	n/a	wordpools/wordpool_categorized_EN.txt	APPLE	Fruit	5	5	[0, 0, 0]	n/a	catFR1	2	R1486J
964.214	0.916	1060424	WORD_OFF	n/a	n/a	APPLE	Fruit	5	5	[0, 0, 0]	n/a	catFR1	2	R1486J
965.13	1.616	1061341	WORD	n/a	wordpools/wordpool_categorized_EN.txt	PEACH	Fruit	6	5	[0, 0, 0]	n/a	catFR1	2	R1486J
966.746	0.8	1062957	WORD_OFF	n/a	n/a	PEACH	Fruit	6	5	[0, 0, 0]	n/a	catFR1	2	R1486J
967.546	1.617	1063754	WORD	n/a	wordpools/wordpool_categorized_EN.txt	TRUMPET	Instruments	7	5	[0, 0, 0]	n/a	catFR1	2	R1486J
969.163	0.95	1065369	WORD_OFF	n/a	n/a	TRUMPET	Instruments	7	5	[0, 0, 0]	n/a	catFR1	2	R1486J
970.113	1.6	1066324	WORD	n/a	wordpools/wordpool_categorized_EN.txt	FLUTE	Instruments	8	5	[0, 0, 0]	n/a	catFR1	2	R1486J
971.713	1.0	1067925	WORD_OFF	n/a	n/a	FLUTE	Instruments	8	5	[0, 0, 0]	n/a	catFR1	2	R1486J
972.713	1.6	1068924	WORD	n/a	wordpools/wordpool_categorized_EN.txt	LEMONADE	Beverages	9	5	[0, 0, 0]	n/a	catFR1	2	R1486J
974.313	0.85	1070525	WORD_OFF	n/a	n/a	LEMONADE	Beverages	9	5	[0, 0, 0]	n/a	catFR1	2	R1486J
975.163	1.601	1071374	WORD	n/a	wordpools/wordpool_categorized_EN.txt	COFFEE	Beverages	10	5	[0, 0, 0]	n/a	catFR1	2	R1486J
976.764	0.766	1072975	WORD_OFF	n/a	n/a	COFFEE	Beverages	10	5	[0, 0, 0]	n/a	catFR1	2	R1486J
977.53	1.617	1073741	WORD	n/a	wordpools/wordpool_categorized_EN.txt	LEMON	Fruit	11	5	[0, 0, 0]	n/a	catFR1	2	R1486J
979.147	0.782	1075357	WORD_OFF	n/a	n/a	LEMON	Fruit	11	5	[0, 0, 0]	n/a	catFR1	2	R1486J
979.929	1.602	1076139	WORD	n/a	wordpools/wordpool_categorized_EN.txt	BANANA	Fruit	12	5	[0, 0, 0]	n/a	catFR1	2	R1486J
981.531	0.0	1077737	START	n/a	n/a	n/a	n/a	-999	5	[-999, -999, -999]	n/a	catFR1	2	R1486J
981.531	0.0	1077737	PROB	0.0	n/a	n/a	n/a	-999	5	[2, 8, 8]	18	catFR1	2	R1486J
981.53	0.001	1077739	WORD_OFF	n/a	n/a	BANANA	Fruit	12	5	[0, 0, 0]	n/a	catFR1	2	R1486J
981.531	0.0	1077739	ENCODING_END	n/a	n/a	n/a	n/a	-999	5	[0, 0, 0]	n/a	catFR1	2	R1486J
981.531	3.866	1077739	DISTRACT_START	n/a	n/a	n/a	n/a	-999	5	[0, 0, 0]	n/a	catFR1	2	R1486J
985.397	3.266	1081603	PROB	3.266	n/a	n/a	n/a	-999	5	[4, 2, 4]	10	catFR1	2	R1486J
988.663	2.417	1084869	PROB	2.417	n/a	n/a	n/a	-999	5	[2, 6, 3]	11	catFR1	2	R1486J
991.08	3.2	1087286	PROB	3.2	n/a	n/a	n/a	-999	5	[4, 4, 3]	11	catFR1	2	R1486J
994.28	5.334	1090486	PROB	5.334	n/a	n/a	n/a	-999	5	[4, 7, 2]	13	catFR1	2	R1486J
999.614	3.382	1095820	PROB	3.382	n/a	n/a	n/a	-999	5	[4, 3, 3]	10	catFR1	2	R1486J
1002.996	0.0	1099202	STOP	n/a	n/a	n/a	n/a	-999	5	[-999, -999, -999]	n/a	catFR1	2	R1486J
1002.996	1.217	1099203	DISTRACT_END	n/a	n/a	n/a	n/a	-999	5	[0, 0, 0]	n/a	catFR1	2	R1486J
1004.213	0.691	1100420	REC_START	n/a	n/a	n/a	n/a	-999	5	[0, 0, 0]	n/a	catFR1	2	R1486J
1004.904	0.975	1101110	REC_WORD	0.975	n/a	APPLE	Fruit	5	5	[0, 0, 0]	n/a	catFR1	2	R1486J
1005.879	1.777	1102084	REC_WORD	1.777	n/a	PEACH	Fruit	6	5	[0, 0, 0]	n/a	catFR1	2	R1486J
1007.656	4.317	1103861	REC_WORD_VV	4.317	n/a	<>	n/a	-999	5	[0, 0, 0]	n/a	catFR1	2	R1486J
1011.973	2.766	1108178	REC_WORD	2.766	n/a	FLUTE	Instruments	8	5	[0, 0, 0]	n/a	catFR1	2	R1486J
1014.739	2.39	1110944	REC_WORD	2.39	n/a	BASS	Instruments	1	5	[0, 0, 0]	n/a	catFR1	2	R1486J
1017.129	0.711	1113334	REC_WORD	0.711	n/a	PIANO	Instruments	2	5	[0, 0, 0]	n/a	catFR1	2	R1486J
1017.84	4.621	1114045	REC_WORD	4.621	n/a	TRUMPET	Instruments	7	5	[0, 0, 0]	n/a	catFR1	2	R1486J
1022.461	3.735	1118666	REC_WORD_VV	3.735	n/a	<>	n/a	-999	5	[0, 0, 0]	n/a	catFR1	2	R1486J
1026.196	0.895	1122401	REC_WORD	0.895	n/a	LEMON	Fruit	11	5	[0, 0, 0]	n/a	catFR1	2	R1486J
1027.091	4.556	1123296	REC_WORD	4.556	n/a	LEMONADE	Beverages	9	5	[0, 0, 0]	n/a	catFR1	2	R1486J
1031.647	3.798	1127851	REC_WORD_VV	3.798	n/a	<>	n/a	-999	5	[0, 0, 0]	n/a	catFR1	2	R1486J
1035.445	2.003	1131653	REC_END	n/a	n/a	n/a	n/a	-999	5	[0, 0, 0]	n/a	catFR1	2	R1486J
1037.448	10.349	1133660	COUNTDOWN_START	n/a	n/a	n/a	n/a	-999	5	[0, 0, 0]	n/a	catFR1	2	R1486J
1047.797	0.0	1144000	COUNTDOWN_END	n/a	n/a	n/a	n/a	-999	5	[0, 0, 0]	n/a	catFR1	2	R1486J
1047.797	1.933	1144008	ENCODING_START	n/a	n/a	n/a	n/a	-999	6	[0, 0, 0]	n/a	catFR1	2	R1486J
1049.73	1.6	1145932	WORD	n/a	wordpools/wordpool_categorized_EN.txt	BROCCOLI	Vegetables	1	6	[0, 0, 0]	n/a	catFR1	2	R1486J
1051.33	0.85	1147533	WORD_OFF	n/a	n/a	BROCCOLI	Vegetables	1	6	[0, 0, 0]	n/a	catFR1	2	R1486J
1052.18	1.617	1148382	WORD	n/a	wordpools/wordpool_categorized_EN.txt	ONION	Vegetables	2	6	[0, 0, 0]	n/a	catFR1	2	R1486J
1053.797	0.916	1150005	WORD_OFF	n/a	n/a	ONION	Vegetables	2	6	[0, 0, 0]	n/a	catFR1	2	R1486J
1054.713	1.6	1150922	WORD	n/a	wordpools/wordpool_categorized_EN.txt	ARM	BodyParts	3	6	[0, 0, 0]	n/a	catFR1	2	R1486J
1056.313	0.851	1152515	WORD_OFF	n/a	n/a	ARM	BodyParts	3	6	[0, 0, 0]	n/a	catFR1	2	R1486J
1057.164	1.615	1153372	WORD	n/a	wordpools/wordpool_categorized_EN.txt	NOSE	BodyParts	4	6	[0, 0, 0]	n/a	catFR1	2	R1486J
1058.779	0.818	1154980	WORD_OFF	n/a	n/a	NOSE	BodyParts	4	6	[0, 0, 0]	n/a	catFR1	2	R1486J
1059.597	1.617	1155800	WORD	n/a	wordpools/wordpool_categorized_EN.txt	CROW	Birds	5	6	[0, 0, 0]	n/a	catFR1	2	R1486J
1061.214	0.866	1157422	WORD_OFF	n/a	n/a	CROW	Birds	5	6	[0, 0, 0]	n/a	catFR1	2	R1486J
1062.08	1.6	1158287	WORD	n/a	wordpools/wordpool_categorized_EN.txt	FINCH	Birds	6	6	[0, 0, 0]	n/a	catFR1	2	R1486J
1063.68	0.8	1159887	WORD_OFF	n/a	n/a	FINCH	Birds	6	6	[0, 0, 0]	n/a	catFR1	2	R1486J
1064.48	1.616	1160684	WORD	n/a	wordpools/wordpool_categorized_EN.txt	LETTUCE	Vegetables	7	6	[0, 0, 0]	n/a	catFR1	2	R1486J
1066.096	0.984	1162300	WORD_OFF	n/a	n/a	LETTUCE	Vegetables	7	6	[0, 0, 0]	n/a	catFR1	2	R1486J
1067.08	1.6	1163284	WORD	n/a	wordpools/wordpool_categorized_EN.txt	CAULIFLOWER	Vegetables	8	6	[0, 0, 0]	n/a	catFR1	2	R1486J
1068.68	0.834	1164885	WORD_OFF	n/a	n/a	CAULIFLOWER	Vegetables	8	6	[0, 0, 0]	n/a	catFR1	2	R1486J
1069.514	1.616	1165719	WORD	n/a	wordpools/wordpool_categorized_EN.txt	EAR	BodyParts	9	6	[0, 0, 0]	n/a	catFR1	2	R1486J
1071.13	0.766	1167335	WORD_OFF	n/a	n/a	EAR	BodyParts	9	6	[0, 0, 0]	n/a	catFR1	2	R1486J
1071.896	1.6	1168101	WORD	n/a	wordpools/wordpool_categorized_EN.txt	EYE	BodyParts	10	6	[0, 0, 0]	n/a	catFR1	2	R1486J
1073.496	0.917	1169702	WORD_OFF	n/a	n/a	EYE	BodyParts	10	6	[0, 0, 0]	n/a	catFR1	2	R1486J
1074.413	1.616	1170619	WORD	n/a	wordpools/wordpool_categorized_EN.txt	CARDINAL	Birds	11	6	[0, 0, 0]	n/a	catFR1	2	R1486J
1076.029	0.985	1172235	WORD_OFF	n/a	n/a	CARDINAL	Birds	11	6	[0, 0, 0]	n/a	catFR1	2	R1486J
1077.014	1.616	1173219	WORD	n/a	wordpools/wordpool_categorized_EN.txt	ROBIN	Birds	12	6	[0, 0, 0]	n/a	catFR1	2	R1486J
1078.63	0.001	1174832	PROB	0.001	n/a	n/a	n/a	-999	6	[5, 2, 7]	14	catFR1	2	R1486J
1078.631	0.0	1174833	START	n/a	n/a	n/a	n/a	-999	6	[-999, -999, -999]	n/a	catFR1	2	R1486J
1078.63	0.001	1174835	WORD_OFF	n/a	n/a	ROBIN	Birds	12	6	[0, 0, 0]	n/a	catFR1	2	R1486J
1078.631	0.0	1174835	ENCODING_END	n/a	n/a	n/a	n/a	-999	6	[0, 0, 0]	n/a	catFR1	2	R1486J
1078.631	6.181	1174835	DISTRACT_START	n/a	n/a	n/a	n/a	-999	6	[0, 0, 0]	n/a	catFR1	2	R1486J
1084.812	5.75	1181014	PROB	5.75	n/a	n/a	n/a	-999	6	[7, 3, 5]	15	catFR1	2	R1486J
1090.562	3.451	1186764	PROB	3.451	n/a	n/a	n/a	-999	6	[8, 5, 7]	20	catFR1	2	R1486J
1094.013	4.068	1190215	PROB	4.068	n/a	n/a	n/a	-999	6	[4, 7, 5]	16	catFR1	2	R1486J
1098.081	3.615	1194283	PROB	3.615	n/a	n/a	n/a	-999	6	[4, 7, 6]	17	catFR1	2	R1486J
1101.696	0.0	1197898	STOP	n/a	n/a	n/a	n/a	-999	6	[-999, -999, -999]	n/a	catFR1	2	R1486J
1101.696	1.4	1197899	DISTRACT_END	n/a	n/a	n/a	n/a	-999	6	[0, 0, 0]	n/a	catFR1	2	R1486J
1103.096	2.5	1199297	REC_START	n/a	n/a	n/a	n/a	-999	6	[0, 0, 0]	n/a	catFR1	2	R1486J
1105.596	1.001	1201797	REC_WORD	1.001	n/a	EYE	BodyParts	10	6	[0, 0, 0]	n/a	catFR1	2	R1486J
1106.597	1.622	1202798	REC_WORD	1.622	n/a	NOSE	BodyParts	4	6	[0, 0, 0]	n/a	catFR1	2	R1486J
1108.219	1.254	1204420	REC_WORD	1.254	n/a	EAR	BodyParts	9	6	[0, 0, 0]	n/a	catFR1	2	R1486J
1109.473	2.821	1205674	REC_WORD	2.821	n/a	ARM	BodyParts	3	6	[0, 0, 0]	n/a	catFR1	2	R1486J
1112.294	3.058	1208495	REC_WORD_VV	3.058	n/a	<>	n/a	-999	6	[0, 0, 0]	n/a	catFR1	2	R1486J
1115.352	2.41	1211553	REC_WORD	2.41	n/a	LETTUCE	Vegetables	7	6	[0, 0, 0]	n/a	catFR1	2	R1486J
1117.762	1.774	1213963	REC_WORD	1.774	n/a	CAULIFLOWER	Vegetables	8	6	[0, 0, 0]	n/a	catFR1	2	R1486J
1119.536	3.019	1215737	REC_WORD	3.019	n/a	BROCCOLI	Vegetables	1	6	[0, 0, 0]	n/a	catFR1	2	R1486J
1122.555	11.768	1218756	REC_WORD_VV	11.768	n/a	<>	n/a	-999	6	[0, 0, 0]	n/a	catFR1	2	R1486J
1134.323	231.19	1230522	REC_END	n/a	n/a	n/a	n/a	-999	6	[0, 0, 0]	n/a	catFR1	2	R1486J
1365.513	10.35	1461711	COUNTDOWN_START	n/a	n/a	n/a	n/a	-999	6	[0, 0, 0]	n/a	catFR1	2	R1486J
1375.863	0.0	1472059	COUNTDOWN_END	n/a	n/a	n/a	n/a	-999	6	[0, 0, 0]	n/a	catFR1	2	R1486J
1375.863	1.967	1472059	ENCODING_START	n/a	n/a	n/a	n/a	-999	7	[0, 0, 0]	n/a	catFR1	2	R1486J
1377.83	1.6	1474021	WORD	n/a	wordpools/wordpool_categorized_EN.txt	IRON	Appliances	1	7	[0, 0, 0]	n/a	catFR1	2	R1486J
1379.43	0.9	1475621	WORD_OFF	n/a	n/a	IRON	Appliances	1	7	[0, 0, 0]	n/a	catFR1	2	R1486J
1380.33	1.616	1476523	WORD	n/a	wordpools/wordpool_categorized_EN.txt	FREEZER	Appliances	2	7	[0, 0, 0]	n/a	catFR1	2	R1486J
1381.946	0.951	1478146	WORD_OFF	n/a	n/a	FREEZER	Appliances	2	7	[0, 0, 0]	n/a	catFR1	2	R1486J
1382.897	1.615	1479086	WORD	n/a	wordpools/wordpool_categorized_EN.txt	TIGER	Zoo	3	7	[0, 0, 0]	n/a	catFR1	2	R1486J
1384.512	0.834	1480702	WORD_OFF	n/a	n/a	TIGER	Zoo	3	7	[0, 0, 0]	n/a	catFR1	2	R1486J
1385.346	1.618	1481536	WORD	n/a	wordpools/wordpool_categorized_EN.txt	PANDA	Zoo	4	7	[0, 0, 0]	n/a	catFR1	2	R1486J
1386.964	0.833	1483159	WORD_OFF	n/a	n/a	PANDA	Zoo	4	7	[0, 0, 0]	n/a	catFR1	2	R1486J
1387.797	1.6	1483986	WORD	n/a	wordpools/wordpool_categorized_EN.txt	LEG	BodyParts	5	7	[0, 0, 0]	n/a	catFR1	2	R1486J
1389.397	0.815	1485586	WORD_OFF	n/a	n/a	LEG	BodyParts	5	7	[0, 0, 0]	n/a	catFR1	2	R1486J
1390.212	1.601	1486406	WORD	n/a	wordpools/wordpool_categorized_EN.txt	KNEE	BodyParts	6	7	[0, 0, 0]	n/a	catFR1	2	R1486J
1391.813	0.917	1488006	WORD_OFF	n/a	n/a	KNEE	BodyParts	6	7	[0, 0, 0]	n/a	catFR1	2	R1486J
1392.73	1.616	1488923	WORD	n/a	wordpools/wordpool_categorized_EN.txt	CHEETAH	Zoo	7	7	[0, 0, 0]	n/a	catFR1	2	R1486J
1394.346	0.783	1490539	WORD_OFF	n/a	n/a	CHEETAH	Zoo	7	7	[0, 0, 0]	n/a	catFR1	2	R1486J
1395.129	1.601	1491320	WORD	n/a	wordpools/wordpool_categorized_EN.txt	LION	Zoo	8	7	[0, 0, 0]	n/a	catFR1	2	R1486J
1396.73	1.0	1492921	WORD_OFF	n/a	n/a	LION	Zoo	8	7	[0, 0, 0]	n/a	catFR1	2	R1486J
1397.73	1.6	1493921	WORD	n/a	wordpools/wordpool_categorized_EN.txt	FINGERS	BodyParts	9	7	[0, 0, 0]	n/a	catFR1	2	R1486J
1399.33	0.866	1495521	WORD_OFF	n/a	n/a	FINGERS	BodyParts	9	7	[0, 0, 0]	n/a	catFR1	2	R1486J
1400.196	1.616	1496386	WORD	n/a	wordpools/wordpool_categorized_EN.txt	HEAD	BodyParts	10	7	[0, 0, 0]	n/a	catFR1	2	R1486J
1401.812	0.851	1498001	WORD_OFF	n/a	n/a	HEAD	BodyParts	10	7	[0, 0, 0]	n/a	catFR1	2	R1486J
1402.663	1.617	1498851	WORD	n/a	wordpools/wordpool_categorized_EN.txt	MIXER	Appliances	11	7	[0, 0, 0]	n/a	catFR1	2	R1486J
1404.28	0.799	1500474	WORD_OFF	n/a	n/a	MIXER	Appliances	11	7	[0, 0, 0]	n/a	catFR1	2	R1486J
1405.079	1.602	1501271	WORD	n/a	wordpools/wordpool_categorized_EN.txt	REFRIGERATOR	Appliances	12	7	[0, 0, 0]	n/a	catFR1	2	R1486J
1406.681	0.0	1502870	PROB	0.0	n/a	n/a	n/a	-999	7	[4, 3, 1]	8	catFR1	2	R1486J
1406.68	0.002	1502871	WORD_OFF	n/a	n/a	REFRIGERATOR	Appliances	12	7	[0, 0, 0]	n/a	catFR1	2	R1486J
1406.682	0.0	1502871	ENCODING_END	n/a	n/a	n/a	n/a	-999	7	[0, 0, 0]	n/a	catFR1	2	R1486J
1406.682	0.0	1502871	START	n/a	n/a	n/a	n/a	-999	7	[-999, -999, -999]	n/a	catFR1	2	R1486J
1406.682	5.131	1502879	DISTRACT_START	n/a	n/a	n/a	n/a	-999	7	[0, 0, 0]	n/a	catFR1	2	R1486J
1411.813	2.217	1508002	PROB	2.217	n/a	n/a	n/a	-999	7	[3, 3, 1]	7	catFR1	2	R1486J
1414.03	2.984	1510219	PROB	2.984	n/a	n/a	n/a	-999	7	[1, 7, 1]	9	catFR1	2	R1486J
1417.014	2.65	1513202	PROB	2.65	n/a	n/a	n/a	-999	7	[1, 6, 3]	10	catFR1	2	R1486J
1419.664	2.516	1515852	PROB	2.516	n/a	n/a	n/a	-999	7	[1, 1, 4]	6	catFR1	2	R1486J
1422.18	3.783	1518368	PROB	3.783	n/a	n/a	n/a	-999	7	[6, 6, 5]	17	catFR1	2	R1486J
1425.963	2.616	1522151	PROB	2.616	n/a	n/a	n/a	-999	7	[7, 8, 1]	16	catFR1	2	R1486J
1428.579	0.0	1524767	STOP	n/a	n/a	n/a	n/a	-999	7	[-999, -999, -999]	n/a	catFR1	2	R1486J
1428.579	1.401	1524770	DISTRACT_END	n/a	n/a	n/a	n/a	-999	7	[0, 0, 0]	n/a	catFR1	2	R1486J
1429.98	0.269	1526168	REC_START	n/a	n/a	n/a	n/a	-999	7	[0, 0, 0]	n/a	catFR1	2	R1486J
1430.249	1.317	1526437	REC_WORD	1.317	n/a	MIXER	Appliances	11	7	[0, 0, 0]	n/a	catFR1	2	R1486J
1431.566	1.89	1527754	REC_WORD	1.89	n/a	REFRIGERATOR	Appliances	12	7	[0, 0, 0]	n/a	catFR1	2	R1486J
1433.456	1.439	1529644	REC_WORD	1.439	n/a	IRON	Appliances	1	7	[0, 0, 0]	n/a	catFR1	2	R1486J
1434.895	2.709	1531083	REC_WORD	2.709	n/a	TIGER	Zoo	3	7	[0, 0, 0]	n/a	catFR1	2	R1486J
1437.604	0.658	1533792	REC_WORD_VV	0.658	n/a	<>	n/a	-999	7	[0, 0, 0]	n/a	catFR1	2	R1486J
1438.262	2.726	1534450	REC_WORD	2.726	n/a	PANDA	Zoo	4	7	[0, 0, 0]	n/a	catFR1	2	R1486J
1440.988	7.054	1537176	REC_WORD_VV	7.054	n/a	<>	n/a	-999	7	[0, 0, 0]	n/a	catFR1	2	R1486J
1448.042	3.506	1544229	REC_WORD	3.506	n/a	DISHWASHER	Appliances	-999	7	[0, 0, 0]	n/a	catFR1	2	R1486J
1451.548	1.0	1547735	REC_WORD_VV	1.0	n/a	<>	n/a	-999	7	[0, 0, 0]	n/a	catFR1	2	R1486J
1452.548	1.0	1548735	REC_WORD_VV	1.0	n/a	<>	n/a	-999	7	[0, 0, 0]	n/a	catFR1	2	R1486J
1453.548	2.148	1549735	REC_WORD_VV	2.148	n/a	<>	n/a	-999	7	[0, 0, 0]	n/a	catFR1	2	R1486J
1455.696	3.542	1551883	REC_WORD_VV	3.542	n/a	<>	n/a	-999	7	[0, 0, 0]	n/a	catFR1	2	R1486J
1459.238	1.963	1555425	REC_WORD_VV	1.963	n/a	<>	n/a	-999	7	[0, 0, 0]	n/a	catFR1	2	R1486J
1461.201	15.547	1557386	REC_END	n/a	n/a	n/a	n/a	-999	7	[0, 0, 0]	n/a	catFR1	2	R1486J
1476.748	10.349	1572942	COUNTDOWN_START	n/a	n/a	n/a	n/a	-999	7	[0, 0, 0]	n/a	catFR1	2	R1486J
1487.097	0.0	1583283	COUNTDOWN_END	n/a	n/a	n/a	n/a	-999	7	[0, 0, 0]	n/a	catFR1	2	R1486J
1487.097	2.034	1583283	ENCODING_START	n/a	n/a	n/a	n/a	-999	8	[0, 0, 0]	n/a	catFR1	2	R1486J
1489.131	1.616	1585320	WORD	n/a	wordpools/wordpool_categorized_EN.txt	FOOT	BodyParts	1	8	[0, 0, 0]	n/a	catFR1	2	R1486J
1490.747	0.851	1586936	WORD_OFF	n/a	n/a	FOOT	BodyParts	1	8	[0, 0, 0]	n/a	catFR1	2	R1486J
1491.598	1.6	1587785	WORD	n/a	wordpools/wordpool_categorized_EN.txt	HAND	BodyParts	2	8	[0, 0, 0]	n/a	catFR1	2	R1486J
1493.198	0.932	1589386	WORD_OFF	n/a	n/a	HAND	BodyParts	2	8	[0, 0, 0]	n/a	catFR1	2	R1486J
1494.13	1.601	1590318	WORD	n/a	wordpools/wordpool_categorized_EN.txt	ANT	Insects	3	8	[0, 0, 0]	n/a	catFR1	2	R1486J
1495.731	0.95	1591918	WORD_OFF	n/a	n/a	ANT	Insects	3	8	[0, 0, 0]	n/a	catFR1	2	R1486J
1496.681	1.615	1592865	WORD	n/a	wordpools/wordpool_categorized_EN.txt	ROACH	Insects	4	8	[0, 0, 0]	n/a	catFR1	2	R1486J
1498.296	0.852	1594481	WORD_OFF	n/a	n/a	ROACH	Insects	4	8	[0, 0, 0]	n/a	catFR1	2	R1486J
1499.148	1.6	1595338	WORD	n/a	wordpools/wordpool_categorized_EN.txt	SPARROW	Birds	5	8	[0, 0, 0]	n/a	catFR1	2	R1486J
1500.748	0.883	1596931	WORD_OFF	n/a	n/a	SPARROW	Birds	5	8	[0, 0, 0]	n/a	catFR1	2	R1486J
1501.631	1.617	1597818	WORD	n/a	wordpools/wordpool_categorized_EN.txt	PIGEON	Birds	6	8	[0, 0, 0]	n/a	catFR1	2	R1486J
1503.248	0.8	1599433	WORD_OFF	n/a	n/a	PIGEON	Birds	6	8	[0, 0, 0]	n/a	catFR1	2	R1486J
1504.048	1.617	1600238	WORD	n/a	wordpools/wordpool_categorized_EN.txt	ELBOW	BodyParts	7	8	[0, 0, 0]	n/a	catFR1	2	R1486J
1505.665	0.949	1601853	WORD_OFF	n/a	n/a	ELBOW	BodyParts	7	8	[0, 0, 0]	n/a	catFR1	2	R1486J
1506.614	1.616	1602800	WORD	n/a	wordpools/wordpool_categorized_EN.txt	TOE	BodyParts	8	8	[0, 0, 0]	n/a	catFR1	2	R1486J
1508.23	0.933	1604416	WORD_OFF	n/a	n/a	TOE	BodyParts	8	8	[0, 0, 0]	n/a	catFR1	2	R1486J
1509.163	1.602	1605348	WORD	n/a	wordpools/wordpool_categorized_EN.txt	GOOSE	Birds	9	8	[0, 0, 0]	n/a	catFR1	2	R1486J
1510.765	0.999	1606949	WORD_OFF	n/a	n/a	GOOSE	Birds	9	8	[0, 0, 0]	n/a	catFR1	2	R1486J
1511.764	1.601	1607948	WORD	n/a	wordpools/wordpool_categorized_EN.txt	HAWK	Birds	10	8	[0, 0, 0]	n/a	catFR1	2	R1486J
1513.365	0.866	1609549	WORD_OFF	n/a	n/a	HAWK	Birds	10	8	[0, 0, 0]	n/a	catFR1	2	R1486J
1514.231	1.617	1610421	WORD	n/a	wordpools/wordpool_categorized_EN.txt	MOTH	Insects	11	8	[0, 0, 0]	n/a	catFR1	2	R1486J
1515.848	0.848	1612036	WORD_OFF	n/a	n/a	MOTH	Insects	11	8	[0, 0, 0]	n/a	catFR1	2	R1486J
1516.696	1.601	1612886	WORD	n/a	wordpools/wordpool_categorized_EN.txt	BEE	Insects	12	8	[0, 0, 0]	n/a	catFR1	2	R1486J
1518.297	0.002	1614481	PROB	0.002	n/a	n/a	n/a	-999	8	[8, 4, 3]	15	catFR1	2	R1486J
1518.299	0.0	1614483	START	n/a	n/a	n/a	n/a	-999	8	[-999, -999, -999]	n/a	catFR1	2	R1486J
1518.297	0.002	1614486	WORD_OFF	n/a	n/a	BEE	Insects	12	8	[0, 0, 0]	n/a	catFR1	2	R1486J
1518.299	0.0	1614486	ENCODING_END	n/a	n/a	n/a	n/a	-999	8	[0, 0, 0]	n/a	catFR1	2	R1486J
1518.299	5.915	1614486	DISTRACT_START	n/a	n/a	n/a	n/a	-999	8	[0, 0, 0]	n/a	catFR1	2	R1486J
1524.214	3.283	1620398	PROB	3.283	n/a	n/a	n/a	-999	8	[7, 8, 5]	20	catFR1	2	R1486J
1527.497	3.1	1623681	PROB	3.1	n/a	n/a	n/a	-999	8	[5, 4, 1]	10	catFR1	2	R1486J
1530.597	3.333	1626781	PROB	3.333	n/a	n/a	n/a	-999	8	[4, 3, 8]	15	catFR1	2	R1486J
1533.93	3.134	1630114	PROB	3.134	n/a	n/a	n/a	-999	8	[1, 7, 2]	10	catFR1	2	R1486J
1537.064	4.016	1633248	PROB	4.016	n/a	n/a	n/a	-999	8	[7, 7, 6]	20	catFR1	2	R1486J
1541.08	0.0	1637263	STOP	n/a	n/a	n/a	n/a	-999	8	[-999, -999, -999]	n/a	catFR1	2	R1486J
1541.08	1.132	1637265	DISTRACT_END	n/a	n/a	n/a	n/a	-999	8	[0, 0, 0]	n/a	catFR1	2	R1486J
1542.212	3.642	1638399	REC_START	n/a	n/a	n/a	n/a	-999	8	[0, 0, 0]	n/a	catFR1	2	R1486J
1545.854	3.208	1642037	REC_WORD	3.208	n/a	FOOT	BodyParts	1	8	[0, 0, 0]	n/a	catFR1	2	R1486J
1549.062	1.924	1645245	REC_WORD	1.924	n/a	KNEE	BodyParts	-999	8	[0, 0, 0]	n/a	catFR1	2	R1486J
1550.986	5.822	1647169	REC_WORD	5.822	n/a	MOTH	Insects	11	8	[0, 0, 0]	n/a	catFR1	2	R1486J
1556.808	0.999	1652991	REC_WORD	0.999	n/a	SPARROW	Birds	5	8	[0, 0, 0]	n/a	catFR1	2	R1486J
1557.807	1.335	1653990	REC_WORD_VV	1.335	n/a	<>	n/a	-999	8	[0, 0, 0]	n/a	catFR1	2	R1486J
1559.142	0.819	1655325	REC_WORD_VV	0.819	n/a	<>	n/a	-999	8	[0, 0, 0]	n/a	catFR1	2	R1486J
1559.961	2.263	1656144	REC_WORD_VV	2.263	n/a	<>	n/a	-999	8	[0, 0, 0]	n/a	catFR1	2	R1486J
1562.224	0.974	1658406	REC_WORD	0.974	n/a	ANT	Insects	3	8	[0, 0, 0]	n/a	catFR1	2	R1486J
1563.198	2.402	1659380	REC_WORD	2.402	n/a	ROACH	Insects	4	8	[0, 0, 0]	n/a	catFR1	2	R1486J
1565.6	1.0	1661782	REC_WORD_VV	1.0	n/a	<>	n/a	-999	8	[0, 0, 0]	n/a	catFR1	2	R1486J
1566.6	3.187	1662782	REC_WORD_VV	3.187	n/a	<>	n/a	-999	8	[0, 0, 0]	n/a	catFR1	2	R1486J
1569.787	0.435	1665969	REC_WORD_VV	0.435	n/a	<>	n/a	-999	8	[0, 0, 0]	n/a	catFR1	2	R1486J
1570.222	3.205	1666404	REC_WORD	3.205	n/a	PIGEON	Birds	6	8	[0, 0, 0]	n/a	catFR1	2	R1486J
1573.427	123.403	1669610	REC_END	n/a	n/a	n/a	n/a	-999	8	[0, 0, 0]	n/a	catFR1	2	R1486J
1696.83	10.349	1793009	COUNTDOWN_START	n/a	n/a	n/a	n/a	-999	8	[0, 0, 0]	n/a	catFR1	2	R1486J
1707.179	0.0	1803357	COUNTDOWN_END	n/a	n/a	n/a	n/a	-999	8	[0, 0, 0]	n/a	catFR1	2	R1486J
1707.179	2.217	1803357	ENCODING_START	n/a	n/a	n/a	n/a	-999	9	[0, 0, 0]	n/a	catFR1	2	R1486J
1709.396	1.601	1805574	WORD	n/a	wordpools/wordpool_categorized_EN.txt	PAPER	OfficeSupplies	1	9	[0, 0, 0]	n/a	catFR1	2	R1486J
1710.997	1.0	1807175	WORD_OFF	n/a	n/a	PAPER	OfficeSupplies	1	9	[0, 0, 0]	n/a	catFR1	2	R1486J
1711.997	1.616	1808174	WORD	n/a	wordpools/wordpool_categorized_EN.txt	FOLDER	OfficeSupplies	2	9	[0, 0, 0]	n/a	catFR1	2	R1486J
1713.613	0.984	1809790	WORD_OFF	n/a	n/a	FOLDER	OfficeSupplies	2	9	[0, 0, 0]	n/a	catFR1	2	R1486J
1714.597	1.615	1810774	WORD	n/a	wordpools/wordpool_categorized_EN.txt	PUZZLE	Toys	3	9	[0, 0, 0]	n/a	catFR1	2	R1486J
1716.212	0.817	1812390	WORD_OFF	n/a	n/a	PUZZLE	Toys	3	9	[0, 0, 0]	n/a	catFR1	2	R1486J
1717.029	1.617	1813209	WORD	n/a	wordpools/wordpool_categorized_EN.txt	BLOCKS	Toys	4	9	[0, 0, 0]	n/a	catFR1	2	R1486J
1718.646	0.833	1814825	WORD_OFF	n/a	n/a	BLOCKS	Toys	4	9	[0, 0, 0]	n/a	catFR1	2	R1486J
1719.479	1.601	1815659	WORD	n/a	wordpools/wordpool_categorized_EN.txt	VALLEY	Landscapes	5	9	[0, 0, 0]	n/a	catFR1	2	R1486J
1721.08	0.783	1817260	WORD_OFF	n/a	n/a	VALLEY	Landscapes	5	9	[0, 0, 0]	n/a	catFR1	2	R1486J
1721.863	1.6	1818042	WORD	n/a	wordpools/wordpool_categorized_EN.txt	FOREST	Landscapes	6	9	[0, 0, 0]	n/a	catFR1	2	R1486J
1723.463	0.85	1819642	WORD_OFF	n/a	n/a	FOREST	Landscapes	6	9	[0, 0, 0]	n/a	catFR1	2	R1486J
1724.313	1.601	1820491	WORD	n/a	wordpools/wordpool_categorized_EN.txt	GLUE	OfficeSupplies	7	9	[0, 0, 0]	n/a	catFR1	2	R1486J
1725.914	0.781	1822092	WORD_OFF	n/a	n/a	GLUE	OfficeSupplies	7	9	[0, 0, 0]	n/a	catFR1	2	R1486J
1726.695	1.602	1822874	WORD	n/a	wordpools/wordpool_categorized_EN.txt	BINDER	OfficeSupplies	8	9	[0, 0, 0]	n/a	catFR1	2	R1486J
1728.297	0.885	1824474	WORD_OFF	n/a	n/a	BINDER	OfficeSupplies	8	9	[0, 0, 0]	n/a	catFR1	2	R1486J
1729.182	1.615	1825361	WORD	n/a	wordpools/wordpool_categorized_EN.txt	FOOTBALL	Toys	9	9	[0, 0, 0]	n/a	catFR1	2	R1486J
1730.797	0.999	1826977	WORD_OFF	n/a	n/a	FOOTBALL	Toys	9	9	[0, 0, 0]	n/a	catFR1	2	R1486J
1731.796	1.6	1827977	WORD	n/a	wordpools/wordpool_categorized_EN.txt	FRISBEE	Toys	10	9	[0, 0, 0]	n/a	catFR1	2	R1486J
1733.396	1.0	1829577	WORD_OFF	n/a	n/a	FRISBEE	Toys	10	9	[0, 0, 0]	n/a	catFR1	2	R1486J
1734.396	1.601	1830577	WORD	n/a	wordpools/wordpool_categorized_EN.txt	OCEAN	Landscapes	11	9	[0, 0, 0]	n/a	catFR1	2	R1486J
1735.997	0.784	1832178	WORD_OFF	n/a	n/a	OCEAN	Landscapes	11	9	[0, 0, 0]	n/a	catFR1	2	R1486J
1736.781	1.617	1832959	WORD	n/a	wordpools/wordpool_categorized_EN.txt	ISLAND	Landscapes	12	9	[0, 0, 0]	n/a	catFR1	2	R1486J
1738.398	0.0	1834573	PROB	0.0	n/a	n/a	n/a	-999	9	[8, 8, 5]	21	catFR1	2	R1486J
1738.397	0.006	1834575	WORD_OFF	n/a	n/a	ISLAND	Landscapes	12	9	[0, 0, 0]	n/a	catFR1	2	R1486J
1738.403	0.0	1834578	START	n/a	n/a	n/a	n/a	-999	9	[-999, -999, -999]	n/a	catFR1	2	R1486J
1738.403	0.0	1834582	ENCODING_END	n/a	n/a	n/a	n/a	-999	9	[0, 0, 0]	n/a	catFR1	2	R1486J
1738.403	4.494	1834582	DISTRACT_START	n/a	n/a	n/a	n/a	-999	9	[0, 0, 0]	n/a	catFR1	2	R1486J
1742.897	3.217	1839072	PROB	3.217	n/a	n/a	n/a	-999	9	[1, 1, 3]	5	catFR1	2	R1486J
1746.114	2.883	1842289	PROB	2.883	n/a	n/a	n/a	-999	9	[6, 6, 8]	20	catFR1	2	R1486J
1748.997	3.101	1845172	PROB	3.101	n/a	n/a	n/a	-999	9	[2, 1, 8]	11	catFR1	2	R1486J
1752.098	1.948	1848273	PROB	1.948	n/a	n/a	n/a	-999	9	[1, 1, 2]	3	catFR1	2	R1486J
1754.046	3.952	1850221	PROB	3.952	n/a	n/a	n/a	-999	9	[1, 1, 7]	9	catFR1	2	R1486J
1757.998	3.198	1854172	PROB	3.198	n/a	n/a	n/a	-999	9	[1, 3, 6]	10	catFR1	2	R1486J
1761.196	0.0	1857368	DISTRACT_END	n/a	n/a	n/a	n/a	-999	9	[0, 0, 0]	n/a	catFR1	2	R1486J
1761.196	1.033	1857370	STOP	n/a	n/a	n/a	n/a	-999	9	[-999, -999, -999]	n/a	catFR1	2	R1486J
1762.229	0.296	1858405	REC_START	n/a	n/a	n/a	n/a	-999	9	[0, 0, 0]	n/a	catFR1	2	R1486J
1762.525	0.744	1858699	REC_WORD	0.744	n/a	FRISBEE	Toys	10	9	[0, 0, 0]	n/a	catFR1	2	R1486J
1763.269	1.119	1859443	REC_WORD	1.119	n/a	FOOTBALL	Toys	9	9	[0, 0, 0]	n/a	catFR1	2	R1486J
1764.388	5.436	1860562	REC_WORD	5.436	n/a	OCEAN	Landscapes	11	9	[0, 0, 0]	n/a	catFR1	2	R1486J
1769.824	1.674	1865998	REC_WORD	1.674	n/a	PAPER	OfficeSupplies	1	9	[0, 0, 0]	n/a	catFR1	2	R1486J
1771.498	4.496	1867672	REC_WORD	4.496	n/a	BINDER	OfficeSupplies	8	9	[0, 0, 0]	n/a	catFR1	2	R1486J
1775.994	12.009	1872168	REC_WORD_VV	12.009	n/a	<>	n/a	-999	9	[0, 0, 0]	n/a	catFR1	2	R1486J
1788.003	0.667	1884176	REC_WORD_VV	0.667	n/a	<>	n/a	-999	9	[0, 0, 0]	n/a	catFR1	2	R1486J
1788.67	0.441	1884843	REC_WORD	0.441	n/a	PAPER	OfficeSupplies	1	9	[0, 0, 0]	n/a	catFR1	2	R1486J
1789.111	0.739	1885284	REC_WORD	0.739	n/a	BINDER	OfficeSupplies	8	9	[0, 0, 0]	n/a	catFR1	2	R1486J
1789.85	1.197	1886023	REC_WORD_VV	1.197	n/a	<>	n/a	-999	9	[0, 0, 0]	n/a	catFR1	2	R1486J
1791.047	2.403	1887220	REC_WORD	2.403	n/a	ERASER	OfficeSupplies	-999	9	[0, 0, 0]	n/a	catFR1	2	R1486J
1793.45	94.096	1889623	REC_END	n/a	n/a	n/a	n/a	-999	9	[0, 0, 0]	n/a	catFR1	2	R1486J
1887.546	10.351	1983720	COUNTDOWN_START	n/a	n/a	n/a	n/a	-999	9	[0, 0, 0]	n/a	catFR1	2	R1486J
1897.897	0.0	1994069	COUNTDOWN_END	n/a	n/a	n/a	n/a	-999	9	[0, 0, 0]	n/a	catFR1	2	R1486J
1897.897	1.882	1994069	ENCODING_START	n/a	n/a	n/a	n/a	-999	10	[0, 0, 0]	n/a	catFR1	2	R1486J
1899.779	1.601	1995948	WORD	n/a	wordpools/wordpool_categorized_EN.txt	MOPED	Vehicles	1	10	[0, 0, 0]	n/a	catFR1	2	R1486J
1901.38	0.8	1997548	WORD_OFF	n/a	n/a	MOPED	Vehicles	1	10	[0, 0, 0]	n/a	catFR1	2	R1486J
1902.18	1.616	1998352	WORD	n/a	wordpools/wordpool_categorized_EN.txt	TRUCK	Vehicles	2	10	[0, 0, 0]	n/a	catFR1	2	R1486J
1903.796	0.916	1999968	WORD_OFF	n/a	n/a	TRUCK	Vehicles	2	10	[0, 0, 0]	n/a	catFR1	2	R1486J
1904.712	1.6	2000885	WORD	n/a	wordpools/wordpool_categorized_EN.txt	STEREO	Electronics	3	10	[0, 0, 0]	n/a	catFR1	2	R1486J
1906.312	0.967	2002486	WORD_OFF	n/a	n/a	STEREO	Electronics	3	10	[0, 0, 0]	n/a	catFR1	2	R1486J
1907.279	1.601	2003448	WORD	n/a	wordpools/wordpool_categorized_EN.txt	RADIO	Electronics	4	10	[0, 0, 0]	n/a	catFR1	2	R1486J
1908.88	0.8	2005048	WORD_OFF	n/a	n/a	RADIO	Electronics	4	10	[0, 0, 0]	n/a	catFR1	2	R1486J
1909.68	1.616	2005853	WORD	n/a	wordpools/wordpool_categorized_EN.txt	CLOUD	Weather	5	10	[0, 0, 0]	n/a	catFR1	2	R1486J
1911.296	0.899	2007468	WORD_OFF	n/a	n/a	CLOUD	Weather	5	10	[0, 0, 0]	n/a	catFR1	2	R1486J
1912.195	1.6	2008363	WORD	n/a	wordpools/wordpool_categorized_EN.txt	LIGHTNING	Weather	6	10	[0, 0, 0]	n/a	catFR1	2	R1486J
1913.795	0.817	2009963	WORD_OFF	n/a	n/a	LIGHTNING	Weather	6	10	[0, 0, 0]	n/a	catFR1	2	R1486J
1914.612	1.6	2010783	WORD	n/a	wordpools/wordpool_categorized_EN.txt	VAN	Vehicles	7	10	[0, 0, 0]	n/a	catFR1	2	R1486J
1916.212	0.785	2012383	WORD_OFF	n/a	n/a	VAN	Vehicles	7	10	[0, 0, 0]	n/a	catFR1	2	R1486J
1916.997	1.6	2013165	WORD	n/a	wordpools/wordpool_categorized_EN.txt	MOTORCYCLE	Vehicles	8	10	[0, 0, 0]	n/a	catFR1	2	R1486J
1918.597	0.965	2014766	WORD_OFF	n/a	n/a	MOTORCYCLE	Vehicles	8	10	[0, 0, 0]	n/a	catFR1	2	R1486J
1919.562	1.601	2015735	WORD	n/a	wordpools/wordpool_categorized_EN.txt	SNOW	Weather	9	10	[0, 0, 0]	n/a	catFR1	2	R1486J
1921.163	0.817	2017336	WORD_OFF	n/a	n/a	SNOW	Weather	9	10	[0, 0, 0]	n/a	catFR1	2	R1486J
1921.98	1.6	2018147	WORD	n/a	wordpools/wordpool_categorized_EN.txt	HUMIDITY	Weather	10	10	[0, 0, 0]	n/a	catFR1	2	R1486J
1923.58	0.784	2019748	WORD_OFF	n/a	n/a	HUMIDITY	Weather	10	10	[0, 0, 0]	n/a	catFR1	2	R1486J
1924.364	1.616	2020530	WORD	n/a	wordpools/wordpool_categorized_EN.txt	CALCULATOR	Electronics	11	10	[0, 0, 0]	n/a	catFR1	2	R1486J
1925.98	0.9	2022153	WORD_OFF	n/a	n/a	CALCULATOR	Electronics	11	10	[0, 0, 0]	n/a	catFR1	2	R1486J
1926.88	1.616	2023047	WORD	n/a	wordpools/wordpool_categorized_EN.txt	HEADPHONES	Electronics	12	10	[0, 0, 0]	n/a	catFR1	2	R1486J
1928.496	0.001	2024663	WORD_OFF	n/a	n/a	HEADPHONES	Electronics	12	10	[0, 0, 0]	n/a	catFR1	2	R1486J
1928.497	0.0	2024664	START	n/a	n/a	n/a	n/a	-999	10	[-999, -999, -999]	n/a	catFR1	2	R1486J
1928.497	0.0	2024664	PROB	0.0	n/a	n/a	n/a	-999	10	[3, 6, 5]	14	catFR1	2	R1486J
1928.497	0.0	2024671	ENCODING_END	n/a	n/a	n/a	n/a	-999	10	[0, 0, 0]	n/a	catFR1	2	R1486J
1928.497	4.301	2024671	DISTRACT_START	n/a	n/a	n/a	n/a	-999	10	[0, 0, 0]	n/a	catFR1	2	R1486J
1932.798	2.448	2028965	PROB	2.448	n/a	n/a	n/a	-999	10	[7, 1, 3]	11	catFR1	2	R1486J
1935.246	3.183	2031413	PROB	3.183	n/a	n/a	n/a	-999	10	[3, 3, 6]	12	catFR1	2	R1486J
1938.429	2.351	2034596	PROB	2.351	n/a	n/a	n/a	-999	10	[4, 1, 1]	6	catFR1	2	R1486J
1940.78	3.634	2036947	PROB	3.634	n/a	n/a	n/a	-999	10	[3, 5, 3]	11	catFR1	2	R1486J
1944.414	3.666	2040581	PROB	3.666	n/a	n/a	n/a	-999	10	[3, 8, 6]	17	catFR1	2	R1486J
1948.08	4.849	2044247	PROB	4.849	n/a	n/a	n/a	-999	10	[4, 2, 2]	8	catFR1	2	R1486J
1952.929	0.0	2049095	DISTRACT_END	n/a	n/a	n/a	n/a	-999	10	[0, 0, 0]	n/a	catFR1	2	R1486J
1952.929	1.101	2049095	STOP	n/a	n/a	n/a	n/a	-999	10	[-999, -999, -999]	n/a	catFR1	2	R1486J
1954.03	0.639	2050199	REC_START	n/a	n/a	n/a	n/a	-999	10	[0, 0, 0]	n/a	catFR1	2	R1486J
1954.669	1.408	2050835	REC_WORD	1.408	n/a	CLOUD	Weather	5	10	[0, 0, 0]	n/a	catFR1	2	R1486J
1956.077	0.707	2052243	REC_WORD_VV	0.707	n/a	<>	n/a	-999	10	[0, 0, 0]	n/a	catFR1	2	R1486J
1956.784	1.074	2052950	REC_WORD	1.074	n/a	MOPED	Vehicles	1	10	[0, 0, 0]	n/a	catFR1	2	R1486J
1957.858	2.785	2054024	REC_WORD	2.785	n/a	VAN	Vehicles	7	10	[0, 0, 0]	n/a	catFR1	2	R1486J
1960.643	1.792	2056809	REC_WORD_VV	1.792	n/a	<>	n/a	-999	10	[0, 0, 0]	n/a	catFR1	2	R1486J
1962.435	3.453	2058601	REC_WORD	3.453	n/a	TRUCK	Vehicles	2	10	[0, 0, 0]	n/a	catFR1	2	R1486J
1965.888	0.313	2062054	REC_WORD_VV	0.313	n/a	<>	n/a	-999	10	[0, 0, 0]	n/a	catFR1	2	R1486J
1966.201	1.051	2062367	REC_WORD	1.051	n/a	CLOUD	Weather	5	10	[0, 0, 0]	n/a	catFR1	2	R1486J
1967.252	1.0	2063418	REC_WORD_VV	1.0	n/a	<>	n/a	-999	10	[0, 0, 0]	n/a	catFR1	2	R1486J
1968.252	8.555	2064418	REC_WORD_VV	8.555	n/a	<>	n/a	-999	10	[0, 0, 0]	n/a	catFR1	2	R1486J
1976.807	8.443	2072972	REC_WORD	8.443	n/a	CALCULATOR	Electronics	11	10	[0, 0, 0]	n/a	catFR1	2	R1486J
1985.25	95.096	2081417	REC_END	n/a	n/a	n/a	n/a	-999	10	[0, 0, 0]	n/a	catFR1	2	R1486J
2080.346	10.35	2176514	COUNTDOWN_START	n/a	n/a	n/a	n/a	-999	10	[0, 0, 0]	n/a	catFR1	2	R1486J
2090.696	0.0	2186855	COUNTDOWN_END	n/a	n/a	n/a	n/a	-999	10	[0, 0, 0]	n/a	catFR1	2	R1486J
2090.696	2.033	2186862	ENCODING_START	n/a	n/a	n/a	n/a	-999	11	[0, 0, 0]	n/a	catFR1	2	R1486J
2092.729	1.617	2188892	WORD	n/a	wordpools/wordpool_categorized_EN.txt	STOVE	Appliances	1	11	[0, 0, 0]	n/a	catFR1	2	R1486J
2094.346	0.833	2190507	WORD_OFF	n/a	n/a	STOVE	Appliances	1	11	[0, 0, 0]	n/a	catFR1	2	R1486J
2095.179	1.6	2191341	WORD	n/a	wordpools/wordpool_categorized_EN.txt	WASHER	Appliances	2	11	[0, 0, 0]	n/a	catFR1	2	R1486J
2096.779	0.967	2192942	WORD_OFF	n/a	n/a	WASHER	Appliances	2	11	[0, 0, 0]	n/a	catFR1	2	R1486J
2097.746	1.616	2193912	WORD	n/a	wordpools/wordpool_categorized_EN.txt	GRAPE	Fruit	3	11	[0, 0, 0]	n/a	catFR1	2	R1486J
2099.362	0.834	2195527	WORD_OFF	n/a	n/a	GRAPE	Fruit	3	11	[0, 0, 0]	n/a	catFR1	2	R1486J
2100.196	1.6	2196362	WORD	n/a	wordpools/wordpool_categorized_EN.txt	BLUEBERRY	Fruit	4	11	[0, 0, 0]	n/a	catFR1	2	R1486J
2101.796	1.0	2197955	WORD_OFF	n/a	n/a	BLUEBERRY	Fruit	4	11	[0, 0, 0]	n/a	catFR1	2	R1486J
2102.796	1.616	2198954	WORD	n/a	wordpools/wordpool_categorized_EN.txt	CIDER	Beverages	5	11	[0, 0, 0]	n/a	catFR1	2	R1486J
2104.412	0.917	2200578	WORD_OFF	n/a	n/a	CIDER	Beverages	5	11	[0, 0, 0]	n/a	catFR1	2	R1486J
2105.329	1.616	2201494	WORD	n/a	wordpools/wordpool_categorized_EN.txt	WINE	Beverages	6	11	[0, 0, 0]	n/a	catFR1	2	R1486J
2106.945	0.901	2203110	WORD_OFF	n/a	n/a	WINE	Beverages	6	11	[0, 0, 0]	n/a	catFR1	2	R1486J
2107.846	1.601	2204004	WORD	n/a	wordpools/wordpool_categorized_EN.txt	BLENDER	Appliances	7	11	[0, 0, 0]	n/a	catFR1	2	R1486J
2109.447	0.967	2205605	WORD_OFF	n/a	n/a	BLENDER	Appliances	7	11	[0, 0, 0]	n/a	catFR1	2	R1486J
2110.414	1.616	2206575	WORD	n/a	wordpools/wordpool_categorized_EN.txt	OVEN	Appliances	8	11	[0, 0, 0]	n/a	catFR1	2	R1486J
2112.03	0.951	2208190	WORD_OFF	n/a	n/a	OVEN	Appliances	8	11	[0, 0, 0]	n/a	catFR1	2	R1486J
2112.981	1.6	2209145	WORD	n/a	wordpools/wordpool_categorized_EN.txt	LIME	Fruit	9	11	[0, 0, 0]	n/a	catFR1	2	R1486J
2114.581	0.982	2210746	WORD_OFF	n/a	n/a	LIME	Fruit	9	11	[0, 0, 0]	n/a	catFR1	2	R1486J
2115.563	1.616	2211723	WORD	n/a	wordpools/wordpool_categorized_EN.txt	CHERRY	Fruit	10	11	[0, 0, 0]	n/a	catFR1	2	R1486J
2117.179	0.834	2213338	WORD_OFF	n/a	n/a	CHERRY	Fruit	10	11	[0, 0, 0]	n/a	catFR1	2	R1486J
2118.013	1.6	2214172	WORD	n/a	wordpools/wordpool_categorized_EN.txt	SODA	Beverages	11	11	[0, 0, 0]	n/a	catFR1	2	R1486J
2119.613	0.816	2215773	WORD_OFF	n/a	n/a	SODA	Beverages	11	11	[0, 0, 0]	n/a	catFR1	2	R1486J
2120.429	1.601	2216592	WORD	n/a	wordpools/wordpool_categorized_EN.txt	MILK	Beverages	12	11	[0, 0, 0]	n/a	catFR1	2	R1486J
2122.03	0.001	2218189	PROB	0.001	n/a	n/a	n/a	-999	11	[2, 3, 8]	13	catFR1	2	R1486J
2122.031	0.0	2218190	START	n/a	n/a	n/a	n/a	-999	11	[-999, -999, -999]	n/a	catFR1	2	R1486J
2122.03	0.001	2218193	WORD_OFF	n/a	n/a	MILK	Beverages	12	11	[0, 0, 0]	n/a	catFR1	2	R1486J
2122.031	0.0	2218193	ENCODING_END	n/a	n/a	n/a	n/a	-999	11	[0, 0, 0]	n/a	catFR1	2	R1486J
2122.031	4.749	2218193	DISTRACT_START	n/a	n/a	n/a	n/a	-999	11	[0, 0, 0]	n/a	catFR1	2	R1486J
2126.78	9.234	2222939	PROB	9.234	n/a	n/a	n/a	-999	11	[2, 4, 7]	13	catFR1	2	R1486J
2136.014	4.1	2232173	PROB	4.1	n/a	n/a	n/a	-999	11	[4, 8, 7]	19	catFR1	2	R1486J
2140.114	2.833	2236273	PROB	2.833	n/a	n/a	n/a	-999	11	[3, 3, 3]	9	catFR1	2	R1486J
2142.947	0.0	2239106	STOP	n/a	n/a	n/a	n/a	-999	11	[-999, -999, -999]	n/a	catFR1	2	R1486J
2142.947	1.315	2239108	DISTRACT_END	n/a	n/a	n/a	n/a	-999	11	[0, 0, 0]	n/a	catFR1	2	R1486J
2144.262	0.041	2240423	REC_START	n/a	n/a	n/a	n/a	-999	11	[0, 0, 0]	n/a	catFR1	2	R1486J
2144.303	0.443	2240461	REC_WORD_VV	0.443	n/a	<>	n/a	-999	11	[0, 0, 0]	n/a	catFR1	2	R1486J
2144.746	1.383	2240904	REC_WORD	1.383	n/a	SODA	Beverages	11	11	[0, 0, 0]	n/a	catFR1	2	R1486J
2146.129	1.832	2242287	REC_WORD	1.832	n/a	MILK	Beverages	12	11	[0, 0, 0]	n/a	catFR1	2	R1486J
2147.961	4.607	2244119	REC_WORD_VV	4.607	n/a	<>	n/a	-999	11	[0, 0, 0]	n/a	catFR1	2	R1486J
2152.568	1.658	2248726	REC_WORD	1.658	n/a	STOVE	Appliances	1	11	[0, 0, 0]	n/a	catFR1	2	R1486J
2154.226	2.49	2250384	REC_WORD	2.49	n/a	OVEN	Appliances	8	11	[0, 0, 0]	n/a	catFR1	2	R1486J
2156.716	6.655	2252874	REC_WORD_VV	6.655	n/a	<>	n/a	-999	11	[0, 0, 0]	n/a	catFR1	2	R1486J
2163.371	1.148	2259529	REC_WORD_VV	1.148	n/a	<>	n/a	-999	11	[0, 0, 0]	n/a	catFR1	2	R1486J
2164.519	2.775	2260677	REC_WORD	2.775	n/a	BLUEBERRY	Fruit	4	11	[0, 0, 0]	n/a	catFR1	2	R1486J
2167.294	3.242	2263451	REC_WORD_VV	3.242	n/a	<>	n/a	-999	11	[0, 0, 0]	n/a	catFR1	2	R1486J
2170.536	4.961	2266693	REC_WORD	4.961	n/a	GRAPE	Fruit	3	11	[0, 0, 0]	n/a	catFR1	2	R1486J
2175.497	10.784	2271656	REC_END	n/a	n/a	n/a	n/a	-999	11	[0, 0, 0]	n/a	catFR1	2	R1486J
2186.281	10.35	2282440	COUNTDOWN_START	n/a	n/a	n/a	n/a	-999	11	[0, 0, 0]	n/a	catFR1	2	R1486J
2196.631	0.0	2292788	COUNTDOWN_END	n/a	n/a	n/a	n/a	-999	11	[0, 0, 0]	n/a	catFR1	2	R1486J
2196.631	1.85	2292788	ENCODING_START	n/a	n/a	n/a	n/a	-999	12	[0, 0, 0]	n/a	catFR1	2	R1486J
2198.481	1.616	2294637	WORD	n/a	wordpools/wordpool_categorized_EN.txt	TEA	Beverages	1	12	[0, 0, 0]	n/a	catFR1	2	R1486J
2200.097	0.867	2296253	WORD_OFF	n/a	n/a	TEA	Beverages	1	12	[0, 0, 0]	n/a	catFR1	2	R1486J
2200.964	1.616	2297125	WORD	n/a	wordpools/wordpool_categorized_EN.txt	WATER	Beverages	2	12	[0, 0, 0]	n/a	catFR1	2	R1486J
2202.58	0.817	2298740	WORD_OFF	n/a	n/a	WATER	Beverages	2	12	[0, 0, 0]	n/a	catFR1	2	R1486J
2203.397	1.616	2299552	WORD	n/a	wordpools/wordpool_categorized_EN.txt	PLANE	Vehicles	3	12	[0, 0, 0]	n/a	catFR1	2	R1486J
2205.013	0.834	2301175	WORD_OFF	n/a	n/a	PLANE	Vehicles	3	12	[0, 0, 0]	n/a	catFR1	2	R1486J
2205.847	1.616	2302002	WORD	n/a	wordpools/wordpool_categorized_EN.txt	BUS	Vehicles	4	12	[0, 0, 0]	n/a	catFR1	2	R1486J
2207.463	0.767	2303618	WORD_OFF	n/a	n/a	BUS	Vehicles	4	12	[0, 0, 0]	n/a	catFR1	2	R1486J
2208.23	1.6	2304384	WORD	n/a	wordpools/wordpool_categorized_EN.txt	VIOLIN	Instruments	5	12	[0, 0, 0]	n/a	catFR1	2	R1486J
2209.83	0.85	2305985	WORD_OFF	n/a	n/a	VIOLIN	Instruments	5	12	[0, 0, 0]	n/a	catFR1	2	R1486J
2210.68	1.616	2306834	WORD	n/a	wordpools/wordpool_categorized_EN.txt	CELLO	Instruments	6	12	[0, 0, 0]	n/a	catFR1	2	R1486J
2212.296	0.784	2308458	WORD_OFF	n/a	n/a	CELLO	Instruments	6	12	[0, 0, 0]	n/a	catFR1	2	R1486J
2213.08	1.617	2309239	WORD	n/a	wordpools/wordpool_categorized_EN.txt	COLA	Beverages	7	12	[0, 0, 0]	n/a	catFR1	2	R1486J
2214.697	0.833	2310855	WORD_OFF	n/a	n/a	COLA	Beverages	7	12	[0, 0, 0]	n/a	catFR1	2	R1486J
2215.53	1.6	2311689	WORD	n/a	wordpools/wordpool_categorized_EN.txt	RUM	Beverages	8	12	[0, 0, 0]	n/a	catFR1	2	R1486J
2217.13	0.95	2313290	WORD_OFF	n/a	n/a	RUM	Beverages	8	12	[0, 0, 0]	n/a	catFR1	2	R1486J
2218.08	1.6	2314237	WORD	n/a	wordpools/wordpool_categorized_EN.txt	BIKE	Vehicles	9	12	[0, 0, 0]	n/a	catFR1	2	R1486J
2219.68	0.965	2315837	WORD_OFF	n/a	n/a	BIKE	Vehicles	9	12	[0, 0, 0]	n/a	catFR1	2	R1486J
2220.645	1.602	2316799	WORD	n/a	wordpools/wordpool_categorized_EN.txt	BOAT	Vehicles	10	12	[0, 0, 0]	n/a	catFR1	2	R1486J
2222.247	0.8	2318400	WORD_OFF	n/a	n/a	BOAT	Vehicles	10	12	[0, 0, 0]	n/a	catFR1	2	R1486J
2223.047	1.6	2319204	WORD	n/a	wordpools/wordpool_categorized_EN.txt	DRUM	Instruments	11	12	[0, 0, 0]	n/a	catFR1	2	R1486J
2224.647	0.967	2320805	WORD_OFF	n/a	n/a	DRUM	Instruments	11	12	[0, 0, 0]	n/a	catFR1	2	R1486J
2225.614	1.6	2321774	WORD	n/a	wordpools/wordpool_categorized_EN.txt	ORGAN	Instruments	12	12	[0, 0, 0]	n/a	catFR1	2	R1486J
2227.214	0.004	2323369	PROB	0.004	n/a	n/a	n/a	-999	12	[5, 4, 5]	14	catFR1	2	R1486J
2227.218	0.0	2323373	START	n/a	n/a	n/a	n/a	-999	12	[-999, -999, -999]	n/a	catFR1	2	R1486J
2227.214	0.004	2323375	WORD_OFF	n/a	n/a	ORGAN	Instruments	12	12	[0, 0, 0]	n/a	catFR1	2	R1486J
2227.218	0.0	2323375	ENCODING_END	n/a	n/a	n/a	n/a	-999	12	[0, 0, 0]	n/a	catFR1	2	R1486J
2227.218	4.596	2323375	DISTRACT_START	n/a	n/a	n/a	n/a	-999	12	[0, 0, 0]	n/a	catFR1	2	R1486J
2231.814	2.65	2327969	PROB	2.65	n/a	n/a	n/a	-999	12	[5, 5, 2]	12	catFR1	2	R1486J
2234.464	3.083	2330619	PROB	3.083	n/a	n/a	n/a	-999	12	[7, 7, 4]	18	catFR1	2	R1486J
2237.547	3.715	2333702	PROB	3.715	n/a	n/a	n/a	-999	12	[3, 2, 2]	7	catFR1	2	R1486J
2241.262	3.734	2337416	PROB	3.734	n/a	n/a	n/a	-999	12	[3, 5, 7]	15	catFR1	2	R1486J
2244.996	2.933	2341150	PROB	2.933	n/a	n/a	n/a	-999	12	[6, 3, 1]	10	catFR1	2	R1486J
2247.929	0.0	2344083	STOP	n/a	n/a	n/a	n/a	-999	12	[-999, -999, -999]	n/a	catFR1	2	R1486J
2247.929	1.068	2344087	DISTRACT_END	n/a	n/a	n/a	n/a	-999	12	[0, 0, 0]	n/a	catFR1	2	R1486J
2248.997	1.341	2345154	REC_START	n/a	n/a	n/a	n/a	-999	12	[0, 0, 0]	n/a	catFR1	2	R1486J
2250.338	1.269	2346492	REC_WORD	1.269	n/a	VIOLIN	Instruments	5	12	[0, 0, 0]	n/a	catFR1	2	R1486J
2251.607	2.249	2347761	REC_WORD	2.249	n/a	CELLO	Instruments	6	12	[0, 0, 0]	n/a	catFR1	2	R1486J
2253.856	7.956	2350010	REC_WORD_VV	7.956	n/a	<>	n/a	-999	12	[0, 0, 0]	n/a	catFR1	2	R1486J
2261.812	3.884	2357966	REC_WORD	3.884	n/a	BIKE	Vehicles	9	12	[0, 0, 0]	n/a	catFR1	2	R1486J
2265.696	1.24	2361849	REC_WORD	1.24	n/a	PLANE	Vehicles	3	12	[0, 0, 0]	n/a	catFR1	2	R1486J
2266.936	1.014	2363089	REC_WORD	1.014	n/a	BOAT	Vehicles	10	12	[0, 0, 0]	n/a	catFR1	2	R1486J
2267.95	1.086	2364103	REC_WORD	1.086	n/a	WATER	Beverages	2	12	[0, 0, 0]	n/a	catFR1	2	R1486J
2269.036	1.311	2365189	REC_WORD	1.311	n/a	RUM	Beverages	8	12	[0, 0, 0]	n/a	catFR1	2	R1486J
2270.347	9.865	2366500	REC_WORD	9.865	n/a	COLA	Beverages	7	12	[0, 0, 0]	n/a	catFR1	2	R1486J
2280.212	0.0	2376364	REC_END	n/a	n/a	n/a	n/a	-999	12	[0, 0, 0]	n/a	catFR1	2	R1486J
