onset	duration	sample	trial_type	response_time	stim_file	item_name	category	serialpos	list	test	answer	experiment	session	subject
0.0	87.62	3970	SESS_START	n/a	n/a	n/a	n/a	-999	-999	[0, 0, 0]	n/a	catFR1	0	R1106M
87.62	10.0	47777	COUNTDOWN_START	n/a	n/a	n/a	n/a	-999	-999	[0, 0, 0]	n/a	catFR1	0	R1106M
98.048	3.858	52991	COUNTDOWN_END	n/a	n/a	n/a	n/a	-999	-999	[0, 0, 0]	n/a	catFR1	0	R1106M
101.906	1.6	54920	PRACTICE_WORD	n/a	n/a	FLOOD	n/a	-999	-999	[0, 0, 0]	n/a	catFR1	0	R1106M
104.439	1.6	56186	PRACTICE_WORD	n/a	n/a	CHEST	n/a	-999	-999	[0, 0, 0]	n/a	catFR1	0	R1106M
106.823	1.6	57378	PRACTICE_WORD	n/a	n/a	ATTIC	n/a	-999	-999	[0, 0, 0]	n/a	catFR1	0	R1106M
109.324	1.6	58629	PRACTICE_WORD	n/a	n/a	WAGON	n/a	-999	-999	[0, 0, 0]	n/a	catFR1	0	R1106M
111.858	1.6	59896	PRACTICE_WORD	n/a	n/a	WATCH	n/a	-999	-999	[0, 0, 0]	n/a	catFR1	0	R1106M
114.358	1.6	61146	PRACTICE_WORD	n/a	n/a	TONGUE	n/a	-999	-999	[0, 0, 0]	n/a	catFR1	0	R1106M
116.759	1.6	62346	PRACTICE_WORD	n/a	n/a	RING	n/a	-999	-999	[0, 0, 0]	n/a	catFR1	0	R1106M
119.359	1.6	63646	PRACTICE_WORD	n/a	n/a	COTTON	n/a	-999	-999	[0, 0, 0]	n/a	catFR1	0	R1106M
121.859	1.6	64896	PRACTICE_WORD	n/a	n/a	BEAM	n/a	-999	-999	[0, 0, 0]	n/a	catFR1	0	R1106M
124.327	1.6	66130	PRACTICE_WORD	n/a	n/a	IRON	n/a	-999	-999	[0, 0, 0]	n/a	catFR1	0	R1106M
126.728	1.6	67330	PRACTICE_WORD	n/a	n/a	RHINO	n/a	-999	-999	[0, 0, 0]	n/a	catFR1	0	R1106M
129.211	1.6	68572	PRACTICE_WORD	n/a	n/a	CAMEL	n/a	-999	-999	[0, 0, 0]	n/a	catFR1	0	R1106M
130.828	0.0	69380	PRACTICE_DISTRACT_START	n/a	n/a	n/a	n/a	-999	-999	[0, 0, 0]	n/a	catFR1	0	R1106M
130.828	0.016	69380	START	n/a	n/a	n/a	n/a	-999	-1	[-999, -999, -999]	n/a	catFR1	0	R1106M
130.844	22.349	69388	PROB	22.349	n/a	n/a	n/a	-999	-1	[1, 5, 9]	15.0	catFR1	0	R1106M
153.193	0.006	80562	STOP	n/a	n/a	n/a	n/a	-999	-1	[-999, -999, -999]	n/a	catFR1	0	R1106M
153.199	0.553	80565	PRACTICE_DISTRACT_END	n/a	n/a	n/a	n/a	-999	-999	[0, 0, 0]	n/a	catFR1	0	R1106M
153.752	30.514	80841	PRACTICE_REC_START	n/a	n/a	n/a	n/a	-999	-999	[0, 0, 0]	n/a	catFR1	0	R1106M
184.266	47.915	96098	PRACTICE_REC_END	n/a	n/a	n/a	n/a	-999	-999	[0, 0, 0]	n/a	catFR1	0	R1106M
232.181	0.0	120054	TRIAL	n/a	n/a	n/a	n/a	-999	1	[0, 0, 0]	n/a	catFR1	0	R1106M
232.181	10.0	120054	COUNTDOWN_START	n/a	n/a	n/a	n/a	-999	1	[0, 0, 0]	n/a	catFR1	0	R1106M
242.609	0.008	125267	COUNTDOWN_END	n/a	n/a	n/a	n/a	-999	1	[0, 0, 0]	n/a	catFR1	0	R1106M
242.617	1.6	125271	ORIENT	n/a	n/a	n/a	n/a	-999	1	[0, 0, 0]	n/a	catFR1	0	R1106M
246.217	1.6	127071	WORD	n/a	wordpools/wordpool_categorized_EN.txt	EYE	BodyParts	1	1	[0, 0, 0]	n/a	catFR1	0	R1106M
248.685	1.6	128305	WORD	n/a	wordpools/wordpool_categorized_EN.txt	FOOT	BodyParts	2	1	[0, 0, 0]	n/a	catFR1	0	R1106M
251.068	1.6	129497	WORD	n/a	wordpools/wordpool_categorized_EN.txt	DOOR	Building	3	1	[0, 0, 0]	n/a	catFR1	0	R1106M
253.619	1.6	130772	WORD	n/a	wordpools/wordpool_categorized_EN.txt	FLOOR	Building	4	1	[0, 0, 0]	n/a	catFR1	0	R1106M
256.185	1.6	132055	WORD	n/a	wordpools/wordpool_categorized_EN.txt	TOASTER	Appliances	5	1	[0, 0, 0]	n/a	catFR1	0	R1106M
258.552	1.6	133238	WORD	n/a	wordpools/wordpool_categorized_EN.txt	DRYER	Appliances	6	1	[0, 0, 0]	n/a	catFR1	0	R1106M
261.053	1.6	134489	WORD	n/a	wordpools/wordpool_categorized_EN.txt	TOE	BodyParts	7	1	[0, 0, 0]	n/a	catFR1	0	R1106M
263.437	1.6	135681	WORD	n/a	wordpools/wordpool_categorized_EN.txt	HAND	BodyParts	8	1	[0, 0, 0]	n/a	catFR1	0	R1106M
265.954	1.6	136939	WORD	n/a	wordpools/wordpool_categorized_EN.txt	BLENDER	Appliances	9	1	[0, 0, 0]	n/a	catFR1	0	R1106M
268.554	1.6	138239	WORD	n/a	wordpools/wordpool_categorized_EN.txt	STOVE	Appliances	10	1	[0, 0, 0]	n/a	catFR1	0	R1106M
271.022	1.6	139473	WORD	n/a	wordpools/wordpool_categorized_EN.txt	STAIRS	Building	11	1	[0, 0, 0]	n/a	catFR1	0	R1106M
273.405	1.6	140665	WORD	n/a	wordpools/wordpool_categorized_EN.txt	WINDOW	Building	12	1	[0, 0, 0]	n/a	catFR1	0	R1106M
275.022	0.001	141473	DISTRACT_START	n/a	n/a	n/a	n/a	-999	1	[0, 0, 0]	n/a	catFR1	0	R1106M
275.023	0.016	141474	START	n/a	n/a	n/a	n/a	-999	1	[-999, -999, -999]	n/a	catFR1	0	R1106M
275.039	16.554	141482	PROB	16.531	n/a	n/a	n/a	-999	1	[1, 2, 7]	10.0	catFR1	0	R1106M
291.593	11.481	149758	PROB	11.481	n/a	n/a	n/a	-999	1	[9, 1, 6]	17.0	catFR1	0	R1106M
303.074	0.003	155498	STOP	n/a	n/a	n/a	n/a	-999	1	[-999, -999, -999]	n/a	catFR1	0	R1106M
303.077	1.219	155500	DISTRACT_END	n/a	n/a	n/a	n/a	-999	1	[0, 0, 0]	n/a	catFR1	0	R1106M
304.296	3.498	156109	REC_START	n/a	n/a	n/a	n/a	-999	1	[0, 0, 0]	n/a	catFR1	0	R1106M
307.794	3.701	157858	REC_WORD	3.498	n/a	WINDOW	Building	12	1	[0, 0, 0]	n/a	catFR1	0	R1106M
311.495	8.441	159708	REC_WORD_VV	7.199	n/a	<>	n/a	-999	1	[0, 0, 0]	n/a	catFR1	0	R1106M
319.936	2.017	163929	REC_WORD	15.64	n/a	TOE	BodyParts	7	1	[0, 0, 0]	n/a	catFR1	0	R1106M
321.953	12.354	164937	REC_WORD	17.657	n/a	TOAST	n/a	-999	1	[0, 0, 0]	n/a	catFR1	0	R1106M
334.307	17.163	171114	REC_END	n/a	n/a	n/a	n/a	-999	1	[0, 0, 0]	n/a	catFR1	0	R1106M
351.47	10.0	179695	COUNTDOWN_START	n/a	n/a	n/a	n/a	-999	2	[0, 0, 0]	n/a	catFR1	0	R1106M
351.471	10.427	179695	TRIAL	n/a	n/a	n/a	n/a	-999	2	[0, 0, 0]	n/a	catFR1	0	R1106M
361.898	0.008	184909	COUNTDOWN_END	n/a	n/a	n/a	n/a	-999	2	[0, 0, 0]	n/a	catFR1	0	R1106M
361.906	1.6	184913	ORIENT	n/a	n/a	n/a	n/a	-999	2	[0, 0, 0]	n/a	catFR1	0	R1106M
365.657	1.6	186788	WORD	n/a	wordpools/wordpool_categorized_EN.txt	BEE	Insects	1	2	[0, 0, 0]	n/a	catFR1	0	R1106M
368.274	1.6	188096	WORD	n/a	wordpools/wordpool_categorized_EN.txt	FLY	Insects	2	2	[0, 0, 0]	n/a	catFR1	0	R1106M
370.692	1.6	189305	WORD	n/a	wordpools/wordpool_categorized_EN.txt	TIGER	Zoo	3	2	[0, 0, 0]	n/a	catFR1	0	R1106M
373.125	1.6	190522	WORD	n/a	wordpools/wordpool_categorized_EN.txt	ZEBRA	Zoo	4	2	[0, 0, 0]	n/a	catFR1	0	R1106M
375.626	1.6	191772	WORD	n/a	wordpools/wordpool_categorized_EN.txt	TEA	Beverages	5	2	[0, 0, 0]	n/a	catFR1	0	R1106M
378.159	1.6	193039	WORD	n/a	wordpools/wordpool_categorized_EN.txt	WATER	Beverages	6	2	[0, 0, 0]	n/a	catFR1	0	R1106M
380.61	1.6	194264	WORD	n/a	wordpools/wordpool_categorized_EN.txt	CHEETAH	Zoo	7	2	[0, 0, 0]	n/a	catFR1	0	R1106M
383.193	1.6	195555	WORD	n/a	wordpools/wordpool_categorized_EN.txt	CHIMPANZEE	Zoo	8	2	[0, 0, 0]	n/a	catFR1	0	R1106M
385.611	1.6	196764	WORD	n/a	wordpools/wordpool_categorized_EN.txt	ROACH	Insects	9	2	[0, 0, 0]	n/a	catFR1	0	R1106M
388.144	1.6	198031	WORD	n/a	wordpools/wordpool_categorized_EN.txt	CRICKET	Insects	10	2	[0, 0, 0]	n/a	catFR1	0	R1106M
390.746	1.6	199332	WORD	n/a	wordpools/wordpool_categorized_EN.txt	CIDER	Beverages	11	2	[0, 0, 0]	n/a	catFR1	0	R1106M
393.362	1.6	200640	WORD	n/a	wordpools/wordpool_categorized_EN.txt	LEMONADE	Beverages	12	2	[0, 0, 0]	n/a	catFR1	0	R1106M
394.979	0.001	201448	DISTRACT_START	n/a	n/a	n/a	n/a	-999	2	[0, 0, 0]	n/a	catFR1	0	R1106M
394.98	0.015	201449	START	n/a	n/a	n/a	n/a	-999	2	[-999, -999, -999]	n/a	catFR1	0	R1106M
394.995	18.971	201456	PROB	18.935	n/a	n/a	n/a	-999	2	[9, 8, 2]	37.0	catFR1	0	R1106M
413.966	5.035	210941	PROB	5.035	n/a	n/a	n/a	-999	2	[8, 1, 1]	10.0	catFR1	0	R1106M
419.001	0.016	213458	STOP	n/a	n/a	n/a	n/a	-999	2	[-999, -999, -999]	n/a	catFR1	0	R1106M
419.017	1.151	213466	DISTRACT_END	n/a	n/a	n/a	n/a	-999	2	[0, 0, 0]	n/a	catFR1	0	R1106M
420.168	1.169	214042	REC_START	n/a	n/a	n/a	n/a	-999	2	[0, 0, 0]	n/a	catFR1	0	R1106M
421.337	12.471	214626	REC_WORD_VV	1.169	n/a	<>	n/a	-999	2	[0, 0, 0]	n/a	catFR1	0	R1106M
433.808	0.309	220862	REC_WORD_VV	13.64	n/a	<>	n/a	-999	2	[0, 0, 0]	n/a	catFR1	0	R1106M
434.117	14.901	221016	REC_WORD	13.949	n/a	WINDOW	n/a	-999	2	[0, 0, 0]	n/a	catFR1	0	R1106M
449.018	1.162	228466	REC_WORD_VV	28.85	n/a	<>	n/a	-999	2	[0, 0, 0]	n/a	catFR1	0	R1106M
450.18	21.213	229047	REC_END	n/a	n/a	n/a	n/a	-999	2	[0, 0, 0]	n/a	catFR1	0	R1106M
471.393	10.0	239653	COUNTDOWN_START	n/a	n/a	n/a	n/a	-999	3	[0, 0, 0]	n/a	catFR1	0	R1106M
471.394	10.427	239653	TRIAL	n/a	n/a	n/a	n/a	-999	3	[0, 0, 0]	n/a	catFR1	0	R1106M
481.821	0.008	244867	COUNTDOWN_END	n/a	n/a	n/a	n/a	-999	3	[0, 0, 0]	n/a	catFR1	0	R1106M
481.829	1.6	244871	ORIENT	n/a	n/a	n/a	n/a	-999	3	[0, 0, 0]	n/a	catFR1	0	R1106M
485.631	1.6	246772	WORD	n/a	wordpools/wordpool_categorized_EN.txt	NIGHTSTAND	Furniture	1	3	[0, 0, 0]	n/a	catFR1	0	R1106M
488.013	1.6	247962	WORD	n/a	wordpools/wordpool_categorized_EN.txt	DESK	Furniture	2	3	[0, 0, 0]	n/a	catFR1	0	R1106M
490.615	1.6	249263	WORD	n/a	wordpools/wordpool_categorized_EN.txt	SNOW	Weather	3	3	[0, 0, 0]	n/a	catFR1	0	R1106M
493.181	1.6	250546	WORD	n/a	wordpools/wordpool_categorized_EN.txt	LIGHTNING	Weather	4	3	[0, 0, 0]	n/a	catFR1	0	R1106M
495.749	1.6	251830	WORD	n/a	wordpools/wordpool_categorized_EN.txt	CEILING	Building	5	3	[0, 0, 0]	n/a	catFR1	0	R1106M
498.215	1.6	253063	WORD	n/a	wordpools/wordpool_categorized_EN.txt	ROOM	Building	6	3	[0, 0, 0]	n/a	catFR1	0	R1106M
500.65	1.6	254281	WORD	n/a	wordpools/wordpool_categorized_EN.txt	SOFA	Furniture	7	3	[0, 0, 0]	n/a	catFR1	0	R1106M
503.133	1.6	255522	WORD	n/a	wordpools/wordpool_categorized_EN.txt	COUCH	Furniture	8	3	[0, 0, 0]	n/a	catFR1	0	R1106M
505.601	1.6	256756	WORD	n/a	wordpools/wordpool_categorized_EN.txt	BATHROOM	Building	9	3	[0, 0, 0]	n/a	catFR1	0	R1106M
508.217	1.6	258064	WORD	n/a	wordpools/wordpool_categorized_EN.txt	HALLWAY	Building	10	3	[0, 0, 0]	n/a	catFR1	0	R1106M
510.735	1.6	259323	WORD	n/a	wordpools/wordpool_categorized_EN.txt	HUMIDITY	Weather	11	3	[0, 0, 0]	n/a	catFR1	0	R1106M
513.152	1.6	260531	WORD	n/a	wordpools/wordpool_categorized_EN.txt	WIND	Weather	12	3	[0, 0, 0]	n/a	catFR1	0	R1106M
514.77	0.001	261340	DISTRACT_START	n/a	n/a	n/a	n/a	-999	3	[0, 0, 0]	n/a	catFR1	0	R1106M
514.771	0.015	261341	START	n/a	n/a	n/a	n/a	-999	3	[-999, -999, -999]	n/a	catFR1	0	R1106M
514.786	20.527	261348	PROB	20.527	n/a	n/a	n/a	-999	3	[3, 5, 2]	15.0	catFR1	0	R1106M
535.313	0.01	271611	STOP	n/a	n/a	n/a	n/a	-999	3	[-999, -999, -999]	n/a	catFR1	0	R1106M
535.323	1.101	271616	DISTRACT_END	n/a	n/a	n/a	n/a	-999	3	[0, 0, 0]	n/a	catFR1	0	R1106M
536.424	1.891	272167	REC_START	n/a	n/a	n/a	n/a	-999	3	[0, 0, 0]	n/a	catFR1	0	R1106M
538.315	2.502	273112	REC_WORD	1.891	n/a	ROOM	Building	6	3	[0, 0, 0]	n/a	catFR1	0	R1106M
540.817	14.909	274363	REC_WORD	4.393	n/a	WINDOW	n/a	-999	3	[0, 0, 0]	n/a	catFR1	0	R1106M
555.726	8.252	281817	REC_WORD	19.302	n/a	RABBIT	n/a	-999	3	[0, 0, 0]	n/a	catFR1	0	R1106M
563.978	2.457	285943	REC_WORD	27.554	n/a	LAMP	n/a	-999	3	[0, 0, 0]	n/a	catFR1	0	R1106M
566.435	26.615	287171	REC_END	n/a	n/a	n/a	n/a	-999	3	[0, 0, 0]	n/a	catFR1	0	R1106M
593.05	10.0	300478	COUNTDOWN_START	n/a	n/a	n/a	n/a	-999	4	[0, 0, 0]	n/a	catFR1	0	R1106M
593.05	10.428	300478	TRIAL	n/a	n/a	n/a	n/a	-999	4	[0, 0, 0]	n/a	catFR1	0	R1106M
603.478	0.008	305692	COUNTDOWN_END	n/a	n/a	n/a	n/a	-999	4	[0, 0, 0]	n/a	catFR1	0	R1106M
603.486	1.6	305696	ORIENT	n/a	n/a	n/a	n/a	-999	4	[0, 0, 0]	n/a	catFR1	0	R1106M
607.336	1.6	307621	WORD	n/a	wordpools/wordpool_categorized_EN.txt	DRIZZLE	Weather	1	4	[0, 0, 0]	n/a	catFR1	0	R1106M
609.82	1.6	308863	WORD	n/a	wordpools/wordpool_categorized_EN.txt	FOG	Weather	2	4	[0, 0, 0]	n/a	catFR1	0	R1106M
612.354	1.6	310129	WORD	n/a	wordpools/wordpool_categorized_EN.txt	FORK	KitchenTools	3	4	[0, 0, 0]	n/a	catFR1	0	R1106M
614.838	1.6	311371	WORD	n/a	wordpools/wordpool_categorized_EN.txt	CORKSCREW	KitchenTools	4	4	[0, 0, 0]	n/a	catFR1	0	R1106M
617.388	1.6	312646	WORD	n/a	wordpools/wordpool_categorized_EN.txt	SCOOTER	Vehicles	5	4	[0, 0, 0]	n/a	catFR1	0	R1106M
619.922	1.6	313913	WORD	n/a	wordpools/wordpool_categorized_EN.txt	MOPED	Vehicles	6	4	[0, 0, 0]	n/a	catFR1	0	R1106M
622.373	1.6	315139	WORD	n/a	wordpools/wordpool_categorized_EN.txt	TORNADO	Weather	7	4	[0, 0, 0]	n/a	catFR1	0	R1106M
624.956	1.6	316430	WORD	n/a	wordpools/wordpool_categorized_EN.txt	THUNDERSTORM	Weather	8	4	[0, 0, 0]	n/a	catFR1	0	R1106M
627.54	1.6	317722	WORD	n/a	wordpools/wordpool_categorized_EN.txt	TRUCK	Vehicles	9	4	[0, 0, 0]	n/a	catFR1	0	R1106M
629.974	1.6	318939	WORD	n/a	wordpools/wordpool_categorized_EN.txt	JEEP	Vehicles	10	4	[0, 0, 0]	n/a	catFR1	0	R1106M
632.508	1.6	320206	WORD	n/a	wordpools/wordpool_categorized_EN.txt	STRAINER	KitchenTools	11	4	[0, 0, 0]	n/a	catFR1	0	R1106M
634.992	1.6	321448	WORD	n/a	wordpools/wordpool_categorized_EN.txt	GRATER	KitchenTools	12	4	[0, 0, 0]	n/a	catFR1	0	R1106M
636.61	0.001	322257	DISTRACT_START	n/a	n/a	n/a	n/a	-999	4	[0, 0, 0]	n/a	catFR1	0	R1106M
636.611	0.015	322257	START	n/a	n/a	n/a	n/a	-999	4	[-999, -999, -999]	n/a	catFR1	0	R1106M
636.626	11.352	322265	PROB	11.328	n/a	n/a	n/a	-999	4	[8, 3, 4]	15.0	catFR1	0	R1106M
647.978	6.367	327940	PROB	6.343	n/a	n/a	n/a	-999	4	[6, 7, 7]	20.0	catFR1	0	R1106M
654.345	20.785	331124	PROB	20.785	n/a	n/a	n/a	-999	4	[8, 9, 2]	19.0	catFR1	0	R1106M
675.13	0.003	341516	STOP	n/a	n/a	n/a	n/a	-999	4	[-999, -999, -999]	n/a	catFR1	0	R1106M
675.133	1.051	341517	DISTRACT_END	n/a	n/a	n/a	n/a	-999	4	[0, 0, 0]	n/a	catFR1	0	R1106M
676.184	1.742	342043	REC_START	n/a	n/a	n/a	n/a	-999	4	[0, 0, 0]	n/a	catFR1	0	R1106M
677.926	1.186	342914	REC_WORD	1.742	n/a	STORM	n/a	-999	4	[0, 0, 0]	n/a	catFR1	0	R1106M
679.112	1.637	343507	REC_WORD	2.928	n/a	THUNDERSTORM	Weather	8	4	[0, 0, 0]	n/a	catFR1	0	R1106M
680.749	1.524	344325	REC_WORD	4.565	n/a	TORNADO	Weather	7	4	[0, 0, 0]	n/a	catFR1	0	R1106M
682.273	2.515	345087	REC_WORD	6.089	n/a	DRIZZLE	Weather	1	4	[0, 0, 0]	n/a	catFR1	0	R1106M
684.788	1.262	346344	REC_WORD	8.604	n/a	SCREW	n/a	-999	4	[0, 0, 0]	n/a	catFR1	0	R1106M
686.05	20.145	346975	REC_WORD	9.866	n/a	CORKSCREW	KitchenTools	4	4	[0, 0, 0]	n/a	catFR1	0	R1106M
706.195	36.234	357047	REC_END	n/a	n/a	n/a	n/a	-999	4	[0, 0, 0]	n/a	catFR1	0	R1106M
742.429	0.0	375163	TRIAL	n/a	n/a	n/a	n/a	-999	5	[0, 0, 0]	n/a	catFR1	0	R1106M
742.429	10.0	375163	COUNTDOWN_START	n/a	n/a	n/a	n/a	-999	5	[0, 0, 0]	n/a	catFR1	0	R1106M
752.857	0.007	380377	COUNTDOWN_END	n/a	n/a	n/a	n/a	-999	5	[0, 0, 0]	n/a	catFR1	0	R1106M
752.864	1.6	380380	ORIENT	n/a	n/a	n/a	n/a	-999	5	[0, 0, 0]	n/a	catFR1	0	R1106M
756.649	1.6	382273	WORD	n/a	wordpools/wordpool_categorized_EN.txt	CAKE	Desserts	1	5	[0, 0, 0]	n/a	catFR1	0	R1106M
759.249	1.6	383573	WORD	n/a	wordpools/wordpool_categorized_EN.txt	FUDGE	Desserts	2	5	[0, 0, 0]	n/a	catFR1	0	R1106M
761.833	1.6	384865	WORD	n/a	wordpools/wordpool_categorized_EN.txt	BLUEBERRY	Fruit	3	5	[0, 0, 0]	n/a	catFR1	0	R1106M
764.233	1.6	386065	WORD	n/a	wordpools/wordpool_categorized_EN.txt	LEMON	Fruit	4	5	[0, 0, 0]	n/a	catFR1	0	R1106M
766.834	1.6	387365	WORD	n/a	wordpools/wordpool_categorized_EN.txt	LAKE	Landscapes	5	5	[0, 0, 0]	n/a	catFR1	0	R1106M
769.334	1.6	388615	WORD	n/a	wordpools/wordpool_categorized_EN.txt	HILLS	Landscapes	6	5	[0, 0, 0]	n/a	catFR1	0	R1106M
771.951	1.6	389923	WORD	n/a	wordpools/wordpool_categorized_EN.txt	PIE	Desserts	7	5	[0, 0, 0]	n/a	catFR1	0	R1106M
774.552	1.6	391224	WORD	n/a	wordpools/wordpool_categorized_EN.txt	BROWNIES	Desserts	8	5	[0, 0, 0]	n/a	catFR1	0	R1106M
777.186	1.6	392541	WORD	n/a	wordpools/wordpool_categorized_EN.txt	ISLAND	Landscapes	9	5	[0, 0, 0]	n/a	catFR1	0	R1106M
779.737	1.6	393816	WORD	n/a	wordpools/wordpool_categorized_EN.txt	WOODS	Landscapes	10	5	[0, 0, 0]	n/a	catFR1	0	R1106M
782.22	1.6	395058	WORD	n/a	wordpools/wordpool_categorized_EN.txt	BANANA	Fruit	11	5	[0, 0, 0]	n/a	catFR1	0	R1106M
784.805	1.6	396350	WORD	n/a	wordpools/wordpool_categorized_EN.txt	APPLE	Fruit	12	5	[0, 0, 0]	n/a	catFR1	0	R1106M
786.421	0.001	397158	DISTRACT_START	n/a	n/a	n/a	n/a	-999	5	[0, 0, 0]	n/a	catFR1	0	R1106M
786.422	0.016	397159	START	n/a	n/a	n/a	n/a	-999	5	[-999, -999, -999]	n/a	catFR1	0	R1106M
786.438	29.972	397167	PROB	29.972	n/a	n/a	n/a	-999	5	[3, 9, 9]	21.0	catFR1	0	R1106M
816.41	0.017	412152	STOP	n/a	n/a	n/a	n/a	-999	5	[-999, -999, -999]	n/a	catFR1	0	R1106M
816.427	1.201	412160	DISTRACT_END	n/a	n/a	n/a	n/a	-999	5	[0, 0, 0]	n/a	catFR1	0	R1106M
817.628	0.0	412761	REC_START	n/a	n/a	n/a	n/a	-999	5	[0, 0, 0]	n/a	catFR1	0	R1106M
817.628	30.015	412761	REC_WORD_VV	0.0	n/a	<>	n/a	-999	5	[0, 0, 0]	n/a	catFR1	0	R1106M
847.643	8.708	427767	REC_END	n/a	n/a	n/a	n/a	-999	5	[0, 0, 0]	n/a	catFR1	0	R1106M
856.351	10.0	432121	COUNTDOWN_START	n/a	n/a	n/a	n/a	-999	6	[0, 0, 0]	n/a	catFR1	0	R1106M
856.351	10.428	432121	TRIAL	n/a	n/a	n/a	n/a	-999	6	[0, 0, 0]	n/a	catFR1	0	R1106M
866.779	0.008	437335	COUNTDOWN_END	n/a	n/a	n/a	n/a	-999	6	[0, 0, 0]	n/a	catFR1	0	R1106M
866.787	1.6	437339	ORIENT	n/a	n/a	n/a	n/a	-999	6	[0, 0, 0]	n/a	catFR1	0	R1106M
870.52	1.6	439205	WORD	n/a	wordpools/wordpool_categorized_EN.txt	ONION	Vegetables	1	6	[0, 0, 0]	n/a	catFR1	0	R1106M
872.904	1.6	440397	WORD	n/a	wordpools/wordpool_categorized_EN.txt	CELERY	Vegetables	2	6	[0, 0, 0]	n/a	catFR1	0	R1106M
875.371	1.6	441631	WORD	n/a	wordpools/wordpool_categorized_EN.txt	BINDER	OfficeSupplies	3	6	[0, 0, 0]	n/a	catFR1	0	R1106M
877.822	1.6	442856	WORD	n/a	wordpools/wordpool_categorized_EN.txt	ERASER	OfficeSupplies	4	6	[0, 0, 0]	n/a	catFR1	0	R1106M
880.339	1.6	444114	WORD	n/a	wordpools/wordpool_categorized_EN.txt	RADIO	Electronics	5	6	[0, 0, 0]	n/a	catFR1	0	R1106M
882.839	1.6	445364	WORD	n/a	wordpools/wordpool_categorized_EN.txt	SCANNER	Electronics	6	6	[0, 0, 0]	n/a	catFR1	0	R1106M
885.223	1.6	446556	WORD	n/a	wordpools/wordpool_categorized_EN.txt	POTATO	Vegetables	7	6	[0, 0, 0]	n/a	catFR1	0	R1106M
887.641	1.6	447765	WORD	n/a	wordpools/wordpool_categorized_EN.txt	PEAS	Vegetables	8	6	[0, 0, 0]	n/a	catFR1	0	R1106M
890.191	1.6	449040	WORD	n/a	wordpools/wordpool_categorized_EN.txt	MICROWAVE	Electronics	9	6	[0, 0, 0]	n/a	catFR1	0	R1106M
892.742	1.6	450316	WORD	n/a	wordpools/wordpool_categorized_EN.txt	PHONE	Electronics	10	6	[0, 0, 0]	n/a	catFR1	0	R1106M
895.125	1.6	451507	WORD	n/a	wordpools/wordpool_categorized_EN.txt	PAPER	OfficeSupplies	11	6	[0, 0, 0]	n/a	catFR1	0	R1106M
897.593	1.6	452741	WORD	n/a	wordpools/wordpool_categorized_EN.txt	STAPLER	OfficeSupplies	12	6	[0, 0, 0]	n/a	catFR1	0	R1106M
899.209	0.001	453549	DISTRACT_START	n/a	n/a	n/a	n/a	-999	6	[0, 0, 0]	n/a	catFR1	0	R1106M
899.21	0.016	453549	START	n/a	n/a	n/a	n/a	-999	6	[-999, -999, -999]	n/a	catFR1	0	R1106M
899.226	42.007	453557	PROB	42.007	n/a	n/a	n/a	-999	6	[9, 4, 3]	16.0	catFR1	0	R1106M
941.233	0.018	474560	STOP	n/a	n/a	n/a	n/a	-999	6	[-999, -999, -999]	n/a	catFR1	0	R1106M
941.251	1.068	474569	DISTRACT_END	n/a	n/a	n/a	n/a	-999	6	[0, 0, 0]	n/a	catFR1	0	R1106M
942.319	1.296	475103	REC_START	n/a	n/a	n/a	n/a	-999	6	[0, 0, 0]	n/a	catFR1	0	R1106M
943.615	2.999	475751	REC_WORD	1.296	n/a	RADIO	Electronics	5	6	[0, 0, 0]	n/a	catFR1	0	R1106M
946.614	17.564	477250	REC_WORD	4.295	n/a	PHONE	Electronics	10	6	[0, 0, 0]	n/a	catFR1	0	R1106M
964.178	8.152	486032	REC_WORD	21.859	n/a	TELEVISION	n/a	-999	6	[0, 0, 0]	n/a	catFR1	0	R1106M
972.33	9.38	490107	REC_END	n/a	n/a	n/a	n/a	-999	6	[0, 0, 0]	n/a	catFR1	0	R1106M
981.71	0.0	494797	TRIAL	n/a	n/a	n/a	n/a	-999	7	[0, 0, 0]	n/a	catFR1	0	R1106M
981.71	10.0	494797	COUNTDOWN_START	n/a	n/a	n/a	n/a	-999	7	[0, 0, 0]	n/a	catFR1	0	R1106M
992.138	0.006	500011	COUNTDOWN_END	n/a	n/a	n/a	n/a	-999	7	[0, 0, 0]	n/a	catFR1	0	R1106M
992.144	1.6	500014	ORIENT	n/a	n/a	n/a	n/a	-999	7	[0, 0, 0]	n/a	catFR1	0	R1106M
995.796	1.6	501840	WORD	n/a	wordpools/wordpool_categorized_EN.txt	DRUM	Instruments	1	7	[0, 0, 0]	n/a	catFR1	0	R1106M
998.395	1.6	503139	WORD	n/a	wordpools/wordpool_categorized_EN.txt	TRUMPET	Instruments	2	7	[0, 0, 0]	n/a	catFR1	0	R1106M
1000.812	1.6	504347	WORD	n/a	wordpools/wordpool_categorized_EN.txt	UNDERWEAR	Clothing	3	7	[0, 0, 0]	n/a	catFR1	0	R1106M
1003.313	1.6	505598	WORD	n/a	wordpools/wordpool_categorized_EN.txt	COAT	Clothing	4	7	[0, 0, 0]	n/a	catFR1	0	R1106M
1005.748	1.6	506815	WORD	n/a	wordpools/wordpool_categorized_EN.txt	BALL	Toys	5	7	[0, 0, 0]	n/a	catFR1	0	R1106M
1008.33	1.6	508106	WORD	n/a	wordpools/wordpool_categorized_EN.txt	BARBIE	Toys	6	7	[0, 0, 0]	n/a	catFR1	0	R1106M
1010.715	1.6	509299	WORD	n/a	wordpools/wordpool_categorized_EN.txt	BASS	Instruments	7	7	[0, 0, 0]	n/a	catFR1	0	R1106M
1013.231	1.6	510557	WORD	n/a	wordpools/wordpool_categorized_EN.txt	FLUTE	Instruments	8	7	[0, 0, 0]	n/a	catFR1	0	R1106M
1015.75	1.6	511816	WORD	n/a	wordpools/wordpool_categorized_EN.txt	BASKETBALL	Toys	9	7	[0, 0, 0]	n/a	catFR1	0	R1106M
1018.232	1.6	513057	WORD	n/a	wordpools/wordpool_categorized_EN.txt	BASEBALL	Toys	10	7	[0, 0, 0]	n/a	catFR1	0	R1106M
1020.767	1.6	514324	WORD	n/a	wordpools/wordpool_categorized_EN.txt	SHOES	Clothing	11	7	[0, 0, 0]	n/a	catFR1	0	R1106M
1023.383	1.6	515632	WORD	n/a	wordpools/wordpool_categorized_EN.txt	BLOUSE	Clothing	12	7	[0, 0, 0]	n/a	catFR1	0	R1106M
1025.0	0.001	516441	DISTRACT_START	n/a	n/a	n/a	n/a	-999	7	[0, 0, 0]	n/a	catFR1	0	R1106M
1025.001	0.016	516441	START	n/a	n/a	n/a	n/a	-999	7	[-999, -999, -999]	n/a	catFR1	0	R1106M
1025.017	12.252	516449	PROB	12.224	n/a	n/a	n/a	-999	7	[8, 2, 7]	17.0	catFR1	0	R1106M
1037.269	6.702	522575	PROB	6.668	n/a	n/a	n/a	-999	7	[5, 2, 2]	7.0	catFR1	0	R1106M
1043.971	14.303	525926	PROB	14.303	n/a	n/a	n/a	-999	7	[4, 6, 6]	16.0	catFR1	0	R1106M
1058.274	0.016	533077	STOP	n/a	n/a	n/a	n/a	-999	7	[-999, -999, -999]	n/a	catFR1	0	R1106M
1058.29	1.101	533085	DISTRACT_END	n/a	n/a	n/a	n/a	-999	7	[0, 0, 0]	n/a	catFR1	0	R1106M
1059.391	1.244	533635	REC_START	n/a	n/a	n/a	n/a	-999	7	[0, 0, 0]	n/a	catFR1	0	R1106M
1060.635	1.452	534257	REC_WORD	1.244	n/a	BASEBALL	Toys	10	7	[0, 0, 0]	n/a	catFR1	0	R1106M
1062.087	1.101	534983	REC_WORD	2.696	n/a	SHOES	Clothing	11	7	[0, 0, 0]	n/a	catFR1	0	R1106M
1063.188	4.725	535534	REC_WORD	3.797	n/a	BLOUSE	Clothing	12	7	[0, 0, 0]	n/a	catFR1	0	R1106M
1067.913	21.489	537896	REC_WORD_VV	8.522	n/a	<>	n/a	-999	7	[0, 0, 0]	n/a	catFR1	0	R1106M
1089.402	3.428	548640	REC_END	n/a	n/a	n/a	n/a	-999	7	[0, 0, 0]	n/a	catFR1	0	R1106M
1092.83	10.0	550354	COUNTDOWN_START	n/a	n/a	n/a	n/a	-999	8	[0, 0, 0]	n/a	catFR1	0	R1106M
1092.83	10.428	550354	TRIAL	n/a	n/a	n/a	n/a	-999	8	[0, 0, 0]	n/a	catFR1	0	R1106M
1103.258	0.007	555568	COUNTDOWN_END	n/a	n/a	n/a	n/a	-999	8	[0, 0, 0]	n/a	catFR1	0	R1106M
1103.265	1.6	555571	ORIENT	n/a	n/a	n/a	n/a	-999	8	[0, 0, 0]	n/a	catFR1	0	R1106M
1106.883	1.6	557380	WORD	n/a	wordpools/wordpool_categorized_EN.txt	SUNFLOWER	Flowers	1	8	[0, 0, 0]	n/a	catFR1	0	R1106M
1109.417	1.6	558647	WORD	n/a	wordpools/wordpool_categorized_EN.txt	ORCHID	Flowers	2	8	[0, 0, 0]	n/a	catFR1	0	R1106M
1111.984	1.6	559930	WORD	n/a	wordpools/wordpool_categorized_EN.txt	MILK	Beverages	3	8	[0, 0, 0]	n/a	catFR1	0	R1106M
1114.401	1.6	561139	WORD	n/a	wordpools/wordpool_categorized_EN.txt	JUICE	Beverages	4	8	[0, 0, 0]	n/a	catFR1	0	R1106M
1116.851	1.6	562364	WORD	n/a	wordpools/wordpool_categorized_EN.txt	WASHER	Appliances	5	8	[0, 0, 0]	n/a	catFR1	0	R1106M
1119.352	1.6	563614	WORD	n/a	wordpools/wordpool_categorized_EN.txt	REFRIGERATOR	Appliances	6	8	[0, 0, 0]	n/a	catFR1	0	R1106M
1121.787	1.6	564832	WORD	n/a	wordpools/wordpool_categorized_EN.txt	WINE	Beverages	7	8	[0, 0, 0]	n/a	catFR1	0	R1106M
1124.236	1.6	566056	WORD	n/a	wordpools/wordpool_categorized_EN.txt	COFFEE	Beverages	8	8	[0, 0, 0]	n/a	catFR1	0	R1106M
1126.754	1.6	567315	WORD	n/a	wordpools/wordpool_categorized_EN.txt	VIOLET	Flowers	9	8	[0, 0, 0]	n/a	catFR1	0	R1106M
1129.37	1.6	568623	WORD	n/a	wordpools/wordpool_categorized_EN.txt	MARIGOLD	Flowers	10	8	[0, 0, 0]	n/a	catFR1	0	R1106M
1131.938	1.6	569907	WORD	n/a	wordpools/wordpool_categorized_EN.txt	FREEZER	Appliances	11	8	[0, 0, 0]	n/a	catFR1	0	R1106M
1134.371	1.6	571123	WORD	n/a	wordpools/wordpool_categorized_EN.txt	IRON	Appliances	12	8	[0, 0, 0]	n/a	catFR1	0	R1106M
1135.988	0.001	571932	DISTRACT_START	n/a	n/a	n/a	n/a	-999	8	[0, 0, 0]	n/a	catFR1	0	R1106M
1135.989	0.016	571932	START	n/a	n/a	n/a	n/a	-999	8	[-999, -999, -999]	n/a	catFR1	0	R1106M
1136.005	5.568	571940	PROB	5.532	n/a	n/a	n/a	-999	8	[6, 1, 4]	11.0	catFR1	0	R1106M
1141.573	28.837	574724	PROB	28.837	n/a	n/a	n/a	-999	8	[7, 4, 6]	17.0	catFR1	0	R1106M
1170.41	0.018	589142	STOP	n/a	n/a	n/a	n/a	-999	8	[-999, -999, -999]	n/a	catFR1	0	R1106M
1170.428	1.135	589151	DISTRACT_END	n/a	n/a	n/a	n/a	-999	8	[0, 0, 0]	n/a	catFR1	0	R1106M
1171.563	2.36	589718	REC_START	n/a	n/a	n/a	n/a	-999	8	[0, 0, 0]	n/a	catFR1	0	R1106M
1173.923	1.519	590898	REC_WORD	2.36	n/a	MARIGOLD	Flowers	10	8	[0, 0, 0]	n/a	catFR1	0	R1106M
1175.442	12.247	591658	REC_WORD	3.879	n/a	IRON	Appliances	12	8	[0, 0, 0]	n/a	catFR1	0	R1106M
1187.689	13.885	597781	REC_WORD	16.126	n/a	SUNFLOWER	Flowers	1	8	[0, 0, 0]	n/a	catFR1	0	R1106M
1201.574	61.09	604723	REC_END	n/a	n/a	n/a	n/a	-999	8	[0, 0, 0]	n/a	catFR1	0	R1106M
1262.664	0.0	635266	TRIAL	n/a	n/a	n/a	n/a	-999	9	[0, 0, 0]	n/a	catFR1	0	R1106M
1262.664	10.0	635266	COUNTDOWN_START	n/a	n/a	n/a	n/a	-999	9	[0, 0, 0]	n/a	catFR1	0	R1106M
1273.092	0.006	640480	COUNTDOWN_END	n/a	n/a	n/a	n/a	-999	9	[0, 0, 0]	n/a	catFR1	0	R1106M
1273.098	1.6	640483	ORIENT	n/a	n/a	n/a	n/a	-999	9	[0, 0, 0]	n/a	catFR1	0	R1106M
1276.932	1.6	642400	WORD	n/a	wordpools/wordpool_categorized_EN.txt	COLA	Beverages	1	9	[0, 0, 0]	n/a	catFR1	0	R1106M
1279.399	1.6	643633	WORD	n/a	wordpools/wordpool_categorized_EN.txt	BEER	Beverages	2	9	[0, 0, 0]	n/a	catFR1	0	R1106M
1282.017	1.6	644942	WORD	n/a	wordpools/wordpool_categorized_EN.txt	FOOTBALL	Toys	3	9	[0, 0, 0]	n/a	catFR1	0	R1106M
1284.517	1.6	646192	WORD	n/a	wordpools/wordpool_categorized_EN.txt	FRISBEE	Toys	4	9	[0, 0, 0]	n/a	catFR1	0	R1106M
1286.951	1.6	647409	WORD	n/a	wordpools/wordpool_categorized_EN.txt	FOUNDATION	Building	5	9	[0, 0, 0]	n/a	catFR1	0	R1106M
1289.368	1.6	648617	WORD	n/a	wordpools/wordpool_categorized_EN.txt	ATTIC	Building	6	9	[0, 0, 0]	n/a	catFR1	0	R1106M
1291.835	1.6	649851	WORD	n/a	wordpools/wordpool_categorized_EN.txt	MARBLES	Toys	7	9	[0, 0, 0]	n/a	catFR1	0	R1106M
1294.386	1.6	651126	WORD	n/a	wordpools/wordpool_categorized_EN.txt	SLINKY	Toys	8	9	[0, 0, 0]	n/a	catFR1	0	R1106M
1296.886	1.6	652376	WORD	n/a	wordpools/wordpool_categorized_EN.txt	RUM	Beverages	9	9	[0, 0, 0]	n/a	catFR1	0	R1106M
1299.42	1.6	653643	WORD	n/a	wordpools/wordpool_categorized_EN.txt	SODA	Beverages	10	9	[0, 0, 0]	n/a	catFR1	0	R1106M
1301.903	1.6	654884	WORD	n/a	wordpools/wordpool_categorized_EN.txt	WALL	Building	11	9	[0, 0, 0]	n/a	catFR1	0	R1106M
1304.454	1.6	656160	WORD	n/a	wordpools/wordpool_categorized_EN.txt	ROOF	Building	12	9	[0, 0, 0]	n/a	catFR1	0	R1106M
1306.071	0.001	656968	DISTRACT_START	n/a	n/a	n/a	n/a	-999	9	[0, 0, 0]	n/a	catFR1	0	R1106M
1306.072	0.016	656969	START	n/a	n/a	n/a	n/a	-999	9	[-999, -999, -999]	n/a	catFR1	0	R1106M
1306.088	14.486	656977	PROB	14.465	n/a	n/a	n/a	-999	9	[3, 8, 9]	20.0	catFR1	0	R1106M
1320.574	5.78	664219	PROB	5.78	n/a	n/a	n/a	-999	9	[6, 8, 9]	23.0	catFR1	0	R1106M
1326.354	0.005	667109	STOP	n/a	n/a	n/a	n/a	-999	9	[-999, -999, -999]	n/a	catFR1	0	R1106M
1326.359	1.2	667112	DISTRACT_END	n/a	n/a	n/a	n/a	-999	9	[0, 0, 0]	n/a	catFR1	0	R1106M
1327.559	2.005	667712	REC_START	n/a	n/a	n/a	n/a	-999	9	[0, 0, 0]	n/a	catFR1	0	R1106M
1329.564	2.89	668714	REC_WORD	2.005	n/a	COLA	Beverages	1	9	[0, 0, 0]	n/a	catFR1	0	R1106M
1332.454	12.148	670159	REC_WORD	4.895	n/a	BEER	Beverages	2	9	[0, 0, 0]	n/a	catFR1	0	R1106M
1344.602	12.972	676233	REC_WORD_VV	17.043	n/a	<>	n/a	-999	9	[0, 0, 0]	n/a	catFR1	0	R1106M
1357.574	19.045	682718	REC_END	n/a	n/a	n/a	n/a	-999	9	[0, 0, 0]	n/a	catFR1	0	R1106M
1376.619	10.0	692240	COUNTDOWN_START	n/a	n/a	n/a	n/a	-999	10	[0, 0, 0]	n/a	catFR1	0	R1106M
1376.619	10.428	692240	TRIAL	n/a	n/a	n/a	n/a	-999	10	[0, 0, 0]	n/a	catFR1	0	R1106M
1387.047	0.007	697454	COUNTDOWN_END	n/a	n/a	n/a	n/a	-999	10	[0, 0, 0]	n/a	catFR1	0	R1106M
1387.054	1.6	697458	ORIENT	n/a	n/a	n/a	n/a	-999	10	[0, 0, 0]	n/a	catFR1	0	R1106M
1390.739	1.6	699300	WORD	n/a	wordpools/wordpool_categorized_EN.txt	CALF	FarmAnimals	1	10	[0, 0, 0]	n/a	catFR1	0	R1106M
1393.271	1.6	700566	WORD	n/a	wordpools/wordpool_categorized_EN.txt	PIG	FarmAnimals	2	10	[0, 0, 0]	n/a	catFR1	0	R1106M
1395.706	1.6	701783	WORD	n/a	wordpools/wordpool_categorized_EN.txt	MOSQUITO	Insects	3	10	[0, 0, 0]	n/a	catFR1	0	R1106M
1398.256	1.6	703058	WORD	n/a	wordpools/wordpool_categorized_EN.txt	GNAT	Insects	4	10	[0, 0, 0]	n/a	catFR1	0	R1106M
1400.724	1.6	704292	WORD	n/a	wordpools/wordpool_categorized_EN.txt	RATCHET	Tools	5	10	[0, 0, 0]	n/a	catFR1	0	R1106M
1403.34	1.6	705600	WORD	n/a	wordpools/wordpool_categorized_EN.txt	SAW	Tools	6	10	[0, 0, 0]	n/a	catFR1	0	R1106M
1405.775	1.6	706817	WORD	n/a	wordpools/wordpool_categorized_EN.txt	HORSE	FarmAnimals	7	10	[0, 0, 0]	n/a	catFR1	0	R1106M
1408.308	1.6	708084	WORD	n/a	wordpools/wordpool_categorized_EN.txt	COW	FarmAnimals	8	10	[0, 0, 0]	n/a	catFR1	0	R1106M
1410.875	1.6	709367	WORD	n/a	wordpools/wordpool_categorized_EN.txt	SANDER	Tools	9	10	[0, 0, 0]	n/a	catFR1	0	R1106M
1413.259	1.6	710559	WORD	n/a	wordpools/wordpool_categorized_EN.txt	AXE	Tools	10	10	[0, 0, 0]	n/a	catFR1	0	R1106M
1415.643	1.6	711751	WORD	n/a	wordpools/wordpool_categorized_EN.txt	BUTTERFLY	Insects	11	10	[0, 0, 0]	n/a	catFR1	0	R1106M
1418.076	1.6	712968	WORD	n/a	wordpools/wordpool_categorized_EN.txt	ANT	Insects	12	10	[0, 0, 0]	n/a	catFR1	0	R1106M
1419.677	0.001	713768	DISTRACT_START	n/a	n/a	n/a	n/a	-999	10	[0, 0, 0]	n/a	catFR1	0	R1106M
1419.678	0.016	713769	START	n/a	n/a	n/a	n/a	-999	10	[-999, -999, -999]	n/a	catFR1	0	R1106M
1419.694	20.835	713777	PROB	20.835	n/a	n/a	n/a	-999	10	[2, 6, 8]	16.0	catFR1	0	R1106M
1440.529	0.018	724194	STOP	n/a	n/a	n/a	n/a	-999	10	[-999, -999, -999]	n/a	catFR1	0	R1106M
1440.547	1.103	724203	DISTRACT_END	n/a	n/a	n/a	n/a	-999	10	[0, 0, 0]	n/a	catFR1	0	R1106M
1441.65	4.792	724754	REC_START	n/a	n/a	n/a	n/a	-999	10	[0, 0, 0]	n/a	catFR1	0	R1106M
1446.442	2.264	727150	REC_WORD	4.792	n/a	COW	FarmAnimals	8	10	[0, 0, 0]	n/a	catFR1	0	R1106M
1448.706	2.211	728282	REC_WORD	7.056	n/a	MOSQUITO	Insects	3	10	[0, 0, 0]	n/a	catFR1	0	R1106M
1450.917	1.317	729387	REC_WORD	9.267	n/a	PIG	FarmAnimals	2	10	[0, 0, 0]	n/a	catFR1	0	R1106M
1452.234	16.724	730046	REC_WORD	10.584	n/a	GNAT	Insects	4	10	[0, 0, 0]	n/a	catFR1	0	R1106M
1468.958	2.7	738407	REC_WORD_VV	27.308	n/a	<>	n/a	-999	10	[0, 0, 0]	n/a	catFR1	0	R1106M
1471.658	9.747	739757	REC_END	n/a	n/a	n/a	n/a	-999	10	[0, 0, 0]	n/a	catFR1	0	R1106M
1481.405	0.0	744630	TRIAL	n/a	n/a	n/a	n/a	-999	11	[0, 0, 0]	n/a	catFR1	0	R1106M
1481.405	10.0	744630	COUNTDOWN_START	n/a	n/a	n/a	n/a	-999	11	[0, 0, 0]	n/a	catFR1	0	R1106M
1491.833	0.007	749844	COUNTDOWN_END	n/a	n/a	n/a	n/a	-999	11	[0, 0, 0]	n/a	catFR1	0	R1106M
1491.84	1.6	749848	ORIENT	n/a	n/a	n/a	n/a	-999	11	[0, 0, 0]	n/a	catFR1	0	R1106M
1495.408	1.6	751631	WORD	n/a	wordpools/wordpool_categorized_EN.txt	MOUNTAIN	Landscapes	1	11	[0, 0, 0]	n/a	catFR1	0	R1106M
1497.858	1.6	752856	WORD	n/a	wordpools/wordpool_categorized_EN.txt	STREAM	Landscapes	2	11	[0, 0, 0]	n/a	catFR1	0	R1106M
1500.459	1.6	754157	WORD	n/a	wordpools/wordpool_categorized_EN.txt	LILAC	Flowers	3	11	[0, 0, 0]	n/a	catFR1	0	R1106M
1503.076	1.6	755465	WORD	n/a	wordpools/wordpool_categorized_EN.txt	PETUNIA	Flowers	4	11	[0, 0, 0]	n/a	catFR1	0	R1106M
1505.476	1.6	756665	WORD	n/a	wordpools/wordpool_categorized_EN.txt	DRESSER	Furniture	5	11	[0, 0, 0]	n/a	catFR1	0	R1106M
1507.927	1.6	757891	WORD	n/a	wordpools/wordpool_categorized_EN.txt	RECLINER	Furniture	6	11	[0, 0, 0]	n/a	catFR1	0	R1106M
1510.494	1.6	759174	WORD	n/a	wordpools/wordpool_categorized_EN.txt	RIVER	Landscapes	7	11	[0, 0, 0]	n/a	catFR1	0	R1106M
1513.078	1.6	760466	WORD	n/a	wordpools/wordpool_categorized_EN.txt	VALLEY	Landscapes	8	11	[0, 0, 0]	n/a	catFR1	0	R1106M
1515.578	1.6	761716	WORD	n/a	wordpools/wordpool_categorized_EN.txt	TABLE	Furniture	9	11	[0, 0, 0]	n/a	catFR1	0	R1106M
1518.012	1.6	762933	WORD	n/a	wordpools/wordpool_categorized_EN.txt	CHAIR	Furniture	10	11	[0, 0, 0]	n/a	catFR1	0	R1106M
1520.462	1.6	764158	WORD	n/a	wordpools/wordpool_categorized_EN.txt	LILY	Flowers	11	11	[0, 0, 0]	n/a	catFR1	0	R1106M
1522.946	1.6	765400	WORD	n/a	wordpools/wordpool_categorized_EN.txt	ROSE	Flowers	12	11	[0, 0, 0]	n/a	catFR1	0	R1106M
1524.563	0.001	766208	DISTRACT_START	n/a	n/a	n/a	n/a	-999	11	[0, 0, 0]	n/a	catFR1	0	R1106M
1524.564	0.016	766209	START	n/a	n/a	n/a	n/a	-999	11	[-999, -999, -999]	n/a	catFR1	0	R1106M
1524.58	16.92	766217	PROB	16.885	n/a	n/a	n/a	-999	11	[6, 4, 4]	14.0	catFR1	0	R1106M
1541.5	6.35	774676	PROB	6.35	n/a	n/a	n/a	-999	11	[7, 6, 2]	15.0	catFR1	0	R1106M
1547.85	0.018	777851	STOP	n/a	n/a	n/a	n/a	-999	11	[-999, -999, -999]	n/a	catFR1	0	R1106M
1547.868	1.134	777860	DISTRACT_END	n/a	n/a	n/a	n/a	-999	11	[0, 0, 0]	n/a	catFR1	0	R1106M
1549.002	0.0	778427	REC_START	n/a	n/a	n/a	n/a	-999	11	[0, 0, 0]	n/a	catFR1	0	R1106M
1549.002	30.011	778427	REC_WORD_VV	0.0	n/a	<>	n/a	-999	11	[0, 0, 0]	n/a	catFR1	0	R1106M
1579.013	11.28	793432	REC_END	n/a	n/a	n/a	n/a	-999	11	[0, 0, 0]	n/a	catFR1	0	R1106M
1590.293	10.0	799071	COUNTDOWN_START	n/a	n/a	n/a	n/a	-999	12	[0, 0, 0]	n/a	catFR1	0	R1106M
1590.293	10.428	799071	TRIAL	n/a	n/a	n/a	n/a	-999	12	[0, 0, 0]	n/a	catFR1	0	R1106M
1600.721	0.008	804285	COUNTDOWN_END	n/a	n/a	n/a	n/a	-999	12	[0, 0, 0]	n/a	catFR1	0	R1106M
1600.729	1.6	804289	ORIENT	n/a	n/a	n/a	n/a	-999	12	[0, 0, 0]	n/a	catFR1	0	R1106M
1604.579	1.6	806214	WORD	n/a	wordpools/wordpool_categorized_EN.txt	ORANGE	Fruit	1	12	[0, 0, 0]	n/a	catFR1	0	R1106M
1606.996	1.6	807422	WORD	n/a	wordpools/wordpool_categorized_EN.txt	CHERRY	Fruit	2	12	[0, 0, 0]	n/a	catFR1	0	R1106M
1609.53	1.6	808689	WORD	n/a	wordpools/wordpool_categorized_EN.txt	PRINTER	Electronics	3	12	[0, 0, 0]	n/a	catFR1	0	R1106M
1612.114	1.6	809981	WORD	n/a	wordpools/wordpool_categorized_EN.txt	COMPUTER	Electronics	4	12	[0, 0, 0]	n/a	catFR1	0	R1106M
1614.715	1.6	811282	WORD	n/a	wordpools/wordpool_categorized_EN.txt	SPOON	KitchenTools	5	12	[0, 0, 0]	n/a	catFR1	0	R1106M
1617.181	1.6	812515	WORD	n/a	wordpools/wordpool_categorized_EN.txt	COLANDER	KitchenTools	6	12	[0, 0, 0]	n/a	catFR1	0	R1106M
1619.632	1.6	813740	WORD	n/a	wordpools/wordpool_categorized_EN.txt	PEAR	Fruit	7	12	[0, 0, 0]	n/a	catFR1	0	R1106M
1622.249	1.6	815048	WORD	n/a	wordpools/wordpool_categorized_EN.txt	PLUM	Fruit	8	12	[0, 0, 0]	n/a	catFR1	0	R1106M
1624.684	1.6	816266	WORD	n/a	wordpools/wordpool_categorized_EN.txt	LADLE	KitchenTools	9	12	[0, 0, 0]	n/a	catFR1	0	R1106M
1627.083	1.6	817465	WORD	n/a	wordpools/wordpool_categorized_EN.txt	SPATULA	KitchenTools	10	12	[0, 0, 0]	n/a	catFR1	0	R1106M
1629.517	1.6	818682	WORD	n/a	wordpools/wordpool_categorized_EN.txt	CALCULATOR	Electronics	11	12	[0, 0, 0]	n/a	catFR1	0	R1106M
1631.984	1.6	819916	WORD	n/a	wordpools/wordpool_categorized_EN.txt	SPEAKER	Electronics	12	12	[0, 0, 0]	n/a	catFR1	0	R1106M
1633.602	0.001	820725	DISTRACT_START	n/a	n/a	n/a	n/a	-999	12	[0, 0, 0]	n/a	catFR1	0	R1106M
1633.603	0.016	820725	START	n/a	n/a	n/a	n/a	-999	12	[-999, -999, -999]	n/a	catFR1	0	R1106M
1633.619	7.051	820733	PROB	7.023	n/a	n/a	n/a	-999	12	[2, 7, 4]	13.0	catFR1	0	R1106M
1640.67	14.804	824258	PROB	14.804	n/a	n/a	n/a	-999	12	[6, 7, 5]	18.0	catFR1	0	R1106M
1655.474	0.015	831660	STOP	n/a	n/a	n/a	n/a	-999	12	[-999, -999, -999]	n/a	catFR1	0	R1106M
1655.489	1.201	831667	DISTRACT_END	n/a	n/a	n/a	n/a	-999	12	[0, 0, 0]	n/a	catFR1	0	R1106M
1656.69	3.619	832268	REC_START	n/a	n/a	n/a	n/a	-999	12	[0, 0, 0]	n/a	catFR1	0	R1106M
1660.309	5.457	834077	REC_WORD	3.619	n/a	SPATULA	KitchenTools	10	12	[0, 0, 0]	n/a	catFR1	0	R1106M
1665.766	1.54	836806	REC_WORD	9.076	n/a	MOUNTAIN	n/a	-999	12	[0, 0, 0]	n/a	catFR1	0	R1106M
1667.306	3.906	837576	REC_WORD	10.616	n/a	RIVER	n/a	-999	12	[0, 0, 0]	n/a	catFR1	0	R1106M
1671.212	15.493	839528	REC_WORD	14.522	n/a	SPOON	KitchenTools	5	12	[0, 0, 0]	n/a	catFR1	0	R1106M
1686.705	14.659	847275	REC_END	n/a	n/a	n/a	n/a	-999	12	[0, 0, 0]	n/a	catFR1	0	R1106M
1701.364	0.0	854604	TRIAL	n/a	n/a	n/a	n/a	-999	13	[0, 0, 0]	n/a	catFR1	0	R1106M
1701.364	10.0	854604	COUNTDOWN_START	n/a	n/a	n/a	n/a	-999	13	[0, 0, 0]	n/a	catFR1	0	R1106M
1711.792	0.009	859817	COUNTDOWN_END	n/a	n/a	n/a	n/a	-999	13	[0, 0, 0]	n/a	catFR1	0	R1106M
1711.801	1.6	859822	ORIENT	n/a	n/a	n/a	n/a	-999	13	[0, 0, 0]	n/a	catFR1	0	R1106M
1715.601	1.6	861722	WORD	n/a	wordpools/wordpool_categorized_EN.txt	NOTEBOOK	OfficeSupplies	1	13	[0, 0, 0]	n/a	catFR1	0	R1106M
1718.218	1.6	863030	WORD	n/a	wordpools/wordpool_categorized_EN.txt	RULER	OfficeSupplies	2	13	[0, 0, 0]	n/a	catFR1	0	R1106M
1720.752	1.6	864297	WORD	n/a	wordpools/wordpool_categorized_EN.txt	CELLO	Instruments	3	13	[0, 0, 0]	n/a	catFR1	0	R1106M
1723.285	1.6	865563	WORD	n/a	wordpools/wordpool_categorized_EN.txt	PIANO	Instruments	4	13	[0, 0, 0]	n/a	catFR1	0	R1106M
1725.902	1.6	866872	WORD	n/a	wordpools/wordpool_categorized_EN.txt	KNIFE	KitchenTools	5	13	[0, 0, 0]	n/a	catFR1	0	R1106M
1728.453	1.6	868147	WORD	n/a	wordpools/wordpool_categorized_EN.txt	PEELER	KitchenTools	6	13	[0, 0, 0]	n/a	catFR1	0	R1106M
1731.02	1.6	869431	WORD	n/a	wordpools/wordpool_categorized_EN.txt	ORGAN	Instruments	7	13	[0, 0, 0]	n/a	catFR1	0	R1106M
1733.437	1.6	870639	WORD	n/a	wordpools/wordpool_categorized_EN.txt	GUITAR	Instruments	8	13	[0, 0, 0]	n/a	catFR1	0	R1106M
1735.888	1.6	871865	WORD	n/a	wordpools/wordpool_categorized_EN.txt	PENCIL	OfficeSupplies	9	13	[0, 0, 0]	n/a	catFR1	0	R1106M
1738.488	1.6	873165	WORD	n/a	wordpools/wordpool_categorized_EN.txt	GLUE	OfficeSupplies	10	13	[0, 0, 0]	n/a	catFR1	0	R1106M
1740.905	1.6	874373	WORD	n/a	wordpools/wordpool_categorized_EN.txt	WHISK	KitchenTools	11	13	[0, 0, 0]	n/a	catFR1	0	R1106M
1743.489	1.6	875665	WORD	n/a	wordpools/wordpool_categorized_EN.txt	TONGS	KitchenTools	12	13	[0, 0, 0]	n/a	catFR1	0	R1106M
1745.106	0.001	876473	DISTRACT_START	n/a	n/a	n/a	n/a	-999	13	[0, 0, 0]	n/a	catFR1	0	R1106M
1745.107	0.016	876474	START	n/a	n/a	n/a	n/a	-999	13	[-999, -999, -999]	n/a	catFR1	0	R1106M
1745.123	5.884	876482	PROB	5.862	n/a	n/a	n/a	-999	13	[2, 3, 5]	2.0	catFR1	0	R1106M
1751.007	5.752	879424	PROB	5.724	n/a	n/a	n/a	-999	13	[1, 9, 3]	10.0	catFR1	0	R1106M
1756.759	9.186	882300	PROB	9.186	n/a	n/a	n/a	-999	13	[2, 1, 6]	9.0	catFR1	0	R1106M
1765.945	0.015	886892	STOP	n/a	n/a	n/a	n/a	-999	13	[-999, -999, -999]	n/a	catFR1	0	R1106M
1765.96	1.085	886900	DISTRACT_END	n/a	n/a	n/a	n/a	-999	13	[0, 0, 0]	n/a	catFR1	0	R1106M
1767.045	0.698	887442	REC_START	n/a	n/a	n/a	n/a	-999	13	[0, 0, 0]	n/a	catFR1	0	R1106M
1767.743	2.299	887791	REC_WORD_VV	0.698	n/a	<>	n/a	-999	13	[0, 0, 0]	n/a	catFR1	0	R1106M
1770.042	1.114	888941	REC_WORD_VV	2.997	n/a	<>	n/a	-999	13	[0, 0, 0]	n/a	catFR1	0	R1106M
1771.156	2.164	889498	REC_WORD_VV	4.111	n/a	<>	n/a	-999	13	[0, 0, 0]	n/a	catFR1	0	R1106M
1773.32	5.88	890580	REC_WORD_VV	6.275	n/a	<>	n/a	-999	13	[0, 0, 0]	n/a	catFR1	0	R1106M
1779.2	1.069	893519	REC_WORD_VV	12.155	n/a	<>	n/a	-999	13	[0, 0, 0]	n/a	catFR1	0	R1106M
1780.269	4.464	894054	REC_WORD	13.224	n/a	PRINCIPAL	n/a	-999	13	[0, 0, 0]	n/a	catFR1	0	R1106M
1784.733	3.487	896286	REC_WORD	17.688	n/a	PENCIL	OfficeSupplies	9	13	[0, 0, 0]	n/a	catFR1	0	R1106M
1788.22	8.837	898029	REC_WORD	21.175	n/a	RULER	OfficeSupplies	2	13	[0, 0, 0]	n/a	catFR1	0	R1106M
1797.057	7.994	902447	REC_END	n/a	n/a	n/a	n/a	-999	13	[0, 0, 0]	n/a	catFR1	0	R1106M
1805.051	0.0	906444	TRIAL	n/a	n/a	n/a	n/a	-999	14	[0, 0, 0]	n/a	catFR1	0	R1106M
1805.051	10.0	906444	COUNTDOWN_START	n/a	n/a	n/a	n/a	-999	14	[0, 0, 0]	n/a	catFR1	0	R1106M
1815.479	0.007	911658	COUNTDOWN_END	n/a	n/a	n/a	n/a	-999	14	[0, 0, 0]	n/a	catFR1	0	R1106M
1815.486	1.6	911661	ORIENT	n/a	n/a	n/a	n/a	-999	14	[0, 0, 0]	n/a	catFR1	0	R1106M
1819.287	1.6	913562	WORD	n/a	wordpools/wordpool_categorized_EN.txt	HAWK	Birds	1	14	[0, 0, 0]	n/a	catFR1	0	R1106M
1821.888	1.6	914862	WORD	n/a	wordpools/wordpool_categorized_EN.txt	BLUEBIRD	Birds	2	14	[0, 0, 0]	n/a	catFR1	0	R1106M
1824.288	1.6	916062	WORD	n/a	wordpools/wordpool_categorized_EN.txt	OYSTER	OceanAnimals	3	14	[0, 0, 0]	n/a	catFR1	0	R1106M
1826.673	1.6	917255	WORD	n/a	wordpools/wordpool_categorized_EN.txt	FISH	OceanAnimals	4	14	[0, 0, 0]	n/a	catFR1	0	R1106M
1829.189	1.6	918512	WORD	n/a	wordpools/wordpool_categorized_EN.txt	CARNATION	Flowers	5	14	[0, 0, 0]	n/a	catFR1	0	R1106M
1831.757	1.6	919796	WORD	n/a	wordpools/wordpool_categorized_EN.txt	TULIP	Flowers	6	14	[0, 0, 0]	n/a	catFR1	0	R1106M
1834.373	1.6	921104	WORD	n/a	wordpools/wordpool_categorized_EN.txt	JELLYFISH	OceanAnimals	7	14	[0, 0, 0]	n/a	catFR1	0	R1106M
1836.957	1.6	922396	WORD	n/a	wordpools/wordpool_categorized_EN.txt	CRAB	OceanAnimals	8	14	[0, 0, 0]	n/a	catFR1	0	R1106M
1839.491	1.6	923663	WORD	n/a	wordpools/wordpool_categorized_EN.txt	DOVE	Birds	9	14	[0, 0, 0]	n/a	catFR1	0	R1106M
1842.091	1.6	924963	WORD	n/a	wordpools/wordpool_categorized_EN.txt	FINCH	Birds	10	14	[0, 0, 0]	n/a	catFR1	0	R1106M
1844.61	1.6	926223	WORD	n/a	wordpools/wordpool_categorized_EN.txt	DAFFODIL	Flowers	11	14	[0, 0, 0]	n/a	catFR1	0	R1106M
1847.176	1.6	927505	WORD	n/a	wordpools/wordpool_categorized_EN.txt	DAISY	Flowers	12	14	[0, 0, 0]	n/a	catFR1	0	R1106M
1848.794	0.001	928314	DISTRACT_START	n/a	n/a	n/a	n/a	-999	14	[0, 0, 0]	n/a	catFR1	0	R1106M
1848.795	0.014	928315	START	n/a	n/a	n/a	n/a	-999	14	[-999, -999, -999]	n/a	catFR1	0	R1106M
1848.809	29.329	928322	PROB	29.329	n/a	n/a	n/a	-999	14	[8, 6, 9]	23.0	catFR1	0	R1106M
1878.138	0.01	942986	STOP	n/a	n/a	n/a	n/a	-999	14	[-999, -999, -999]	n/a	catFR1	0	R1106M
1878.148	1.068	942991	DISTRACT_END	n/a	n/a	n/a	n/a	-999	14	[0, 0, 0]	n/a	catFR1	0	R1106M
1879.216	1.532	943525	REC_START	n/a	n/a	n/a	n/a	-999	14	[0, 0, 0]	n/a	catFR1	0	R1106M
1880.748	12.578	944291	REC_WORD_VV	1.532	n/a	<>	n/a	-999	14	[0, 0, 0]	n/a	catFR1	0	R1106M
1893.326	0.464	950579	REC_WORD_VV	14.11	n/a	<>	n/a	-999	14	[0, 0, 0]	n/a	catFR1	0	R1106M
1893.79	3.053	950811	REC_WORD_VV	14.574	n/a	<>	n/a	-999	14	[0, 0, 0]	n/a	catFR1	0	R1106M
1896.843	1.165	952338	REC_WORD	17.627	n/a	OYSTER	OceanAnimals	3	14	[0, 0, 0]	n/a	catFR1	0	R1106M
1898.008	1.133	952920	REC_WORD	18.792	n/a	CLAM	n/a	-999	14	[0, 0, 0]	n/a	catFR1	0	R1106M
1899.141	10.086	953487	REC_WORD_VV	19.925	n/a	<>	n/a	-999	14	[0, 0, 0]	n/a	catFR1	0	R1106M
1909.227	22.248	958529	REC_END	n/a	n/a	n/a	n/a	-999	14	[0, 0, 0]	n/a	catFR1	0	R1106M
1931.475	10.0	969653	COUNTDOWN_START	n/a	n/a	n/a	n/a	-999	15	[0, 0, 0]	n/a	catFR1	0	R1106M
1931.476	10.427	969653	TRIAL	n/a	n/a	n/a	n/a	-999	15	[0, 0, 0]	n/a	catFR1	0	R1106M
1941.903	0.008	974866	COUNTDOWN_END	n/a	n/a	n/a	n/a	-999	15	[0, 0, 0]	n/a	catFR1	0	R1106M
1941.911	1.6	974870	ORIENT	n/a	n/a	n/a	n/a	-999	15	[0, 0, 0]	n/a	catFR1	0	R1106M
1945.545	1.6	976687	WORD	n/a	wordpools/wordpool_categorized_EN.txt	WALNUT	Trees	1	15	[0, 0, 0]	n/a	catFR1	0	R1106M
1948.079	1.6	977954	WORD	n/a	wordpools/wordpool_categorized_EN.txt	MAPLE	Trees	2	15	[0, 0, 0]	n/a	catFR1	0	R1106M
1950.697	1.6	979263	WORD	n/a	wordpools/wordpool_categorized_EN.txt	OVEN	Appliances	3	15	[0, 0, 0]	n/a	catFR1	0	R1106M
1953.313	1.6	980571	WORD	n/a	wordpools/wordpool_categorized_EN.txt	MIXER	Appliances	4	15	[0, 0, 0]	n/a	catFR1	0	R1106M
1955.863	1.6	981846	WORD	n/a	wordpools/wordpool_categorized_EN.txt	TURTLE	OceanAnimals	5	15	[0, 0, 0]	n/a	catFR1	0	R1106M
1958.331	1.6	983080	WORD	n/a	wordpools/wordpool_categorized_EN.txt	OCTOPUS	OceanAnimals	6	15	[0, 0, 0]	n/a	catFR1	0	R1106M
1960.948	1.6	984388	WORD	n/a	wordpools/wordpool_categorized_EN.txt	DISHWASHER	Appliances	7	15	[0, 0, 0]	n/a	catFR1	0	R1106M
1963.348	1.6	985588	WORD	n/a	wordpools/wordpool_categorized_EN.txt	VACUUM	Appliances	8	15	[0, 0, 0]	n/a	catFR1	0	R1106M
1965.898	1.6	986863	WORD	n/a	wordpools/wordpool_categorized_EN.txt	ELM	Trees	9	15	[0, 0, 0]	n/a	catFR1	0	R1106M
1968.483	1.6	988156	WORD	n/a	wordpools/wordpool_categorized_EN.txt	PINE	Trees	10	15	[0, 0, 0]	n/a	catFR1	0	R1106M
1970.916	1.6	989372	WORD	n/a	wordpools/wordpool_categorized_EN.txt	DOLPHIN	OceanAnimals	11	15	[0, 0, 0]	n/a	catFR1	0	R1106M
1973.35	1.6	990589	WORD	n/a	wordpools/wordpool_categorized_EN.txt	SHRIMP	OceanAnimals	12	15	[0, 0, 0]	n/a	catFR1	0	R1106M
1974.967	0.001	991397	DISTRACT_START	n/a	n/a	n/a	n/a	-999	15	[0, 0, 0]	n/a	catFR1	0	R1106M
1974.968	0.016	991398	START	n/a	n/a	n/a	n/a	-999	15	[-999, -999, -999]	n/a	catFR1	0	R1106M
1974.984	15.536	991406	PROB	15.506	n/a	n/a	n/a	-999	15	[1, 1, 7]	9.0	catFR1	0	R1106M
1990.52	8.705	999173	PROB	8.705	n/a	n/a	n/a	-999	15	[9, 7, 2]	18.0	catFR1	0	R1106M
1999.225	0.013	1003526	STOP	n/a	n/a	n/a	n/a	-999	15	[-999, -999, -999]	n/a	catFR1	0	R1106M
1999.238	1.135	1003532	DISTRACT_END	n/a	n/a	n/a	n/a	-999	15	[0, 0, 0]	n/a	catFR1	0	R1106M
2000.373	0.0	1004100	REC_START	n/a	n/a	n/a	n/a	-999	15	[0, 0, 0]	n/a	catFR1	0	R1106M
2000.373	30.011	1004100	REC_WORD_VV	0.0	n/a	<>	n/a	-999	15	[0, 0, 0]	n/a	catFR1	0	R1106M
2030.384	11.429	1019104	REC_END	n/a	n/a	n/a	n/a	-999	15	[0, 0, 0]	n/a	catFR1	0	R1106M
2041.813	0.0	1024818	TRIAL	n/a	n/a	n/a	n/a	-999	16	[0, 0, 0]	n/a	catFR1	0	R1106M
2041.813	10.0	1024818	COUNTDOWN_START	n/a	n/a	n/a	n/a	-999	16	[0, 0, 0]	n/a	catFR1	0	R1106M
2052.241	0.008	1030032	COUNTDOWN_END	n/a	n/a	n/a	n/a	-999	16	[0, 0, 0]	n/a	catFR1	0	R1106M
2052.249	1.6	1030036	ORIENT	n/a	n/a	n/a	n/a	-999	16	[0, 0, 0]	n/a	catFR1	0	R1106M
2056.166	1.6	1031995	WORD	n/a	wordpools/wordpool_categorized_EN.txt	JACKET	Clothing	1	16	[0, 0, 0]	n/a	catFR1	0	R1106M
2058.684	1.6	1033253	WORD	n/a	wordpools/wordpool_categorized_EN.txt	PANTS	Clothing	2	16	[0, 0, 0]	n/a	catFR1	0	R1106M
2061.25	1.6	1034536	WORD	n/a	wordpools/wordpool_categorized_EN.txt	BIRCH	Trees	3	16	[0, 0, 0]	n/a	catFR1	0	R1106M
2063.834	1.6	1035828	WORD	n/a	wordpools/wordpool_categorized_EN.txt	HICKORY	Trees	4	16	[0, 0, 0]	n/a	catFR1	0	R1106M
2066.251	1.6	1037037	WORD	n/a	wordpools/wordpool_categorized_EN.txt	WRENCH	Tools	5	16	[0, 0, 0]	n/a	catFR1	0	R1106M
2068.686	1.6	1038254	WORD	n/a	wordpools/wordpool_categorized_EN.txt	LEVEL	Tools	6	16	[0, 0, 0]	n/a	catFR1	0	R1106M
2071.135	1.6	1039479	WORD	n/a	wordpools/wordpool_categorized_EN.txt	WILLOW	Trees	7	16	[0, 0, 0]	n/a	catFR1	0	R1106M
2073.704	1.6	1040763	WORD	n/a	wordpools/wordpool_categorized_EN.txt	EVERGREEN	Trees	8	16	[0, 0, 0]	n/a	catFR1	0	R1106M
2076.253	1.6	1042037	WORD	n/a	wordpools/wordpool_categorized_EN.txt	JEANS	Clothing	9	16	[0, 0, 0]	n/a	catFR1	0	R1106M
2078.871	1.6	1043346	WORD	n/a	wordpools/wordpool_categorized_EN.txt	SKIRT	Clothing	10	16	[0, 0, 0]	n/a	catFR1	0	R1106M
2081.388	1.6	1044605	WORD	n/a	wordpools/wordpool_categorized_EN.txt	PLIERS	Tools	11	16	[0, 0, 0]	n/a	catFR1	0	R1106M
2083.922	1.6	1045872	WORD	n/a	wordpools/wordpool_categorized_EN.txt	CROWBAR	Tools	12	16	[0, 0, 0]	n/a	catFR1	0	R1106M
2085.539	0.001	1046680	DISTRACT_START	n/a	n/a	n/a	n/a	-999	16	[0, 0, 0]	n/a	catFR1	0	R1106M
2085.54	0.015	1046681	START	n/a	n/a	n/a	n/a	-999	16	[-999, -999, -999]	n/a	catFR1	0	R1106M
2085.555	15.47	1046688	PROB	15.446	n/a	n/a	n/a	-999	16	[2, 9, 7]	18.0	catFR1	0	R1106M
2101.025	7.057	1054423	PROB	7.057	n/a	n/a	n/a	-999	16	[7, 7, 4]	18.0	catFR1	0	R1106M
2108.082	0.011	1057951	STOP	n/a	n/a	n/a	n/a	-999	16	[-999, -999, -999]	n/a	catFR1	0	R1106M
2108.093	1.118	1057957	DISTRACT_END	n/a	n/a	n/a	n/a	-999	16	[0, 0, 0]	n/a	catFR1	0	R1106M
2109.211	4.607	1058516	REC_START	n/a	n/a	n/a	n/a	-999	16	[0, 0, 0]	n/a	catFR1	0	R1106M
2113.818	4.014	1060819	REC_WORD	4.607	n/a	JACKET	Clothing	1	16	[0, 0, 0]	n/a	catFR1	0	R1106M
2117.832	19.879	1062826	REC_WORD	8.621	n/a	PANTS	Clothing	2	16	[0, 0, 0]	n/a	catFR1	0	R1106M
2137.711	1.511	1072765	REC_WORD_VV	28.5	n/a	<>	n/a	-999	16	[0, 0, 0]	n/a	catFR1	0	R1106M
2139.222	8.329	1073520	REC_END	n/a	n/a	n/a	n/a	-999	16	[0, 0, 0]	n/a	catFR1	0	R1106M
2147.551	0.0	1077684	TRIAL	n/a	n/a	n/a	n/a	-999	17	[0, 0, 0]	n/a	catFR1	0	R1106M
2147.551	10.0	1077684	COUNTDOWN_START	n/a	n/a	n/a	n/a	-999	17	[0, 0, 0]	n/a	catFR1	0	R1106M
2157.979	0.007	1082898	COUNTDOWN_END	n/a	n/a	n/a	n/a	-999	17	[0, 0, 0]	n/a	catFR1	0	R1106M
2157.986	1.6	1082902	ORIENT	n/a	n/a	n/a	n/a	-999	17	[0, 0, 0]	n/a	catFR1	0	R1106M
2161.82	1.6	1084819	WORD	n/a	wordpools/wordpool_categorized_EN.txt	PUZZLE	Toys	1	17	[0, 0, 0]	n/a	catFR1	0	R1106M
2164.404	1.6	1086111	WORD	n/a	wordpools/wordpool_categorized_EN.txt	DOLL	Toys	2	17	[0, 0, 0]	n/a	catFR1	0	R1106M
2166.987	1.6	1087402	WORD	n/a	wordpools/wordpool_categorized_EN.txt	MOUSSE	Desserts	3	17	[0, 0, 0]	n/a	catFR1	0	R1106M
2169.438	1.6	1088627	WORD	n/a	wordpools/wordpool_categorized_EN.txt	CUPCAKE	Desserts	4	17	[0, 0, 0]	n/a	catFR1	0	R1106M
2171.872	1.6	1089844	WORD	n/a	wordpools/wordpool_categorized_EN.txt	HEN	FarmAnimals	5	17	[0, 0, 0]	n/a	catFR1	0	R1106M
2174.356	1.6	1091086	WORD	n/a	wordpools/wordpool_categorized_EN.txt	ROOSTER	FarmAnimals	6	17	[0, 0, 0]	n/a	catFR1	0	R1106M
2176.774	1.6	1092295	WORD	n/a	wordpools/wordpool_categorized_EN.txt	BLOCKS	Toys	7	17	[0, 0, 0]	n/a	catFR1	0	R1106M
2179.323	1.6	1093570	WORD	n/a	wordpools/wordpool_categorized_EN.txt	DOLLHOUSE	Toys	8	17	[0, 0, 0]	n/a	catFR1	0	R1106M
2181.857	1.6	1094837	WORD	n/a	wordpools/wordpool_categorized_EN.txt	TURKEY	FarmAnimals	9	17	[0, 0, 0]	n/a	catFR1	0	R1106M
2184.374	1.6	1096095	WORD	n/a	wordpools/wordpool_categorized_EN.txt	SHEEP	FarmAnimals	10	17	[0, 0, 0]	n/a	catFR1	0	R1106M
2186.858	1.6	1097337	WORD	n/a	wordpools/wordpool_categorized_EN.txt	COOKIE	Desserts	11	17	[0, 0, 0]	n/a	catFR1	0	R1106M
2189.275	1.6	1098545	WORD	n/a	wordpools/wordpool_categorized_EN.txt	CHEESECAKE	Desserts	12	17	[0, 0, 0]	n/a	catFR1	0	R1106M
2190.892	0.001	1099354	DISTRACT_START	n/a	n/a	n/a	n/a	-999	17	[0, 0, 0]	n/a	catFR1	0	R1106M
2190.893	0.016	1099354	START	n/a	n/a	n/a	n/a	-999	17	[-999, -999, -999]	n/a	catFR1	0	R1106M
2190.909	22.189	1099362	PROB	22.189	n/a	n/a	n/a	-999	17	[9, 9, 6]	24.0	catFR1	0	R1106M
2213.098	0.015	1110456	STOP	n/a	n/a	n/a	n/a	-999	17	[-999, -999, -999]	n/a	catFR1	0	R1106M
2213.113	1.201	1110464	DISTRACT_END	n/a	n/a	n/a	n/a	-999	17	[0, 0, 0]	n/a	catFR1	0	R1106M
2214.314	4.785	1111064	REC_START	n/a	n/a	n/a	n/a	-999	17	[0, 0, 0]	n/a	catFR1	0	R1106M
2219.099	25.226	1113456	REC_WORD	4.785	n/a	BIRCH	n/a	-999	17	[0, 0, 0]	n/a	catFR1	0	R1106M
2244.325	9.447	1126069	REC_END	n/a	n/a	n/a	n/a	-999	17	[0, 0, 0]	n/a	catFR1	0	R1106M
2253.772	0.0	1130792	TRIAL	n/a	n/a	n/a	n/a	-999	18	[0, 0, 0]	n/a	catFR1	0	R1106M
2253.772	10.0	1130792	COUNTDOWN_START	n/a	n/a	n/a	n/a	-999	18	[0, 0, 0]	n/a	catFR1	0	R1106M
2264.2	0.006	1136006	COUNTDOWN_END	n/a	n/a	n/a	n/a	-999	18	[0, 0, 0]	n/a	catFR1	0	R1106M
2264.206	1.6	1136009	ORIENT	n/a	n/a	n/a	n/a	-999	18	[0, 0, 0]	n/a	catFR1	0	R1106M
2267.89	1.6	1137851	WORD	n/a	wordpools/wordpool_categorized_EN.txt	BEAR	Zoo	1	18	[0, 0, 0]	n/a	catFR1	0	R1106M
2270.408	1.6	1139109	WORD	n/a	wordpools/wordpool_categorized_EN.txt	GIRAFFE	Zoo	2	18	[0, 0, 0]	n/a	catFR1	0	R1106M
2273.008	1.6	1140409	WORD	n/a	wordpools/wordpool_categorized_EN.txt	CROW	Birds	3	18	[0, 0, 0]	n/a	catFR1	0	R1106M
2275.525	1.6	1141668	WORD	n/a	wordpools/wordpool_categorized_EN.txt	PIGEON	Birds	4	18	[0, 0, 0]	n/a	catFR1	0	R1106M
2278.009	1.6	1142910	WORD	n/a	wordpools/wordpool_categorized_EN.txt	PUDDING	Desserts	5	18	[0, 0, 0]	n/a	catFR1	0	R1106M
2280.476	1.6	1144143	WORD	n/a	wordpools/wordpool_categorized_EN.txt	PASTRY	Desserts	6	18	[0, 0, 0]	n/a	catFR1	0	R1106M
2283.043	1.6	1145427	WORD	n/a	wordpools/wordpool_categorized_EN.txt	ELEPHANT	Zoo	7	18	[0, 0, 0]	n/a	catFR1	0	R1106M
2285.628	1.6	1146719	WORD	n/a	wordpools/wordpool_categorized_EN.txt	MONKEY	Zoo	8	18	[0, 0, 0]	n/a	catFR1	0	R1106M
2288.244	1.6	1148027	WORD	n/a	wordpools/wordpool_categorized_EN.txt	JELLO	Desserts	9	18	[0, 0, 0]	n/a	catFR1	0	R1106M
2290.746	1.6	1149278	WORD	n/a	wordpools/wordpool_categorized_EN.txt	COBBLER	Desserts	10	18	[0, 0, 0]	n/a	catFR1	0	R1106M
2293.179	1.6	1150494	WORD	n/a	wordpools/wordpool_categorized_EN.txt	ROBIN	Birds	11	18	[0, 0, 0]	n/a	catFR1	0	R1106M
2295.613	1.6	1151711	WORD	n/a	wordpools/wordpool_categorized_EN.txt	CARDINAL	Birds	12	18	[0, 0, 0]	n/a	catFR1	0	R1106M
2297.229	0.001	1152519	DISTRACT_START	n/a	n/a	n/a	n/a	-999	18	[0, 0, 0]	n/a	catFR1	0	R1106M
2297.23	0.016	1152520	START	n/a	n/a	n/a	n/a	-999	18	[-999, -999, -999]	n/a	catFR1	0	R1106M
2297.246	8.118	1152528	PROB	8.091	n/a	n/a	n/a	-999	18	[5, 2, 7]	14.0	catFR1	0	R1106M
2305.364	12.734	1156587	PROB	12.734	n/a	n/a	n/a	-999	18	[2, 7, 4]	13.0	catFR1	0	R1106M
2318.098	0.019	1162953	STOP	n/a	n/a	n/a	n/a	-999	18	[-999, -999, -999]	n/a	catFR1	0	R1106M
2318.117	1.134	1162963	DISTRACT_END	n/a	n/a	n/a	n/a	-999	18	[0, 0, 0]	n/a	catFR1	0	R1106M
2319.251	0.645	1163530	REC_START	n/a	n/a	n/a	n/a	-999	18	[0, 0, 0]	n/a	catFR1	0	R1106M
2319.896	6.888	1163852	REC_WORD	0.645	n/a	CARDINAL	Birds	12	18	[0, 0, 0]	n/a	catFR1	0	R1106M
2326.784	2.684	1167296	REC_WORD	7.533	n/a	ROBIN	Birds	11	18	[0, 0, 0]	n/a	catFR1	0	R1106M
2329.468	19.278	1168638	REC_WORD	10.217	n/a	ORIOLE	n/a	-999	18	[0, 0, 0]	n/a	catFR1	0	R1106M
2348.746	0.517	1178276	REC_WORD_VV	29.495	n/a	<>	n/a	-999	18	[0, 0, 0]	n/a	catFR1	0	R1106M
2349.263	27.632	1178535	REC_END	n/a	n/a	n/a	n/a	-999	18	[0, 0, 0]	n/a	catFR1	0	R1106M
2376.895	0.0	1192350	TRIAL	n/a	n/a	n/a	n/a	-999	19	[0, 0, 0]	n/a	catFR1	0	R1106M
2376.895	10.0	1192350	COUNTDOWN_START	n/a	n/a	n/a	n/a	-999	19	[0, 0, 0]	n/a	catFR1	0	R1106M
2387.323	0.007	1197564	COUNTDOWN_END	n/a	n/a	n/a	n/a	-999	19	[0, 0, 0]	n/a	catFR1	0	R1106M
2387.33	1.6	1197567	ORIENT	n/a	n/a	n/a	n/a	-999	19	[0, 0, 0]	n/a	catFR1	0	R1106M
2390.881	1.6	1199343	WORD	n/a	wordpools/wordpool_categorized_EN.txt	SPINACH	Vegetables	1	19	[0, 0, 0]	n/a	catFR1	0	R1106M
2393.448	1.6	1200626	WORD	n/a	wordpools/wordpool_categorized_EN.txt	CABBAGE	Vegetables	2	19	[0, 0, 0]	n/a	catFR1	0	R1106M
2396.065	1.6	1201934	WORD	n/a	wordpools/wordpool_categorized_EN.txt	CREEK	Landscapes	3	19	[0, 0, 0]	n/a	catFR1	0	R1106M
2398.466	1.6	1203135	WORD	n/a	wordpools/wordpool_categorized_EN.txt	FOREST	Landscapes	4	19	[0, 0, 0]	n/a	catFR1	0	R1106M
2400.966	1.6	1204385	WORD	n/a	wordpools/wordpool_categorized_EN.txt	SPARROW	Birds	5	19	[0, 0, 0]	n/a	catFR1	0	R1106M
2403.367	1.6	1205585	WORD	n/a	wordpools/wordpool_categorized_EN.txt	SEAGULL	Birds	6	19	[0, 0, 0]	n/a	catFR1	0	R1106M
2405.85	1.6	1206827	WORD	n/a	wordpools/wordpool_categorized_EN.txt	BEACH	Landscapes	7	19	[0, 0, 0]	n/a	catFR1	0	R1106M
2408.301	1.6	1208052	WORD	n/a	wordpools/wordpool_categorized_EN.txt	OCEAN	Landscapes	8	19	[0, 0, 0]	n/a	catFR1	0	R1106M
2410.735	1.6	1209269	WORD	n/a	wordpools/wordpool_categorized_EN.txt	CAULIFLOWER	Vegetables	9	19	[0, 0, 0]	n/a	catFR1	0	R1106M
2413.352	1.6	1210577	WORD	n/a	wordpools/wordpool_categorized_EN.txt	CORN	Vegetables	10	19	[0, 0, 0]	n/a	catFR1	0	R1106M
2415.969	1.6	1211886	WORD	n/a	wordpools/wordpool_categorized_EN.txt	DUCK	Birds	11	19	[0, 0, 0]	n/a	catFR1	0	R1106M
2418.47	1.6	1213136	WORD	n/a	wordpools/wordpool_categorized_EN.txt	GOOSE	Birds	12	19	[0, 0, 0]	n/a	catFR1	0	R1106M
2420.086	0.001	1213944	DISTRACT_START	n/a	n/a	n/a	n/a	-999	19	[0, 0, 0]	n/a	catFR1	0	R1106M
2420.087	0.016	1213945	START	n/a	n/a	n/a	n/a	-999	19	[-999, -999, -999]	n/a	catFR1	0	R1106M
2420.103	4.751	1213953	PROB	4.723	n/a	n/a	n/a	-999	19	[3, 7, 1]	11.0	catFR1	0	R1106M
2424.854	5.802	1216328	PROB	5.773	n/a	n/a	n/a	-999	19	[5, 2, 6]	13.0	catFR1	0	R1106M
2430.656	5.101	1219229	PROB	5.075	n/a	n/a	n/a	-999	19	[1, 4, 9]	14.0	catFR1	0	R1106M
2435.757	11.525	1221779	PROB	11.525	n/a	n/a	n/a	-999	19	[8, 7, 6]	21.0	catFR1	0	R1106M
2447.282	0.01	1227541	STOP	n/a	n/a	n/a	n/a	-999	19	[-999, -999, -999]	n/a	catFR1	0	R1106M
2447.292	1.034	1227546	DISTRACT_END	n/a	n/a	n/a	n/a	-999	19	[0, 0, 0]	n/a	catFR1	0	R1106M
2448.326	2.757	1228063	REC_START	n/a	n/a	n/a	n/a	-999	19	[0, 0, 0]	n/a	catFR1	0	R1106M
2451.083	0.55	1229442	REC_WORD_VV	2.757	n/a	<>	n/a	-999	19	[0, 0, 0]	n/a	catFR1	0	R1106M
2451.633	2.893	1229717	REC_WORD	3.307	n/a	DUCK	Birds	11	19	[0, 0, 0]	n/a	catFR1	0	R1106M
2454.526	1.703	1231163	REC_WORD	6.2	n/a	SPINACH	Vegetables	1	19	[0, 0, 0]	n/a	catFR1	0	R1106M
2456.229	4.995	1232015	REC_WORD	7.903	n/a	CAULIFLOWER	Vegetables	9	19	[0, 0, 0]	n/a	catFR1	0	R1106M
2461.224	17.114	1234512	REC_WORD_VV	12.898	n/a	<>	n/a	-999	19	[0, 0, 0]	n/a	catFR1	0	R1106M
2478.338	6.244	1243069	REC_END	n/a	n/a	n/a	n/a	-999	19	[0, 0, 0]	n/a	catFR1	0	R1106M
2484.582	0.0	1246190	TRIAL	n/a	n/a	n/a	n/a	-999	20	[0, 0, 0]	n/a	catFR1	0	R1106M
2484.582	10.0	1246190	COUNTDOWN_START	n/a	n/a	n/a	n/a	-999	20	[0, 0, 0]	n/a	catFR1	0	R1106M
2495.01	0.008	1251404	COUNTDOWN_END	n/a	n/a	n/a	n/a	-999	20	[0, 0, 0]	n/a	catFR1	0	R1106M
2495.018	1.6	1251408	ORIENT	n/a	n/a	n/a	n/a	-999	20	[0, 0, 0]	n/a	catFR1	0	R1106M
2498.653	1.6	1253226	WORD	n/a	wordpools/wordpool_categorized_EN.txt	BEETLE	Insects	1	20	[0, 0, 0]	n/a	catFR1	0	R1106M
2501.119	1.6	1254458	WORD	n/a	wordpools/wordpool_categorized_EN.txt	LADYBUG	Insects	2	20	[0, 0, 0]	n/a	catFR1	0	R1106M
2503.536	1.6	1255667	WORD	n/a	wordpools/wordpool_categorized_EN.txt	KNEE	BodyParts	3	20	[0, 0, 0]	n/a	catFR1	0	R1106M
2505.92	1.6	1256859	WORD	n/a	wordpools/wordpool_categorized_EN.txt	ARM	BodyParts	4	20	[0, 0, 0]	n/a	catFR1	0	R1106M
2508.42	1.6	1258109	WORD	n/a	wordpools/wordpool_categorized_EN.txt	RAIN	Weather	5	20	[0, 0, 0]	n/a	catFR1	0	R1106M
2510.921	1.6	1259359	WORD	n/a	wordpools/wordpool_categorized_EN.txt	THUNDER	Weather	6	20	[0, 0, 0]	n/a	catFR1	0	R1106M
2513.371	1.6	1260584	WORD	n/a	wordpools/wordpool_categorized_EN.txt	SPIDER	Insects	7	20	[0, 0, 0]	n/a	catFR1	0	R1106M
2515.773	1.6	1261785	WORD	n/a	wordpools/wordpool_categorized_EN.txt	MOTH	Insects	8	20	[0, 0, 0]	n/a	catFR1	0	R1106M
2518.189	1.6	1262993	WORD	n/a	wordpools/wordpool_categorized_EN.txt	CLOUD	Weather	9	20	[0, 0, 0]	n/a	catFR1	0	R1106M
2520.607	1.6	1264202	WORD	n/a	wordpools/wordpool_categorized_EN.txt	HURRICANE	Weather	10	20	[0, 0, 0]	n/a	catFR1	0	R1106M
2523.14	1.6	1265468	WORD	n/a	wordpools/wordpool_categorized_EN.txt	FINGERS	BodyParts	11	20	[0, 0, 0]	n/a	catFR1	0	R1106M
2525.608	1.6	1266702	WORD	n/a	wordpools/wordpool_categorized_EN.txt	EAR	BodyParts	12	20	[0, 0, 0]	n/a	catFR1	0	R1106M
2527.224	0.0	1267510	DISTRACT_START	n/a	n/a	n/a	n/a	-999	20	[0, 0, 0]	n/a	catFR1	0	R1106M
2527.224	0.017	1267510	START	n/a	n/a	n/a	n/a	-999	20	[-999, -999, -999]	n/a	catFR1	0	R1106M
2527.241	13.636	1267519	PROB	13.6	n/a	n/a	n/a	-999	20	[1, 3, 8]	12.0	catFR1	0	R1106M
2540.877	7.98	1274336	PROB	7.98	n/a	n/a	n/a	-999	20	[4, 9, 5]	18.0	catFR1	0	R1106M
2548.857	0.004	1278326	STOP	n/a	n/a	n/a	n/a	-999	20	[-999, -999, -999]	n/a	catFR1	0	R1106M
2548.861	1.118	1278328	DISTRACT_END	n/a	n/a	n/a	n/a	-999	20	[0, 0, 0]	n/a	catFR1	0	R1106M
2549.979	2.901	1278887	REC_START	n/a	n/a	n/a	n/a	-999	20	[0, 0, 0]	n/a	catFR1	0	R1106M
2552.88	2.953	1280337	REC_WORD	2.901	n/a	ARM	BodyParts	4	20	[0, 0, 0]	n/a	catFR1	0	R1106M
2555.833	4.581	1281814	REC_WORD	5.854	n/a	LEG	n/a	-999	20	[0, 0, 0]	n/a	catFR1	0	R1106M
2560.414	1.673	1284104	REC_WORD	10.435	n/a	SHOULDER	n/a	-999	20	[0, 0, 0]	n/a	catFR1	0	R1106M
2562.087	17.903	1284941	REC_WORD_VV	12.108	n/a	<>	n/a	-999	20	[0, 0, 0]	n/a	catFR1	0	R1106M
2579.99	102.08	1293892	REC_END	n/a	n/a	n/a	n/a	-999	20	[0, 0, 0]	n/a	catFR1	0	R1106M
2682.07	10.0	1344929	COUNTDOWN_START	n/a	n/a	n/a	n/a	-999	21	[0, 0, 0]	n/a	catFR1	0	R1106M
2682.071	0.0	1344929	TRIAL	n/a	n/a	n/a	n/a	-999	21	[0, 0, 0]	n/a	catFR1	0	R1106M
