onset	duration	sample	trial_type	response_time	stim_file	item_name	category	serialpos	list	test	answer	experiment	session	subject
0.0	1.918	5091	INSTRUCT_START	n/a	n/a	n/a	n/a	-999	-999	[0, 0, 0]	n/a	catFR1	1	R1400N
1.918	29.48	7000	INSTRUCT_END	n/a	n/a	n/a	n/a	-999	-999	[0, 0, 0]	n/a	catFR1	1	R1400N
31.398	10.352	36479	COUNTDOWN_START	n/a	n/a	n/a	n/a	-999	-999	[0, 0, 0]	n/a	catFR1	1	R1400N
41.75	0.001	46829	COUNTDOWN_END	n/a	n/a	n/a	n/a	-999	-999	[0, 0, 0]	n/a	catFR1	1	R1400N
41.751	2.332	46829	ENCODING_START	n/a	n/a	n/a	n/a	-999	-1	[0, 0, 0]	n/a	catFR1	1	R1400N
44.083	1.617	49169	WORD	n/a	n/a	KNEE	BodyParts	1	-1	[0, 0, 0]	n/a	catFR1	1	R1400N
45.7	0.766	50779	WORD_OFF	n/a	n/a	KNEE	BodyParts	1	-1	[0, 0, 0]	n/a	catFR1	1	R1400N
46.466	1.616	51546	WORD	n/a	n/a	ELBOW	BodyParts	2	-1	[0, 0, 0]	n/a	catFR1	1	R1400N
48.082	0.834	53156	WORD_OFF	n/a	n/a	ELBOW	BodyParts	2	-1	[0, 0, 0]	n/a	catFR1	1	R1400N
48.916	1.617	53998	WORD	n/a	n/a	CRICKET	Insects	3	-1	[0, 0, 0]	n/a	catFR1	1	R1400N
50.533	0.767	55608	WORD_OFF	n/a	n/a	CRICKET	Insects	3	-1	[0, 0, 0]	n/a	catFR1	1	R1400N
51.3	1.616	56375	WORD	n/a	n/a	SPIDER	Insects	4	-1	[0, 0, 0]	n/a	catFR1	1	R1400N
52.916	0.949	58003	WORD_OFF	n/a	n/a	SPIDER	Insects	4	-1	[0, 0, 0]	n/a	catFR1	1	R1400N
53.865	1.617	58939	WORD	n/a	n/a	UNDERWEAR	Clothing	5	-1	[0, 0, 0]	n/a	catFR1	1	R1400N
55.482	0.817	60568	WORD_OFF	n/a	n/a	UNDERWEAR	Clothing	5	-1	[0, 0, 0]	n/a	catFR1	1	R1400N
56.299	1.6	61372	WORD	n/a	n/a	SKIRT	Clothing	6	-1	[0, 0, 0]	n/a	catFR1	1	R1400N
57.899	0.9	62982	WORD_OFF	n/a	n/a	SKIRT	Clothing	6	-1	[0, 0, 0]	n/a	catFR1	1	R1400N
58.799	1.6	63880	WORD	n/a	n/a	EYE	BodyParts	7	-1	[0, 0, 0]	n/a	catFR1	1	R1400N
60.399	0.967	65471	WORD_OFF	n/a	n/a	EYE	BodyParts	7	-1	[0, 0, 0]	n/a	catFR1	1	R1400N
61.366	1.6	66445	WORD	n/a	n/a	EAR	BodyParts	8	-1	[0, 0, 0]	n/a	catFR1	1	R1400N
62.966	0.883	68036	WORD_OFF	n/a	n/a	EAR	BodyParts	8	-1	[0, 0, 0]	n/a	catFR1	1	R1400N
63.849	1.617	68934	WORD	n/a	n/a	JACKET	Clothing	9	-1	[0, 0, 0]	n/a	catFR1	1	R1400N
65.466	0.784	70544	WORD_OFF	n/a	n/a	JACKET	Clothing	9	-1	[0, 0, 0]	n/a	catFR1	1	R1400N
66.25	1.615	71330	WORD	n/a	n/a	SHORTS	Clothing	10	-1	[0, 0, 0]	n/a	catFR1	1	R1400N
67.865	0.934	72940	WORD_OFF	n/a	n/a	SHORTS	Clothing	10	-1	[0, 0, 0]	n/a	catFR1	1	R1400N
68.799	1.601	73875	WORD	n/a	n/a	ROACH	Insects	11	-1	[0, 0, 0]	n/a	catFR1	1	R1400N
70.4	0.85	75485	WORD_OFF	n/a	n/a	ROACH	Insects	11	-1	[0, 0, 0]	n/a	catFR1	1	R1400N
71.25	1.6	76327	WORD	n/a	n/a	BEETLE	Insects	12	-1	[0, 0, 0]	n/a	catFR1	1	R1400N
72.85	0.001	77918	WORD_OFF	n/a	n/a	BEETLE	Insects	12	-1	[0, 0, 0]	n/a	catFR1	1	R1400N
72.851	0.0	77937	ENCODING_END	n/a	n/a	n/a	n/a	-999	-1	[0, 0, 0]	n/a	catFR1	1	R1400N
72.851	0.001	77929	PROB	0.001	n/a	n/a	n/a	-999	-1	[5, 3, 6]	11	catFR1	1	R1400N
72.852	0.0	77937	DISTRACT_START	n/a	n/a	n/a	n/a	-999	-1	[0, 0, 0]	n/a	catFR1	1	R1400N
72.852	12.548	77930	START	n/a	n/a	n/a	n/a	-999	-1	[-999, -999, -999]	n/a	catFR1	1	R1400N
85.4	1.301	90477	PROB	1.301	n/a	n/a	n/a	-999	-1	[3, 7, 4]	66	catFR1	1	R1400N
86.701	5.665	91778	PROB	5.665	n/a	n/a	n/a	-999	-1	[3, 5, 6]	66	catFR1	1	R1400N
92.366	3.534	97443	PROB	3.534	n/a	n/a	n/a	-999	-1	[7, 8, 1]	66	catFR1	1	R1400N
95.9	0.0	100978	DISTRACT_END	n/a	n/a	n/a	n/a	-999	-1	[0, 0, 0]	n/a	catFR1	1	R1400N
95.9	2.149	100977	STOP	n/a	n/a	n/a	n/a	-999	-1	[-999, -999, -999]	n/a	catFR1	1	R1400N
98.049	3.926	103119	REC_START	n/a	n/a	n/a	n/a	-999	-1	[0, 0, 0]	n/a	catFR1	1	R1400N
101.975	2.361	107052	REC_WORD	2.361	n/a	EYE	BodyParts	7	-1	[0, 0, 0]	n/a	catFR1	1	R1400N
104.336	1.452	109413	REC_WORD	1.452	n/a	KNEE	BodyParts	1	-1	[0, 0, 0]	n/a	catFR1	1	R1400N
105.788	2.215	110865	REC_WORD	2.215	n/a	ELBOW	BodyParts	2	-1	[0, 0, 0]	n/a	catFR1	1	R1400N
108.003	20.275	113080	REC_WORD	20.275	n/a	SKIRT	Clothing	6	-1	[0, 0, 0]	n/a	catFR1	1	R1400N
128.278	8.754	133358	REC_END	n/a	n/a	n/a	n/a	-999	-1	[0, 0, 0]	n/a	catFR1	1	R1400N
137.032	10.351	142117	COUNTDOWN_START	n/a	n/a	n/a	n/a	-999	1	[0, 0, 0]	n/a	catFR1	1	R1400N
147.383	0.0	152449	COUNTDOWN_END	n/a	n/a	n/a	n/a	-999	1	[0, 0, 0]	n/a	catFR1	1	R1400N
147.383	2.016	152468	ENCODING_START	n/a	n/a	n/a	n/a	-999	1	[0, 0, 0]	n/a	catFR1	1	R1400N
149.399	1.616	154471	WORD	n/a	wordpools/wordpool_categorized_EN.txt	MAPLE	Trees	1	1	[0, 0, 0]	n/a	catFR1	1	R1400N
151.015	0.834	156099	WORD_OFF	n/a	n/a	MAPLE	Trees	1	1	[0, 0, 0]	n/a	catFR1	1	R1400N
151.849	1.616	156923	WORD	n/a	wordpools/wordpool_categorized_EN.txt	WALNUT	Trees	2	1	[0, 0, 0]	n/a	catFR1	1	R1400N
153.465	0.983	158532	WORD_OFF	n/a	n/a	WALNUT	Trees	2	1	[0, 0, 0]	n/a	catFR1	1	R1400N
154.448	1.601	159524	WORD	n/a	wordpools/wordpool_categorized_EN.txt	CHEETAH	Zoo	3	1	[0, 0, 0]	n/a	catFR1	1	R1400N
156.049	0.934	161115	WORD_OFF	n/a	n/a	CHEETAH	Zoo	3	1	[0, 0, 0]	n/a	catFR1	1	R1400N
156.983	1.6	162051	WORD	n/a	wordpools/wordpool_categorized_EN.txt	ELEPHANT	Zoo	4	1	[0, 0, 0]	n/a	catFR1	1	R1400N
158.583	0.9	163661	WORD_OFF	n/a	n/a	ELEPHANT	Zoo	4	1	[0, 0, 0]	n/a	catFR1	1	R1400N
159.483	1.601	164559	WORD	n/a	wordpools/wordpool_categorized_EN.txt	CHICKEN	FarmAnimals	5	1	[0, 0, 0]	n/a	catFR1	1	R1400N
161.084	0.883	166150	WORD_OFF	n/a	n/a	CHICKEN	FarmAnimals	5	1	[0, 0, 0]	n/a	catFR1	1	R1400N
161.967	1.616	167048	WORD	n/a	wordpools/wordpool_categorized_EN.txt	GOAT	FarmAnimals	6	1	[0, 0, 0]	n/a	catFR1	1	R1400N
163.583	0.983	168658	WORD_OFF	n/a	n/a	GOAT	FarmAnimals	6	1	[0, 0, 0]	n/a	catFR1	1	R1400N
164.566	1.617	169650	WORD	n/a	wordpools/wordpool_categorized_EN.txt	OAK	Trees	7	1	[0, 0, 0]	n/a	catFR1	1	R1400N
166.183	0.967	171260	WORD_OFF	n/a	n/a	OAK	Trees	7	1	[0, 0, 0]	n/a	catFR1	1	R1400N
167.15	1.6	172233	WORD	n/a	wordpools/wordpool_categorized_EN.txt	WILLOW	Trees	8	1	[0, 0, 0]	n/a	catFR1	1	R1400N
168.75	0.95	173824	WORD_OFF	n/a	n/a	WILLOW	Trees	8	1	[0, 0, 0]	n/a	catFR1	1	R1400N
169.7	1.616	174779	WORD	n/a	wordpools/wordpool_categorized_EN.txt	ORANGUTAN	Zoo	9	1	[0, 0, 0]	n/a	catFR1	1	R1400N
171.316	0.85	176388	WORD_OFF	n/a	n/a	ORANGUTAN	Zoo	9	1	[0, 0, 0]	n/a	catFR1	1	R1400N
172.166	1.6	177249	WORD	n/a	wordpools/wordpool_categorized_EN.txt	BEAR	Zoo	10	1	[0, 0, 0]	n/a	catFR1	1	R1400N
173.766	0.9	178840	WORD_OFF	n/a	n/a	BEAR	Zoo	10	1	[0, 0, 0]	n/a	catFR1	1	R1400N
174.666	1.617	179739	WORD	n/a	wordpools/wordpool_categorized_EN.txt	COW	FarmAnimals	11	1	[0, 0, 0]	n/a	catFR1	1	R1400N
176.283	0.767	181367	WORD_OFF	n/a	n/a	COW	FarmAnimals	11	1	[0, 0, 0]	n/a	catFR1	1	R1400N
177.05	1.616	182116	WORD	n/a	wordpools/wordpool_categorized_EN.txt	HORSE	FarmAnimals	12	1	[0, 0, 0]	n/a	catFR1	1	R1400N
178.666	0.001	183744	WORD_OFF	n/a	n/a	HORSE	FarmAnimals	12	1	[0, 0, 0]	n/a	catFR1	1	R1400N
178.667	0.001	183741	PROB	0.001	n/a	n/a	n/a	-999	1	[7, 4, 6]	17	catFR1	1	R1400N
178.668	0.0	183744	DISTRACT_START	n/a	n/a	n/a	n/a	-999	1	[0, 0, 0]	n/a	catFR1	1	R1400N
178.668	0.0	183744	ENCODING_END	n/a	n/a	n/a	n/a	-999	1	[0, 0, 0]	n/a	catFR1	1	R1400N
178.668	5.865	183742	START	n/a	n/a	n/a	n/a	-999	1	[-999, -999, -999]	n/a	catFR1	1	R1400N
184.533	4.334	189607	PROB	4.334	n/a	n/a	n/a	-999	1	[8, 6, 2]	16	catFR1	1	R1400N
188.867	3.099	193941	PROB	3.099	n/a	n/a	n/a	-999	1	[8, 4, 5]	17	catFR1	1	R1400N
191.966	2.618	197040	PROB	2.618	n/a	n/a	n/a	-999	1	[8, 8, 8]	24	catFR1	1	R1400N
194.584	2.416	199658	PROB	2.416	n/a	n/a	n/a	-999	1	[1, 2, 8]	11	catFR1	1	R1400N
197.0	4.1	202074	PROB	4.1	n/a	n/a	n/a	-999	1	[1, 7, 5]	13	catFR1	1	R1400N
201.1	0.0	206167	DISTRACT_END	n/a	n/a	n/a	n/a	-999	1	[0, 0, 0]	n/a	catFR1	1	R1400N
201.1	2.35	206174	STOP	n/a	n/a	n/a	n/a	-999	1	[-999, -999, -999]	n/a	catFR1	1	R1400N
203.45	2.535	208514	REC_START	n/a	n/a	n/a	n/a	-999	1	[0, 0, 0]	n/a	catFR1	1	R1400N
205.985	2.462	211059	REC_WORD	2.462	n/a	CHEETAH	Zoo	3	1	[0, 0, 0]	n/a	catFR1	1	R1400N
208.447	2.297	213520	REC_WORD	2.297	n/a	ELEPHANT	Zoo	4	1	[0, 0, 0]	n/a	catFR1	1	R1400N
210.744	2.189	215817	REC_WORD	2.189	n/a	GOAT	FarmAnimals	6	1	[0, 0, 0]	n/a	catFR1	1	R1400N
212.933	2.558	218006	REC_WORD	2.558	n/a	HORSE	FarmAnimals	12	1	[0, 0, 0]	n/a	catFR1	1	R1400N
215.491	18.167	220564	REC_WORD	18.167	n/a	WALNUT	Trees	2	1	[0, 0, 0]	n/a	catFR1	1	R1400N
233.658	6.925	238734	REC_END	n/a	n/a	n/a	n/a	-999	1	[0, 0, 0]	n/a	catFR1	1	R1400N
240.583	10.35	245660	COUNTDOWN_START	n/a	n/a	n/a	n/a	-999	2	[0, 0, 0]	n/a	catFR1	1	R1400N
250.933	0.0	256010	COUNTDOWN_END	n/a	n/a	n/a	n/a	-999	2	[0, 0, 0]	n/a	catFR1	1	R1400N
250.933	1.95	256010	ENCODING_START	n/a	n/a	n/a	n/a	-999	2	[0, 0, 0]	n/a	catFR1	1	R1400N
252.883	1.616	257957	WORD	n/a	wordpools/wordpool_categorized_EN.txt	KNIFE	KitchenTools	1	2	[0, 0, 0]	n/a	catFR1	1	R1400N
254.499	0.983	259566	WORD_OFF	n/a	n/a	KNIFE	KitchenTools	1	2	[0, 0, 0]	n/a	catFR1	1	R1400N
255.482	1.601	260558	WORD	n/a	wordpools/wordpool_categorized_EN.txt	WHISK	KitchenTools	2	2	[0, 0, 0]	n/a	catFR1	1	R1400N
257.083	0.932	262149	WORD_OFF	n/a	n/a	WHISK	KitchenTools	2	2	[0, 0, 0]	n/a	catFR1	1	R1400N
258.015	1.6	263085	WORD	n/a	wordpools/wordpool_categorized_EN.txt	BANANA	Fruit	3	2	[0, 0, 0]	n/a	catFR1	1	R1400N
259.615	0.868	264695	WORD_OFF	n/a	n/a	BANANA	Fruit	3	2	[0, 0, 0]	n/a	catFR1	1	R1400N
260.483	1.616	265556	WORD	n/a	wordpools/wordpool_categorized_EN.txt	PEACH	Fruit	4	2	[0, 0, 0]	n/a	catFR1	1	R1400N
262.099	1.001	267165	WORD_OFF	n/a	n/a	PEACH	Fruit	4	2	[0, 0, 0]	n/a	catFR1	1	R1400N
263.1	1.615	268176	WORD	n/a	wordpools/wordpool_categorized_EN.txt	POTATO	Vegetables	5	2	[0, 0, 0]	n/a	catFR1	1	R1400N
264.715	0.867	269786	WORD_OFF	n/a	n/a	POTATO	Vegetables	5	2	[0, 0, 0]	n/a	catFR1	1	R1400N
265.582	1.601	270647	WORD	n/a	wordpools/wordpool_categorized_EN.txt	CARROT	Vegetables	6	2	[0, 0, 0]	n/a	catFR1	1	R1400N
267.183	0.95	272256	WORD_OFF	n/a	n/a	CARROT	Vegetables	6	2	[0, 0, 0]	n/a	catFR1	1	R1400N
268.133	1.6	273211	WORD	n/a	wordpools/wordpool_categorized_EN.txt	STRAINER	KitchenTools	7	2	[0, 0, 0]	n/a	catFR1	1	R1400N
269.733	0.933	274802	WORD_OFF	n/a	n/a	STRAINER	KitchenTools	7	2	[0, 0, 0]	n/a	catFR1	1	R1400N
270.666	1.617	275738	WORD	n/a	wordpools/wordpool_categorized_EN.txt	PEELER	KitchenTools	8	2	[0, 0, 0]	n/a	catFR1	1	R1400N
272.283	0.867	277347	WORD_OFF	n/a	n/a	PEELER	KitchenTools	8	2	[0, 0, 0]	n/a	catFR1	1	R1400N
273.15	1.616	278227	WORD	n/a	wordpools/wordpool_categorized_EN.txt	CABBAGE	Vegetables	9	2	[0, 0, 0]	n/a	catFR1	1	R1400N
274.766	0.934	279837	WORD_OFF	n/a	n/a	CABBAGE	Vegetables	9	2	[0, 0, 0]	n/a	catFR1	1	R1400N
275.7	1.616	280773	WORD	n/a	wordpools/wordpool_categorized_EN.txt	CUCUMBER	Vegetables	10	2	[0, 0, 0]	n/a	catFR1	1	R1400N
277.316	0.833	282382	WORD_OFF	n/a	n/a	CUCUMBER	Vegetables	10	2	[0, 0, 0]	n/a	catFR1	1	R1400N
278.149	1.601	283225	WORD	n/a	wordpools/wordpool_categorized_EN.txt	LEMON	Fruit	11	2	[0, 0, 0]	n/a	catFR1	1	R1400N
279.75	0.816	284816	WORD_OFF	n/a	n/a	LEMON	Fruit	11	2	[0, 0, 0]	n/a	catFR1	1	R1400N
280.566	1.617	285639	WORD	n/a	wordpools/wordpool_categorized_EN.txt	PLUM	Fruit	12	2	[0, 0, 0]	n/a	catFR1	1	R1400N
282.183	0.001	287249	WORD_OFF	n/a	n/a	PLUM	Fruit	12	2	[0, 0, 0]	n/a	catFR1	1	R1400N
282.184	0.001	287255	PROB	0.001	n/a	n/a	n/a	-999	2	[1, 7, 5]	13	catFR1	1	R1400N
282.185	0.0	287249	DISTRACT_START	n/a	n/a	n/a	n/a	-999	2	[0, 0, 0]	n/a	catFR1	1	R1400N
282.185	0.0	287249	ENCODING_END	n/a	n/a	n/a	n/a	-999	2	[0, 0, 0]	n/a	catFR1	1	R1400N
282.185	3.681	287256	START	n/a	n/a	n/a	n/a	-999	2	[-999, -999, -999]	n/a	catFR1	1	R1400N
285.866	2.484	290937	PROB	2.484	n/a	n/a	n/a	-999	2	[1, 4, 4]	9	catFR1	1	R1400N
288.35	2.167	293421	PROB	2.167	n/a	n/a	n/a	-999	2	[1, 4, 4]	9	catFR1	1	R1400N
290.517	3.816	295588	PROB	3.816	n/a	n/a	n/a	-999	2	[2, 6, 7]	15	catFR1	1	R1400N
294.333	2.151	299404	PROB	2.151	n/a	n/a	n/a	-999	2	[7, 4, 1]	12	catFR1	1	R1400N
296.484	4.432	301555	PROB	4.432	n/a	n/a	n/a	-999	2	[8, 6, 7]	21	catFR1	1	R1400N
300.916	3.399	305987	PROB	3.399	n/a	n/a	n/a	-999	2	[8, 5, 1]	14	catFR1	1	R1400N
304.315	0.0	309391	DISTRACT_END	n/a	n/a	n/a	n/a	-999	2	[0, 0, 0]	n/a	catFR1	1	R1400N
304.315	2.185	309386	STOP	n/a	n/a	n/a	n/a	-999	2	[-999, -999, -999]	n/a	catFR1	1	R1400N
306.5	1.181	311570	REC_START	n/a	n/a	n/a	n/a	-999	2	[0, 0, 0]	n/a	catFR1	1	R1400N
307.681	2.66	312751	REC_WORD	2.66	n/a	CUCUMBER	Vegetables	10	2	[0, 0, 0]	n/a	catFR1	1	R1400N
310.341	5.183	315411	REC_WORD	5.183	n/a	LEMON	Fruit	11	2	[0, 0, 0]	n/a	catFR1	1	R1400N
315.524	21.211	320594	REC_WORD	21.211	n/a	KNIFE	KitchenTools	1	2	[0, 0, 0]	n/a	catFR1	1	R1400N
336.735	2.297	341809	REC_END	n/a	n/a	n/a	n/a	-999	2	[0, 0, 0]	n/a	catFR1	1	R1400N
339.032	10.35	344111	COUNTDOWN_START	n/a	n/a	n/a	n/a	-999	3	[0, 0, 0]	n/a	catFR1	1	R1400N
349.382	0.001	354443	COUNTDOWN_END	n/a	n/a	n/a	n/a	-999	3	[0, 0, 0]	n/a	catFR1	1	R1400N
349.383	2.016	354461	ENCODING_START	n/a	n/a	n/a	n/a	-999	3	[0, 0, 0]	n/a	catFR1	1	R1400N
351.399	1.601	356464	WORD	n/a	wordpools/wordpool_categorized_EN.txt	CHERRY	Fruit	1	3	[0, 0, 0]	n/a	catFR1	1	R1400N
353.0	0.815	358074	WORD_OFF	n/a	n/a	CHERRY	Fruit	1	3	[0, 0, 0]	n/a	catFR1	1	R1400N
353.815	1.601	358879	WORD	n/a	wordpools/wordpool_categorized_EN.txt	ORANGE	Fruit	2	3	[0, 0, 0]	n/a	catFR1	1	R1400N
355.416	0.933	360488	WORD_OFF	n/a	n/a	ORANGE	Fruit	2	3	[0, 0, 0]	n/a	catFR1	1	R1400N
356.349	1.617	361424	WORD	n/a	wordpools/wordpool_categorized_EN.txt	DRYER	Appliances	3	3	[0, 0, 0]	n/a	catFR1	1	R1400N
357.966	1.0	363034	WORD_OFF	n/a	n/a	DRYER	Appliances	3	3	[0, 0, 0]	n/a	catFR1	1	R1400N
358.966	1.617	364026	WORD	n/a	wordpools/wordpool_categorized_EN.txt	BLENDER	Appliances	4	3	[0, 0, 0]	n/a	catFR1	1	R1400N
360.583	0.95	365654	WORD_OFF	n/a	n/a	BLENDER	Appliances	4	3	[0, 0, 0]	n/a	catFR1	1	R1400N
361.533	1.6	366609	WORD	n/a	wordpools/wordpool_categorized_EN.txt	BIRCH	Trees	5	3	[0, 0, 0]	n/a	catFR1	1	R1400N
363.133	0.882	368200	WORD_OFF	n/a	n/a	BIRCH	Trees	5	3	[0, 0, 0]	n/a	catFR1	1	R1400N
364.015	1.601	369079	WORD	n/a	wordpools/wordpool_categorized_EN.txt	CEDAR	Trees	6	3	[0, 0, 0]	n/a	catFR1	1	R1400N
365.616	0.85	370689	WORD_OFF	n/a	n/a	CEDAR	Trees	6	3	[0, 0, 0]	n/a	catFR1	1	R1400N
366.466	1.618	371531	WORD	n/a	wordpools/wordpool_categorized_EN.txt	FREEZER	Appliances	7	3	[0, 0, 0]	n/a	catFR1	1	R1400N
368.084	0.932	373160	WORD_OFF	n/a	n/a	FREEZER	Appliances	7	3	[0, 0, 0]	n/a	catFR1	1	R1400N
369.016	1.616	374077	WORD	n/a	wordpools/wordpool_categorized_EN.txt	REFRIGERATOR	Appliances	8	3	[0, 0, 0]	n/a	catFR1	1	R1400N
370.632	0.817	375705	WORD_OFF	n/a	n/a	REFRIGERATOR	Appliances	8	3	[0, 0, 0]	n/a	catFR1	1	R1400N
371.449	1.601	376510	WORD	n/a	wordpools/wordpool_categorized_EN.txt	ELM	Trees	9	3	[0, 0, 0]	n/a	catFR1	1	R1400N
373.05	0.783	378120	WORD_OFF	n/a	n/a	ELM	Trees	9	3	[0, 0, 0]	n/a	catFR1	1	R1400N
373.833	1.617	378906	WORD	n/a	wordpools/wordpool_categorized_EN.txt	EVERGREEN	Trees	10	3	[0, 0, 0]	n/a	catFR1	1	R1400N
375.45	0.933	380515	WORD_OFF	n/a	n/a	EVERGREEN	Trees	10	3	[0, 0, 0]	n/a	catFR1	1	R1400N
376.383	1.6	381451	WORD	n/a	wordpools/wordpool_categorized_EN.txt	APPLE	Fruit	11	3	[0, 0, 0]	n/a	catFR1	1	R1400N
377.983	0.95	383042	WORD_OFF	n/a	n/a	APPLE	Fruit	11	3	[0, 0, 0]	n/a	catFR1	1	R1400N
378.933	1.617	383997	WORD	n/a	wordpools/wordpool_categorized_EN.txt	STRAWBERRY	Fruit	12	3	[0, 0, 0]	n/a	catFR1	1	R1400N
380.55	0.0	385625	WORD_OFF	n/a	n/a	STRAWBERRY	Fruit	12	3	[0, 0, 0]	n/a	catFR1	1	R1400N
380.55	0.001	385618	PROB	0.001	n/a	n/a	n/a	-999	3	[8, 5, 6]	19	catFR1	1	R1400N
380.551	0.0	385625	DISTRACT_START	n/a	n/a	n/a	n/a	-999	3	[0, 0, 0]	n/a	catFR1	1	R1400N
380.551	0.0	385625	ENCODING_END	n/a	n/a	n/a	n/a	-999	3	[0, 0, 0]	n/a	catFR1	1	R1400N
380.551	4.866	385619	START	n/a	n/a	n/a	n/a	-999	3	[-999, -999, -999]	n/a	catFR1	1	R1400N
385.417	3.217	390485	PROB	3.217	n/a	n/a	n/a	-999	3	[2, 4, 1]	7	catFR1	1	R1400N
388.634	3.049	393702	PROB	3.049	n/a	n/a	n/a	-999	3	[7, 7, 1]	15	catFR1	1	R1400N
391.683	4.351	396751	PROB	4.351	n/a	n/a	n/a	-999	3	[6, 5, 5]	16	catFR1	1	R1400N
396.034	4.615	401102	PROB	4.615	n/a	n/a	n/a	-999	3	[3, 7, 8]	18	catFR1	1	R1400N
400.649	0.0	405708	DISTRACT_END	n/a	n/a	n/a	n/a	-999	3	[0, 0, 0]	n/a	catFR1	1	R1400N
400.649	2.284	405717	STOP	n/a	n/a	n/a	n/a	-999	3	[-999, -999, -999]	n/a	catFR1	1	R1400N
402.933	1.367	408000	REC_START	n/a	n/a	n/a	n/a	-999	3	[0, 0, 0]	n/a	catFR1	1	R1400N
404.3	1.639	409368	REC_WORD	1.639	n/a	FREEZER	Appliances	7	3	[0, 0, 0]	n/a	catFR1	1	R1400N
405.939	2.745	411006	REC_WORD	2.745	n/a	REFRIGERATOR	Appliances	8	3	[0, 0, 0]	n/a	catFR1	1	R1400N
408.684	24.463	413751	REC_WORD	24.463	n/a	STRAWBERRY	Fruit	12	3	[0, 0, 0]	n/a	catFR1	1	R1400N
433.147	1.736	438220	REC_END	n/a	n/a	n/a	n/a	-999	3	[0, 0, 0]	n/a	catFR1	1	R1400N
434.883	10.351	439942	COUNTDOWN_START	n/a	n/a	n/a	n/a	-999	4	[0, 0, 0]	n/a	catFR1	1	R1400N
445.234	0.0	450292	COUNTDOWN_END	n/a	n/a	n/a	n/a	-999	4	[0, 0, 0]	n/a	catFR1	1	R1400N
445.234	1.882	450311	ENCODING_START	n/a	n/a	n/a	n/a	-999	4	[0, 0, 0]	n/a	catFR1	1	R1400N
447.116	1.6	452183	WORD	n/a	wordpools/wordpool_categorized_EN.txt	BINDER	OfficeSupplies	1	4	[0, 0, 0]	n/a	catFR1	1	R1400N
448.716	0.95	453773	WORD_OFF	n/a	n/a	BINDER	OfficeSupplies	1	4	[0, 0, 0]	n/a	catFR1	1	R1400N
449.666	1.6	454728	WORD	n/a	wordpools/wordpool_categorized_EN.txt	NOTEBOOK	OfficeSupplies	2	4	[0, 0, 0]	n/a	catFR1	1	R1400N
451.266	0.85	456338	WORD_OFF	n/a	n/a	NOTEBOOK	OfficeSupplies	2	4	[0, 0, 0]	n/a	catFR1	1	R1400N
452.116	1.6	457180	WORD	n/a	wordpools/wordpool_categorized_EN.txt	WRENCH	Tools	3	4	[0, 0, 0]	n/a	catFR1	1	R1400N
453.716	0.783	458790	WORD_OFF	n/a	n/a	WRENCH	Tools	3	4	[0, 0, 0]	n/a	catFR1	1	R1400N
454.499	1.6	459557	WORD	n/a	wordpools/wordpool_categorized_EN.txt	SAW	Tools	4	4	[0, 0, 0]	n/a	catFR1	1	R1400N
456.099	0.933	461167	WORD_OFF	n/a	n/a	SAW	Tools	4	4	[0, 0, 0]	n/a	catFR1	1	R1400N
457.032	1.617	462103	WORD	n/a	wordpools/wordpool_categorized_EN.txt	FLEECE	Fabric	5	4	[0, 0, 0]	n/a	catFR1	1	R1400N
458.649	0.9	463712	WORD_OFF	n/a	n/a	FLEECE	Fabric	5	4	[0, 0, 0]	n/a	catFR1	1	R1400N
459.549	1.601	464611	WORD	n/a	wordpools/wordpool_categorized_EN.txt	SATIN	Fabric	6	4	[0, 0, 0]	n/a	catFR1	1	R1400N
461.15	0.766	466220	WORD_OFF	n/a	n/a	SATIN	Fabric	6	4	[0, 0, 0]	n/a	catFR1	1	R1400N
461.916	1.6	466988	WORD	n/a	wordpools/wordpool_categorized_EN.txt	PAPER	OfficeSupplies	7	4	[0, 0, 0]	n/a	catFR1	1	R1400N
463.516	0.917	468579	WORD_OFF	n/a	n/a	PAPER	OfficeSupplies	7	4	[0, 0, 0]	n/a	catFR1	1	R1400N
464.433	1.617	469496	WORD	n/a	wordpools/wordpool_categorized_EN.txt	TAPE	OfficeSupplies	8	4	[0, 0, 0]	n/a	catFR1	1	R1400N
466.05	0.966	471124	WORD_OFF	n/a	n/a	TAPE	OfficeSupplies	8	4	[0, 0, 0]	n/a	catFR1	1	R1400N
467.016	1.617	472079	WORD	n/a	wordpools/wordpool_categorized_EN.txt	PLIERS	Tools	9	4	[0, 0, 0]	n/a	catFR1	1	R1400N
468.633	0.85	473707	WORD_OFF	n/a	n/a	PLIERS	Tools	9	4	[0, 0, 0]	n/a	catFR1	1	R1400N
469.483	1.6	474549	WORD	n/a	wordpools/wordpool_categorized_EN.txt	SANDER	Tools	10	4	[0, 0, 0]	n/a	catFR1	1	R1400N
471.083	0.8	476140	WORD_OFF	n/a	n/a	SANDER	Tools	10	4	[0, 0, 0]	n/a	catFR1	1	R1400N
471.883	1.617	476945	WORD	n/a	wordpools/wordpool_categorized_EN.txt	NYLON	Fabric	11	4	[0, 0, 0]	n/a	catFR1	1	R1400N
473.5	0.85	478573	WORD_OFF	n/a	n/a	NYLON	Fabric	11	4	[0, 0, 0]	n/a	catFR1	1	R1400N
474.35	1.6	479416	WORD	n/a	wordpools/wordpool_categorized_EN.txt	COTTON	Fabric	12	4	[0, 0, 0]	n/a	catFR1	1	R1400N
475.95	0.0	481007	WORD_OFF	n/a	n/a	COTTON	Fabric	12	4	[0, 0, 0]	n/a	catFR1	1	R1400N
475.95	0.001	481015	PROB	0.001	n/a	n/a	n/a	-999	4	[6, 4, 8]	18	catFR1	1	R1400N
475.951	0.0	481025	DISTRACT_START	n/a	n/a	n/a	n/a	-999	4	[0, 0, 0]	n/a	catFR1	1	R1400N
475.951	0.0	481025	ENCODING_END	n/a	n/a	n/a	n/a	-999	4	[0, 0, 0]	n/a	catFR1	1	R1400N
475.951	3.998	481016	START	n/a	n/a	n/a	n/a	-999	4	[-999, -999, -999]	n/a	catFR1	1	R1400N
479.949	2.55	485014	PROB	2.55	n/a	n/a	n/a	-999	4	[1, 5, 7]	13	catFR1	1	R1400N
482.499	3.168	487564	PROB	3.168	n/a	n/a	n/a	-999	4	[3, 8, 5]	16	catFR1	1	R1400N
485.667	3.9	490732	PROB	3.9	n/a	n/a	n/a	-999	4	[7, 3, 6]	16	catFR1	1	R1400N
489.567	3.782	494632	PROB	3.782	n/a	n/a	n/a	-999	4	[4, 7, 5]	16	catFR1	1	R1400N
493.349	3.901	498414	PROB	3.901	n/a	n/a	n/a	-999	4	[4, 2, 3]	9	catFR1	1	R1400N
497.25	0.0	502307	DISTRACT_END	n/a	n/a	n/a	n/a	-999	4	[0, 0, 0]	n/a	catFR1	1	R1400N
497.25	2.332	502315	STOP	n/a	n/a	n/a	n/a	-999	4	[-999, -999, -999]	n/a	catFR1	1	R1400N
499.582	2.693	504654	REC_START	n/a	n/a	n/a	n/a	-999	4	[0, 0, 0]	n/a	catFR1	1	R1400N
502.275	3.739	507340	REC_WORD	3.739	n/a	BINDER	OfficeSupplies	1	4	[0, 0, 0]	n/a	catFR1	1	R1400N
506.014	23.788	511078	REC_WORD	23.788	n/a	NOTEBOOK	OfficeSupplies	2	4	[0, 0, 0]	n/a	catFR1	1	R1400N
529.802	17.93	534874	REC_END	n/a	n/a	n/a	n/a	-999	4	[0, 0, 0]	n/a	catFR1	1	R1400N
547.732	10.352	552805	COUNTDOWN_START	n/a	n/a	n/a	n/a	-999	5	[0, 0, 0]	n/a	catFR1	1	R1400N
558.084	0.0	563155	COUNTDOWN_END	n/a	n/a	n/a	n/a	-999	5	[0, 0, 0]	n/a	catFR1	1	R1400N
558.084	2.248	563155	ENCODING_START	n/a	n/a	n/a	n/a	-999	5	[0, 0, 0]	n/a	catFR1	1	R1400N
560.332	1.601	565401	WORD	n/a	wordpools/wordpool_categorized_EN.txt	CUPCAKE	Desserts	1	5	[0, 0, 0]	n/a	catFR1	1	R1400N
561.933	0.899	566992	WORD_OFF	n/a	n/a	CUPCAKE	Desserts	1	5	[0, 0, 0]	n/a	catFR1	1	R1400N
562.832	1.601	567891	WORD	n/a	wordpools/wordpool_categorized_EN.txt	JELLO	Desserts	2	5	[0, 0, 0]	n/a	catFR1	1	R1400N
564.433	0.917	569500	WORD_OFF	n/a	n/a	JELLO	Desserts	2	5	[0, 0, 0]	n/a	catFR1	1	R1400N
565.35	1.616	570418	WORD	n/a	wordpools/wordpool_categorized_EN.txt	SEAGULL	Birds	3	5	[0, 0, 0]	n/a	catFR1	1	R1400N
566.966	0.9	572027	WORD_OFF	n/a	n/a	SEAGULL	Birds	3	5	[0, 0, 0]	n/a	catFR1	1	R1400N
567.866	1.6	572926	WORD	n/a	wordpools/wordpool_categorized_EN.txt	DUCK	Birds	4	5	[0, 0, 0]	n/a	catFR1	1	R1400N
569.466	0.8	574535	WORD_OFF	n/a	n/a	DUCK	Birds	4	5	[0, 0, 0]	n/a	catFR1	1	R1400N
570.266	1.617	575321	WORD	n/a	wordpools/wordpool_categorized_EN.txt	HEAD	BodyParts	5	5	[0, 0, 0]	n/a	catFR1	1	R1400N
571.883	0.882	576950	WORD_OFF	n/a	n/a	HEAD	BodyParts	5	5	[0, 0, 0]	n/a	catFR1	1	R1400N
572.765	1.601	577829	WORD	n/a	wordpools/wordpool_categorized_EN.txt	ARM	BodyParts	6	5	[0, 0, 0]	n/a	catFR1	1	R1400N
574.366	0.95	579420	WORD_OFF	n/a	n/a	ARM	BodyParts	6	5	[0, 0, 0]	n/a	catFR1	1	R1400N
575.316	1.617	580375	WORD	n/a	wordpools/wordpool_categorized_EN.txt	BLUEBIRD	Birds	7	5	[0, 0, 0]	n/a	catFR1	1	R1400N
576.933	0.783	582003	WORD_OFF	n/a	n/a	BLUEBIRD	Birds	7	5	[0, 0, 0]	n/a	catFR1	1	R1400N
577.716	1.6	582771	WORD	n/a	wordpools/wordpool_categorized_EN.txt	HAWK	Birds	8	5	[0, 0, 0]	n/a	catFR1	1	R1400N
579.316	0.767	584380	WORD_OFF	n/a	n/a	HAWK	Birds	8	5	[0, 0, 0]	n/a	catFR1	1	R1400N
580.083	1.6	585148	WORD	n/a	wordpools/wordpool_categorized_EN.txt	HAND	BodyParts	9	5	[0, 0, 0]	n/a	catFR1	1	R1400N
581.683	0.916	586739	WORD_OFF	n/a	n/a	HAND	BodyParts	9	5	[0, 0, 0]	n/a	catFR1	1	R1400N
582.599	1.6	587656	WORD	n/a	wordpools/wordpool_categorized_EN.txt	LEG	BodyParts	10	5	[0, 0, 0]	n/a	catFR1	1	R1400N
584.199	0.967	589266	WORD_OFF	n/a	n/a	LEG	BodyParts	10	5	[0, 0, 0]	n/a	catFR1	1	R1400N
585.166	1.616	590220	WORD	n/a	wordpools/wordpool_categorized_EN.txt	CAKE	Desserts	11	5	[0, 0, 0]	n/a	catFR1	1	R1400N
586.782	0.934	591848	WORD_OFF	n/a	n/a	CAKE	Desserts	11	5	[0, 0, 0]	n/a	catFR1	1	R1400N
587.716	1.6	592784	WORD	n/a	wordpools/wordpool_categorized_EN.txt	COBBLER	Desserts	12	5	[0, 0, 0]	n/a	catFR1	1	R1400N
589.316	0.0	594375	WORD_OFF	n/a	n/a	COBBLER	Desserts	12	5	[0, 0, 0]	n/a	catFR1	1	R1400N
589.316	0.002	594378	PROB	0.002	n/a	n/a	n/a	-999	5	[2, 2, 3]	7	catFR1	1	R1400N
589.318	0.0	594375	DISTRACT_START	n/a	n/a	n/a	n/a	-999	5	[0, 0, 0]	n/a	catFR1	1	R1400N
589.318	0.0	594375	ENCODING_END	n/a	n/a	n/a	n/a	-999	5	[0, 0, 0]	n/a	catFR1	1	R1400N
589.318	4.032	594380	START	n/a	n/a	n/a	n/a	-999	5	[-999, -999, -999]	n/a	catFR1	1	R1400N
593.35	5.55	598412	PROB	5.55	n/a	n/a	n/a	-999	5	[6, 8, 1]	15	catFR1	1	R1400N
598.9	4.884	603962	PROB	4.884	n/a	n/a	n/a	-999	5	[7, 3, 7]	17	catFR1	1	R1400N
603.784	2.666	608845	PROB	2.666	n/a	n/a	n/a	-999	5	[1, 5, 4]	10	catFR1	1	R1400N
606.45	3.4	611511	PROB	3.4	n/a	n/a	n/a	-999	5	[6, 4, 7]	17	catFR1	1	R1400N
609.85	0.0	614908	DISTRACT_END	n/a	n/a	n/a	n/a	-999	5	[0, 0, 0]	n/a	catFR1	1	R1400N
609.85	2.116	614911	STOP	n/a	n/a	n/a	n/a	-999	5	[-999, -999, -999]	n/a	catFR1	1	R1400N
611.966	4.043	617031	REC_START	n/a	n/a	n/a	n/a	-999	5	[0, 0, 0]	n/a	catFR1	1	R1400N
616.009	6.728	621070	REC_WORD	6.728	n/a	CAKE	Desserts	11	5	[0, 0, 0]	n/a	catFR1	1	R1400N
622.737	19.464	627798	REC_WORD	19.464	n/a	SEESAW	n/a	-999	5	[0, 0, 0]	n/a	catFR1	1	R1400N
642.201	5.932	647269	REC_END	n/a	n/a	n/a	n/a	-999	5	[0, 0, 0]	n/a	catFR1	1	R1400N
648.133	10.351	653203	COUNTDOWN_START	n/a	n/a	n/a	n/a	-999	6	[0, 0, 0]	n/a	catFR1	1	R1400N
658.484	0.0	663534	COUNTDOWN_END	n/a	n/a	n/a	n/a	-999	6	[0, 0, 0]	n/a	catFR1	1	R1400N
658.484	1.965	663553	ENCODING_START	n/a	n/a	n/a	n/a	-999	6	[0, 0, 0]	n/a	catFR1	1	R1400N
660.449	1.601	665518	WORD	n/a	wordpools/wordpool_categorized_EN.txt	DISHWASHER	Appliances	1	6	[0, 0, 0]	n/a	catFR1	1	R1400N
662.05	0.866	667109	WORD_OFF	n/a	n/a	DISHWASHER	Appliances	1	6	[0, 0, 0]	n/a	catFR1	1	R1400N
662.916	1.6	667970	WORD	n/a	wordpools/wordpool_categorized_EN.txt	IRON	Appliances	2	6	[0, 0, 0]	n/a	catFR1	1	R1400N
664.516	0.85	669580	WORD_OFF	n/a	n/a	IRON	Appliances	2	6	[0, 0, 0]	n/a	catFR1	1	R1400N
665.366	1.617	670422	WORD	n/a	wordpools/wordpool_categorized_EN.txt	CABINET	Furniture	3	6	[0, 0, 0]	n/a	catFR1	1	R1400N
666.983	0.767	672051	WORD_OFF	n/a	n/a	CABINET	Furniture	3	6	[0, 0, 0]	n/a	catFR1	1	R1400N
667.75	1.6	672818	WORD	n/a	wordpools/wordpool_categorized_EN.txt	RECLINER	Furniture	4	6	[0, 0, 0]	n/a	catFR1	1	R1400N
669.35	0.867	674409	WORD_OFF	n/a	n/a	RECLINER	Furniture	4	6	[0, 0, 0]	n/a	catFR1	1	R1400N
670.217	1.599	675270	WORD	n/a	wordpools/wordpool_categorized_EN.txt	WOOL	Fabric	5	6	[0, 0, 0]	n/a	catFR1	1	R1400N
671.816	0.884	676880	WORD_OFF	n/a	n/a	WOOL	Fabric	5	6	[0, 0, 0]	n/a	catFR1	1	R1400N
672.7	1.616	677759	WORD	n/a	wordpools/wordpool_categorized_EN.txt	DENIM	Fabric	6	6	[0, 0, 0]	n/a	catFR1	1	R1400N
674.316	0.901	679369	WORD_OFF	n/a	n/a	DENIM	Fabric	6	6	[0, 0, 0]	n/a	catFR1	1	R1400N
675.217	1.616	680286	WORD	n/a	wordpools/wordpool_categorized_EN.txt	CHAIR	Furniture	7	6	[0, 0, 0]	n/a	catFR1	1	R1400N
676.833	0.966	681896	WORD_OFF	n/a	n/a	CHAIR	Furniture	7	6	[0, 0, 0]	n/a	catFR1	1	R1400N
677.799	1.6	682850	WORD	n/a	wordpools/wordpool_categorized_EN.txt	COUCH	Furniture	8	6	[0, 0, 0]	n/a	catFR1	1	R1400N
679.399	0.901	684460	WORD_OFF	n/a	n/a	COUCH	Furniture	8	6	[0, 0, 0]	n/a	catFR1	1	R1400N
680.3	1.6	685358	WORD	n/a	wordpools/wordpool_categorized_EN.txt	TOASTER	Appliances	9	6	[0, 0, 0]	n/a	catFR1	1	R1400N
681.9	0.866	686949	WORD_OFF	n/a	n/a	TOASTER	Appliances	9	6	[0, 0, 0]	n/a	catFR1	1	R1400N
682.766	1.6	687829	WORD	n/a	wordpools/wordpool_categorized_EN.txt	WASHER	Appliances	10	6	[0, 0, 0]	n/a	catFR1	1	R1400N
684.366	0.95	689420	WORD_OFF	n/a	n/a	WASHER	Appliances	10	6	[0, 0, 0]	n/a	catFR1	1	R1400N
685.316	1.617	690375	WORD	n/a	wordpools/wordpool_categorized_EN.txt	SUEDE	Fabric	11	6	[0, 0, 0]	n/a	catFR1	1	R1400N
686.933	0.966	691984	WORD_OFF	n/a	n/a	SUEDE	Fabric	11	6	[0, 0, 0]	n/a	catFR1	1	R1400N
687.899	1.601	692957	WORD	n/a	wordpools/wordpool_categorized_EN.txt	SPANDEX	Fabric	12	6	[0, 0, 0]	n/a	catFR1	1	R1400N
689.5	0.0	694567	WORD_OFF	n/a	n/a	SPANDEX	Fabric	12	6	[0, 0, 0]	n/a	catFR1	1	R1400N
689.5	0.001	694559	PROB	0.001	n/a	n/a	n/a	-999	6	[8, 1, 2]	11	catFR1	1	R1400N
689.501	0.0	694567	DISTRACT_START	n/a	n/a	n/a	n/a	-999	6	[0, 0, 0]	n/a	catFR1	1	R1400N
689.501	0.0	694567	ENCODING_END	n/a	n/a	n/a	n/a	-999	6	[0, 0, 0]	n/a	catFR1	1	R1400N
689.501	3.316	694560	START	n/a	n/a	n/a	n/a	-999	6	[-999, -999, -999]	n/a	catFR1	1	R1400N
692.817	2.833	697876	PROB	2.833	n/a	n/a	n/a	-999	6	[3, 1, 8]	12	catFR1	1	R1400N
695.65	4.35	700709	PROB	4.35	n/a	n/a	n/a	-999	6	[2, 3, 5]	10	catFR1	1	R1400N
700.0	3.116	705059	PROB	3.116	n/a	n/a	n/a	-999	6	[2, 8, 4]	14	catFR1	1	R1400N
703.116	4.551	708174	PROB	4.551	n/a	n/a	n/a	-999	6	[8, 5, 3]	16	catFR1	1	R1400N
707.667	4.233	712725	PROB	4.233	n/a	n/a	n/a	-999	6	[1, 5, 3]	9	catFR1	1	R1400N
711.9	0.0	716953	DISTRACT_END	n/a	n/a	n/a	n/a	-999	6	[0, 0, 0]	n/a	catFR1	1	R1400N
711.9	2.232	716958	STOP	n/a	n/a	n/a	n/a	-999	6	[-999, -999, -999]	n/a	catFR1	1	R1400N
714.132	1.751	719188	REC_START	n/a	n/a	n/a	n/a	-999	6	[0, 0, 0]	n/a	catFR1	1	R1400N
715.883	2.268	720941	REC_WORD	2.268	n/a	DISHWASHER	Appliances	1	6	[0, 0, 0]	n/a	catFR1	1	R1400N
718.151	1.227	723209	REC_WORD	1.227	n/a	IRON	Appliances	2	6	[0, 0, 0]	n/a	catFR1	1	R1400N
719.378	3.334	724436	REC_WORD	3.334	n/a	CABINET	Furniture	3	6	[0, 0, 0]	n/a	catFR1	1	R1400N
722.712	21.639	727770	REC_WORD	21.639	n/a	CHAIR	Furniture	7	6	[0, 0, 0]	n/a	catFR1	1	R1400N
744.351	5.931	749408	REC_END	n/a	n/a	n/a	n/a	-999	6	[0, 0, 0]	n/a	catFR1	1	R1400N
750.282	10.352	755341	COUNTDOWN_START	n/a	n/a	n/a	n/a	-999	7	[0, 0, 0]	n/a	catFR1	1	R1400N
760.634	0.0	765692	COUNTDOWN_END	n/a	n/a	n/a	n/a	-999	7	[0, 0, 0]	n/a	catFR1	1	R1400N
760.634	2.181	765692	ENCODING_START	n/a	n/a	n/a	n/a	-999	7	[0, 0, 0]	n/a	catFR1	1	R1400N
762.815	1.602	767881	WORD	n/a	wordpools/wordpool_categorized_EN.txt	RATCHET	Tools	1	7	[0, 0, 0]	n/a	catFR1	1	R1400N
764.417	0.932	769472	WORD_OFF	n/a	n/a	RATCHET	Tools	1	7	[0, 0, 0]	n/a	catFR1	1	R1400N
765.349	1.6	770408	WORD	n/a	wordpools/wordpool_categorized_EN.txt	DRILL	Tools	2	7	[0, 0, 0]	n/a	catFR1	1	R1400N
766.949	0.884	771999	WORD_OFF	n/a	n/a	DRILL	Tools	2	7	[0, 0, 0]	n/a	catFR1	1	R1400N
767.833	1.6	772898	WORD	n/a	wordpools/wordpool_categorized_EN.txt	ONION	Vegetables	3	7	[0, 0, 0]	n/a	catFR1	1	R1400N
769.433	0.867	774489	WORD_OFF	n/a	n/a	ONION	Vegetables	3	7	[0, 0, 0]	n/a	catFR1	1	R1400N
770.3	1.616	775350	WORD	n/a	wordpools/wordpool_categorized_EN.txt	BROCCOLI	Vegetables	4	7	[0, 0, 0]	n/a	catFR1	1	R1400N
771.916	0.867	776978	WORD_OFF	n/a	n/a	BROCCOLI	Vegetables	4	7	[0, 0, 0]	n/a	catFR1	1	R1400N
772.783	1.6	777839	WORD	n/a	wordpools/wordpool_categorized_EN.txt	SODA	Beverages	5	7	[0, 0, 0]	n/a	catFR1	1	R1400N
774.383	0.95	779430	WORD_OFF	n/a	n/a	SODA	Beverages	5	7	[0, 0, 0]	n/a	catFR1	1	R1400N
775.333	1.6	780384	WORD	n/a	wordpools/wordpool_categorized_EN.txt	RUM	Beverages	6	7	[0, 0, 0]	n/a	catFR1	1	R1400N
776.933	0.767	781994	WORD_OFF	n/a	n/a	RUM	Beverages	6	7	[0, 0, 0]	n/a	catFR1	1	R1400N
777.7	1.6	782761	WORD	n/a	wordpools/wordpool_categorized_EN.txt	HAMMER	Tools	7	7	[0, 0, 0]	n/a	catFR1	1	R1400N
779.3	0.983	784352	WORD_OFF	n/a	n/a	HAMMER	Tools	7	7	[0, 0, 0]	n/a	catFR1	1	R1400N
780.283	1.6	785344	WORD	n/a	wordpools/wordpool_categorized_EN.txt	AXE	Tools	8	7	[0, 0, 0]	n/a	catFR1	1	R1400N
781.883	0.983	786935	WORD_OFF	n/a	n/a	AXE	Tools	8	7	[0, 0, 0]	n/a	catFR1	1	R1400N
782.866	1.617	787927	WORD	n/a	wordpools/wordpool_categorized_EN.txt	WINE	Beverages	9	7	[0, 0, 0]	n/a	catFR1	1	R1400N
784.483	1.0	789537	WORD_OFF	n/a	n/a	WINE	Beverages	9	7	[0, 0, 0]	n/a	catFR1	1	R1400N
785.483	1.6	790548	WORD	n/a	wordpools/wordpool_categorized_EN.txt	COFFEE	Beverages	10	7	[0, 0, 0]	n/a	catFR1	1	R1400N
787.083	0.767	792139	WORD_OFF	n/a	n/a	COFFEE	Beverages	10	7	[0, 0, 0]	n/a	catFR1	1	R1400N
787.85	1.616	792906	WORD	n/a	wordpools/wordpool_categorized_EN.txt	CORN	Vegetables	11	7	[0, 0, 0]	n/a	catFR1	1	R1400N
789.466	0.9	794516	WORD_OFF	n/a	n/a	CORN	Vegetables	11	7	[0, 0, 0]	n/a	catFR1	1	R1400N
790.366	1.6	795414	WORD	n/a	wordpools/wordpool_categorized_EN.txt	CELERY	Vegetables	12	7	[0, 0, 0]	n/a	catFR1	1	R1400N
791.966	0.001	797024	WORD_OFF	n/a	n/a	CELERY	Vegetables	12	7	[0, 0, 0]	n/a	catFR1	1	R1400N
791.967	0.001	797023	PROB	0.001	n/a	n/a	n/a	-999	7	[1, 7, 4]	12	catFR1	1	R1400N
791.968	0.0	797024	DISTRACT_START	n/a	n/a	n/a	n/a	-999	7	[0, 0, 0]	n/a	catFR1	1	R1400N
791.968	0.0	797024	ENCODING_END	n/a	n/a	n/a	n/a	-999	7	[0, 0, 0]	n/a	catFR1	1	R1400N
791.968	5.815	797024	START	n/a	n/a	n/a	n/a	-999	7	[-999, -999, -999]	n/a	catFR1	1	R1400N
797.783	4.1	802839	PROB	4.1	n/a	n/a	n/a	-999	7	[1, 8, 7]	16	catFR1	1	R1400N
801.883	4.017	806938	PROB	4.017	n/a	n/a	n/a	-999	7	[4, 1, 5]	10	catFR1	1	R1400N
805.9	4.634	810955	PROB	4.634	n/a	n/a	n/a	-999	7	[3, 8, 5]	16	catFR1	1	R1400N
810.534	2.315	815589	PROB	2.315	n/a	n/a	n/a	-999	7	[3, 2, 1]	6	catFR1	1	R1400N
812.849	0.0	817912	DISTRACT_END	n/a	n/a	n/a	n/a	-999	7	[0, 0, 0]	n/a	catFR1	1	R1400N
812.849	2.117	817904	STOP	n/a	n/a	n/a	n/a	-999	7	[-999, -999, -999]	n/a	catFR1	1	R1400N
814.966	14.34	820016	REC_START	n/a	n/a	n/a	n/a	-999	7	[0, 0, 0]	n/a	catFR1	1	R1400N
829.306	2.347	834361	REC_WORD	2.347	n/a	DRILL	Tools	2	7	[0, 0, 0]	n/a	catFR1	1	R1400N
831.653	13.542	836708	REC_WORD	13.542	n/a	BROCCOLI	Vegetables	4	7	[0, 0, 0]	n/a	catFR1	1	R1400N
845.195	2.221	850255	REC_END	n/a	n/a	n/a	n/a	-999	7	[0, 0, 0]	n/a	catFR1	1	R1400N
847.416	10.352	852463	COUNTDOWN_START	n/a	n/a	n/a	n/a	-999	8	[0, 0, 0]	n/a	catFR1	1	R1400N
857.768	0.0	862814	COUNTDOWN_END	n/a	n/a	n/a	n/a	-999	8	[0, 0, 0]	n/a	catFR1	1	R1400N
857.768	2.082	862833	ENCODING_START	n/a	n/a	n/a	n/a	-999	8	[0, 0, 0]	n/a	catFR1	1	R1400N
859.85	1.6	864910	WORD	n/a	wordpools/wordpool_categorized_EN.txt	BUTTERFLY	Insects	1	8	[0, 0, 0]	n/a	catFR1	1	R1400N
861.45	0.933	866501	WORD_OFF	n/a	n/a	BUTTERFLY	Insects	1	8	[0, 0, 0]	n/a	catFR1	1	R1400N
862.383	1.615	867437	WORD	n/a	wordpools/wordpool_categorized_EN.txt	ANT	Insects	2	8	[0, 0, 0]	n/a	catFR1	1	R1400N
863.998	0.967	869047	WORD_OFF	n/a	n/a	ANT	Insects	2	8	[0, 0, 0]	n/a	catFR1	1	R1400N
864.965	1.601	870020	WORD	n/a	wordpools/wordpool_categorized_EN.txt	SPINACH	Vegetables	3	8	[0, 0, 0]	n/a	catFR1	1	R1400N
866.566	1.0	871611	WORD_OFF	n/a	n/a	SPINACH	Vegetables	3	8	[0, 0, 0]	n/a	catFR1	1	R1400N
867.566	1.6	872622	WORD	n/a	wordpools/wordpool_categorized_EN.txt	PEAS	Vegetables	4	8	[0, 0, 0]	n/a	catFR1	1	R1400N
869.166	0.834	874212	WORD_OFF	n/a	n/a	PEAS	Vegetables	4	8	[0, 0, 0]	n/a	catFR1	1	R1400N
870.0	1.616	875055	WORD	n/a	wordpools/wordpool_categorized_EN.txt	SOFA	Furniture	5	8	[0, 0, 0]	n/a	catFR1	1	R1400N
871.616	0.9	876664	WORD_OFF	n/a	n/a	SOFA	Furniture	5	8	[0, 0, 0]	n/a	catFR1	1	R1400N
872.516	1.617	877563	WORD	n/a	wordpools/wordpool_categorized_EN.txt	DRESSER	Furniture	6	8	[0, 0, 0]	n/a	catFR1	1	R1400N
874.133	0.968	879191	WORD_OFF	n/a	n/a	DRESSER	Furniture	6	8	[0, 0, 0]	n/a	catFR1	1	R1400N
875.101	1.599	880146	WORD	n/a	wordpools/wordpool_categorized_EN.txt	LETTUCE	Vegetables	7	8	[0, 0, 0]	n/a	catFR1	1	R1400N
876.7	0.9	881755	WORD_OFF	n/a	n/a	LETTUCE	Vegetables	7	8	[0, 0, 0]	n/a	catFR1	1	R1400N
877.6	1.615	882654	WORD	n/a	wordpools/wordpool_categorized_EN.txt	CAULIFLOWER	Vegetables	8	8	[0, 0, 0]	n/a	catFR1	1	R1400N
879.215	0.935	884264	WORD_OFF	n/a	n/a	CAULIFLOWER	Vegetables	8	8	[0, 0, 0]	n/a	catFR1	1	R1400N
880.15	1.616	885199	WORD	n/a	wordpools/wordpool_categorized_EN.txt	BEE	Insects	9	8	[0, 0, 0]	n/a	catFR1	1	R1400N
881.766	0.784	886828	WORD_OFF	n/a	n/a	BEE	Insects	9	8	[0, 0, 0]	n/a	catFR1	1	R1400N
882.55	1.616	887595	WORD	n/a	wordpools/wordpool_categorized_EN.txt	MOSQUITO	Insects	10	8	[0, 0, 0]	n/a	catFR1	1	R1400N
884.166	0.849	889224	WORD_OFF	n/a	n/a	MOSQUITO	Insects	10	8	[0, 0, 0]	n/a	catFR1	1	R1400N
885.015	1.601	890066	WORD	n/a	wordpools/wordpool_categorized_EN.txt	DESK	Furniture	11	8	[0, 0, 0]	n/a	catFR1	1	R1400N
886.616	0.884	891675	WORD_OFF	n/a	n/a	DESK	Furniture	11	8	[0, 0, 0]	n/a	catFR1	1	R1400N
887.5	1.6	892555	WORD	n/a	wordpools/wordpool_categorized_EN.txt	BED	Furniture	12	8	[0, 0, 0]	n/a	catFR1	1	R1400N
889.1	0.001	894153	PROB	0.001	n/a	n/a	n/a	-999	8	[3, 4, 8]	15	catFR1	1	R1400N
889.101	0.002	894146	WORD_OFF	n/a	n/a	BED	Furniture	12	8	[0, 0, 0]	n/a	catFR1	1	R1400N
889.103	0.0	894165	DISTRACT_START	n/a	n/a	n/a	n/a	-999	8	[0, 0, 0]	n/a	catFR1	1	R1400N
889.103	0.0	894165	ENCODING_END	n/a	n/a	n/a	n/a	-999	8	[0, 0, 0]	n/a	catFR1	1	R1400N
889.103	8.564	894156	START	n/a	n/a	n/a	n/a	-999	8	[-999, -999, -999]	n/a	catFR1	1	R1400N
897.667	3.883	902720	PROB	3.883	n/a	n/a	n/a	-999	8	[5, 3, 7]	15	catFR1	1	R1400N
901.55	4.917	906602	PROB	4.917	n/a	n/a	n/a	-999	8	[2, 3, 5]	10	catFR1	1	R1400N
906.467	3.266	911519	PROB	3.266	n/a	n/a	n/a	-999	8	[3, 1, 4]	8	catFR1	1	R1400N
909.733	0.0	914791	DISTRACT_END	n/a	n/a	n/a	n/a	-999	8	[0, 0, 0]	n/a	catFR1	1	R1400N
909.733	2.283	914785	STOP	n/a	n/a	n/a	n/a	-999	8	[-999, -999, -999]	n/a	catFR1	1	R1400N
912.016	1.973	917064	REC_START	n/a	n/a	n/a	n/a	-999	8	[0, 0, 0]	n/a	catFR1	1	R1400N
913.989	1.941	919041	REC_WORD	1.941	n/a	CAULIFLOWER	Vegetables	8	8	[0, 0, 0]	n/a	catFR1	1	R1400N
915.93	26.315	920982	REC_WORD	26.315	n/a	SPINACH	Vegetables	3	8	[0, 0, 0]	n/a	catFR1	1	R1400N
942.245	4.821	947302	REC_END	n/a	n/a	n/a	n/a	-999	8	[0, 0, 0]	n/a	catFR1	1	R1400N
947.066	10.351	952112	COUNTDOWN_START	n/a	n/a	n/a	n/a	-999	9	[0, 0, 0]	n/a	catFR1	1	R1400N
957.417	0.0	962463	COUNTDOWN_END	n/a	n/a	n/a	n/a	-999	9	[0, 0, 0]	n/a	catFR1	1	R1400N
957.417	1.965	962463	ENCODING_START	n/a	n/a	n/a	n/a	-999	9	[0, 0, 0]	n/a	catFR1	1	R1400N
959.382	1.601	964428	WORD	n/a	wordpools/wordpool_categorized_EN.txt	JELLYFISH	OceanAnimals	1	9	[0, 0, 0]	n/a	catFR1	1	R1400N
960.983	0.849	966038	WORD_OFF	n/a	n/a	JELLYFISH	OceanAnimals	1	9	[0, 0, 0]	n/a	catFR1	1	R1400N
961.832	1.601	966880	WORD	n/a	wordpools/wordpool_categorized_EN.txt	CRAB	OceanAnimals	2	9	[0, 0, 0]	n/a	catFR1	1	R1400N
963.433	0.851	968490	WORD_OFF	n/a	n/a	CRAB	OceanAnimals	2	9	[0, 0, 0]	n/a	catFR1	1	R1400N
964.284	1.616	969332	WORD	n/a	wordpools/wordpool_categorized_EN.txt	GUITAR	Instruments	3	9	[0, 0, 0]	n/a	catFR1	1	R1400N
965.9	0.933	970942	WORD_OFF	n/a	n/a	GUITAR	Instruments	3	9	[0, 0, 0]	n/a	catFR1	1	R1400N
966.833	1.6	971878	WORD	n/a	wordpools/wordpool_categorized_EN.txt	TROMBONE	Instruments	4	9	[0, 0, 0]	n/a	catFR1	1	R1400N
968.433	0.933	973487	WORD_OFF	n/a	n/a	TROMBONE	Instruments	4	9	[0, 0, 0]	n/a	catFR1	1	R1400N
969.366	1.617	974423	WORD	n/a	wordpools/wordpool_categorized_EN.txt	STAIRS	Building	5	9	[0, 0, 0]	n/a	catFR1	1	R1400N
970.983	0.916	976033	WORD_OFF	n/a	n/a	STAIRS	Building	5	9	[0, 0, 0]	n/a	catFR1	1	R1400N
971.899	1.599	976950	WORD	n/a	wordpools/wordpool_categorized_EN.txt	FOUNDATION	Building	6	9	[0, 0, 0]	n/a	catFR1	1	R1400N
973.498	0.818	978541	WORD_OFF	n/a	n/a	FOUNDATION	Building	6	9	[0, 0, 0]	n/a	catFR1	1	R1400N
974.316	1.617	979364	WORD	n/a	wordpools/wordpool_categorized_EN.txt	OYSTER	OceanAnimals	7	9	[0, 0, 0]	n/a	catFR1	1	R1400N
975.933	0.767	980974	WORD_OFF	n/a	n/a	OYSTER	OceanAnimals	7	9	[0, 0, 0]	n/a	catFR1	1	R1400N
976.7	1.616	981741	WORD	n/a	wordpools/wordpool_categorized_EN.txt	OCTOPUS	OceanAnimals	8	9	[0, 0, 0]	n/a	catFR1	1	R1400N
978.316	0.984	983370	WORD_OFF	n/a	n/a	OCTOPUS	OceanAnimals	8	9	[0, 0, 0]	n/a	catFR1	1	R1400N
979.3	1.616	984343	WORD	n/a	wordpools/wordpool_categorized_EN.txt	CELLO	Instruments	9	9	[0, 0, 0]	n/a	catFR1	1	R1400N
980.916	0.817	985971	WORD_OFF	n/a	n/a	CELLO	Instruments	9	9	[0, 0, 0]	n/a	catFR1	1	R1400N
981.733	1.6	986776	WORD	n/a	wordpools/wordpool_categorized_EN.txt	TRUMPET	Instruments	10	9	[0, 0, 0]	n/a	catFR1	1	R1400N
983.333	0.917	988386	WORD_OFF	n/a	n/a	TRUMPET	Instruments	10	9	[0, 0, 0]	n/a	catFR1	1	R1400N
984.25	1.6	989303	WORD	n/a	wordpools/wordpool_categorized_EN.txt	ROOM	Building	11	9	[0, 0, 0]	n/a	catFR1	1	R1400N
985.85	0.849	990894	WORD_OFF	n/a	n/a	ROOM	Building	11	9	[0, 0, 0]	n/a	catFR1	1	R1400N
986.699	1.601	991755	WORD	n/a	wordpools/wordpool_categorized_EN.txt	ATTIC	Building	12	9	[0, 0, 0]	n/a	catFR1	1	R1400N
988.3	0.0	993346	WORD_OFF	n/a	n/a	ATTIC	Building	12	9	[0, 0, 0]	n/a	catFR1	1	R1400N
988.3	0.001	993350	PROB	0.001	n/a	n/a	n/a	-999	9	[3, 6, 5]	14	catFR1	1	R1400N
988.301	0.0	993346	DISTRACT_START	n/a	n/a	n/a	n/a	-999	9	[0, 0, 0]	n/a	catFR1	1	R1400N
988.301	0.0	993346	ENCODING_END	n/a	n/a	n/a	n/a	-999	9	[0, 0, 0]	n/a	catFR1	1	R1400N
988.301	9.949	993351	START	n/a	n/a	n/a	n/a	-999	9	[-999, -999, -999]	n/a	catFR1	1	R1400N
998.25	3.4	1003300	PROB	3.4	n/a	n/a	n/a	-999	9	[6, 8, 2]	16	catFR1	1	R1400N
1001.65	4.533	1006699	PROB	4.533	n/a	n/a	n/a	-999	9	[7, 4, 6]	17	catFR1	1	R1400N
1006.183	3.866	1011232	PROB	3.866	n/a	n/a	n/a	-999	9	[1, 7, 8]	16	catFR1	1	R1400N
1010.049	0.0	1015095	DISTRACT_END	n/a	n/a	n/a	n/a	-999	9	[0, 0, 0]	n/a	catFR1	1	R1400N
1010.049	2.267	1015098	STOP	n/a	n/a	n/a	n/a	-999	9	[-999, -999, -999]	n/a	catFR1	1	R1400N
1012.316	5.552	1017368	REC_START	n/a	n/a	n/a	n/a	-999	9	[0, 0, 0]	n/a	catFR1	1	R1400N
1017.868	4.774	1022917	REC_WORD	4.774	n/a	TRUMPET	Instruments	10	9	[0, 0, 0]	n/a	catFR1	1	R1400N
1022.642	3.18	1027691	REC_WORD	3.18	n/a	ROOM	Building	11	9	[0, 0, 0]	n/a	catFR1	1	R1400N
1025.822	16.705	1030871	REC_WORD	16.705	n/a	JELLYFISH	OceanAnimals	1	9	[0, 0, 0]	n/a	catFR1	1	R1400N
1042.527	1.989	1047569	REC_END	n/a	n/a	n/a	n/a	-999	9	[0, 0, 0]	n/a	catFR1	1	R1400N
1044.516	10.351	1049572	COUNTDOWN_START	n/a	n/a	n/a	n/a	-999	10	[0, 0, 0]	n/a	catFR1	1	R1400N
1054.867	0.0	1059922	COUNTDOWN_END	n/a	n/a	n/a	n/a	-999	10	[0, 0, 0]	n/a	catFR1	1	R1400N
1054.867	2.048	1059922	ENCODING_START	n/a	n/a	n/a	n/a	-999	10	[0, 0, 0]	n/a	catFR1	1	R1400N
1056.915	1.601	1061962	WORD	n/a	wordpools/wordpool_categorized_EN.txt	TURTLE	OceanAnimals	1	10	[0, 0, 0]	n/a	catFR1	1	R1400N
1058.516	0.816	1063572	WORD_OFF	n/a	n/a	TURTLE	OceanAnimals	1	10	[0, 0, 0]	n/a	catFR1	1	R1400N
1059.332	1.601	1064377	WORD	n/a	wordpools/wordpool_categorized_EN.txt	LOBSTER	OceanAnimals	2	10	[0, 0, 0]	n/a	catFR1	1	R1400N
1060.933	0.783	1065986	WORD_OFF	n/a	n/a	LOBSTER	OceanAnimals	2	10	[0, 0, 0]	n/a	catFR1	1	R1400N
1061.716	1.617	1066773	WORD	n/a	wordpools/wordpool_categorized_EN.txt	BATHROOM	Building	3	10	[0, 0, 0]	n/a	catFR1	1	R1400N
1063.333	0.883	1068382	WORD_OFF	n/a	n/a	BATHROOM	Building	3	10	[0, 0, 0]	n/a	catFR1	1	R1400N
1064.216	1.6	1069262	WORD	n/a	wordpools/wordpool_categorized_EN.txt	HALLWAY	Building	4	10	[0, 0, 0]	n/a	catFR1	1	R1400N
1065.816	0.983	1070872	WORD_OFF	n/a	n/a	HALLWAY	Building	4	10	[0, 0, 0]	n/a	catFR1	1	R1400N
1066.799	1.6	1071845	WORD	n/a	wordpools/wordpool_categorized_EN.txt	THUNDER	Weather	5	10	[0, 0, 0]	n/a	catFR1	1	R1400N
1068.399	0.951	1073455	WORD_OFF	n/a	n/a	THUNDER	Weather	5	10	[0, 0, 0]	n/a	catFR1	1	R1400N
1069.35	1.6	1074390	WORD	n/a	wordpools/wordpool_categorized_EN.txt	HURRICANE	Weather	6	10	[0, 0, 0]	n/a	catFR1	1	R1400N
1070.95	0.799	1076000	WORD_OFF	n/a	n/a	HURRICANE	Weather	6	10	[0, 0, 0]	n/a	catFR1	1	R1400N
1071.749	1.601	1076805	WORD	n/a	wordpools/wordpool_categorized_EN.txt	SQUID	OceanAnimals	7	10	[0, 0, 0]	n/a	catFR1	1	R1400N
1073.35	0.816	1078396	WORD_OFF	n/a	n/a	SQUID	OceanAnimals	7	10	[0, 0, 0]	n/a	catFR1	1	R1400N
1074.166	1.617	1079219	WORD	n/a	wordpools/wordpool_categorized_EN.txt	SHRIMP	OceanAnimals	8	10	[0, 0, 0]	n/a	catFR1	1	R1400N
1075.783	0.833	1080829	WORD_OFF	n/a	n/a	SHRIMP	OceanAnimals	8	10	[0, 0, 0]	n/a	catFR1	1	R1400N
1076.616	1.617	1081671	WORD	n/a	wordpools/wordpool_categorized_EN.txt	DOOR	Building	9	10	[0, 0, 0]	n/a	catFR1	1	R1400N
1078.233	0.882	1083281	WORD_OFF	n/a	n/a	DOOR	Building	9	10	[0, 0, 0]	n/a	catFR1	1	R1400N
1079.115	1.617	1084161	WORD	n/a	wordpools/wordpool_categorized_EN.txt	WALL	Building	10	10	[0, 0, 0]	n/a	catFR1	1	R1400N
1080.732	0.784	1085770	WORD_OFF	n/a	n/a	WALL	Building	10	10	[0, 0, 0]	n/a	catFR1	1	R1400N
1081.516	1.6	1086556	WORD	n/a	wordpools/wordpool_categorized_EN.txt	RAIN	Weather	11	10	[0, 0, 0]	n/a	catFR1	1	R1400N
1083.116	0.917	1088166	WORD_OFF	n/a	n/a	RAIN	Weather	11	10	[0, 0, 0]	n/a	catFR1	1	R1400N
1084.033	1.6	1089083	WORD	n/a	wordpools/wordpool_categorized_EN.txt	THUNDERSTORM	Weather	12	10	[0, 0, 0]	n/a	catFR1	1	R1400N
1085.633	0.001	1090674	WORD_OFF	n/a	n/a	THUNDERSTORM	Weather	12	10	[0, 0, 0]	n/a	catFR1	1	R1400N
1085.634	0.001	1090681	PROB	0.001	n/a	n/a	n/a	-999	10	[2, 3, 7]	12	catFR1	1	R1400N
1085.635	0.0	1090674	ENCODING_END	n/a	n/a	n/a	n/a	-999	10	[0, 0, 0]	n/a	catFR1	1	R1400N
1085.635	0.0	1090693	DISTRACT_START	n/a	n/a	n/a	n/a	-999	10	[0, 0, 0]	n/a	catFR1	1	R1400N
1085.635	6.398	1090682	START	n/a	n/a	n/a	n/a	-999	10	[-999, -999, -999]	n/a	catFR1	1	R1400N
1092.033	3.918	1097080	PROB	3.918	n/a	n/a	n/a	-999	10	[7, 7, 4]	18	catFR1	1	R1400N
1095.951	3.582	1100998	PROB	3.582	n/a	n/a	n/a	-999	10	[4, 7, 5]	16	catFR1	1	R1400N
1099.533	3.167	1104579	PROB	3.167	n/a	n/a	n/a	-999	10	[4, 2, 1]	7	catFR1	1	R1400N
1102.7	4.15	1107746	PROB	4.15	n/a	n/a	n/a	-999	10	[2, 1, 6]	9	catFR1	1	R1400N
1106.85	0.0	1111899	DISTRACT_END	n/a	n/a	n/a	n/a	-999	10	[0, 0, 0]	n/a	catFR1	1	R1400N
1106.85	2.183	1111896	STOP	n/a	n/a	n/a	n/a	-999	10	[-999, -999, -999]	n/a	catFR1	1	R1400N
1109.033	2.312	1114078	REC_START	n/a	n/a	n/a	n/a	-999	10	[0, 0, 0]	n/a	catFR1	1	R1400N
1111.345	2.953	1116391	REC_WORD	2.953	n/a	THUNDERSTORM	Weather	12	10	[0, 0, 0]	n/a	catFR1	1	R1400N
1114.298	2.223	1119344	REC_WORD	2.223	n/a	RAIN	Weather	11	10	[0, 0, 0]	n/a	catFR1	1	R1400N
1116.521	8.621	1121567	REC_WORD	8.621	n/a	WALL	Building	10	10	[0, 0, 0]	n/a	catFR1	1	R1400N
1125.142	14.106	1130188	REC_WORD	14.106	n/a	DOOR	Building	9	10	[0, 0, 0]	n/a	catFR1	1	R1400N
1139.248	4.568	1144298	REC_END	n/a	n/a	n/a	n/a	-999	10	[0, 0, 0]	n/a	catFR1	1	R1400N
1143.816	10.352	1148865	COUNTDOWN_START	n/a	n/a	n/a	n/a	-999	11	[0, 0, 0]	n/a	catFR1	1	R1400N
1154.168	0.0	1159216	COUNTDOWN_END	n/a	n/a	n/a	n/a	-999	11	[0, 0, 0]	n/a	catFR1	1	R1400N
1154.168	2.015	1159216	ENCODING_START	n/a	n/a	n/a	n/a	-999	11	[0, 0, 0]	n/a	catFR1	1	R1400N
1156.183	1.6	1161218	WORD	n/a	wordpools/wordpool_categorized_EN.txt	LEMONADE	Beverages	1	11	[0, 0, 0]	n/a	catFR1	1	R1400N
1157.783	0.833	1162828	WORD_OFF	n/a	n/a	LEMONADE	Beverages	1	11	[0, 0, 0]	n/a	catFR1	1	R1400N
1158.616	1.6	1163670	WORD	n/a	wordpools/wordpool_categorized_EN.txt	JUICE	Beverages	2	11	[0, 0, 0]	n/a	catFR1	1	R1400N
1160.216	0.817	1165261	WORD_OFF	n/a	n/a	JUICE	Beverages	2	11	[0, 0, 0]	n/a	catFR1	1	R1400N
1161.033	1.617	1166085	WORD	n/a	wordpools/wordpool_categorized_EN.txt	STAPLER	OfficeSupplies	3	11	[0, 0, 0]	n/a	catFR1	1	R1400N
1162.65	0.883	1167694	WORD_OFF	n/a	n/a	STAPLER	OfficeSupplies	3	11	[0, 0, 0]	n/a	catFR1	1	R1400N
1163.533	1.6	1168574	WORD	n/a	wordpools/wordpool_categorized_EN.txt	PENCIL	OfficeSupplies	4	11	[0, 0, 0]	n/a	catFR1	1	R1400N
1165.133	0.95	1170184	WORD_OFF	n/a	n/a	PENCIL	OfficeSupplies	4	11	[0, 0, 0]	n/a	catFR1	1	R1400N
1166.083	1.6	1171120	WORD	n/a	wordpools/wordpool_categorized_EN.txt	FLOOR	Building	5	11	[0, 0, 0]	n/a	catFR1	1	R1400N
1167.683	0.967	1172729	WORD_OFF	n/a	n/a	FLOOR	Building	5	11	[0, 0, 0]	n/a	catFR1	1	R1400N
1168.65	1.616	1173703	WORD	n/a	wordpools/wordpool_categorized_EN.txt	CEILING	Building	6	11	[0, 0, 0]	n/a	catFR1	1	R1400N
1170.266	0.902	1175312	WORD_OFF	n/a	n/a	CEILING	Building	6	11	[0, 0, 0]	n/a	catFR1	1	R1400N
1171.168	1.614	1176211	WORD	n/a	wordpools/wordpool_categorized_EN.txt	WATER	Beverages	7	11	[0, 0, 0]	n/a	catFR1	1	R1400N
1172.782	0.984	1177820	WORD_OFF	n/a	n/a	WATER	Beverages	7	11	[0, 0, 0]	n/a	catFR1	1	R1400N
1173.766	1.6	1178812	WORD	n/a	wordpools/wordpool_categorized_EN.txt	CIDER	Beverages	8	11	[0, 0, 0]	n/a	catFR1	1	R1400N
1175.366	0.833	1180403	WORD_OFF	n/a	n/a	CIDER	Beverages	8	11	[0, 0, 0]	n/a	catFR1	1	R1400N
1176.199	1.6	1181245	WORD	n/a	wordpools/wordpool_categorized_EN.txt	WINDOW	Building	9	11	[0, 0, 0]	n/a	catFR1	1	R1400N
1177.799	0.884	1182836	WORD_OFF	n/a	n/a	WINDOW	Building	9	11	[0, 0, 0]	n/a	catFR1	1	R1400N
1178.683	1.617	1183735	WORD	n/a	wordpools/wordpool_categorized_EN.txt	ROOF	Building	10	11	[0, 0, 0]	n/a	catFR1	1	R1400N
1180.3	0.949	1185344	WORD_OFF	n/a	n/a	ROOF	Building	10	11	[0, 0, 0]	n/a	catFR1	1	R1400N
1181.249	1.6	1186299	WORD	n/a	wordpools/wordpool_categorized_EN.txt	FOLDER	OfficeSupplies	11	11	[0, 0, 0]	n/a	catFR1	1	R1400N
1182.849	0.884	1187890	WORD_OFF	n/a	n/a	FOLDER	OfficeSupplies	11	11	[0, 0, 0]	n/a	catFR1	1	R1400N
1183.733	1.617	1188770	WORD	n/a	wordpools/wordpool_categorized_EN.txt	MARKER	OfficeSupplies	12	11	[0, 0, 0]	n/a	catFR1	1	R1400N
1185.35	0.0	1190398	WORD_OFF	n/a	n/a	MARKER	OfficeSupplies	12	11	[0, 0, 0]	n/a	catFR1	1	R1400N
1185.35	0.001	1190394	PROB	0.001	n/a	n/a	n/a	-999	11	[3, 4, 3]	10	catFR1	1	R1400N
1185.351	0.0	1190398	DISTRACT_START	n/a	n/a	n/a	n/a	-999	11	[0, 0, 0]	n/a	catFR1	1	R1400N
1185.351	0.0	1190398	ENCODING_END	n/a	n/a	n/a	n/a	-999	11	[0, 0, 0]	n/a	catFR1	1	R1400N
1185.351	8.949	1190395	START	n/a	n/a	n/a	n/a	-999	11	[-999, -999, -999]	n/a	catFR1	1	R1400N
1194.3	3.834	1199344	PROB	3.834	n/a	n/a	n/a	-999	11	[2, 1, 4]	7	catFR1	1	R1400N
1198.134	3.216	1203177	PROB	3.216	n/a	n/a	n/a	-999	11	[1, 1, 3]	5	catFR1	1	R1400N
1201.35	3.316	1206393	PROB	3.316	n/a	n/a	n/a	-999	11	[1, 6, 6]	13	catFR1	1	R1400N
1204.666	3.416	1209709	PROB	3.416	n/a	n/a	n/a	-999	11	[1, 1, 8]	10	catFR1	1	R1400N
1208.082	0.0	1213120	DISTRACT_END	n/a	n/a	n/a	n/a	-999	11	[0, 0, 0]	n/a	catFR1	1	R1400N
1208.082	2.117	1213125	STOP	n/a	n/a	n/a	n/a	-999	11	[-999, -999, -999]	n/a	catFR1	1	R1400N
1210.199	2.271	1215243	REC_START	n/a	n/a	n/a	n/a	-999	11	[0, 0, 0]	n/a	catFR1	1	R1400N
1212.47	2.872	1217513	REC_WORD	2.872	n/a	LEMONADE	Beverages	1	11	[0, 0, 0]	n/a	catFR1	1	R1400N
1215.342	2.818	1220385	REC_WORD	2.818	n/a	JUICE	Beverages	2	11	[0, 0, 0]	n/a	catFR1	1	R1400N
1218.16	2.357	1223203	REC_WORD	2.357	n/a	WINDOW	Building	9	11	[0, 0, 0]	n/a	catFR1	1	R1400N
1220.517	2.866	1225560	REC_WORD	2.866	n/a	FLOOR	Building	5	11	[0, 0, 0]	n/a	catFR1	1	R1400N
1223.383	2.499	1228426	REC_WORD	2.499	n/a	WATER	Beverages	7	11	[0, 0, 0]	n/a	catFR1	1	R1400N
1225.882	14.537	1230925	REC_WORD	14.537	n/a	CIDER	Beverages	8	11	[0, 0, 0]	n/a	catFR1	1	R1400N
1240.419	1.98	1245463	REC_END	n/a	n/a	n/a	n/a	-999	11	[0, 0, 0]	n/a	catFR1	1	R1400N
1242.399	10.351	1247447	COUNTDOWN_START	n/a	n/a	n/a	n/a	-999	12	[0, 0, 0]	n/a	catFR1	1	R1400N
1252.75	0.0	1257798	COUNTDOWN_END	n/a	n/a	n/a	n/a	-999	12	[0, 0, 0]	n/a	catFR1	1	R1400N
1252.75	2.099	1257798	ENCODING_START	n/a	n/a	n/a	n/a	-999	12	[0, 0, 0]	n/a	catFR1	1	R1400N
1254.849	1.6	1259894	WORD	n/a	wordpools/wordpool_categorized_EN.txt	SHELF	Furniture	1	12	[0, 0, 0]	n/a	catFR1	1	R1400N
1256.449	0.833	1261485	WORD_OFF	n/a	n/a	SHELF	Furniture	1	12	[0, 0, 0]	n/a	catFR1	1	R1400N
1257.282	1.601	1262327	WORD	n/a	wordpools/wordpool_categorized_EN.txt	NIGHTSTAND	Furniture	2	12	[0, 0, 0]	n/a	catFR1	1	R1400N
1258.883	0.783	1263918	WORD_OFF	n/a	n/a	NIGHTSTAND	Furniture	2	12	[0, 0, 0]	n/a	catFR1	1	R1400N
1259.666	1.617	1264704	WORD	n/a	wordpools/wordpool_categorized_EN.txt	PLANKTON	OceanAnimals	3	12	[0, 0, 0]	n/a	catFR1	1	R1400N
1261.283	0.966	1266333	WORD_OFF	n/a	n/a	PLANKTON	OceanAnimals	3	12	[0, 0, 0]	n/a	catFR1	1	R1400N
1262.249	1.617	1267287	WORD	n/a	wordpools/wordpool_categorized_EN.txt	FISH	OceanAnimals	4	12	[0, 0, 0]	n/a	catFR1	1	R1400N
1263.866	0.766	1268916	WORD_OFF	n/a	n/a	FISH	OceanAnimals	4	12	[0, 0, 0]	n/a	catFR1	1	R1400N
1264.632	1.601	1269664	WORD	n/a	wordpools/wordpool_categorized_EN.txt	FOREST	Landscapes	5	12	[0, 0, 0]	n/a	catFR1	1	R1400N
1266.233	0.933	1271274	WORD_OFF	n/a	n/a	FOREST	Landscapes	5	12	[0, 0, 0]	n/a	catFR1	1	R1400N
1267.166	1.6	1272210	WORD	n/a	wordpools/wordpool_categorized_EN.txt	VALLEY	Landscapes	6	12	[0, 0, 0]	n/a	catFR1	1	R1400N
1268.766	0.867	1273801	WORD_OFF	n/a	n/a	VALLEY	Landscapes	6	12	[0, 0, 0]	n/a	catFR1	1	R1400N
1269.633	1.6	1274680	WORD	n/a	wordpools/wordpool_categorized_EN.txt	TABLE	Furniture	7	12	[0, 0, 0]	n/a	catFR1	1	R1400N
1271.233	0.933	1276271	WORD_OFF	n/a	n/a	TABLE	Furniture	7	12	[0, 0, 0]	n/a	catFR1	1	R1400N
1272.166	1.617	1277207	WORD	n/a	wordpools/wordpool_categorized_EN.txt	BOOKCASE	Furniture	8	12	[0, 0, 0]	n/a	catFR1	1	R1400N
1273.783	0.866	1278817	WORD_OFF	n/a	n/a	BOOKCASE	Furniture	8	12	[0, 0, 0]	n/a	catFR1	1	R1400N
1274.649	1.617	1279697	WORD	n/a	wordpools/wordpool_categorized_EN.txt	DOLPHIN	OceanAnimals	9	12	[0, 0, 0]	n/a	catFR1	1	R1400N
1276.266	0.8	1281306	WORD_OFF	n/a	n/a	DOLPHIN	OceanAnimals	9	12	[0, 0, 0]	n/a	catFR1	1	R1400N
1277.066	1.6	1282111	WORD	n/a	wordpools/wordpool_categorized_EN.txt	WHALE	OceanAnimals	10	12	[0, 0, 0]	n/a	catFR1	1	R1400N
1278.666	0.9	1283702	WORD_OFF	n/a	n/a	WHALE	OceanAnimals	10	12	[0, 0, 0]	n/a	catFR1	1	R1400N
1279.566	1.6	1284600	WORD	n/a	wordpools/wordpool_categorized_EN.txt	LAKE	Landscapes	11	12	[0, 0, 0]	n/a	catFR1	1	R1400N
1281.166	0.817	1286210	WORD_OFF	n/a	n/a	LAKE	Landscapes	11	12	[0, 0, 0]	n/a	catFR1	1	R1400N
1281.983	1.616	1287015	WORD	n/a	wordpools/wordpool_categorized_EN.txt	OCEAN	Landscapes	12	12	[0, 0, 0]	n/a	catFR1	1	R1400N
1283.599	0.002	1288643	WORD_OFF	n/a	n/a	OCEAN	Landscapes	12	12	[0, 0, 0]	n/a	catFR1	1	R1400N
1283.601	0.0	1288643	DISTRACT_START	n/a	n/a	n/a	n/a	-999	12	[0, 0, 0]	n/a	catFR1	1	R1400N
1283.601	0.0	1288643	ENCODING_END	n/a	n/a	n/a	n/a	-999	12	[0, 0, 0]	n/a	catFR1	1	R1400N
1283.601	0.0	1288642	START	n/a	n/a	n/a	n/a	-999	12	[-999, -999, -999]	n/a	catFR1	1	R1400N
1283.601	9.066	1288642	PROB	9.066	n/a	n/a	n/a	-999	12	[5, 8, 7]	20	catFR1	1	R1400N
1292.667	3.416	1297708	PROB	3.416	n/a	n/a	n/a	-999	12	[3, 4, 2]	8	catFR1	1	R1400N
1296.083	4.9	1301123	PROB	4.9	n/a	n/a	n/a	-999	12	[5, 7, 1]	13	catFR1	1	R1400N
1300.983	3.967	1306023	PROB	3.967	n/a	n/a	n/a	-999	12	[2, 6, 5]	13	catFR1	1	R1400N
1304.95	0.0	1309999	DISTRACT_END	n/a	n/a	n/a	n/a	-999	12	[0, 0, 0]	n/a	catFR1	1	R1400N
1304.95	2.233	1309990	STOP	n/a	n/a	n/a	n/a	-999	12	[-999, -999, -999]	n/a	catFR1	1	R1400N
1307.183	26.78	1312216	REC_START	n/a	n/a	n/a	n/a	-999	12	[0, 0, 0]	n/a	catFR1	1	R1400N
1333.963	3.455	1339002	REC_WORD_VV	3.455	n/a	<>	n/a	-999	12	[0, 0, 0]	n/a	catFR1	1	R1400N
1337.418	0.0	1342455	REC_END	n/a	n/a	n/a	n/a	-999	12	[0, 0, 0]	n/a	catFR1	1	R1400N
