onset	duration	sample	trial_type	response_time	stim_file	item_name	category	serialpos	list	test	answer	experiment	session	subject
0.0	4.372	18485	INSTRUCT_START	n/a	n/a	n/a	n/a	-999	-999	[0, 0, 0]	n/a	catFR1	3	R1389J
4.372	43.842	22852	INSTRUCT_END	n/a	n/a	n/a	n/a	-999	-999	[0, 0, 0]	n/a	catFR1	3	R1389J
48.214	10.364	66705	COUNTDOWN_START	n/a	n/a	n/a	n/a	-999	-999	[0, 0, 0]	n/a	catFR1	3	R1389J
58.578	0.001	77061	COUNTDOWN_END	n/a	n/a	n/a	n/a	-999	-999	[0, 0, 0]	n/a	catFR1	3	R1389J
58.579	2.252	77061	ENCODING_START	n/a	n/a	n/a	n/a	-999	-1	[0, 0, 0]	n/a	catFR1	3	R1389J
60.831	1.617	79311	WORD	n/a	n/a	SHIRT	Clothing	1	-1	[0, 0, 0]	n/a	catFR1	3	R1389J
62.448	0.85	80932	WORD_OFF	n/a	n/a	SHIRT	Clothing	1	-1	[0, 0, 0]	n/a	catFR1	3	R1389J
63.298	1.617	81779	WORD	n/a	n/a	COAT	Clothing	2	-1	[0, 0, 0]	n/a	catFR1	3	R1389J
64.915	0.916	83400	WORD_OFF	n/a	n/a	COAT	Clothing	2	-1	[0, 0, 0]	n/a	catFR1	3	R1389J
65.831	1.6	84319	WORD	n/a	n/a	GNAT	Insects	3	-1	[0, 0, 0]	n/a	catFR1	3	R1389J
67.431	0.9	85916	WORD_OFF	n/a	n/a	GNAT	Insects	3	-1	[0, 0, 0]	n/a	catFR1	3	R1389J
68.331	1.617	86812	WORD	n/a	n/a	BUTTERFLY	Insects	4	-1	[0, 0, 0]	n/a	catFR1	3	R1389J
69.948	1.0	88433	WORD_OFF	n/a	n/a	BUTTERFLY	Insects	4	-1	[0, 0, 0]	n/a	catFR1	3	R1389J
70.948	1.6	89425	WORD	n/a	n/a	SPANDEX	Fabric	5	-1	[0, 0, 0]	n/a	catFR1	3	R1389J
72.548	0.934	91034	WORD_OFF	n/a	n/a	SPANDEX	Fabric	5	-1	[0, 0, 0]	n/a	catFR1	3	R1389J
73.482	1.616	91965	WORD	n/a	n/a	VELVET	Fabric	6	-1	[0, 0, 0]	n/a	catFR1	3	R1389J
75.098	0.933	93574	WORD_OFF	n/a	n/a	VELVET	Fabric	6	-1	[0, 0, 0]	n/a	catFR1	3	R1389J
76.031	1.6	94518	WORD	n/a	n/a	DRESS	Clothing	7	-1	[0, 0, 0]	n/a	catFR1	3	R1389J
77.631	0.933	96115	WORD_OFF	n/a	n/a	DRESS	Clothing	7	-1	[0, 0, 0]	n/a	catFR1	3	R1389J
78.564	1.601	97046	WORD	n/a	n/a	SKIRT	Clothing	8	-1	[0, 0, 0]	n/a	catFR1	3	R1389J
80.165	0.833	98643	WORD_OFF	n/a	n/a	SKIRT	Clothing	8	-1	[0, 0, 0]	n/a	catFR1	3	R1389J
80.998	1.617	99478	WORD	n/a	n/a	CRICKET	Insects	9	-1	[0, 0, 0]	n/a	catFR1	3	R1389J
82.615	0.983	101099	WORD_OFF	n/a	n/a	CRICKET	Insects	9	-1	[0, 0, 0]	n/a	catFR1	3	R1389J
83.598	1.616	102079	WORD	n/a	n/a	BEE	Insects	10	-1	[0, 0, 0]	n/a	catFR1	3	R1389J
85.214	0.934	103700	WORD_OFF	n/a	n/a	BEE	Insects	10	-1	[0, 0, 0]	n/a	catFR1	3	R1389J
86.148	1.617	104631	WORD	n/a	n/a	SATIN	Fabric	11	-1	[0, 0, 0]	n/a	catFR1	3	R1389J
87.765	0.866	106252	WORD_OFF	n/a	n/a	SATIN	Fabric	11	-1	[0, 0, 0]	n/a	catFR1	3	R1389J
88.631	1.6	107111	WORD	n/a	n/a	LINEN	Fabric	12	-1	[0, 0, 0]	n/a	catFR1	3	R1389J
90.231	0.002	108708	WORD_OFF	n/a	n/a	LINEN	Fabric	12	-1	[0, 0, 0]	n/a	catFR1	3	R1389J
90.233	0.0	108713	START	n/a	n/a	n/a	n/a	-999	-1	[-999, -999, -999]	n/a	catFR1	3	R1389J
90.233	0.0	108713	PROB	8.782	n/a	n/a	n/a	-999	-1	[7, 4, 4]	19.0	catFR1	3	R1389J
90.233	0.0	108720	ENCODING_END	n/a	n/a	n/a	n/a	-999	-1	[0, 0, 0]	n/a	catFR1	3	R1389J
90.233	8.799	108720	DISTRACT_START	n/a	n/a	n/a	n/a	-999	-1	[0, 0, 0]	n/a	catFR1	3	R1389J
99.032	5.749	117511	PROB	5.733	n/a	n/a	n/a	-999	-1	[4, 8, 8]	20.0	catFR1	3	R1389J
104.781	9.1	123260	PROB	9.083	n/a	n/a	n/a	-999	-1	[8, 7, 3]	19.0	catFR1	3	R1389J
113.881	0.0	132359	DISTRACT_END	n/a	n/a	n/a	n/a	-999	-1	[0, 0, 0]	n/a	catFR1	3	R1389J
113.881	2.083	132360	STOP	n/a	n/a	n/a	n/a	-999	-1	[-999, -999, -999]	n/a	catFR1	3	R1389J
115.964	0.83	134448	REC_START	n/a	n/a	n/a	n/a	-999	-1	[0, 0, 0]	n/a	catFR1	3	R1389J
116.794	1.051	135273	REC_WORD_VV	0.83	n/a	<>	n/a	-999	-1	[0, 0, 0]	n/a	catFR1	3	R1389J
117.845	2.223	136324	REC_WORD	1.881	n/a	SHIRT	Clothing	1	-1	[0, 0, 0]	n/a	catFR1	3	R1389J
120.068	2.01	138547	REC_WORD	4.104	n/a	COAT	Clothing	2	-1	[0, 0, 0]	n/a	catFR1	3	R1389J
122.078	2.164	140556	REC_WORD	6.114	n/a	DRESS	Clothing	7	-1	[0, 0, 0]	n/a	catFR1	3	R1389J
124.242	5.694	142720	REC_WORD	8.278	n/a	SKIRT	Clothing	8	-1	[0, 0, 0]	n/a	catFR1	3	R1389J
129.936	1.902	148414	REC_WORD	13.972	n/a	BLOUSE	n/a	-999	-1	[0, 0, 0]	n/a	catFR1	3	R1389J
131.838	2.823	150316	REC_WORD	15.874	n/a	VELVET	Fabric	6	-1	[0, 0, 0]	n/a	catFR1	3	R1389J
134.661	6.389	153139	REC_WORD_VV	18.697	n/a	<>	n/a	-999	-1	[0, 0, 0]	n/a	catFR1	3	R1389J
141.05	5.157	159528	REC_WORD	25.086	n/a	GNAT	Insects	3	-1	[0, 0, 0]	n/a	catFR1	3	R1389J
146.207	20.224	164684	REC_END	n/a	n/a	n/a	n/a	-999	-1	[0, 0, 0]	n/a	catFR1	3	R1389J
166.431	10.365	184911	COUNTDOWN_START	n/a	n/a	n/a	n/a	-999	1	[0, 0, 0]	n/a	catFR1	3	R1389J
176.796	0.0	195278	COUNTDOWN_END	n/a	n/a	n/a	n/a	-999	1	[0, 0, 0]	n/a	catFR1	3	R1389J
176.796	2.169	195278	ENCODING_START	n/a	n/a	n/a	n/a	-999	1	[0, 0, 0]	n/a	catFR1	3	R1389J
178.965	1.616	197444	WORD	n/a	wordpools/wordpool_categorized_EN.txt	TELEVISION	Electronics	1	1	[0, 0, 0]	n/a	catFR1	3	R1389J
180.581	0.9	199065	WORD_OFF	n/a	n/a	TELEVISION	Electronics	1	1	[0, 0, 0]	n/a	catFR1	3	R1389J
181.481	1.617	199960	WORD	n/a	wordpools/wordpool_categorized_EN.txt	COMPUTER	Electronics	2	1	[0, 0, 0]	n/a	catFR1	3	R1389J
183.098	0.783	201569	WORD_OFF	n/a	n/a	COMPUTER	Electronics	2	1	[0, 0, 0]	n/a	catFR1	3	R1389J
183.881	1.6	202355	WORD	n/a	wordpools/wordpool_categorized_EN.txt	STOVE	Appliances	3	1	[0, 0, 0]	n/a	catFR1	3	R1389J
185.481	0.834	203964	WORD_OFF	n/a	n/a	STOVE	Appliances	3	1	[0, 0, 0]	n/a	catFR1	3	R1389J
186.315	1.616	204787	WORD	n/a	wordpools/wordpool_categorized_EN.txt	MIXER	Appliances	4	1	[0, 0, 0]	n/a	catFR1	3	R1389J
187.931	0.883	206408	WORD_OFF	n/a	n/a	MIXER	Appliances	4	1	[0, 0, 0]	n/a	catFR1	3	R1389J
188.814	1.6	207291	WORD	n/a	wordpools/wordpool_categorized_EN.txt	CHEESECAKE	Desserts	5	1	[0, 0, 0]	n/a	catFR1	3	R1389J
190.414	0.901	208888	WORD_OFF	n/a	n/a	CHEESECAKE	Desserts	5	1	[0, 0, 0]	n/a	catFR1	3	R1389J
191.315	1.616	209795	WORD	n/a	wordpools/wordpool_categorized_EN.txt	CAKE	Desserts	6	1	[0, 0, 0]	n/a	catFR1	3	R1389J
192.931	0.816	211404	WORD_OFF	n/a	n/a	CAKE	Desserts	6	1	[0, 0, 0]	n/a	catFR1	3	R1389J
193.747	1.601	212227	WORD	n/a	wordpools/wordpool_categorized_EN.txt	SCANNER	Electronics	7	1	[0, 0, 0]	n/a	catFR1	3	R1389J
195.348	0.85	213824	WORD_OFF	n/a	n/a	SCANNER	Electronics	7	1	[0, 0, 0]	n/a	catFR1	3	R1389J
196.198	1.617	214671	WORD	n/a	wordpools/wordpool_categorized_EN.txt	PHONE	Electronics	8	1	[0, 0, 0]	n/a	catFR1	3	R1389J
197.815	0.833	216292	WORD_OFF	n/a	n/a	PHONE	Electronics	8	1	[0, 0, 0]	n/a	catFR1	3	R1389J
198.648	1.616	217126	WORD	n/a	wordpools/wordpool_categorized_EN.txt	JELLO	Desserts	9	1	[0, 0, 0]	n/a	catFR1	3	R1389J
200.264	1.0	218735	WORD_OFF	n/a	n/a	JELLO	Desserts	9	1	[0, 0, 0]	n/a	catFR1	3	R1389J
201.264	1.601	219739	WORD	n/a	wordpools/wordpool_categorized_EN.txt	PUDDING	Desserts	10	1	[0, 0, 0]	n/a	catFR1	3	R1389J
202.865	0.882	221336	WORD_OFF	n/a	n/a	PUDDING	Desserts	10	1	[0, 0, 0]	n/a	catFR1	3	R1389J
203.747	1.601	222219	WORD	n/a	wordpools/wordpool_categorized_EN.txt	REFRIGERATOR	Appliances	11	1	[0, 0, 0]	n/a	catFR1	3	R1389J
205.348	0.867	223828	WORD_OFF	n/a	n/a	REFRIGERATOR	Appliances	11	1	[0, 0, 0]	n/a	catFR1	3	R1389J
206.215	1.616	224687	WORD	n/a	wordpools/wordpool_categorized_EN.txt	DRYER	Appliances	12	1	[0, 0, 0]	n/a	catFR1	3	R1389J
207.831	0.0	226306	PROB	13.533	n/a	n/a	n/a	-999	1	[2, 1, 4]	7.0	catFR1	3	R1389J
207.831	0.002	226308	WORD_OFF	n/a	n/a	DRYER	Appliances	12	1	[0, 0, 0]	n/a	catFR1	3	R1389J
207.833	0.0	226308	ENCODING_END	n/a	n/a	n/a	n/a	-999	1	[0, 0, 0]	n/a	catFR1	3	R1389J
207.833	0.0	226308	DISTRACT_START	n/a	n/a	n/a	n/a	-999	1	[0, 0, 0]	n/a	catFR1	3	R1389J
207.833	13.548	226308	START	n/a	n/a	n/a	n/a	-999	1	[-999, -999, -999]	n/a	catFR1	3	R1389J
221.381	11.783	239855	PROB	11.766	n/a	n/a	n/a	-999	1	[4, 7, 5]	17.0	catFR1	3	R1389J
233.164	0.0	251638	STOP	n/a	n/a	n/a	n/a	-999	1	[-999, -999, -999]	n/a	catFR1	3	R1389J
233.164	2.133	251641	DISTRACT_END	n/a	n/a	n/a	n/a	-999	1	[0, 0, 0]	n/a	catFR1	3	R1389J
235.297	2.315	253766	REC_START	n/a	n/a	n/a	n/a	-999	1	[0, 0, 0]	n/a	catFR1	3	R1389J
237.612	1.0	256086	REC_WORD_VV	2.315	n/a	<>	n/a	-999	1	[0, 0, 0]	n/a	catFR1	3	R1389J
238.612	2.041	257086	REC_WORD_VV	3.315	n/a	<>	n/a	-999	1	[0, 0, 0]	n/a	catFR1	3	R1389J
240.653	1.145	259127	REC_WORD	5.356	n/a	REFRIGERATOR	Appliances	11	1	[0, 0, 0]	n/a	catFR1	3	R1389J
241.798	2.633	260272	REC_WORD_VV	6.501	n/a	<>	n/a	-999	1	[0, 0, 0]	n/a	catFR1	3	R1389J
244.431	6.394	262905	REC_WORD	9.134	n/a	STOVE	Appliances	3	1	[0, 0, 0]	n/a	catFR1	3	R1389J
250.825	1.333	269298	REC_WORD_VV	15.528	n/a	<>	n/a	-999	1	[0, 0, 0]	n/a	catFR1	3	R1389J
252.158	7.794	270631	REC_WORD_VV	16.861	n/a	<>	n/a	-999	1	[0, 0, 0]	n/a	catFR1	3	R1389J
259.952	5.557	278425	REC_WORD	24.655	n/a	MICROWAVE	n/a	-999	1	[0, 0, 0]	n/a	catFR1	3	R1389J
265.509	8.189	283977	REC_END	n/a	n/a	n/a	n/a	-999	1	[0, 0, 0]	n/a	catFR1	3	R1389J
273.698	10.363	292168	COUNTDOWN_START	n/a	n/a	n/a	n/a	-999	2	[0, 0, 0]	n/a	catFR1	3	R1389J
284.061	0.001	302535	COUNTDOWN_END	n/a	n/a	n/a	n/a	-999	2	[0, 0, 0]	n/a	catFR1	3	R1389J
284.062	2.235	302535	ENCODING_START	n/a	n/a	n/a	n/a	-999	2	[0, 0, 0]	n/a	catFR1	3	R1389J
286.297	1.6	304773	WORD	n/a	wordpools/wordpool_categorized_EN.txt	WILLOW	Trees	1	2	[0, 0, 0]	n/a	catFR1	3	R1389J
287.897	0.8	306370	WORD_OFF	n/a	n/a	WILLOW	Trees	1	2	[0, 0, 0]	n/a	catFR1	3	R1389J
288.697	1.601	307168	WORD	n/a	wordpools/wordpool_categorized_EN.txt	WALNUT	Trees	2	2	[0, 0, 0]	n/a	catFR1	3	R1389J
290.298	0.799	308765	WORD_OFF	n/a	n/a	WALNUT	Trees	2	2	[0, 0, 0]	n/a	catFR1	3	R1389J
291.097	1.616	309564	WORD	n/a	wordpools/wordpool_categorized_EN.txt	SCOOTER	Vehicles	3	2	[0, 0, 0]	n/a	catFR1	3	R1389J
292.713	0.867	311185	WORD_OFF	n/a	n/a	SCOOTER	Vehicles	3	2	[0, 0, 0]	n/a	catFR1	3	R1389J
293.58	1.617	312056	WORD	n/a	wordpools/wordpool_categorized_EN.txt	CAR	Vehicles	4	2	[0, 0, 0]	n/a	catFR1	3	R1389J
295.197	0.884	313665	WORD_OFF	n/a	n/a	CAR	Vehicles	4	2	[0, 0, 0]	n/a	catFR1	3	R1389J
296.081	1.6	314548	WORD	n/a	wordpools/wordpool_categorized_EN.txt	ZEBRA	Zoo	5	2	[0, 0, 0]	n/a	catFR1	3	R1389J
297.681	0.966	316157	WORD_OFF	n/a	n/a	ZEBRA	Zoo	5	2	[0, 0, 0]	n/a	catFR1	3	R1389J
298.647	1.599	317125	WORD	n/a	wordpools/wordpool_categorized_EN.txt	GORILLA	Zoo	6	2	[0, 0, 0]	n/a	catFR1	3	R1389J
300.246	0.985	318722	WORD_OFF	n/a	n/a	GORILLA	Zoo	6	2	[0, 0, 0]	n/a	catFR1	3	R1389J
301.231	1.617	319702	WORD	n/a	wordpools/wordpool_categorized_EN.txt	SPRUCE	Trees	7	2	[0, 0, 0]	n/a	catFR1	3	R1389J
302.848	0.982	321323	WORD_OFF	n/a	n/a	SPRUCE	Trees	7	2	[0, 0, 0]	n/a	catFR1	3	R1389J
303.83	1.601	322302	WORD	n/a	wordpools/wordpool_categorized_EN.txt	EVERGREEN	Trees	8	2	[0, 0, 0]	n/a	catFR1	3	R1389J
305.431	0.982	323899	WORD_OFF	n/a	n/a	EVERGREEN	Trees	8	2	[0, 0, 0]	n/a	catFR1	3	R1389J
306.413	1.601	324891	WORD	n/a	wordpools/wordpool_categorized_EN.txt	PANDA	Zoo	9	2	[0, 0, 0]	n/a	catFR1	3	R1389J
308.014	0.866	326488	WORD_OFF	n/a	n/a	PANDA	Zoo	9	2	[0, 0, 0]	n/a	catFR1	3	R1389J
308.88	1.601	327347	WORD	n/a	wordpools/wordpool_categorized_EN.txt	ELEPHANT	Zoo	10	2	[0, 0, 0]	n/a	catFR1	3	R1389J
310.481	1.0	328956	WORD_OFF	n/a	n/a	ELEPHANT	Zoo	10	2	[0, 0, 0]	n/a	catFR1	3	R1389J
311.481	1.616	329948	WORD	n/a	wordpools/wordpool_categorized_EN.txt	MOTORCYCLE	Vehicles	11	2	[0, 0, 0]	n/a	catFR1	3	R1389J
313.097	0.766	331569	WORD_OFF	n/a	n/a	MOTORCYCLE	Vehicles	11	2	[0, 0, 0]	n/a	catFR1	3	R1389J
313.863	1.602	332331	WORD	n/a	wordpools/wordpool_categorized_EN.txt	PLANE	Vehicles	12	2	[0, 0, 0]	n/a	catFR1	3	R1389J
315.465	0.0	333936	START	n/a	n/a	n/a	n/a	-999	2	[-999, -999, -999]	n/a	catFR1	3	R1389J
315.465	0.0	333936	PROB	8.799	n/a	n/a	n/a	-999	2	[2, 5, 8]	15.0	catFR1	3	R1389J
315.464	0.001	333940	WORD_OFF	n/a	n/a	PLANE	Vehicles	12	2	[0, 0, 0]	n/a	catFR1	3	R1389J
315.465	0.0	333940	ENCODING_END	n/a	n/a	n/a	n/a	-999	2	[0, 0, 0]	n/a	catFR1	3	R1389J
315.465	8.816	333940	DISTRACT_START	n/a	n/a	n/a	n/a	-999	2	[0, 0, 0]	n/a	catFR1	3	R1389J
324.281	4.4	342751	PROB	4.383	n/a	n/a	n/a	-999	2	[3, 1, 4]	8.0	catFR1	3	R1389J
328.681	5.966	347151	PROB	5.949	n/a	n/a	n/a	-999	2	[6, 6, 3]	15.0	catFR1	3	R1389J
334.647	7.3	353117	PROB	7.283	n/a	n/a	n/a	-999	2	[5, 2, 4]	11.0	catFR1	3	R1389J
341.947	0.0	360417	STOP	n/a	n/a	n/a	n/a	-999	2	[-999, -999, -999]	n/a	catFR1	3	R1389J
341.947	2.166	360422	DISTRACT_END	n/a	n/a	n/a	n/a	-999	2	[0, 0, 0]	n/a	catFR1	3	R1389J
344.113	2.205	362583	REC_START	n/a	n/a	n/a	n/a	-999	2	[0, 0, 0]	n/a	catFR1	3	R1389J
346.318	3.037	364787	REC_WORD_VV	2.205	n/a	<>	n/a	-999	2	[0, 0, 0]	n/a	catFR1	3	R1389J
349.355	4.623	367824	REC_WORD	5.242	n/a	ELEPHANT	Zoo	10	2	[0, 0, 0]	n/a	catFR1	3	R1389J
353.978	1.788	372447	REC_WORD_VV	9.865	n/a	<>	n/a	-999	2	[0, 0, 0]	n/a	catFR1	3	R1389J
355.766	9.493	374235	REC_WORD_VV	11.653	n/a	<>	n/a	-999	2	[0, 0, 0]	n/a	catFR1	3	R1389J
365.259	1.701	383728	REC_WORD	21.146	n/a	WILLOW	Trees	1	2	[0, 0, 0]	n/a	catFR1	3	R1389J
366.96	7.372	385429	REC_WORD	22.847	n/a	EVERGREEN	Trees	8	2	[0, 0, 0]	n/a	catFR1	3	R1389J
374.332	6.182	392807	REC_END	n/a	n/a	n/a	n/a	-999	2	[0, 0, 0]	n/a	catFR1	3	R1389J
380.514	10.361	398989	COUNTDOWN_START	n/a	n/a	n/a	n/a	-999	3	[0, 0, 0]	n/a	catFR1	3	R1389J
390.875	0.0	409344	COUNTDOWN_END	n/a	n/a	n/a	n/a	-999	3	[0, 0, 0]	n/a	catFR1	3	R1389J
390.875	2.122	409344	ENCODING_START	n/a	n/a	n/a	n/a	-999	3	[0, 0, 0]	n/a	catFR1	3	R1389J
392.997	1.618	411461	WORD	n/a	wordpools/wordpool_categorized_EN.txt	TABLET	Electronics	1	3	[0, 0, 0]	n/a	catFR1	3	R1389J
394.615	0.883	413083	WORD_OFF	n/a	n/a	TABLET	Electronics	1	3	[0, 0, 0]	n/a	catFR1	3	R1389J
395.498	1.6	413966	WORD	n/a	wordpools/wordpool_categorized_EN.txt	SPEAKER	Electronics	2	3	[0, 0, 0]	n/a	catFR1	3	R1389J
397.098	0.8	415563	WORD_OFF	n/a	n/a	SPEAKER	Electronics	2	3	[0, 0, 0]	n/a	catFR1	3	R1389J
397.898	1.616	416361	WORD	n/a	wordpools/wordpool_categorized_EN.txt	MARKER	OfficeSupplies	3	3	[0, 0, 0]	n/a	catFR1	3	R1389J
399.514	0.967	417982	WORD_OFF	n/a	n/a	MARKER	OfficeSupplies	3	3	[0, 0, 0]	n/a	catFR1	3	R1389J
400.481	1.617	418950	WORD	n/a	wordpools/wordpool_categorized_EN.txt	RULER	OfficeSupplies	4	3	[0, 0, 0]	n/a	catFR1	3	R1389J
402.098	0.866	420571	WORD_OFF	n/a	n/a	RULER	OfficeSupplies	4	3	[0, 0, 0]	n/a	catFR1	3	R1389J
402.964	1.6	421430	WORD	n/a	wordpools/wordpool_categorized_EN.txt	PLANKTON	OceanAnimals	5	3	[0, 0, 0]	n/a	catFR1	3	R1389J
404.564	0.9	423027	WORD_OFF	n/a	n/a	PLANKTON	OceanAnimals	5	3	[0, 0, 0]	n/a	catFR1	3	R1389J
405.464	1.617	423934	WORD	n/a	wordpools/wordpool_categorized_EN.txt	DOLPHIN	OceanAnimals	6	3	[0, 0, 0]	n/a	catFR1	3	R1389J
407.081	0.95	425543	WORD_OFF	n/a	n/a	DOLPHIN	OceanAnimals	6	3	[0, 0, 0]	n/a	catFR1	3	R1389J
408.031	1.616	426499	WORD	n/a	wordpools/wordpool_categorized_EN.txt	FOLDER	OfficeSupplies	7	3	[0, 0, 0]	n/a	catFR1	3	R1389J
409.647	0.817	428120	WORD_OFF	n/a	n/a	FOLDER	OfficeSupplies	7	3	[0, 0, 0]	n/a	catFR1	3	R1389J
410.464	1.616	428930	WORD	n/a	wordpools/wordpool_categorized_EN.txt	PENCIL	OfficeSupplies	8	3	[0, 0, 0]	n/a	catFR1	3	R1389J
412.08	0.984	430551	WORD_OFF	n/a	n/a	PENCIL	OfficeSupplies	8	3	[0, 0, 0]	n/a	catFR1	3	R1389J
413.064	1.6	431531	WORD	n/a	wordpools/wordpool_categorized_EN.txt	CALCULATOR	Electronics	9	3	[0, 0, 0]	n/a	catFR1	3	R1389J
414.664	0.999	433128	WORD_OFF	n/a	n/a	CALCULATOR	Electronics	9	3	[0, 0, 0]	n/a	catFR1	3	R1389J
415.663	1.601	434132	WORD	n/a	wordpools/wordpool_categorized_EN.txt	HEADPHONES	Electronics	10	3	[0, 0, 0]	n/a	catFR1	3	R1389J
417.264	0.85	435729	WORD_OFF	n/a	n/a	HEADPHONES	Electronics	10	3	[0, 0, 0]	n/a	catFR1	3	R1389J
418.114	1.6	436576	WORD	n/a	wordpools/wordpool_categorized_EN.txt	OYSTER	OceanAnimals	11	3	[0, 0, 0]	n/a	catFR1	3	R1389J
419.714	0.949	438185	WORD_OFF	n/a	n/a	OYSTER	OceanAnimals	11	3	[0, 0, 0]	n/a	catFR1	3	R1389J
420.663	1.6	439129	WORD	n/a	wordpools/wordpool_categorized_EN.txt	CRAB	OceanAnimals	12	3	[0, 0, 0]	n/a	catFR1	3	R1389J
422.263	0.001	440725	WORD_OFF	n/a	n/a	CRAB	OceanAnimals	12	3	[0, 0, 0]	n/a	catFR1	3	R1389J
422.264	0.001	440730	PROB	6.85	n/a	n/a	n/a	-999	3	[3, 3, 3]	9.0	catFR1	3	R1389J
422.265	0.0	440731	START	n/a	n/a	n/a	n/a	-999	3	[-999, -999, -999]	n/a	catFR1	3	R1389J
422.264	0.001	440738	ENCODING_END	n/a	n/a	n/a	n/a	-999	3	[0, 0, 0]	n/a	catFR1	3	R1389J
422.265	6.866	440738	DISTRACT_START	n/a	n/a	n/a	n/a	-999	3	[0, 0, 0]	n/a	catFR1	3	R1389J
429.131	9.0	447597	PROB	8.983	n/a	n/a	n/a	-999	3	[3, 5, 7]	15.0	catFR1	3	R1389J
438.131	5.099	456597	PROB	5.084	n/a	n/a	n/a	-999	3	[2, 3, 7]	12.0	catFR1	3	R1389J
443.23	0.0	461690	DISTRACT_END	n/a	n/a	n/a	n/a	-999	3	[0, 0, 0]	n/a	catFR1	3	R1389J
443.23	2.384	461695	STOP	n/a	n/a	n/a	n/a	-999	3	[-999, -999, -999]	n/a	catFR1	3	R1389J
445.614	2.168	464082	REC_START	n/a	n/a	n/a	n/a	-999	3	[0, 0, 0]	n/a	catFR1	3	R1389J
447.782	5.697	466247	REC_WORD_VV	2.168	n/a	<>	n/a	-999	3	[0, 0, 0]	n/a	catFR1	3	R1389J
453.479	2.475	471944	REC_WORD	7.865	n/a	COMPUTER	Electronics	-999	3	[0, 0, 0]	n/a	catFR1	3	R1389J
455.954	1.959	474419	REC_WORD	10.34	n/a	TABLET	Electronics	1	3	[0, 0, 0]	n/a	catFR1	3	R1389J
457.913	2.265	476378	REC_WORD	12.299	n/a	HEADPHONES	Electronics	10	3	[0, 0, 0]	n/a	catFR1	3	R1389J
460.178	3.345	478643	REC_WORD	14.564	n/a	PHONE	Electronics	-999	3	[0, 0, 0]	n/a	catFR1	3	R1389J
463.523	12.314	481988	REC_WORD	17.909	n/a	SPEAKER	Electronics	2	3	[0, 0, 0]	n/a	catFR1	3	R1389J
475.837	6.127	494305	REC_END	n/a	n/a	n/a	n/a	-999	3	[0, 0, 0]	n/a	catFR1	3	R1389J
481.964	10.361	500427	COUNTDOWN_START	n/a	n/a	n/a	n/a	-999	4	[0, 0, 0]	n/a	catFR1	3	R1389J
492.325	0.0	510794	COUNTDOWN_END	n/a	n/a	n/a	n/a	-999	4	[0, 0, 0]	n/a	catFR1	3	R1389J
492.325	2.156	510794	ENCODING_START	n/a	n/a	n/a	n/a	-999	4	[0, 0, 0]	n/a	catFR1	3	R1389J
494.481	1.617	512948	WORD	n/a	wordpools/wordpool_categorized_EN.txt	ANT	Insects	1	4	[0, 0, 0]	n/a	catFR1	3	R1389J
496.098	0.983	514557	WORD_OFF	n/a	n/a	ANT	Insects	1	4	[0, 0, 0]	n/a	catFR1	3	R1389J
497.081	1.6	515549	WORD	n/a	wordpools/wordpool_categorized_EN.txt	MOSQUITO	Insects	2	4	[0, 0, 0]	n/a	catFR1	3	R1389J
498.681	0.817	517146	WORD_OFF	n/a	n/a	MOSQUITO	Insects	2	4	[0, 0, 0]	n/a	catFR1	3	R1389J
499.498	1.616	517956	WORD	n/a	wordpools/wordpool_categorized_EN.txt	OCEAN	Landscapes	3	4	[0, 0, 0]	n/a	catFR1	3	R1389J
501.114	0.784	519577	WORD_OFF	n/a	n/a	OCEAN	Landscapes	3	4	[0, 0, 0]	n/a	catFR1	3	R1389J
501.898	1.6	520364	WORD	n/a	wordpools/wordpool_categorized_EN.txt	HILLS	Landscapes	4	4	[0, 0, 0]	n/a	catFR1	3	R1389J
503.498	0.95	521960	WORD_OFF	n/a	n/a	HILLS	Landscapes	4	4	[0, 0, 0]	n/a	catFR1	3	R1389J
504.448	1.616	522916	WORD	n/a	wordpools/wordpool_categorized_EN.txt	STAIRS	Building	5	4	[0, 0, 0]	n/a	catFR1	3	R1389J
506.064	0.9	524525	WORD_OFF	n/a	n/a	STAIRS	Building	5	4	[0, 0, 0]	n/a	catFR1	3	R1389J
506.964	1.617	525432	WORD	n/a	wordpools/wordpool_categorized_EN.txt	ROOF	Building	6	4	[0, 0, 0]	n/a	catFR1	3	R1389J
508.581	0.783	527041	WORD_OFF	n/a	n/a	ROOF	Building	6	4	[0, 0, 0]	n/a	catFR1	3	R1389J
509.364	1.617	527828	WORD	n/a	wordpools/wordpool_categorized_EN.txt	FLY	Insects	7	4	[0, 0, 0]	n/a	catFR1	3	R1389J
510.981	0.933	529449	WORD_OFF	n/a	n/a	FLY	Insects	7	4	[0, 0, 0]	n/a	catFR1	3	R1389J
511.914	1.616	530380	WORD	n/a	wordpools/wordpool_categorized_EN.txt	LADYBUG	Insects	8	4	[0, 0, 0]	n/a	catFR1	3	R1389J
513.53	0.968	531989	WORD_OFF	n/a	n/a	LADYBUG	Insects	8	4	[0, 0, 0]	n/a	catFR1	3	R1389J
514.498	1.6	532957	WORD	n/a	wordpools/wordpool_categorized_EN.txt	FOREST	Landscapes	9	4	[0, 0, 0]	n/a	catFR1	3	R1389J
516.098	0.8	534566	WORD_OFF	n/a	n/a	FOREST	Landscapes	9	4	[0, 0, 0]	n/a	catFR1	3	R1389J
516.898	1.616	535365	WORD	n/a	wordpools/wordpool_categorized_EN.txt	LAKE	Landscapes	10	4	[0, 0, 0]	n/a	catFR1	3	R1389J
518.514	0.95	536974	WORD_OFF	n/a	n/a	LAKE	Landscapes	10	4	[0, 0, 0]	n/a	catFR1	3	R1389J
519.464	1.616	537929	WORD	n/a	wordpools/wordpool_categorized_EN.txt	ROOM	Building	11	4	[0, 0, 0]	n/a	catFR1	3	R1389J
521.08	0.95	539538	WORD_OFF	n/a	n/a	ROOM	Building	11	4	[0, 0, 0]	n/a	catFR1	3	R1389J
522.03	1.601	540494	WORD	n/a	wordpools/wordpool_categorized_EN.txt	WINDOW	Building	12	4	[0, 0, 0]	n/a	catFR1	3	R1389J
523.631	0.001	542091	WORD_OFF	n/a	n/a	WINDOW	Building	12	4	[0, 0, 0]	n/a	catFR1	3	R1389J
523.632	0.0	542091	ENCODING_END	n/a	n/a	n/a	n/a	-999	4	[0, 0, 0]	n/a	catFR1	3	R1389J
523.631	0.001	542093	PROB	10.232	n/a	n/a	n/a	-999	4	[7, 8, 2]	18.0	catFR1	3	R1389J
523.632	0.0	542094	START	n/a	n/a	n/a	n/a	-999	4	[-999, -999, -999]	n/a	catFR1	3	R1389J
523.632	10.249	542103	DISTRACT_START	n/a	n/a	n/a	n/a	-999	4	[0, 0, 0]	n/a	catFR1	3	R1389J
533.881	3.716	552343	PROB	3.699	n/a	n/a	n/a	-999	4	[4, 2, 2]	8.0	catFR1	3	R1389J
537.597	12.034	556059	PROB	12.017	n/a	n/a	n/a	-999	4	[7, 8, 6]	20.0	catFR1	3	R1389J
549.631	0.0	568088	DISTRACT_END	n/a	n/a	n/a	n/a	-999	4	[0, 0, 0]	n/a	catFR1	3	R1389J
549.631	2.133	568092	STOP	n/a	n/a	n/a	n/a	-999	4	[-999, -999, -999]	n/a	catFR1	3	R1389J
551.764	1.882	570226	REC_START	n/a	n/a	n/a	n/a	-999	4	[0, 0, 0]	n/a	catFR1	3	R1389J
553.646	0.453	572107	REC_WORD_VV	1.882	n/a	<>	n/a	-999	4	[0, 0, 0]	n/a	catFR1	3	R1389J
554.099	1.716	572560	REC_WORD	2.335	n/a	ANT	Insects	1	4	[0, 0, 0]	n/a	catFR1	3	R1389J
555.815	6.26	574276	REC_WORD	4.051	n/a	MOSQUITO	Insects	2	4	[0, 0, 0]	n/a	catFR1	3	R1389J
562.075	2.511	580536	REC_WORD	10.311	n/a	LADYBUG	Insects	8	4	[0, 0, 0]	n/a	catFR1	3	R1389J
564.586	4.552	583047	REC_WORD	12.822	n/a	OCEAN	Landscapes	3	4	[0, 0, 0]	n/a	catFR1	3	R1389J
569.138	4.095	587598	REC_WORD_VV	17.374	n/a	<>	n/a	-999	4	[0, 0, 0]	n/a	catFR1	3	R1389J
573.233	6.398	591693	REC_WORD	21.469	n/a	HILLS	Landscapes	4	4	[0, 0, 0]	n/a	catFR1	3	R1389J
579.631	2.376	598091	REC_WORD_VV	27.867	n/a	<>	n/a	-999	4	[0, 0, 0]	n/a	catFR1	3	R1389J
582.007	3.708	600462	REC_END	n/a	n/a	n/a	n/a	-999	4	[0, 0, 0]	n/a	catFR1	3	R1389J
585.715	10.36	604175	COUNTDOWN_START	n/a	n/a	n/a	n/a	-999	5	[0, 0, 0]	n/a	catFR1	3	R1389J
596.075	0.0	614531	COUNTDOWN_END	n/a	n/a	n/a	n/a	-999	5	[0, 0, 0]	n/a	catFR1	3	R1389J
596.075	2.055	614531	ENCODING_START	n/a	n/a	n/a	n/a	-999	5	[0, 0, 0]	n/a	catFR1	3	R1389J
598.13	1.601	616588	WORD	n/a	wordpools/wordpool_categorized_EN.txt	HUMIDITY	Weather	1	5	[0, 0, 0]	n/a	catFR1	3	R1389J
599.731	0.9	618196	WORD_OFF	n/a	n/a	HUMIDITY	Weather	1	5	[0, 0, 0]	n/a	catFR1	3	R1389J
600.631	1.617	619092	WORD	n/a	wordpools/wordpool_categorized_EN.txt	WIND	Weather	2	5	[0, 0, 0]	n/a	catFR1	3	R1389J
602.248	0.866	620713	WORD_OFF	n/a	n/a	WIND	Weather	2	5	[0, 0, 0]	n/a	catFR1	3	R1389J
603.114	1.6	621572	WORD	n/a	wordpools/wordpool_categorized_EN.txt	CARDINAL	Birds	3	5	[0, 0, 0]	n/a	catFR1	3	R1389J
604.714	0.884	623169	WORD_OFF	n/a	n/a	CARDINAL	Birds	3	5	[0, 0, 0]	n/a	catFR1	3	R1389J
605.598	1.616	624052	WORD	n/a	wordpools/wordpool_categorized_EN.txt	SPARROW	Birds	4	5	[0, 0, 0]	n/a	catFR1	3	R1389J
607.214	0.967	625673	WORD_OFF	n/a	n/a	SPARROW	Birds	4	5	[0, 0, 0]	n/a	catFR1	3	R1389J
608.181	1.6	626641	WORD	n/a	wordpools/wordpool_categorized_EN.txt	ISLAND	Landscapes	5	5	[0, 0, 0]	n/a	catFR1	3	R1389J
609.781	1.0	628237	WORD_OFF	n/a	n/a	ISLAND	Landscapes	5	5	[0, 0, 0]	n/a	catFR1	3	R1389J
610.781	1.616	629242	WORD	n/a	wordpools/wordpool_categorized_EN.txt	MOUNTAIN	Landscapes	6	5	[0, 0, 0]	n/a	catFR1	3	R1389J
612.397	0.917	630863	WORD_OFF	n/a	n/a	MOUNTAIN	Landscapes	6	5	[0, 0, 0]	n/a	catFR1	3	R1389J
613.314	1.6	631770	WORD	n/a	wordpools/wordpool_categorized_EN.txt	LIGHTNING	Weather	7	5	[0, 0, 0]	n/a	catFR1	3	R1389J
614.914	0.9	633367	WORD_OFF	n/a	n/a	LIGHTNING	Weather	7	5	[0, 0, 0]	n/a	catFR1	3	R1389J
615.814	1.616	634274	WORD	n/a	wordpools/wordpool_categorized_EN.txt	TORNADO	Weather	8	5	[0, 0, 0]	n/a	catFR1	3	R1389J
617.43	0.767	635895	WORD_OFF	n/a	n/a	TORNADO	Weather	8	5	[0, 0, 0]	n/a	catFR1	3	R1389J
618.197	1.617	636657	WORD	n/a	wordpools/wordpool_categorized_EN.txt	GOOSE	Birds	9	5	[0, 0, 0]	n/a	catFR1	3	R1389J
619.814	0.9	638278	WORD_OFF	n/a	n/a	GOOSE	Birds	9	5	[0, 0, 0]	n/a	catFR1	3	R1389J
620.714	1.616	639174	WORD	n/a	wordpools/wordpool_categorized_EN.txt	HAWK	Birds	10	5	[0, 0, 0]	n/a	catFR1	3	R1389J
622.33	0.834	640795	WORD_OFF	n/a	n/a	HAWK	Birds	10	5	[0, 0, 0]	n/a	catFR1	3	R1389J
623.164	1.6	641617	WORD	n/a	wordpools/wordpool_categorized_EN.txt	VALLEY	Landscapes	11	5	[0, 0, 0]	n/a	catFR1	3	R1389J
624.764	0.816	643226	WORD_OFF	n/a	n/a	VALLEY	Landscapes	11	5	[0, 0, 0]	n/a	catFR1	3	R1389J
625.58	1.618	644037	WORD	n/a	wordpools/wordpool_categorized_EN.txt	RIVER	Landscapes	12	5	[0, 0, 0]	n/a	catFR1	3	R1389J
627.198	0.0	645656	START	n/a	n/a	n/a	n/a	-999	5	[-999, -999, -999]	n/a	catFR1	3	R1389J
627.198	0.0	645656	PROB	6.766	n/a	n/a	n/a	-999	5	[3, 4, 5]	12.0	catFR1	3	R1389J
627.197	0.001	645658	WORD_OFF	n/a	n/a	RIVER	Landscapes	12	5	[0, 0, 0]	n/a	catFR1	3	R1389J
627.198	0.0	645658	ENCODING_END	n/a	n/a	n/a	n/a	-999	5	[0, 0, 0]	n/a	catFR1	3	R1389J
627.198	6.783	645658	DISTRACT_START	n/a	n/a	n/a	n/a	-999	5	[0, 0, 0]	n/a	catFR1	3	R1389J
633.981	4.467	652439	PROB	4.449	n/a	n/a	n/a	-999	5	[2, 5, 2]	9.0	catFR1	3	R1389J
638.448	7.733	656906	PROB	7.716	n/a	n/a	n/a	-999	5	[1, 5, 8]	14.0	catFR1	3	R1389J
646.181	5.733	664638	PROB	5.717	n/a	n/a	n/a	-999	5	[7, 3, 3]	15.0	catFR1	3	R1389J
651.914	0.0	670371	STOP	n/a	n/a	n/a	n/a	-999	5	[-999, -999, -999]	n/a	catFR1	3	R1389J
651.914	2.083	670373	DISTRACT_END	n/a	n/a	n/a	n/a	-999	5	[0, 0, 0]	n/a	catFR1	3	R1389J
653.997	6.673	672450	REC_START	n/a	n/a	n/a	n/a	-999	5	[0, 0, 0]	n/a	catFR1	3	R1389J
660.67	2.306	679127	REC_WORD	6.673	n/a	WIND	Weather	2	5	[0, 0, 0]	n/a	catFR1	3	R1389J
662.976	6.569	681433	REC_WORD	8.979	n/a	LIGHTNING	Weather	7	5	[0, 0, 0]	n/a	catFR1	3	R1389J
669.545	4.899	688001	REC_WORD	15.548	n/a	OCEAN	Landscapes	-999	5	[0, 0, 0]	n/a	catFR1	3	R1389J
674.444	2.054	692900	REC_WORD	20.447	n/a	STORM	n/a	-999	5	[0, 0, 0]	n/a	catFR1	3	R1389J
676.498	5.185	694954	REC_WORD	22.501	n/a	TORNADO	Weather	8	5	[0, 0, 0]	n/a	catFR1	3	R1389J
681.683	2.52	700139	REC_WORD_VV	27.686	n/a	<>	n/a	-999	5	[0, 0, 0]	n/a	catFR1	3	R1389J
684.203	26.062	702662	REC_END	n/a	n/a	n/a	n/a	-999	5	[0, 0, 0]	n/a	catFR1	3	R1389J
710.265	10.363	728720	COUNTDOWN_START	n/a	n/a	n/a	n/a	-999	6	[0, 0, 0]	n/a	catFR1	3	R1389J
720.628	0.0	739087	COUNTDOWN_END	n/a	n/a	n/a	n/a	-999	6	[0, 0, 0]	n/a	catFR1	3	R1389J
720.628	1.919	739087	ENCODING_START	n/a	n/a	n/a	n/a	-999	6	[0, 0, 0]	n/a	catFR1	3	R1389J
722.547	1.6	740999	WORD	n/a	wordpools/wordpool_categorized_EN.txt	HAND	BodyParts	1	6	[0, 0, 0]	n/a	catFR1	3	R1389J
724.147	0.767	742596	WORD_OFF	n/a	n/a	HAND	BodyParts	1	6	[0, 0, 0]	n/a	catFR1	3	R1389J
724.914	1.616	743370	WORD	n/a	wordpools/wordpool_categorized_EN.txt	EAR	BodyParts	2	6	[0, 0, 0]	n/a	catFR1	3	R1389J
726.53	0.8	744991	WORD_OFF	n/a	n/a	EAR	BodyParts	2	6	[0, 0, 0]	n/a	catFR1	3	R1389J
727.33	1.617	745789	WORD	n/a	wordpools/wordpool_categorized_EN.txt	FLOOR	Building	3	6	[0, 0, 0]	n/a	catFR1	3	R1389J
728.947	0.85	747398	WORD_OFF	n/a	n/a	FLOOR	Building	3	6	[0, 0, 0]	n/a	catFR1	3	R1389J
729.797	1.6	748257	WORD	n/a	wordpools/wordpool_categorized_EN.txt	CEILING	Building	4	6	[0, 0, 0]	n/a	catFR1	3	R1389J
731.397	0.95	749854	WORD_OFF	n/a	n/a	CEILING	Building	4	6	[0, 0, 0]	n/a	catFR1	3	R1389J
732.347	1.617	750798	WORD	n/a	wordpools/wordpool_categorized_EN.txt	BASKETBALL	Toys	5	6	[0, 0, 0]	n/a	catFR1	3	R1389J
733.964	0.933	752419	WORD_OFF	n/a	n/a	BASKETBALL	Toys	5	6	[0, 0, 0]	n/a	catFR1	3	R1389J
734.897	1.601	753350	WORD	n/a	wordpools/wordpool_categorized_EN.txt	BASEBALL	Toys	6	6	[0, 0, 0]	n/a	catFR1	3	R1389J
736.498	0.817	754947	WORD_OFF	n/a	n/a	BASEBALL	Toys	6	6	[0, 0, 0]	n/a	catFR1	3	R1389J
737.315	1.616	755770	WORD	n/a	wordpools/wordpool_categorized_EN.txt	FOUNDATION	Building	7	6	[0, 0, 0]	n/a	catFR1	3	R1389J
738.931	0.867	757391	WORD_OFF	n/a	n/a	FOUNDATION	Building	7	6	[0, 0, 0]	n/a	catFR1	3	R1389J
739.798	1.616	758250	WORD	n/a	wordpools/wordpool_categorized_EN.txt	BATHROOM	Building	8	6	[0, 0, 0]	n/a	catFR1	3	R1389J
741.414	0.933	759871	WORD_OFF	n/a	n/a	BATHROOM	Building	8	6	[0, 0, 0]	n/a	catFR1	3	R1389J
742.347	1.617	760802	WORD	n/a	wordpools/wordpool_categorized_EN.txt	BARBIE	Toys	9	6	[0, 0, 0]	n/a	catFR1	3	R1389J
743.964	0.9	762424	WORD_OFF	n/a	n/a	BARBIE	Toys	9	6	[0, 0, 0]	n/a	catFR1	3	R1389J
744.864	1.617	763319	WORD	n/a	wordpools/wordpool_categorized_EN.txt	DOLLHOUSE	Toys	10	6	[0, 0, 0]	n/a	catFR1	3	R1389J
746.481	0.883	764940	WORD_OFF	n/a	n/a	DOLLHOUSE	Toys	10	6	[0, 0, 0]	n/a	catFR1	3	R1389J
747.364	1.6	765823	WORD	n/a	wordpools/wordpool_categorized_EN.txt	ARM	BodyParts	11	6	[0, 0, 0]	n/a	catFR1	3	R1389J
748.964	0.834	767420	WORD_OFF	n/a	n/a	ARM	BodyParts	11	6	[0, 0, 0]	n/a	catFR1	3	R1389J
749.798	1.616	768255	WORD	n/a	wordpools/wordpool_categorized_EN.txt	FOOT	BodyParts	12	6	[0, 0, 0]	n/a	catFR1	3	R1389J
751.414	0.001	769864	WORD_OFF	n/a	n/a	FOOT	BodyParts	12	6	[0, 0, 0]	n/a	catFR1	3	R1389J
751.415	0.001	769868	PROB	11.233	n/a	n/a	n/a	-999	6	[7, 8, 5]	20.0	catFR1	3	R1389J
751.416	0.0	769869	START	n/a	n/a	n/a	n/a	-999	6	[-999, -999, -999]	n/a	catFR1	3	R1389J
751.416	0.0	769876	ENCODING_END	n/a	n/a	n/a	n/a	-999	6	[0, 0, 0]	n/a	catFR1	3	R1389J
751.416	11.248	769876	DISTRACT_START	n/a	n/a	n/a	n/a	-999	6	[0, 0, 0]	n/a	catFR1	3	R1389J
762.664	10.016	781117	PROB	9.999	n/a	n/a	n/a	-999	6	[4, 5, 4]	13.0	catFR1	3	R1389J
772.68	0.0	791131	DISTRACT_END	n/a	n/a	n/a	n/a	-999	6	[0, 0, 0]	n/a	catFR1	3	R1389J
772.68	2.018	791132	STOP	n/a	n/a	n/a	n/a	-999	6	[-999, -999, -999]	n/a	catFR1	3	R1389J
774.698	4.962	793147	REC_START	n/a	n/a	n/a	n/a	-999	6	[0, 0, 0]	n/a	catFR1	3	R1389J
779.66	1.851	798112	REC_WORD	4.962	n/a	ARM	BodyParts	11	6	[0, 0, 0]	n/a	catFR1	3	R1389J
781.511	2.862	799963	REC_WORD	6.813	n/a	HAND	BodyParts	1	6	[0, 0, 0]	n/a	catFR1	3	R1389J
784.373	2.281	802825	REC_WORD	9.675	n/a	EAR	BodyParts	2	6	[0, 0, 0]	n/a	catFR1	3	R1389J
786.654	2.833	805106	REC_WORD	11.956	n/a	FOOT	BodyParts	12	6	[0, 0, 0]	n/a	catFR1	3	R1389J
789.487	2.632	807939	REC_WORD	14.789	n/a	BARBIE	Toys	9	6	[0, 0, 0]	n/a	catFR1	3	R1389J
792.119	12.78	810570	REC_WORD	17.421	n/a	DOLLHOUSE	Toys	10	6	[0, 0, 0]	n/a	catFR1	3	R1389J
804.899	4.299	823347	REC_END	n/a	n/a	n/a	n/a	-999	6	[0, 0, 0]	n/a	catFR1	3	R1389J
809.198	10.361	827654	COUNTDOWN_START	n/a	n/a	n/a	n/a	-999	7	[0, 0, 0]	n/a	catFR1	3	R1389J
819.559	0.0	838009	COUNTDOWN_END	n/a	n/a	n/a	n/a	-999	7	[0, 0, 0]	n/a	catFR1	3	R1389J
819.559	1.906	838009	ENCODING_START	n/a	n/a	n/a	n/a	-999	7	[0, 0, 0]	n/a	catFR1	3	R1389J
821.465	1.616	839920	WORD	n/a	wordpools/wordpool_categorized_EN.txt	NOTEBOOK	OfficeSupplies	1	7	[0, 0, 0]	n/a	catFR1	3	R1389J
823.081	0.9	841529	WORD_OFF	n/a	n/a	NOTEBOOK	OfficeSupplies	1	7	[0, 0, 0]	n/a	catFR1	3	R1389J
823.981	1.617	842437	WORD	n/a	wordpools/wordpool_categorized_EN.txt	TAPE	OfficeSupplies	2	7	[0, 0, 0]	n/a	catFR1	3	R1389J
825.598	0.883	844046	WORD_OFF	n/a	n/a	TAPE	OfficeSupplies	2	7	[0, 0, 0]	n/a	catFR1	3	R1389J
826.481	1.6	844929	WORD	n/a	wordpools/wordpool_categorized_EN.txt	WASHER	Appliances	3	7	[0, 0, 0]	n/a	catFR1	3	R1389J
828.081	0.917	846526	WORD_OFF	n/a	n/a	WASHER	Appliances	3	7	[0, 0, 0]	n/a	catFR1	3	R1389J
828.998	1.616	847445	WORD	n/a	wordpools/wordpool_categorized_EN.txt	BLENDER	Appliances	4	7	[0, 0, 0]	n/a	catFR1	3	R1389J
830.614	0.917	849066	WORD_OFF	n/a	n/a	BLENDER	Appliances	4	7	[0, 0, 0]	n/a	catFR1	3	R1389J
831.531	1.6	849986	WORD	n/a	wordpools/wordpool_categorized_EN.txt	BOOKCASE	Furniture	5	7	[0, 0, 0]	n/a	catFR1	3	R1389J
833.131	0.917	851582	WORD_OFF	n/a	n/a	BOOKCASE	Furniture	5	7	[0, 0, 0]	n/a	catFR1	3	R1389J
834.048	1.616	852502	WORD	n/a	wordpools/wordpool_categorized_EN.txt	BED	Furniture	6	7	[0, 0, 0]	n/a	catFR1	3	R1389J
835.664	0.983	854111	WORD_OFF	n/a	n/a	BED	Furniture	6	7	[0, 0, 0]	n/a	catFR1	3	R1389J
836.647	1.601	855103	WORD	n/a	wordpools/wordpool_categorized_EN.txt	STAPLER	OfficeSupplies	7	7	[0, 0, 0]	n/a	catFR1	3	R1389J
838.248	0.966	856700	WORD_OFF	n/a	n/a	STAPLER	OfficeSupplies	7	7	[0, 0, 0]	n/a	catFR1	3	R1389J
839.214	1.617	857668	WORD	n/a	wordpools/wordpool_categorized_EN.txt	PAPER	OfficeSupplies	8	7	[0, 0, 0]	n/a	catFR1	3	R1389J
840.831	0.783	859276	WORD_OFF	n/a	n/a	PAPER	OfficeSupplies	8	7	[0, 0, 0]	n/a	catFR1	3	R1389J
841.614	1.617	860063	WORD	n/a	wordpools/wordpool_categorized_EN.txt	IRON	Appliances	9	7	[0, 0, 0]	n/a	catFR1	3	R1389J
843.231	0.767	861684	WORD_OFF	n/a	n/a	IRON	Appliances	9	7	[0, 0, 0]	n/a	catFR1	3	R1389J
843.998	1.616	862446	WORD	n/a	wordpools/wordpool_categorized_EN.txt	VACUUM	Appliances	10	7	[0, 0, 0]	n/a	catFR1	3	R1389J
845.614	0.95	864067	WORD_OFF	n/a	n/a	VACUUM	Appliances	10	7	[0, 0, 0]	n/a	catFR1	3	R1389J
846.564	1.6	865011	WORD	n/a	wordpools/wordpool_categorized_EN.txt	NIGHTSTAND	Furniture	11	7	[0, 0, 0]	n/a	catFR1	3	R1389J
848.164	0.783	866620	WORD_OFF	n/a	n/a	NIGHTSTAND	Furniture	11	7	[0, 0, 0]	n/a	catFR1	3	R1389J
848.947	1.618	867394	WORD	n/a	wordpools/wordpool_categorized_EN.txt	CABINET	Furniture	12	7	[0, 0, 0]	n/a	catFR1	3	R1389J
850.565	0.0	869014	PROB	8.816	n/a	n/a	n/a	-999	7	[6, 5, 4]	16.0	catFR1	3	R1389J
850.564	0.002	869015	WORD_OFF	n/a	n/a	CABINET	Furniture	12	7	[0, 0, 0]	n/a	catFR1	3	R1389J
850.566	0.0	869015	ENCODING_END	n/a	n/a	n/a	n/a	-999	7	[0, 0, 0]	n/a	catFR1	3	R1389J
850.566	0.0	869015	DISTRACT_START	n/a	n/a	n/a	n/a	-999	7	[0, 0, 0]	n/a	catFR1	3	R1389J
850.566	8.831	869015	START	n/a	n/a	n/a	n/a	-999	7	[-999, -999, -999]	n/a	catFR1	3	R1389J
859.397	6.717	877846	PROB	6.7	n/a	n/a	n/a	-999	7	[5, 2, 8]	15.0	catFR1	3	R1389J
866.114	14.667	884562	PROB	14.649	n/a	n/a	n/a	-999	7	[4, 7, 6]	20.0	catFR1	3	R1389J
880.781	0.0	899223	DISTRACT_END	n/a	n/a	n/a	n/a	-999	7	[0, 0, 0]	n/a	catFR1	3	R1389J
880.781	2.266	899229	STOP	n/a	n/a	n/a	n/a	-999	7	[-999, -999, -999]	n/a	catFR1	3	R1389J
883.047	1.949	901493	REC_START	n/a	n/a	n/a	n/a	-999	7	[0, 0, 0]	n/a	catFR1	3	R1389J
884.996	0.796	903444	REC_WORD_VV	1.949	n/a	<>	n/a	-999	7	[0, 0, 0]	n/a	catFR1	3	R1389J
885.792	4.773	904240	REC_WORD	2.745	n/a	NOTEBOOK	OfficeSupplies	1	7	[0, 0, 0]	n/a	catFR1	3	R1389J
890.565	2.836	909013	REC_WORD	7.518	n/a	BOOKCASE	Furniture	5	7	[0, 0, 0]	n/a	catFR1	3	R1389J
893.401	4.414	911848	REC_WORD	10.354	n/a	STAPLER	OfficeSupplies	7	7	[0, 0, 0]	n/a	catFR1	3	R1389J
897.815	3.508	916262	REC_WORD_VV	14.768	n/a	<>	n/a	-999	7	[0, 0, 0]	n/a	catFR1	3	R1389J
901.323	11.944	919770	REC_WORD	18.276	n/a	CALCULATOR	Electronics	-999	7	[0, 0, 0]	n/a	catFR1	3	R1389J
913.267	3.147	931717	REC_END	n/a	n/a	n/a	n/a	-999	7	[0, 0, 0]	n/a	catFR1	3	R1389J
916.414	10.363	934862	COUNTDOWN_START	n/a	n/a	n/a	n/a	-999	8	[0, 0, 0]	n/a	catFR1	3	R1389J
926.777	0.001	945230	COUNTDOWN_END	n/a	n/a	n/a	n/a	-999	8	[0, 0, 0]	n/a	catFR1	3	R1389J
926.778	2.303	945230	ENCODING_START	n/a	n/a	n/a	n/a	-999	8	[0, 0, 0]	n/a	catFR1	3	R1389J
929.081	1.6	947528	WORD	n/a	wordpools/wordpool_categorized_EN.txt	LILY	Flowers	1	8	[0, 0, 0]	n/a	catFR1	3	R1389J
930.681	0.767	949125	WORD_OFF	n/a	n/a	LILY	Flowers	1	8	[0, 0, 0]	n/a	catFR1	3	R1389J
931.448	1.6	949899	WORD	n/a	wordpools/wordpool_categorized_EN.txt	DAISY	Flowers	2	8	[0, 0, 0]	n/a	catFR1	3	R1389J
933.048	0.833	951496	WORD_OFF	n/a	n/a	DAISY	Flowers	2	8	[0, 0, 0]	n/a	catFR1	3	R1389J
933.881	1.617	952331	WORD	n/a	wordpools/wordpool_categorized_EN.txt	KNIFE	KitchenTools	3	8	[0, 0, 0]	n/a	catFR1	3	R1389J
935.498	0.95	953940	WORD_OFF	n/a	n/a	KNIFE	KitchenTools	3	8	[0, 0, 0]	n/a	catFR1	3	R1389J
936.448	1.616	954896	WORD	n/a	wordpools/wordpool_categorized_EN.txt	PEELER	KitchenTools	4	8	[0, 0, 0]	n/a	catFR1	3	R1389J
938.064	0.849	956505	WORD_OFF	n/a	n/a	PEELER	KitchenTools	4	8	[0, 0, 0]	n/a	catFR1	3	R1389J
938.913	1.618	957363	WORD	n/a	wordpools/wordpool_categorized_EN.txt	VIOLIN	Instruments	5	8	[0, 0, 0]	n/a	catFR1	3	R1389J
940.531	0.766	958972	WORD_OFF	n/a	n/a	VIOLIN	Instruments	5	8	[0, 0, 0]	n/a	catFR1	3	R1389J
941.297	1.601	959747	WORD	n/a	wordpools/wordpool_categorized_EN.txt	BANJO	Instruments	6	8	[0, 0, 0]	n/a	catFR1	3	R1389J
942.898	0.883	961344	WORD_OFF	n/a	n/a	BANJO	Instruments	6	8	[0, 0, 0]	n/a	catFR1	3	R1389J
943.781	1.616	962227	WORD	n/a	wordpools/wordpool_categorized_EN.txt	ORCHID	Flowers	7	8	[0, 0, 0]	n/a	catFR1	3	R1389J
945.397	0.901	963848	WORD_OFF	n/a	n/a	ORCHID	Flowers	7	8	[0, 0, 0]	n/a	catFR1	3	R1389J
946.298	1.616	964743	WORD	n/a	wordpools/wordpool_categorized_EN.txt	ROSE	Flowers	8	8	[0, 0, 0]	n/a	catFR1	3	R1389J
947.914	1.0	966364	WORD_OFF	n/a	n/a	ROSE	Flowers	8	8	[0, 0, 0]	n/a	catFR1	3	R1389J
948.914	1.617	967356	WORD	n/a	wordpools/wordpool_categorized_EN.txt	TRUMPET	Instruments	9	8	[0, 0, 0]	n/a	catFR1	3	R1389J
950.531	0.883	968977	WORD_OFF	n/a	n/a	TRUMPET	Instruments	9	8	[0, 0, 0]	n/a	catFR1	3	R1389J
951.414	1.6	969860	WORD	n/a	wordpools/wordpool_categorized_EN.txt	DRUM	Instruments	10	8	[0, 0, 0]	n/a	catFR1	3	R1389J
953.014	0.967	971457	WORD_OFF	n/a	n/a	DRUM	Instruments	10	8	[0, 0, 0]	n/a	catFR1	3	R1389J
953.981	1.601	972425	WORD	n/a	wordpools/wordpool_categorized_EN.txt	CORKSCREW	KitchenTools	11	8	[0, 0, 0]	n/a	catFR1	3	R1389J
955.582	0.816	974022	WORD_OFF	n/a	n/a	CORKSCREW	KitchenTools	11	8	[0, 0, 0]	n/a	catFR1	3	R1389J
956.398	1.6	974844	WORD	n/a	wordpools/wordpool_categorized_EN.txt	STRAINER	KitchenTools	12	8	[0, 0, 0]	n/a	catFR1	3	R1389J
957.998	0.001	976441	WORD_OFF	n/a	n/a	STRAINER	KitchenTools	12	8	[0, 0, 0]	n/a	catFR1	3	R1389J
957.999	0.0	976441	ENCODING_END	n/a	n/a	n/a	n/a	-999	8	[0, 0, 0]	n/a	catFR1	3	R1389J
957.999	0.0	976441	DISTRACT_START	n/a	n/a	n/a	n/a	-999	8	[0, 0, 0]	n/a	catFR1	3	R1389J
957.999	0.0	976444	START	n/a	n/a	n/a	n/a	-999	8	[-999, -999, -999]	n/a	catFR1	3	R1389J
957.999	5.517	976444	PROB	5.498	n/a	n/a	n/a	-999	8	[8, 2, 8]	18.0	catFR1	3	R1389J
963.516	4.581	981961	PROB	4.565	n/a	n/a	n/a	-999	8	[2, 7, 4]	13.0	catFR1	3	R1389J
968.097	6.634	986541	PROB	6.617	n/a	n/a	n/a	-999	8	[8, 5, 8]	21.0	catFR1	3	R1389J
974.731	8.351	993175	PROB	8.333	n/a	n/a	n/a	-999	8	[4, 5, 8]	17.0	catFR1	3	R1389J
983.082	0.0	1001526	STOP	n/a	n/a	n/a	n/a	-999	8	[-999, -999, -999]	n/a	catFR1	3	R1389J
983.082	2.282	1001532	DISTRACT_END	n/a	n/a	n/a	n/a	-999	8	[0, 0, 0]	n/a	catFR1	3	R1389J
985.364	3.062	1003814	REC_START	n/a	n/a	n/a	n/a	-999	8	[0, 0, 0]	n/a	catFR1	3	R1389J
988.426	3.77	1006870	REC_WORD_VV	3.062	n/a	<>	n/a	-999	8	[0, 0, 0]	n/a	catFR1	3	R1389J
992.196	3.043	1010639	REC_WORD	6.832	n/a	LILY	Flowers	1	8	[0, 0, 0]	n/a	catFR1	3	R1389J
995.239	2.557	1013682	REC_WORD	9.875	n/a	ORCHID	Flowers	7	8	[0, 0, 0]	n/a	catFR1	3	R1389J
997.796	5.452	1016239	REC_WORD	12.432	n/a	ROSE	Flowers	8	8	[0, 0, 0]	n/a	catFR1	3	R1389J
1003.248	1.111	1021691	REC_WORD_VV	17.884	n/a	<>	n/a	-999	8	[0, 0, 0]	n/a	catFR1	3	R1389J
1004.359	5.904	1022802	REC_WORD	18.995	n/a	FLOWER	n/a	-999	8	[0, 0, 0]	n/a	catFR1	3	R1389J
1010.263	5.303	1028706	REC_WORD_VV	24.899	n/a	<>	n/a	-999	8	[0, 0, 0]	n/a	catFR1	3	R1389J
1015.566	5.399	1034014	REC_END	n/a	n/a	n/a	n/a	-999	8	[0, 0, 0]	n/a	catFR1	3	R1389J
1020.965	10.36	1039409	COUNTDOWN_START	n/a	n/a	n/a	n/a	-999	9	[0, 0, 0]	n/a	catFR1	3	R1389J
1031.325	0.0	1049765	COUNTDOWN_END	n/a	n/a	n/a	n/a	-999	9	[0, 0, 0]	n/a	catFR1	3	R1389J
1031.325	1.939	1049765	ENCODING_START	n/a	n/a	n/a	n/a	-999	9	[0, 0, 0]	n/a	catFR1	3	R1389J
1033.264	1.6	1051712	WORD	n/a	wordpools/wordpool_categorized_EN.txt	GUITAR	Instruments	1	9	[0, 0, 0]	n/a	catFR1	3	R1389J
1034.864	0.816	1053309	WORD_OFF	n/a	n/a	GUITAR	Instruments	1	9	[0, 0, 0]	n/a	catFR1	3	R1389J
1035.68	1.601	1054120	WORD	n/a	wordpools/wordpool_categorized_EN.txt	PIANO	Instruments	2	9	[0, 0, 0]	n/a	catFR1	3	R1389J
1037.281	0.917	1055717	WORD_OFF	n/a	n/a	PIANO	Instruments	2	9	[0, 0, 0]	n/a	catFR1	3	R1389J
1038.198	1.616	1056636	WORD	n/a	wordpools/wordpool_categorized_EN.txt	JEANS	Clothing	3	9	[0, 0, 0]	n/a	catFR1	3	R1389J
1039.814	0.984	1058257	WORD_OFF	n/a	n/a	JEANS	Clothing	3	9	[0, 0, 0]	n/a	catFR1	3	R1389J
1040.798	1.616	1059237	WORD	n/a	wordpools/wordpool_categorized_EN.txt	UNDERWEAR	Clothing	4	9	[0, 0, 0]	n/a	catFR1	3	R1389J
1042.414	1.0	1060858	WORD_OFF	n/a	n/a	UNDERWEAR	Clothing	4	9	[0, 0, 0]	n/a	catFR1	3	R1389J
1043.414	1.6	1061862	WORD	n/a	wordpools/wordpool_categorized_EN.txt	COLANDER	KitchenTools	5	9	[0, 0, 0]	n/a	catFR1	3	R1389J
1045.014	0.784	1063459	WORD_OFF	n/a	n/a	COLANDER	KitchenTools	5	9	[0, 0, 0]	n/a	catFR1	3	R1389J
1045.798	1.6	1064245	WORD	n/a	wordpools/wordpool_categorized_EN.txt	SPOON	KitchenTools	6	9	[0, 0, 0]	n/a	catFR1	3	R1389J
1047.398	0.883	1065842	WORD_OFF	n/a	n/a	SPOON	KitchenTools	6	9	[0, 0, 0]	n/a	catFR1	3	R1389J
1048.281	1.6	1066725	WORD	n/a	wordpools/wordpool_categorized_EN.txt	JACKET	Clothing	7	9	[0, 0, 0]	n/a	catFR1	3	R1389J
1049.881	0.817	1068322	WORD_OFF	n/a	n/a	JACKET	Clothing	7	9	[0, 0, 0]	n/a	catFR1	3	R1389J
1050.698	1.616	1069145	WORD	n/a	wordpools/wordpool_categorized_EN.txt	SHOES	Clothing	8	9	[0, 0, 0]	n/a	catFR1	3	R1389J
1052.314	1.0	1070754	WORD_OFF	n/a	n/a	SHOES	Clothing	8	9	[0, 0, 0]	n/a	catFR1	3	R1389J
1053.314	1.6	1071758	WORD	n/a	wordpools/wordpool_categorized_EN.txt	GRATER	KitchenTools	9	9	[0, 0, 0]	n/a	catFR1	3	R1389J
1054.914	0.916	1073355	WORD_OFF	n/a	n/a	GRATER	KitchenTools	9	9	[0, 0, 0]	n/a	catFR1	3	R1389J
1055.83	1.601	1074274	WORD	n/a	wordpools/wordpool_categorized_EN.txt	SPATULA	KitchenTools	10	9	[0, 0, 0]	n/a	catFR1	3	R1389J
1057.431	0.899	1075871	WORD_OFF	n/a	n/a	SPATULA	KitchenTools	10	9	[0, 0, 0]	n/a	catFR1	3	R1389J
1058.33	1.601	1076766	WORD	n/a	wordpools/wordpool_categorized_EN.txt	ORGAN	Instruments	11	9	[0, 0, 0]	n/a	catFR1	3	R1389J
1059.931	0.9	1078375	WORD_OFF	n/a	n/a	ORGAN	Instruments	11	9	[0, 0, 0]	n/a	catFR1	3	R1389J
1060.831	1.616	1079270	WORD	n/a	wordpools/wordpool_categorized_EN.txt	TROMBONE	Instruments	12	9	[0, 0, 0]	n/a	catFR1	3	R1389J
1062.447	0.001	1080888	PROB	10.167	n/a	n/a	n/a	-999	9	[8, 5, 4]	17.0	catFR1	3	R1389J
1062.448	0.0	1080889	START	n/a	n/a	n/a	n/a	-999	9	[-999, -999, -999]	n/a	catFR1	3	R1389J
1062.447	0.001	1080892	WORD_OFF	n/a	n/a	TROMBONE	Instruments	12	9	[0, 0, 0]	n/a	catFR1	3	R1389J
1062.448	0.0	1080892	ENCODING_END	n/a	n/a	n/a	n/a	-999	9	[0, 0, 0]	n/a	catFR1	3	R1389J
1062.448	10.183	1080892	DISTRACT_START	n/a	n/a	n/a	n/a	-999	9	[0, 0, 0]	n/a	catFR1	3	R1389J
1072.631	6.95	1091071	PROB	6.933	n/a	n/a	n/a	-999	9	[8, 6, 1]	15.0	catFR1	3	R1389J
1079.581	4.583	1098021	PROB	4.566	n/a	n/a	n/a	-999	9	[4, 4, 4]	12.0	catFR1	3	R1389J
1084.164	0.0	1102604	STOP	n/a	n/a	n/a	n/a	-999	9	[-999, -999, -999]	n/a	catFR1	3	R1389J
1084.164	2.133	1102607	DISTRACT_END	n/a	n/a	n/a	n/a	-999	9	[0, 0, 0]	n/a	catFR1	3	R1389J
1086.297	1.866	1104732	REC_START	n/a	n/a	n/a	n/a	-999	9	[0, 0, 0]	n/a	catFR1	3	R1389J
1088.163	1.421	1106603	REC_WORD_VV	1.866	n/a	<>	n/a	-999	9	[0, 0, 0]	n/a	catFR1	3	R1389J
1089.584	2.746	1108023	REC_WORD	3.287	n/a	GUITAR	Instruments	1	9	[0, 0, 0]	n/a	catFR1	3	R1389J
1092.33	4.749	1110769	REC_WORD	6.033	n/a	TRUMPET	Instruments	-999	9	[0, 0, 0]	n/a	catFR1	3	R1389J
1097.079	2.177	1115518	REC_WORD	10.782	n/a	TROMBONE	Instruments	12	9	[0, 0, 0]	n/a	catFR1	3	R1389J
1099.256	4.747	1117695	REC_WORD	12.959	n/a	DRUM	Instruments	-999	9	[0, 0, 0]	n/a	catFR1	3	R1389J
1104.003	1.0	1122442	REC_WORD_VV	17.706	n/a	<>	n/a	-999	9	[0, 0, 0]	n/a	catFR1	3	R1389J
1105.003	1.0	1123442	REC_WORD_VV	18.706	n/a	<>	n/a	-999	9	[0, 0, 0]	n/a	catFR1	3	R1389J
1106.003	1.343	1124442	REC_WORD_VV	19.706	n/a	<>	n/a	-999	9	[0, 0, 0]	n/a	catFR1	3	R1389J
1107.346	9.162	1125785	REC_WORD	21.049	n/a	VIOLIN	Instruments	-999	9	[0, 0, 0]	n/a	catFR1	3	R1389J
1116.508	4.523	1134943	REC_END	n/a	n/a	n/a	n/a	-999	9	[0, 0, 0]	n/a	catFR1	3	R1389J
1121.031	10.365	1139468	COUNTDOWN_START	n/a	n/a	n/a	n/a	-999	10	[0, 0, 0]	n/a	catFR1	3	R1389J
1131.396	0.0	1149835	COUNTDOWN_END	n/a	n/a	n/a	n/a	-999	10	[0, 0, 0]	n/a	catFR1	3	R1389J
1131.396	1.802	1149835	ENCODING_START	n/a	n/a	n/a	n/a	-999	10	[0, 0, 0]	n/a	catFR1	3	R1389J
1133.198	1.617	1151638	WORD	n/a	wordpools/wordpool_categorized_EN.txt	MONKEY	Zoo	1	10	[0, 0, 0]	n/a	catFR1	3	R1389J
1134.815	0.799	1153247	WORD_OFF	n/a	n/a	MONKEY	Zoo	1	10	[0, 0, 0]	n/a	catFR1	3	R1389J
1135.614	1.601	1154058	WORD	n/a	wordpools/wordpool_categorized_EN.txt	BEAR	Zoo	2	10	[0, 0, 0]	n/a	catFR1	3	R1389J
1137.215	0.8	1155654	WORD_OFF	n/a	n/a	BEAR	Zoo	2	10	[0, 0, 0]	n/a	catFR1	3	R1389J
1138.015	1.616	1156453	WORD	n/a	wordpools/wordpool_categorized_EN.txt	WHISK	KitchenTools	3	10	[0, 0, 0]	n/a	catFR1	3	R1389J
1139.631	1.0	1158074	WORD_OFF	n/a	n/a	WHISK	KitchenTools	3	10	[0, 0, 0]	n/a	catFR1	3	R1389J
1140.631	1.6	1159066	WORD	n/a	wordpools/wordpool_categorized_EN.txt	TONGS	KitchenTools	4	10	[0, 0, 0]	n/a	catFR1	3	R1389J
1142.231	0.934	1160663	WORD_OFF	n/a	n/a	TONGS	KitchenTools	4	10	[0, 0, 0]	n/a	catFR1	3	R1389J
1143.165	1.6	1161606	WORD	n/a	wordpools/wordpool_categorized_EN.txt	DUCK	Birds	5	10	[0, 0, 0]	n/a	catFR1	3	R1389J
1144.765	0.95	1163203	WORD_OFF	n/a	n/a	DUCK	Birds	5	10	[0, 0, 0]	n/a	catFR1	3	R1389J
1145.715	1.616	1164147	WORD	n/a	wordpools/wordpool_categorized_EN.txt	BLUEBIRD	Birds	6	10	[0, 0, 0]	n/a	catFR1	3	R1389J
1147.331	0.8	1165768	WORD_OFF	n/a	n/a	BLUEBIRD	Birds	6	10	[0, 0, 0]	n/a	catFR1	3	R1389J
1148.131	1.6	1166566	WORD	n/a	wordpools/wordpool_categorized_EN.txt	LADLE	KitchenTools	7	10	[0, 0, 0]	n/a	catFR1	3	R1389J
1149.731	0.85	1168175	WORD_OFF	n/a	n/a	LADLE	KitchenTools	7	10	[0, 0, 0]	n/a	catFR1	3	R1389J
1150.581	1.617	1169022	WORD	n/a	wordpools/wordpool_categorized_EN.txt	FORK	KitchenTools	8	10	[0, 0, 0]	n/a	catFR1	3	R1389J
1152.198	0.767	1170631	WORD_OFF	n/a	n/a	FORK	KitchenTools	8	10	[0, 0, 0]	n/a	catFR1	3	R1389J
1152.965	1.6	1171405	WORD	n/a	wordpools/wordpool_categorized_EN.txt	TIGER	Zoo	9	10	[0, 0, 0]	n/a	catFR1	3	R1389J
1154.565	0.782	1173002	WORD_OFF	n/a	n/a	TIGER	Zoo	9	10	[0, 0, 0]	n/a	catFR1	3	R1389J
1155.347	1.6	1173789	WORD	n/a	wordpools/wordpool_categorized_EN.txt	ORANGUTAN	Zoo	10	10	[0, 0, 0]	n/a	catFR1	3	R1389J
1156.947	0.784	1175386	WORD_OFF	n/a	n/a	ORANGUTAN	Zoo	10	10	[0, 0, 0]	n/a	catFR1	3	R1389J
1157.731	1.6	1176172	WORD	n/a	wordpools/wordpool_categorized_EN.txt	ROBIN	Birds	11	10	[0, 0, 0]	n/a	catFR1	3	R1389J
1159.331	0.916	1177769	WORD_OFF	n/a	n/a	ROBIN	Birds	11	10	[0, 0, 0]	n/a	catFR1	3	R1389J
1160.247	1.601	1178688	WORD	n/a	wordpools/wordpool_categorized_EN.txt	CROW	Birds	12	10	[0, 0, 0]	n/a	catFR1	3	R1389J
1161.848	0.001	1180285	WORD_OFF	n/a	n/a	CROW	Birds	12	10	[0, 0, 0]	n/a	catFR1	3	R1389J
1161.849	0.001	1180285	ENCODING_END	n/a	n/a	n/a	n/a	-999	10	[0, 0, 0]	n/a	catFR1	3	R1389J
1161.85	0.0	1180285	DISTRACT_START	n/a	n/a	n/a	n/a	-999	10	[0, 0, 0]	n/a	catFR1	3	R1389J
1161.849	0.001	1180286	PROB	8.649	n/a	n/a	n/a	-999	10	[8, 4, 5]	16.0	catFR1	3	R1389J
1161.85	8.665	1180287	START	n/a	n/a	n/a	n/a	-999	10	[-999, -999, -999]	n/a	catFR1	3	R1389J
1170.515	5.166	1188951	PROB	5.149	n/a	n/a	n/a	-999	10	[3, 1, 6]	11.0	catFR1	3	R1389J
1175.681	7.633	1194117	PROB	7.617	n/a	n/a	n/a	-999	10	[2, 7, 1]	10.0	catFR1	3	R1389J
1183.314	0.0	1201746	DISTRACT_END	n/a	n/a	n/a	n/a	-999	10	[0, 0, 0]	n/a	catFR1	3	R1389J
1183.314	2.167	1201750	STOP	n/a	n/a	n/a	n/a	-999	10	[-999, -999, -999]	n/a	catFR1	3	R1389J
1185.481	2.104	1203920	REC_START	n/a	n/a	n/a	n/a	-999	10	[0, 0, 0]	n/a	catFR1	3	R1389J
1187.585	0.789	1206021	REC_WORD_VV	2.104	n/a	<>	n/a	-999	10	[0, 0, 0]	n/a	catFR1	3	R1389J
1188.374	1.021	1206810	REC_WORD	2.893	n/a	MONKEY	Zoo	1	10	[0, 0, 0]	n/a	catFR1	3	R1389J
1189.395	4.035	1207830	REC_WORD	3.914	n/a	BEAR	Zoo	2	10	[0, 0, 0]	n/a	catFR1	3	R1389J
1193.43	2.05	1211865	REC_WORD	7.949	n/a	BLUEBIRD	Birds	6	10	[0, 0, 0]	n/a	catFR1	3	R1389J
1195.48	7.938	1213915	REC_WORD	9.999	n/a	CROW	Birds	12	10	[0, 0, 0]	n/a	catFR1	3	R1389J
1203.418	7.978	1221853	REC_WORD_VV	17.937	n/a	<>	n/a	-999	10	[0, 0, 0]	n/a	catFR1	3	R1389J
1211.396	4.299	1229831	REC_WORD	25.915	n/a	LION	n/a	-999	10	[0, 0, 0]	n/a	catFR1	3	R1389J
1215.695	4.469	1234131	REC_END	n/a	n/a	n/a	n/a	-999	10	[0, 0, 0]	n/a	catFR1	3	R1389J
1220.164	10.366	1238595	COUNTDOWN_START	n/a	n/a	n/a	n/a	-999	11	[0, 0, 0]	n/a	catFR1	3	R1389J
1230.53	0.0	1248963	COUNTDOWN_END	n/a	n/a	n/a	n/a	-999	11	[0, 0, 0]	n/a	catFR1	3	R1389J
1230.53	2.268	1248963	ENCODING_START	n/a	n/a	n/a	n/a	-999	11	[0, 0, 0]	n/a	catFR1	3	R1389J
1232.798	1.6	1251237	WORD	n/a	wordpools/wordpool_categorized_EN.txt	TOE	BodyParts	1	11	[0, 0, 0]	n/a	catFR1	3	R1389J
1234.398	0.833	1252834	WORD_OFF	n/a	n/a	TOE	BodyParts	1	11	[0, 0, 0]	n/a	catFR1	3	R1389J
1235.231	1.6	1253669	WORD	n/a	wordpools/wordpool_categorized_EN.txt	ELBOW	BodyParts	2	11	[0, 0, 0]	n/a	catFR1	3	R1389J
1236.831	0.884	1255266	WORD_OFF	n/a	n/a	ELBOW	BodyParts	2	11	[0, 0, 0]	n/a	catFR1	3	R1389J
1237.715	1.616	1256149	WORD	n/a	wordpools/wordpool_categorized_EN.txt	PIGEON	Birds	3	11	[0, 0, 0]	n/a	catFR1	3	R1389J
1239.331	0.8	1257770	WORD_OFF	n/a	n/a	PIGEON	Birds	3	11	[0, 0, 0]	n/a	catFR1	3	R1389J
1240.131	1.6	1258568	WORD	n/a	wordpools/wordpool_categorized_EN.txt	DOVE	Birds	4	11	[0, 0, 0]	n/a	catFR1	3	R1389J
1241.731	0.817	1260165	WORD_OFF	n/a	n/a	DOVE	Birds	4	11	[0, 0, 0]	n/a	catFR1	3	R1389J
1242.548	1.6	1260976	WORD	n/a	wordpools/wordpool_categorized_EN.txt	GIRAFFE	Zoo	5	11	[0, 0, 0]	n/a	catFR1	3	R1389J
1244.148	0.783	1262585	WORD_OFF	n/a	n/a	GIRAFFE	Zoo	5	11	[0, 0, 0]	n/a	catFR1	3	R1389J
1244.931	1.6	1263359	WORD	n/a	wordpools/wordpool_categorized_EN.txt	CHEETAH	Zoo	6	11	[0, 0, 0]	n/a	catFR1	3	R1389J
1246.531	0.8	1264968	WORD_OFF	n/a	n/a	CHEETAH	Zoo	6	11	[0, 0, 0]	n/a	catFR1	3	R1389J
1247.331	1.6	1265766	WORD	n/a	wordpools/wordpool_categorized_EN.txt	SEAGULL	Birds	7	11	[0, 0, 0]	n/a	catFR1	3	R1389J
1248.931	0.867	1267363	WORD_OFF	n/a	n/a	SEAGULL	Birds	7	11	[0, 0, 0]	n/a	catFR1	3	R1389J
1249.798	1.6	1268234	WORD	n/a	wordpools/wordpool_categorized_EN.txt	FINCH	Birds	8	11	[0, 0, 0]	n/a	catFR1	3	R1389J
1251.398	0.85	1269831	WORD_OFF	n/a	n/a	FINCH	Birds	8	11	[0, 0, 0]	n/a	catFR1	3	R1389J
1252.248	1.616	1270678	WORD	n/a	wordpools/wordpool_categorized_EN.txt	FINGERS	BodyParts	9	11	[0, 0, 0]	n/a	catFR1	3	R1389J
1253.864	0.851	1272299	WORD_OFF	n/a	n/a	FINGERS	BodyParts	9	11	[0, 0, 0]	n/a	catFR1	3	R1389J
1254.715	1.616	1273146	WORD	n/a	wordpools/wordpool_categorized_EN.txt	LEG	BodyParts	10	11	[0, 0, 0]	n/a	catFR1	3	R1389J
1256.331	0.883	1274767	WORD_OFF	n/a	n/a	LEG	BodyParts	10	11	[0, 0, 0]	n/a	catFR1	3	R1389J
1257.214	1.6	1275650	WORD	n/a	wordpools/wordpool_categorized_EN.txt	LION	Zoo	11	11	[0, 0, 0]	n/a	catFR1	3	R1389J
1258.814	0.799	1277247	WORD_OFF	n/a	n/a	LION	Zoo	11	11	[0, 0, 0]	n/a	catFR1	3	R1389J
1259.613	1.601	1278045	WORD	n/a	wordpools/wordpool_categorized_EN.txt	CHIMPANZEE	Zoo	12	11	[0, 0, 0]	n/a	catFR1	3	R1389J
1261.214	0.001	1279642	WORD_OFF	n/a	n/a	CHIMPANZEE	Zoo	12	11	[0, 0, 0]	n/a	catFR1	3	R1389J
1261.215	0.001	1279648	PROB	9.283	n/a	n/a	n/a	-999	11	[1, 7, 5]	13.0	catFR1	3	R1389J
1261.216	0.0	1279649	START	n/a	n/a	n/a	n/a	-999	11	[-999, -999, -999]	n/a	catFR1	3	R1389J
1261.216	0.0	1279654	ENCODING_END	n/a	n/a	n/a	n/a	-999	11	[0, 0, 0]	n/a	catFR1	3	R1389J
1261.216	9.299	1279654	DISTRACT_START	n/a	n/a	n/a	n/a	-999	11	[0, 0, 0]	n/a	catFR1	3	R1389J
1270.515	5.283	1288947	PROB	5.266	n/a	n/a	n/a	-999	11	[5, 5, 3]	13.0	catFR1	3	R1389J
1275.798	3.934	1294230	PROB	3.916	n/a	n/a	n/a	-999	11	[8, 1, 8]	17.0	catFR1	3	R1389J
1279.732	6.632	1298164	PROB	6.615	n/a	n/a	n/a	-999	11	[3, 6, 3]	12.0	catFR1	3	R1389J
1286.364	0.0	1304793	DISTRACT_END	n/a	n/a	n/a	n/a	-999	11	[0, 0, 0]	n/a	catFR1	3	R1389J
1286.364	2.233	1304796	STOP	n/a	n/a	n/a	n/a	-999	11	[-999, -999, -999]	n/a	catFR1	3	R1389J
1288.597	3.442	1307027	REC_START	n/a	n/a	n/a	n/a	-999	11	[0, 0, 0]	n/a	catFR1	3	R1389J
1292.039	7.695	1310470	REC_WORD	3.442	n/a	LION	Zoo	11	11	[0, 0, 0]	n/a	catFR1	3	R1389J
1299.734	12.8	1318165	REC_WORD	11.137	n/a	PIGEON	Birds	3	11	[0, 0, 0]	n/a	catFR1	3	R1389J
1312.534	3.385	1330965	REC_WORD_VV	23.937	n/a	<>	n/a	-999	11	[0, 0, 0]	n/a	catFR1	3	R1389J
1315.919	0.948	1334349	REC_WORD	27.322	n/a	ELBOW	BodyParts	2	11	[0, 0, 0]	n/a	catFR1	3	R1389J
1316.867	0.763	1335297	REC_WORD	28.27	n/a	FINGERS	BodyParts	9	11	[0, 0, 0]	n/a	catFR1	3	R1389J
1317.63	1.193	1336060	REC_WORD	29.033	n/a	ARM	BodyParts	-999	11	[0, 0, 0]	n/a	catFR1	3	R1389J
1318.823	9.526	1337251	REC_END	n/a	n/a	n/a	n/a	-999	11	[0, 0, 0]	n/a	catFR1	3	R1389J
1328.349	10.365	1346784	COUNTDOWN_START	n/a	n/a	n/a	n/a	-999	12	[0, 0, 0]	n/a	catFR1	3	R1389J
1338.714	0.0	1357139	COUNTDOWN_END	n/a	n/a	n/a	n/a	-999	12	[0, 0, 0]	n/a	catFR1	3	R1389J
1338.714	2.05	1357151	ENCODING_START	n/a	n/a	n/a	n/a	-999	12	[0, 0, 0]	n/a	catFR1	3	R1389J
1340.764	1.601	1359196	WORD	n/a	wordpools/wordpool_categorized_EN.txt	ERASER	OfficeSupplies	1	12	[0, 0, 0]	n/a	catFR1	3	R1389J
1342.365	0.783	1360793	WORD_OFF	n/a	n/a	ERASER	OfficeSupplies	1	12	[0, 0, 0]	n/a	catFR1	3	R1389J
1343.148	1.617	1361579	WORD	n/a	wordpools/wordpool_categorized_EN.txt	GLUE	OfficeSupplies	2	12	[0, 0, 0]	n/a	catFR1	3	R1389J
1344.765	0.9	1363200	WORD_OFF	n/a	n/a	GLUE	OfficeSupplies	2	12	[0, 0, 0]	n/a	catFR1	3	R1389J
1345.665	1.616	1364095	WORD	n/a	wordpools/wordpool_categorized_EN.txt	TULIP	Flowers	3	12	[0, 0, 0]	n/a	catFR1	3	R1389J
1347.281	0.884	1365716	WORD_OFF	n/a	n/a	TULIP	Flowers	3	12	[0, 0, 0]	n/a	catFR1	3	R1389J
1348.165	1.616	1366599	WORD	n/a	wordpools/wordpool_categorized_EN.txt	SUNFLOWER	Flowers	4	12	[0, 0, 0]	n/a	catFR1	3	R1389J
1349.781	0.949	1368208	WORD_OFF	n/a	n/a	SUNFLOWER	Flowers	4	12	[0, 0, 0]	n/a	catFR1	3	R1389J
1350.73	1.6	1369164	WORD	n/a	wordpools/wordpool_categorized_EN.txt	PINE	Trees	5	12	[0, 0, 0]	n/a	catFR1	3	R1389J
1352.33	0.901	1370761	WORD_OFF	n/a	n/a	PINE	Trees	5	12	[0, 0, 0]	n/a	catFR1	3	R1389J
1353.231	1.616	1371656	WORD	n/a	wordpools/wordpool_categorized_EN.txt	CEDAR	Trees	6	12	[0, 0, 0]	n/a	catFR1	3	R1389J
1354.847	1.001	1373277	WORD_OFF	n/a	n/a	CEDAR	Trees	6	12	[0, 0, 0]	n/a	catFR1	3	R1389J
1355.848	1.616	1374281	WORD	n/a	wordpools/wordpool_categorized_EN.txt	PEN	OfficeSupplies	7	12	[0, 0, 0]	n/a	catFR1	3	R1389J
1357.464	1.001	1375890	WORD_OFF	n/a	n/a	PEN	OfficeSupplies	7	12	[0, 0, 0]	n/a	catFR1	3	R1389J
1358.465	1.6	1376894	WORD	n/a	wordpools/wordpool_categorized_EN.txt	BINDER	OfficeSupplies	8	12	[0, 0, 0]	n/a	catFR1	3	R1389J
1360.065	0.766	1378491	WORD_OFF	n/a	n/a	BINDER	OfficeSupplies	8	12	[0, 0, 0]	n/a	catFR1	3	R1389J
1360.831	1.6	1379266	WORD	n/a	wordpools/wordpool_categorized_EN.txt	LILAC	Flowers	9	12	[0, 0, 0]	n/a	catFR1	3	R1389J
1362.431	0.934	1380862	WORD_OFF	n/a	n/a	LILAC	Flowers	9	12	[0, 0, 0]	n/a	catFR1	3	R1389J
1363.365	1.6	1381794	WORD	n/a	wordpools/wordpool_categorized_EN.txt	PETUNIA	Flowers	10	12	[0, 0, 0]	n/a	catFR1	3	R1389J
1364.965	0.933	1383391	WORD_OFF	n/a	n/a	PETUNIA	Flowers	10	12	[0, 0, 0]	n/a	catFR1	3	R1389J
1365.898	1.6	1384322	WORD	n/a	wordpools/wordpool_categorized_EN.txt	CYPRESS	Trees	11	12	[0, 0, 0]	n/a	catFR1	3	R1389J
1367.498	0.767	1385931	WORD_OFF	n/a	n/a	CYPRESS	Trees	11	12	[0, 0, 0]	n/a	catFR1	3	R1389J
1368.265	1.6	1386693	WORD	n/a	wordpools/wordpool_categorized_EN.txt	HICKORY	Trees	12	12	[0, 0, 0]	n/a	catFR1	3	R1389J
1369.865	0.002	1388290	WORD_OFF	n/a	n/a	HICKORY	Trees	12	12	[0, 0, 0]	n/a	catFR1	3	R1389J
1369.867	0.0	1388290	ENCODING_END	n/a	n/a	n/a	n/a	-999	12	[0, 0, 0]	n/a	catFR1	3	R1389J
1369.865	0.002	1388293	PROB	7.883	n/a	n/a	n/a	-999	12	[1, 5, 2]	9.0	catFR1	3	R1389J
1369.867	0.0	1388295	START	n/a	n/a	n/a	n/a	-999	12	[-999, -999, -999]	n/a	catFR1	3	R1389J
1369.867	7.898	1388302	DISTRACT_START	n/a	n/a	n/a	n/a	-999	12	[0, 0, 0]	n/a	catFR1	3	R1389J
1377.765	8.683	1396193	PROB	8.666	n/a	n/a	n/a	-999	12	[3, 6, 8]	17.0	catFR1	3	R1389J
1386.448	6.649	1404875	PROB	6.633	n/a	n/a	n/a	-999	12	[5, 8, 1]	14.0	catFR1	3	R1389J
1393.097	0.0	1411524	STOP	n/a	n/a	n/a	n/a	-999	12	[-999, -999, -999]	n/a	catFR1	3	R1389J
1393.097	2.067	1411530	DISTRACT_END	n/a	n/a	n/a	n/a	-999	12	[0, 0, 0]	n/a	catFR1	3	R1389J
1395.164	7.184	1413594	REC_START	n/a	n/a	n/a	n/a	-999	12	[0, 0, 0]	n/a	catFR1	3	R1389J
1402.348	4.825	1420775	REC_WORD	7.184	n/a	BINDER	OfficeSupplies	8	12	[0, 0, 0]	n/a	catFR1	3	R1389J
1407.173	6.083	1425600	REC_WORD	12.009	n/a	TULIP	Flowers	3	12	[0, 0, 0]	n/a	catFR1	3	R1389J
1413.256	0.788	1431682	REC_WORD	18.092	n/a	PEN	OfficeSupplies	7	12	[0, 0, 0]	n/a	catFR1	3	R1389J
1414.044	1.71	1432470	REC_WORD	18.88	n/a	PAPER	OfficeSupplies	-999	12	[0, 0, 0]	n/a	catFR1	3	R1389J
1415.754	2.136	1434180	REC_WORD_VV	20.59	n/a	<>	n/a	-999	12	[0, 0, 0]	n/a	catFR1	3	R1389J
1417.89	7.475	1436316	REC_WORD_VV	22.726	n/a	<>	n/a	-999	12	[0, 0, 0]	n/a	catFR1	3	R1389J
1425.365	0.0	1443794	REC_END	n/a	n/a	n/a	n/a	-999	12	[0, 0, 0]	n/a	catFR1	3	R1389J
