onset	duration	sample	trial_type	response_time	stim_file	item_name	category	serialpos	list	test	answer	experiment	session	subject
0.0	5.127	54464	INSTRUCT_START	n/a	n/a	n/a	n/a	-999	-999	[0, 0, 0]	n/a	catFR1	3	R1626S
5.127	23.534	59596	INSTRUCT_END	n/a	n/a	n/a	n/a	-999	-999	[0, 0, 0]	n/a	catFR1	3	R1626S
28.661	10.0	83127	COUNTDOWN_START	n/a	n/a	n/a	n/a	-999	-999	[0, 0, 0]	n/a	catFR1	3	R1626S
39.011	0.0	93476	COUNTDOWN_END	n/a	n/a	n/a	n/a	-999	-999	[0, 0, 0]	n/a	catFR1	3	R1626S
39.011	1.85	93476	ENCODING_START	n/a	n/a	n/a	n/a	-999	-1	[0, 0, 0]	n/a	catFR1	3	R1626S
40.861	1.6	95327	WORD	n/a	n/a	SKIRT	Clothing	1	-1	[0, 0, 0]	n/a	catFR1	3	R1626S
42.477	0.883	96939	WORD_OFF	n/a	n/a	SKIRT	Clothing	1	-1	[0, 0, 0]	n/a	catFR1	3	R1626S
43.36	1.6	97826	WORD	n/a	n/a	JACKET	Clothing	2	-1	[0, 0, 0]	n/a	catFR1	3	R1626S
44.961	0.916	99419	WORD_OFF	n/a	n/a	JACKET	Clothing	2	-1	[0, 0, 0]	n/a	catFR1	3	R1626S
45.877	1.6	100335	WORD	n/a	n/a	ROACH	Insects	3	-1	[0, 0, 0]	n/a	catFR1	3	R1626S
47.478	0.833	101937	WORD_OFF	n/a	n/a	ROACH	Insects	3	-1	[0, 0, 0]	n/a	catFR1	3	R1626S
48.311	1.6	102776	WORD	n/a	n/a	ANT	Insects	4	-1	[0, 0, 0]	n/a	catFR1	3	R1626S
49.911	0.883	104369	WORD_OFF	n/a	n/a	ANT	Insects	4	-1	[0, 0, 0]	n/a	catFR1	3	R1626S
50.794	1.6	105256	WORD	n/a	n/a	LOBSTER	OceanAnimals	5	-1	[0, 0, 0]	n/a	catFR1	3	R1626S
52.394	0.917	106859	WORD_OFF	n/a	n/a	LOBSTER	OceanAnimals	5	-1	[0, 0, 0]	n/a	catFR1	3	R1626S
53.311	1.6	107775	WORD	n/a	n/a	CRAB	OceanAnimals	6	-1	[0, 0, 0]	n/a	catFR1	3	R1626S
54.928	0.95	109387	WORD_OFF	n/a	n/a	CRAB	OceanAnimals	6	-1	[0, 0, 0]	n/a	catFR1	3	R1626S
55.878	1.6	110340	WORD	n/a	n/a	BEE	Insects	7	-1	[0, 0, 0]	n/a	catFR1	3	R1626S
57.494	0.816	111952	WORD_OFF	n/a	n/a	BEE	Insects	7	-1	[0, 0, 0]	n/a	catFR1	3	R1626S
58.31	1.6	112773	WORD	n/a	n/a	BEETLE	Insects	8	-1	[0, 0, 0]	n/a	catFR1	3	R1626S
59.912	0.815	114375	WORD_OFF	n/a	n/a	BEETLE	Insects	8	-1	[0, 0, 0]	n/a	catFR1	3	R1626S
60.727	1.6	115186	WORD	n/a	n/a	DOLPHIN	OceanAnimals	9	-1	[0, 0, 0]	n/a	catFR1	3	R1626S
62.327	0.967	116788	WORD_OFF	n/a	n/a	DOLPHIN	OceanAnimals	9	-1	[0, 0, 0]	n/a	catFR1	3	R1626S
63.294	1.6	117752	WORD	n/a	n/a	WHALE	OceanAnimals	10	-1	[0, 0, 0]	n/a	catFR1	3	R1626S
64.911	0.967	119373	WORD_OFF	n/a	n/a	WHALE	OceanAnimals	10	-1	[0, 0, 0]	n/a	catFR1	3	R1626S
65.878	1.6	120337	WORD	n/a	n/a	SOCKS	Clothing	11	-1	[0, 0, 0]	n/a	catFR1	3	R1626S
67.495	0.882	121958	WORD_OFF	n/a	n/a	SOCKS	Clothing	11	-1	[0, 0, 0]	n/a	catFR1	3	R1626S
68.377	1.6	122836	WORD	n/a	n/a	JEANS	Clothing	12	-1	[0, 0, 0]	n/a	catFR1	3	R1626S
69.979	0.0	124438	WORD_OFF	n/a	n/a	JEANS	Clothing	12	-1	[0, 0, 0]	n/a	catFR1	3	R1626S
69.979	0.004	124438	PROB	8.283	n/a	n/a	n/a	-999	-1	[2, 7, 2]	11.0	catFR1	3	R1626S
69.983	0.0	124442	START	n/a	n/a	n/a	n/a	-999	-1	[-999, -999, -999]	n/a	catFR1	3	R1626S
69.983	0.0	124448	ENCODING_END	n/a	n/a	n/a	n/a	-999	-1	[0, 0, 0]	n/a	catFR1	3	R1626S
69.983	8.295	124448	DISTRACT_START	n/a	n/a	n/a	n/a	-999	-1	[0, 0, 0]	n/a	catFR1	3	R1626S
78.278	5.567	132736	PROB	5.55	n/a	n/a	n/a	-999	-1	[2, 3, 5]	10.0	catFR1	3	R1626S
83.845	5.599	138303	PROB	5.583	n/a	n/a	n/a	-999	-1	[1, 7, 4]	12.0	catFR1	3	R1626S
89.444	5.867	143902	PROB	5.85	n/a	n/a	n/a	-999	-1	[3, 1, 4]	8.0	catFR1	3	R1626S
95.311	0.0	149769	STOP	n/a	n/a	n/a	n/a	-999	-1	[-999, -999, -999]	n/a	catFR1	3	R1626S
95.311	2.217	149772	DISTRACT_END	n/a	n/a	n/a	n/a	-999	-1	[0, 0, 0]	n/a	catFR1	3	R1626S
97.528	4.076	151985	REC_START	n/a	n/a	n/a	n/a	-999	-1	[0, 0, 0]	n/a	catFR1	3	R1626S
101.604	2.253	156061	REC_WORD_VV	4.076	n/a	<>	n/a	-999	-1	[0, 0, 0]	n/a	catFR1	3	R1626S
103.857	0.6	158314	REC_WORD_VV	6.329	n/a	<>	n/a	-999	-1	[0, 0, 0]	n/a	catFR1	3	R1626S
104.457	4.826	158914	REC_WORD	6.929	n/a	ANT	Insects	4	-1	[0, 0, 0]	n/a	catFR1	3	R1626S
109.283	7.126	163740	REC_WORD	11.755	n/a	WHALE	OceanAnimals	10	-1	[0, 0, 0]	n/a	catFR1	3	R1626S
116.409	11.319	170866	REC_WORD	18.881	n/a	LOBSTER	OceanAnimals	5	-1	[0, 0, 0]	n/a	catFR1	3	R1626S
127.728	26.4	182184	REC_END	n/a	n/a	n/a	n/a	-999	-1	[0, 0, 0]	n/a	catFR1	3	R1626S
154.128	10.0	208586	COUNTDOWN_START	n/a	n/a	n/a	n/a	-999	1	[0, 0, 0]	n/a	catFR1	3	R1626S
164.478	0.0	218936	COUNTDOWN_END	n/a	n/a	n/a	n/a	-999	1	[0, 0, 0]	n/a	catFR1	3	R1626S
164.478	2.216	218936	ENCODING_START	n/a	n/a	n/a	n/a	-999	1	[0, 0, 0]	n/a	catFR1	3	R1626S
166.694	1.6	221149	WORD	n/a	wordpools/wordpool_categorized_EN.txt	BOAT	Vehicles	1	1	[0, 0, 0]	n/a	catFR1	3	R1626S
168.311	0.933	222770	WORD_OFF	n/a	n/a	BOAT	Vehicles	1	1	[0, 0, 0]	n/a	catFR1	3	R1626S
169.244	1.6	223705	WORD	n/a	wordpools/wordpool_categorized_EN.txt	TRAIN	Vehicles	2	1	[0, 0, 0]	n/a	catFR1	3	R1626S
170.86	0.95	225317	WORD_OFF	n/a	n/a	TRAIN	Vehicles	2	1	[0, 0, 0]	n/a	catFR1	3	R1626S
171.81	1.6	226261	WORD	n/a	wordpools/wordpool_categorized_EN.txt	BULL	FarmAnimals	3	1	[0, 0, 0]	n/a	catFR1	3	R1626S
173.411	0.917	227864	WORD_OFF	n/a	n/a	BULL	FarmAnimals	3	1	[0, 0, 0]	n/a	catFR1	3	R1626S
174.328	1.6	228779	WORD	n/a	wordpools/wordpool_categorized_EN.txt	HEN	FarmAnimals	4	1	[0, 0, 0]	n/a	catFR1	3	R1626S
175.944	0.782	230401	WORD_OFF	n/a	n/a	HEN	FarmAnimals	4	1	[0, 0, 0]	n/a	catFR1	3	R1626S
176.726	1.6	231183	WORD	n/a	wordpools/wordpool_categorized_EN.txt	CALCULATOR	Electronics	5	1	[0, 0, 0]	n/a	catFR1	3	R1626S
178.328	0.999	232786	WORD_OFF	n/a	n/a	CALCULATOR	Electronics	5	1	[0, 0, 0]	n/a	catFR1	3	R1626S
179.327	1.6	233787	WORD	n/a	wordpools/wordpool_categorized_EN.txt	STEREO	Electronics	6	1	[0, 0, 0]	n/a	catFR1	3	R1626S
180.927	0.967	235380	WORD_OFF	n/a	n/a	STEREO	Electronics	6	1	[0, 0, 0]	n/a	catFR1	3	R1626S
181.894	1.6	236353	WORD	n/a	wordpools/wordpool_categorized_EN.txt	HORSE	FarmAnimals	7	1	[0, 0, 0]	n/a	catFR1	3	R1626S
183.511	0.783	237965	WORD_OFF	n/a	n/a	HORSE	FarmAnimals	7	1	[0, 0, 0]	n/a	catFR1	3	R1626S
184.294	1.6	238747	WORD	n/a	wordpools/wordpool_categorized_EN.txt	SHEEP	FarmAnimals	8	1	[0, 0, 0]	n/a	catFR1	3	R1626S
185.91	1.001	240369	WORD_OFF	n/a	n/a	SHEEP	FarmAnimals	8	1	[0, 0, 0]	n/a	catFR1	3	R1626S
186.911	1.6	241370	WORD	n/a	wordpools/wordpool_categorized_EN.txt	TRUCK	Vehicles	9	1	[0, 0, 0]	n/a	catFR1	3	R1626S
188.527	0.848	242982	WORD_OFF	n/a	n/a	TRUCK	Vehicles	9	1	[0, 0, 0]	n/a	catFR1	3	R1626S
189.375	1.6	243831	WORD	n/a	wordpools/wordpool_categorized_EN.txt	VAN	Vehicles	10	1	[0, 0, 0]	n/a	catFR1	3	R1626S
190.977	0.917	245434	WORD_OFF	n/a	n/a	VAN	Vehicles	10	1	[0, 0, 0]	n/a	catFR1	3	R1626S
191.894	1.6	246349	WORD	n/a	wordpools/wordpool_categorized_EN.txt	MICROWAVE	Electronics	11	1	[0, 0, 0]	n/a	catFR1	3	R1626S
193.51	0.967	247961	WORD_OFF	n/a	n/a	MICROWAVE	Electronics	11	1	[0, 0, 0]	n/a	catFR1	3	R1626S
194.477	1.6	248934	WORD	n/a	wordpools/wordpool_categorized_EN.txt	TABLET	Electronics	12	1	[0, 0, 0]	n/a	catFR1	3	R1626S
196.078	0.001	250531	PROB	7.466	n/a	n/a	n/a	-999	1	[6, 8, 1]	15.0	catFR1	3	R1626S
196.079	0.0	250532	START	n/a	n/a	n/a	n/a	-999	1	[-999, -999, -999]	n/a	catFR1	3	R1626S
196.077	0.002	250537	WORD_OFF	n/a	n/a	TABLET	Electronics	12	1	[0, 0, 0]	n/a	catFR1	3	R1626S
196.079	0.0	250537	ENCODING_END	n/a	n/a	n/a	n/a	-999	1	[0, 0, 0]	n/a	catFR1	3	R1626S
196.079	7.482	250537	DISTRACT_START	n/a	n/a	n/a	n/a	-999	1	[0, 0, 0]	n/a	catFR1	3	R1626S
203.561	9.499	258014	PROB	9.483	n/a	n/a	n/a	-999	1	[4, 8, 7]	19.0	catFR1	3	R1626S
213.06	8.016	267512	PROB	8.0	n/a	n/a	n/a	-999	1	[2, 6, 2]	10.0	catFR1	3	R1626S
221.076	0.0	275527	DISTRACT_END	n/a	n/a	n/a	n/a	-999	1	[0, 0, 0]	n/a	catFR1	3	R1626S
221.076	2.351	275528	STOP	n/a	n/a	n/a	n/a	-999	1	[-999, -999, -999]	n/a	catFR1	3	R1626S
223.427	5.495	277883	REC_START	n/a	n/a	n/a	n/a	-999	1	[0, 0, 0]	n/a	catFR1	3	R1626S
228.922	4.535	283373	REC_WORD	5.495	n/a	BULL	FarmAnimals	3	1	[0, 0, 0]	n/a	catFR1	3	R1626S
233.457	6.452	287908	REC_WORD	10.03	n/a	PEN	n/a	-999	1	[0, 0, 0]	n/a	catFR1	3	R1626S
239.909	13.715	294360	REC_WORD	16.482	n/a	DINK	n/a	-999	1	[0, 0, 0]	n/a	catFR1	3	R1626S
253.624	2.903	308073	REC_END	n/a	n/a	n/a	n/a	-999	1	[0, 0, 0]	n/a	catFR1	3	R1626S
256.527	10.0	310982	COUNTDOWN_START	n/a	n/a	n/a	n/a	-999	2	[0, 0, 0]	n/a	catFR1	3	R1626S
266.877	0.0	321331	COUNTDOWN_END	n/a	n/a	n/a	n/a	-999	2	[0, 0, 0]	n/a	catFR1	3	R1626S
266.877	2.3	321331	ENCODING_START	n/a	n/a	n/a	n/a	-999	2	[0, 0, 0]	n/a	catFR1	3	R1626S
269.177	1.6	323630	WORD	n/a	wordpools/wordpool_categorized_EN.txt	VACUUM	Appliances	1	2	[0, 0, 0]	n/a	catFR1	3	R1626S
270.777	0.85	325232	WORD_OFF	n/a	n/a	VACUUM	Appliances	1	2	[0, 0, 0]	n/a	catFR1	3	R1626S
271.627	1.6	326081	WORD	n/a	wordpools/wordpool_categorized_EN.txt	DRYER	Appliances	2	2	[0, 0, 0]	n/a	catFR1	3	R1626S
273.227	0.766	327674	WORD_OFF	n/a	n/a	DRYER	Appliances	2	2	[0, 0, 0]	n/a	catFR1	3	R1626S
273.993	1.6	328447	WORD	n/a	wordpools/wordpool_categorized_EN.txt	JELLYFISH	OceanAnimals	3	2	[0, 0, 0]	n/a	catFR1	3	R1626S
275.594	0.783	330049	WORD_OFF	n/a	n/a	JELLYFISH	OceanAnimals	3	2	[0, 0, 0]	n/a	catFR1	3	R1626S
276.377	1.6	330831	WORD	n/a	wordpools/wordpool_categorized_EN.txt	SHRIMP	OceanAnimals	4	2	[0, 0, 0]	n/a	catFR1	3	R1626S
277.994	0.9	332443	WORD_OFF	n/a	n/a	SHRIMP	OceanAnimals	4	2	[0, 0, 0]	n/a	catFR1	3	R1626S
278.894	1.6	333349	WORD	n/a	wordpools/wordpool_categorized_EN.txt	LION	Zoo	5	2	[0, 0, 0]	n/a	catFR1	3	R1626S
280.511	1.0	334961	WORD_OFF	n/a	n/a	LION	Zoo	5	2	[0, 0, 0]	n/a	catFR1	3	R1626S
281.511	1.6	335963	WORD	n/a	wordpools/wordpool_categorized_EN.txt	ORANGUTAN	Zoo	6	2	[0, 0, 0]	n/a	catFR1	3	R1626S
283.11	0.9	337565	WORD_OFF	n/a	n/a	ORANGUTAN	Zoo	6	2	[0, 0, 0]	n/a	catFR1	3	R1626S
284.01	1.6	338462	WORD	n/a	wordpools/wordpool_categorized_EN.txt	SQUID	OceanAnimals	7	2	[0, 0, 0]	n/a	catFR1	3	R1626S
285.611	1.0	340065	WORD_OFF	n/a	n/a	SQUID	OceanAnimals	7	2	[0, 0, 0]	n/a	catFR1	3	R1626S
286.611	1.6	341066	WORD	n/a	wordpools/wordpool_categorized_EN.txt	OYSTER	OceanAnimals	8	2	[0, 0, 0]	n/a	catFR1	3	R1626S
288.227	0.984	342678	WORD_OFF	n/a	n/a	OYSTER	OceanAnimals	8	2	[0, 0, 0]	n/a	catFR1	3	R1626S
289.211	1.6	343661	WORD	n/a	wordpools/wordpool_categorized_EN.txt	BEAR	Zoo	9	2	[0, 0, 0]	n/a	catFR1	3	R1626S
290.827	0.917	345282	WORD_OFF	n/a	n/a	BEAR	Zoo	9	2	[0, 0, 0]	n/a	catFR1	3	R1626S
291.744	1.6	346198	WORD	n/a	wordpools/wordpool_categorized_EN.txt	TIGER	Zoo	10	2	[0, 0, 0]	n/a	catFR1	3	R1626S
293.36	0.9	347810	WORD_OFF	n/a	n/a	TIGER	Zoo	10	2	[0, 0, 0]	n/a	catFR1	3	R1626S
294.26	1.6	348706	WORD	n/a	wordpools/wordpool_categorized_EN.txt	REFRIGERATOR	Appliances	11	2	[0, 0, 0]	n/a	catFR1	3	R1626S
295.877	0.933	350328	WORD_OFF	n/a	n/a	REFRIGERATOR	Appliances	11	2	[0, 0, 0]	n/a	catFR1	3	R1626S
296.81	1.6	351263	WORD	n/a	wordpools/wordpool_categorized_EN.txt	WASHER	Appliances	12	2	[0, 0, 0]	n/a	catFR1	3	R1626S
298.427	0.001	352875	WORD_OFF	n/a	n/a	WASHER	Appliances	12	2	[0, 0, 0]	n/a	catFR1	3	R1626S
298.428	0.0	352876	START	n/a	n/a	n/a	n/a	-999	2	[-999, -999, -999]	n/a	catFR1	3	R1626S
298.428	0.0	352876	PROB	13.55	n/a	n/a	n/a	-999	2	[7, 8, 5]	20.0	catFR1	3	R1626S
298.428	0.0	352884	ENCODING_END	n/a	n/a	n/a	n/a	-999	2	[0, 0, 0]	n/a	catFR1	3	R1626S
298.428	13.565	352884	DISTRACT_START	n/a	n/a	n/a	n/a	-999	2	[0, 0, 0]	n/a	catFR1	3	R1626S
311.993	10.067	366441	PROB	10.05	n/a	n/a	n/a	-999	2	[7, 5, 7]	19.0	catFR1	3	R1626S
322.06	0.0	376507	STOP	n/a	n/a	n/a	n/a	-999	2	[-999, -999, -999]	n/a	catFR1	3	R1626S
322.06	2.4	376511	DISTRACT_END	n/a	n/a	n/a	n/a	-999	2	[0, 0, 0]	n/a	catFR1	3	R1626S
324.46	3.881	378905	REC_START	n/a	n/a	n/a	n/a	-999	2	[0, 0, 0]	n/a	catFR1	3	R1626S
328.341	14.949	382788	REC_WORD	3.881	n/a	JELLYFISH	OceanAnimals	3	2	[0, 0, 0]	n/a	catFR1	3	R1626S
343.29	11.335	397736	REC_WORD	18.83	n/a	REFRIGERATOR	Appliances	11	2	[0, 0, 0]	n/a	catFR1	3	R1626S
354.625	5.285	409075	REC_END	n/a	n/a	n/a	n/a	-999	2	[0, 0, 0]	n/a	catFR1	3	R1626S
359.91	10.0	414360	COUNTDOWN_START	n/a	n/a	n/a	n/a	-999	3	[0, 0, 0]	n/a	catFR1	3	R1626S
370.26	0.0	424709	COUNTDOWN_END	n/a	n/a	n/a	n/a	-999	3	[0, 0, 0]	n/a	catFR1	3	R1626S
370.26	2.084	424709	ENCODING_START	n/a	n/a	n/a	n/a	-999	3	[0, 0, 0]	n/a	catFR1	3	R1626S
372.344	1.6	426788	WORD	n/a	wordpools/wordpool_categorized_EN.txt	BEACH	Landscapes	1	3	[0, 0, 0]	n/a	catFR1	3	R1626S
373.944	1.0	428391	WORD_OFF	n/a	n/a	BEACH	Landscapes	1	3	[0, 0, 0]	n/a	catFR1	3	R1626S
374.944	1.6	429392	WORD	n/a	wordpools/wordpool_categorized_EN.txt	VALLEY	Landscapes	2	3	[0, 0, 0]	n/a	catFR1	3	R1626S
376.56	0.949	431004	WORD_OFF	n/a	n/a	VALLEY	Landscapes	2	3	[0, 0, 0]	n/a	catFR1	3	R1626S
377.509	1.6	431958	WORD	n/a	wordpools/wordpool_categorized_EN.txt	COLANDER	KitchenTools	3	3	[0, 0, 0]	n/a	catFR1	3	R1626S
379.11	0.8	433560	WORD_OFF	n/a	n/a	COLANDER	KitchenTools	3	3	[0, 0, 0]	n/a	catFR1	3	R1626S
379.91	1.6	434352	WORD	n/a	wordpools/wordpool_categorized_EN.txt	TONGS	KitchenTools	4	3	[0, 0, 0]	n/a	catFR1	3	R1626S
381.51	0.884	435955	WORD_OFF	n/a	n/a	TONGS	KitchenTools	4	3	[0, 0, 0]	n/a	catFR1	3	R1626S
382.394	1.6	436842	WORD	n/a	wordpools/wordpool_categorized_EN.txt	FOUNDATION	Building	5	3	[0, 0, 0]	n/a	catFR1	3	R1626S
384.01	0.85	438454	WORD_OFF	n/a	n/a	FOUNDATION	Building	5	3	[0, 0, 0]	n/a	catFR1	3	R1626S
384.86	1.6	439303	WORD	n/a	wordpools/wordpool_categorized_EN.txt	BATHROOM	Building	6	3	[0, 0, 0]	n/a	catFR1	3	R1626S
386.46	0.934	440905	WORD_OFF	n/a	n/a	BATHROOM	Building	6	3	[0, 0, 0]	n/a	catFR1	3	R1626S
387.394	1.6	441840	WORD	n/a	wordpools/wordpool_categorized_EN.txt	MOUNTAIN	Landscapes	7	3	[0, 0, 0]	n/a	catFR1	3	R1626S
389.01	0.867	443461	WORD_OFF	n/a	n/a	MOUNTAIN	Landscapes	7	3	[0, 0, 0]	n/a	catFR1	3	R1626S
389.877	1.6	444320	WORD	n/a	wordpools/wordpool_categorized_EN.txt	CREEK	Landscapes	8	3	[0, 0, 0]	n/a	catFR1	3	R1626S
391.477	0.949	445922	WORD_OFF	n/a	n/a	CREEK	Landscapes	8	3	[0, 0, 0]	n/a	catFR1	3	R1626S
392.426	1.6	446876	WORD	n/a	wordpools/wordpool_categorized_EN.txt	WHISK	KitchenTools	9	3	[0, 0, 0]	n/a	catFR1	3	R1626S
394.026	0.884	448469	WORD_OFF	n/a	n/a	WHISK	KitchenTools	9	3	[0, 0, 0]	n/a	catFR1	3	R1626S
394.91	1.6	449356	WORD	n/a	wordpools/wordpool_categorized_EN.txt	KNIFE	KitchenTools	10	3	[0, 0, 0]	n/a	catFR1	3	R1626S
396.526	0.834	450968	WORD_OFF	n/a	n/a	KNIFE	KitchenTools	10	3	[0, 0, 0]	n/a	catFR1	3	R1626S
397.36	1.6	451808	WORD	n/a	wordpools/wordpool_categorized_EN.txt	FLOOR	Building	11	3	[0, 0, 0]	n/a	catFR1	3	R1626S
398.977	0.95	453420	WORD_OFF	n/a	n/a	FLOOR	Building	11	3	[0, 0, 0]	n/a	catFR1	3	R1626S
399.927	1.6	454373	WORD	n/a	wordpools/wordpool_categorized_EN.txt	ROOM	Building	12	3	[0, 0, 0]	n/a	catFR1	3	R1626S
401.544	0.0	455985	WORD_OFF	n/a	n/a	ROOM	Building	12	3	[0, 0, 0]	n/a	catFR1	3	R1626S
401.544	0.001	455988	PROB	7.299	n/a	n/a	n/a	-999	3	[8, 5, 7]	20.0	catFR1	3	R1626S
401.545	0.0	455989	START	n/a	n/a	n/a	n/a	-999	3	[-999, -999, -999]	n/a	catFR1	3	R1626S
401.545	0.0	455995	ENCODING_END	n/a	n/a	n/a	n/a	-999	3	[0, 0, 0]	n/a	catFR1	3	R1626S
401.545	7.315	455995	DISTRACT_START	n/a	n/a	n/a	n/a	-999	3	[0, 0, 0]	n/a	catFR1	3	R1626S
408.86	8.151	463303	PROB	8.133	n/a	n/a	n/a	-999	3	[3, 2, 3]	8.0	catFR1	3	R1626S
417.011	5.799	471454	PROB	5.783	n/a	n/a	n/a	-999	3	[4, 2, 6]	12.0	catFR1	3	R1626S
422.81	0.0	477253	STOP	n/a	n/a	n/a	n/a	-999	3	[-999, -999, -999]	n/a	catFR1	3	R1626S
422.81	2.25	477256	DISTRACT_END	n/a	n/a	n/a	n/a	-999	3	[0, 0, 0]	n/a	catFR1	3	R1626S
425.06	13.508	479507	REC_START	n/a	n/a	n/a	n/a	-999	3	[0, 0, 0]	n/a	catFR1	3	R1626S
438.568	16.679	493010	REC_WORD	13.508	n/a	VALLEY	Landscapes	2	3	[0, 0, 0]	n/a	catFR1	3	R1626S
455.247	11.746	509687	REC_END	n/a	n/a	n/a	n/a	-999	3	[0, 0, 0]	n/a	catFR1	3	R1626S
466.993	10.0	521438	COUNTDOWN_START	n/a	n/a	n/a	n/a	-999	4	[0, 0, 0]	n/a	catFR1	3	R1626S
477.343	0.001	531788	COUNTDOWN_END	n/a	n/a	n/a	n/a	-999	4	[0, 0, 0]	n/a	catFR1	3	R1626S
477.344	2.065	531788	ENCODING_START	n/a	n/a	n/a	n/a	-999	4	[0, 0, 0]	n/a	catFR1	3	R1626S
479.409	1.6	533848	WORD	n/a	wordpools/wordpool_categorized_EN.txt	NIGHTSTAND	Furniture	1	4	[0, 0, 0]	n/a	catFR1	3	R1626S
481.025	0.901	535469	WORD_OFF	n/a	n/a	NIGHTSTAND	Furniture	1	4	[0, 0, 0]	n/a	catFR1	3	R1626S
481.926	1.6	536366	WORD	n/a	wordpools/wordpool_categorized_EN.txt	DRESSER	Furniture	2	4	[0, 0, 0]	n/a	catFR1	3	R1626S
483.526	0.766	537968	WORD_OFF	n/a	n/a	DRESSER	Furniture	2	4	[0, 0, 0]	n/a	catFR1	3	R1626S
484.292	1.6	538732	WORD	n/a	wordpools/wordpool_categorized_EN.txt	OCEAN	Landscapes	3	4	[0, 0, 0]	n/a	catFR1	3	R1626S
485.892	0.784	540334	WORD_OFF	n/a	n/a	OCEAN	Landscapes	3	4	[0, 0, 0]	n/a	catFR1	3	R1626S
486.676	1.6	541116	WORD	n/a	wordpools/wordpool_categorized_EN.txt	WOODS	Landscapes	4	4	[0, 0, 0]	n/a	catFR1	3	R1626S
488.277	0.799	542719	WORD_OFF	n/a	n/a	WOODS	Landscapes	4	4	[0, 0, 0]	n/a	catFR1	3	R1626S
489.076	1.6	543520	WORD	n/a	wordpools/wordpool_categorized_EN.txt	TELEVISION	Electronics	5	4	[0, 0, 0]	n/a	catFR1	3	R1626S
490.677	0.816	545122	WORD_OFF	n/a	n/a	TELEVISION	Electronics	5	4	[0, 0, 0]	n/a	catFR1	3	R1626S
491.493	1.6	545933	WORD	n/a	wordpools/wordpool_categorized_EN.txt	SPEAKER	Electronics	6	4	[0, 0, 0]	n/a	catFR1	3	R1626S
493.11	0.833	547555	WORD_OFF	n/a	n/a	SPEAKER	Electronics	6	4	[0, 0, 0]	n/a	catFR1	3	R1626S
493.943	1.6	548384	WORD	n/a	wordpools/wordpool_categorized_EN.txt	CABINET	Furniture	7	4	[0, 0, 0]	n/a	catFR1	3	R1626S
495.543	0.817	549987	WORD_OFF	n/a	n/a	CABINET	Furniture	7	4	[0, 0, 0]	n/a	catFR1	3	R1626S
496.36	1.6	550798	WORD	n/a	wordpools/wordpool_categorized_EN.txt	TABLE	Furniture	8	4	[0, 0, 0]	n/a	catFR1	3	R1626S
497.976	0.866	552419	WORD_OFF	n/a	n/a	TABLE	Furniture	8	4	[0, 0, 0]	n/a	catFR1	3	R1626S
498.842	1.6	553287	WORD	n/a	wordpools/wordpool_categorized_EN.txt	ISLAND	Landscapes	9	4	[0, 0, 0]	n/a	catFR1	3	R1626S
500.442	0.8	554880	WORD_OFF	n/a	n/a	ISLAND	Landscapes	9	4	[0, 0, 0]	n/a	catFR1	3	R1626S
501.242	1.6	555681	WORD	n/a	wordpools/wordpool_categorized_EN.txt	HILLS	Landscapes	10	4	[0, 0, 0]	n/a	catFR1	3	R1626S
502.843	0.933	557284	WORD_OFF	n/a	n/a	HILLS	Landscapes	10	4	[0, 0, 0]	n/a	catFR1	3	R1626S
503.776	1.6	558219	WORD	n/a	wordpools/wordpool_categorized_EN.txt	COMPUTER	Electronics	11	4	[0, 0, 0]	n/a	catFR1	3	R1626S
505.377	0.983	559821	WORD_OFF	n/a	n/a	COMPUTER	Electronics	11	4	[0, 0, 0]	n/a	catFR1	3	R1626S
506.36	1.6	560803	WORD	n/a	wordpools/wordpool_categorized_EN.txt	PRINTER	Electronics	12	4	[0, 0, 0]	n/a	catFR1	3	R1626S
507.96	0.001	562396	WORD_OFF	n/a	n/a	PRINTER	Electronics	12	4	[0, 0, 0]	n/a	catFR1	3	R1626S
507.961	0.0	562400	START	n/a	n/a	n/a	n/a	-999	4	[-999, -999, -999]	n/a	catFR1	3	R1626S
507.961	0.0	562400	PROB	6.599	n/a	n/a	n/a	-999	4	[1, 8, 5]	14.0	catFR1	3	R1626S
507.961	0.0	562406	ENCODING_END	n/a	n/a	n/a	n/a	-999	4	[0, 0, 0]	n/a	catFR1	3	R1626S
507.961	6.615	562406	DISTRACT_START	n/a	n/a	n/a	n/a	-999	4	[0, 0, 0]	n/a	catFR1	3	R1626S
514.576	5.085	569014	PROB	5.067	n/a	n/a	n/a	-999	4	[3, 2, 1]	6.0	catFR1	3	R1626S
519.661	13.815	574099	PROB	13.799	n/a	n/a	n/a	-999	4	[5, 1, 8]	14.0	catFR1	3	R1626S
533.476	0.0	587912	DISTRACT_END	n/a	n/a	n/a	n/a	-999	4	[0, 0, 0]	n/a	catFR1	3	R1626S
533.476	2.084	587914	STOP	n/a	n/a	n/a	n/a	-999	4	[-999, -999, -999]	n/a	catFR1	3	R1626S
535.56	28.515	590001	REC_START	n/a	n/a	n/a	n/a	-999	4	[0, 0, 0]	n/a	catFR1	3	R1626S
564.075	1.664	618511	REC_WORD_VV	28.515	n/a	<>	n/a	-999	4	[0, 0, 0]	n/a	catFR1	3	R1626S
565.739	2.637	620180	REC_END	n/a	n/a	n/a	n/a	-999	4	[0, 0, 0]	n/a	catFR1	3	R1626S
568.376	10.0	622813	COUNTDOWN_START	n/a	n/a	n/a	n/a	-999	5	[0, 0, 0]	n/a	catFR1	3	R1626S
578.727	0.0	633162	COUNTDOWN_END	n/a	n/a	n/a	n/a	-999	5	[0, 0, 0]	n/a	catFR1	3	R1626S
578.727	2.049	633162	ENCODING_START	n/a	n/a	n/a	n/a	-999	5	[0, 0, 0]	n/a	catFR1	3	R1626S
580.776	1.6	635213	WORD	n/a	wordpools/wordpool_categorized_EN.txt	HAWK	Birds	1	5	[0, 0, 0]	n/a	catFR1	3	R1626S
582.376	0.867	636815	WORD_OFF	n/a	n/a	HAWK	Birds	1	5	[0, 0, 0]	n/a	catFR1	3	R1626S
583.243	1.6	637683	WORD	n/a	wordpools/wordpool_categorized_EN.txt	ROBIN	Birds	2	5	[0, 0, 0]	n/a	catFR1	3	R1626S
584.859	0.8	639295	WORD_OFF	n/a	n/a	ROBIN	Birds	2	5	[0, 0, 0]	n/a	catFR1	3	R1626S
585.659	1.6	640097	WORD	n/a	wordpools/wordpool_categorized_EN.txt	PEELER	KitchenTools	3	5	[0, 0, 0]	n/a	catFR1	3	R1626S
587.273	0.886	641709	WORD_OFF	n/a	n/a	PEELER	KitchenTools	3	5	[0, 0, 0]	n/a	catFR1	3	R1626S
588.159	1.6	642596	WORD	n/a	wordpools/wordpool_categorized_EN.txt	STRAINER	KitchenTools	4	5	[0, 0, 0]	n/a	catFR1	3	R1626S
589.776	0.833	644217	WORD_OFF	n/a	n/a	STRAINER	KitchenTools	4	5	[0, 0, 0]	n/a	catFR1	3	R1626S
590.609	1.6	645047	WORD	n/a	wordpools/wordpool_categorized_EN.txt	SPIDER	Insects	5	5	[0, 0, 0]	n/a	catFR1	3	R1626S
592.21	0.867	646650	WORD_OFF	n/a	n/a	SPIDER	Insects	5	5	[0, 0, 0]	n/a	catFR1	3	R1626S
593.077	1.6	647518	WORD	n/a	wordpools/wordpool_categorized_EN.txt	FLY	Insects	6	5	[0, 0, 0]	n/a	catFR1	3	R1626S
594.693	0.783	649130	WORD_OFF	n/a	n/a	FLY	Insects	6	5	[0, 0, 0]	n/a	catFR1	3	R1626S
595.476	1.6	649912	WORD	n/a	wordpools/wordpool_categorized_EN.txt	CARDINAL	Birds	7	5	[0, 0, 0]	n/a	catFR1	3	R1626S
597.093	0.884	651533	WORD_OFF	n/a	n/a	CARDINAL	Birds	7	5	[0, 0, 0]	n/a	catFR1	3	R1626S
597.977	1.6	652411	WORD	n/a	wordpools/wordpool_categorized_EN.txt	BLUEBIRD	Birds	8	5	[0, 0, 0]	n/a	catFR1	3	R1626S
599.593	0.966	654032	WORD_OFF	n/a	n/a	BLUEBIRD	Birds	8	5	[0, 0, 0]	n/a	catFR1	3	R1626S
600.559	1.6	654996	WORD	n/a	wordpools/wordpool_categorized_EN.txt	GRATER	KitchenTools	9	5	[0, 0, 0]	n/a	catFR1	3	R1626S
602.16	0.832	656598	WORD_OFF	n/a	n/a	GRATER	KitchenTools	9	5	[0, 0, 0]	n/a	catFR1	3	R1626S
602.992	1.6	657428	WORD	n/a	wordpools/wordpool_categorized_EN.txt	CORKSCREW	KitchenTools	10	5	[0, 0, 0]	n/a	catFR1	3	R1626S
604.593	0.8	659031	WORD_OFF	n/a	n/a	CORKSCREW	KitchenTools	10	5	[0, 0, 0]	n/a	catFR1	3	R1626S
605.393	1.6	659832	WORD	n/a	wordpools/wordpool_categorized_EN.txt	MOSQUITO	Insects	11	5	[0, 0, 0]	n/a	catFR1	3	R1626S
607.009	0.817	661444	WORD_OFF	n/a	n/a	MOSQUITO	Insects	11	5	[0, 0, 0]	n/a	catFR1	3	R1626S
607.826	1.6	662264	WORD	n/a	wordpools/wordpool_categorized_EN.txt	CRICKET	Insects	12	5	[0, 0, 0]	n/a	catFR1	3	R1626S
609.426	0.002	663860	PROB	6.983	n/a	n/a	n/a	-999	5	[8, 7, 6]	21.0	catFR1	3	R1626S
609.428	0.0	663862	START	n/a	n/a	n/a	n/a	-999	5	[-999, -999, -999]	n/a	catFR1	3	R1626S
609.426	0.001	663866	WORD_OFF	n/a	n/a	CRICKET	Insects	12	5	[0, 0, 0]	n/a	catFR1	3	R1626S
609.427	0.001	663866	ENCODING_END	n/a	n/a	n/a	n/a	-999	5	[0, 0, 0]	n/a	catFR1	3	R1626S
609.428	6.999	663866	DISTRACT_START	n/a	n/a	n/a	n/a	-999	5	[0, 0, 0]	n/a	catFR1	3	R1626S
616.427	7.15	670861	PROB	7.133	n/a	n/a	n/a	-999	5	[5, 2, 3]	10.0	catFR1	3	R1626S
623.577	5.649	678010	PROB	5.633	n/a	n/a	n/a	-999	5	[4, 1, 5]	10.0	catFR1	3	R1626S
629.226	5.1	683659	PROB	5.083	n/a	n/a	n/a	-999	5	[7, 3, 6]	16.0	catFR1	3	R1626S
634.326	0.0	688759	STOP	n/a	n/a	n/a	n/a	-999	5	[-999, -999, -999]	n/a	catFR1	3	R1626S
634.326	2.117	688762	DISTRACT_END	n/a	n/a	n/a	n/a	-999	5	[0, 0, 0]	n/a	catFR1	3	R1626S
636.443	3.954	690879	REC_START	n/a	n/a	n/a	n/a	-999	5	[0, 0, 0]	n/a	catFR1	3	R1626S
640.397	26.229	694830	REC_WORD	3.954	n/a	HAWK	Birds	1	5	[0, 0, 0]	n/a	catFR1	3	R1626S
666.626	4.05	721059	REC_END	n/a	n/a	n/a	n/a	-999	5	[0, 0, 0]	n/a	catFR1	3	R1626S
670.676	10.0	725113	COUNTDOWN_START	n/a	n/a	n/a	n/a	-999	6	[0, 0, 0]	n/a	catFR1	3	R1626S
681.026	0.0	735462	COUNTDOWN_END	n/a	n/a	n/a	n/a	-999	6	[0, 0, 0]	n/a	catFR1	3	R1626S
681.026	2.05	735462	ENCODING_START	n/a	n/a	n/a	n/a	-999	6	[0, 0, 0]	n/a	catFR1	3	R1626S
683.076	1.6	737513	WORD	n/a	wordpools/wordpool_categorized_EN.txt	SCANNER	Electronics	1	6	[0, 0, 0]	n/a	catFR1	3	R1626S
684.676	0.85	739106	WORD_OFF	n/a	n/a	SCANNER	Electronics	1	6	[0, 0, 0]	n/a	catFR1	3	R1626S
685.526	1.6	739955	WORD	n/a	wordpools/wordpool_categorized_EN.txt	PHONE	Electronics	2	6	[0, 0, 0]	n/a	catFR1	3	R1626S
687.142	0.801	741576	WORD_OFF	n/a	n/a	PHONE	Electronics	2	6	[0, 0, 0]	n/a	catFR1	3	R1626S
687.943	1.6	742378	WORD	n/a	wordpools/wordpool_categorized_EN.txt	PLUM	Fruit	3	6	[0, 0, 0]	n/a	catFR1	3	R1626S
689.559	0.832	743990	WORD_OFF	n/a	n/a	PLUM	Fruit	3	6	[0, 0, 0]	n/a	catFR1	3	R1626S
690.391	1.6	744819	WORD	n/a	wordpools/wordpool_categorized_EN.txt	BLUEBERRY	Fruit	4	6	[0, 0, 0]	n/a	catFR1	3	R1626S
692.009	0.983	746441	WORD_OFF	n/a	n/a	BLUEBERRY	Fruit	4	6	[0, 0, 0]	n/a	catFR1	3	R1626S
692.992	1.6	747423	WORD	n/a	wordpools/wordpool_categorized_EN.txt	LEMONADE	Beverages	5	6	[0, 0, 0]	n/a	catFR1	3	R1626S
694.593	0.95	749026	WORD_OFF	n/a	n/a	LEMONADE	Beverages	5	6	[0, 0, 0]	n/a	catFR1	3	R1626S
695.543	1.6	749980	WORD	n/a	wordpools/wordpool_categorized_EN.txt	MILK	Beverages	6	6	[0, 0, 0]	n/a	catFR1	3	R1626S
697.159	0.967	751592	WORD_OFF	n/a	n/a	MILK	Beverages	6	6	[0, 0, 0]	n/a	catFR1	3	R1626S
698.126	1.6	752555	WORD	n/a	wordpools/wordpool_categorized_EN.txt	LIME	Fruit	7	6	[0, 0, 0]	n/a	catFR1	3	R1626S
699.743	0.88	754177	WORD_OFF	n/a	n/a	LIME	Fruit	7	6	[0, 0, 0]	n/a	catFR1	3	R1626S
700.623	1.6	755054	WORD	n/a	wordpools/wordpool_categorized_EN.txt	BANANA	Fruit	8	6	[0, 0, 0]	n/a	catFR1	3	R1626S
702.225	0.851	756657	WORD_OFF	n/a	n/a	BANANA	Fruit	8	6	[0, 0, 0]	n/a	catFR1	3	R1626S
703.076	1.6	757506	WORD	n/a	wordpools/wordpool_categorized_EN.txt	TEA	Beverages	9	6	[0, 0, 0]	n/a	catFR1	3	R1626S
704.676	0.915	759108	WORD_OFF	n/a	n/a	TEA	Beverages	9	6	[0, 0, 0]	n/a	catFR1	3	R1626S
705.591	1.6	760024	WORD	n/a	wordpools/wordpool_categorized_EN.txt	WINE	Beverages	10	6	[0, 0, 0]	n/a	catFR1	3	R1626S
707.193	0.998	761626	WORD_OFF	n/a	n/a	WINE	Beverages	10	6	[0, 0, 0]	n/a	catFR1	3	R1626S
708.191	1.6	762618	WORD	n/a	wordpools/wordpool_categorized_EN.txt	HEADPHONES	Electronics	11	6	[0, 0, 0]	n/a	catFR1	3	R1626S
709.793	0.849	764221	WORD_OFF	n/a	n/a	HEADPHONES	Electronics	11	6	[0, 0, 0]	n/a	catFR1	3	R1626S
710.642	1.6	765070	WORD	n/a	wordpools/wordpool_categorized_EN.txt	RADIO	Electronics	12	6	[0, 0, 0]	n/a	catFR1	3	R1626S
712.242	0.002	766672	WORD_OFF	n/a	n/a	RADIO	Electronics	12	6	[0, 0, 0]	n/a	catFR1	3	R1626S
712.244	0.0	766672	ENCODING_END	n/a	n/a	n/a	n/a	-999	6	[0, 0, 0]	n/a	catFR1	3	R1626S
712.243	0.001	766672	PROB	7.533	n/a	n/a	n/a	-999	6	[7, 6, 1]	14.0	catFR1	3	R1626S
712.244	0.0	766673	START	n/a	n/a	n/a	n/a	-999	6	[-999, -999, -999]	n/a	catFR1	3	R1626S
712.244	7.55	766682	DISTRACT_START	n/a	n/a	n/a	n/a	-999	6	[0, 0, 0]	n/a	catFR1	3	R1626S
719.794	3.764	774223	PROB	3.749	n/a	n/a	n/a	-999	6	[1, 2, 2]	5.0	catFR1	3	R1626S
723.558	7.518	777987	PROB	7.501	n/a	n/a	n/a	-999	6	[6, 2, 5]	13.0	catFR1	3	R1626S
731.076	4.098	785504	PROB	4.081	n/a	n/a	n/a	-999	6	[1, 4, 4]	9.0	catFR1	3	R1626S
735.174	0.0	789602	DISTRACT_END	n/a	n/a	n/a	n/a	-999	6	[0, 0, 0]	n/a	catFR1	3	R1626S
735.174	2.202	789602	STOP	n/a	n/a	n/a	n/a	-999	6	[-999, -999, -999]	n/a	catFR1	3	R1626S
737.376	4.926	791806	REC_START	n/a	n/a	n/a	n/a	-999	6	[0, 0, 0]	n/a	catFR1	3	R1626S
742.302	3.047	796730	REC_WORD	4.926	n/a	TEA	Beverages	9	6	[0, 0, 0]	n/a	catFR1	3	R1626S
745.349	22.208	799777	REC_WORD	7.973	n/a	WINE	Beverages	10	6	[0, 0, 0]	n/a	catFR1	3	R1626S
767.557	1.783	821985	REC_END	n/a	n/a	n/a	n/a	-999	6	[0, 0, 0]	n/a	catFR1	3	R1626S
769.34	10.0	823769	COUNTDOWN_START	n/a	n/a	n/a	n/a	-999	7	[0, 0, 0]	n/a	catFR1	3	R1626S
779.693	0.0	834118	COUNTDOWN_END	n/a	n/a	n/a	n/a	-999	7	[0, 0, 0]	n/a	catFR1	3	R1626S
779.693	2.132	834128	ENCODING_START	n/a	n/a	n/a	n/a	-999	7	[0, 0, 0]	n/a	catFR1	3	R1626S
781.825	1.6	836255	WORD	n/a	wordpools/wordpool_categorized_EN.txt	DESK	Furniture	1	7	[0, 0, 0]	n/a	catFR1	3	R1626S
783.426	0.816	837857	WORD_OFF	n/a	n/a	DESK	Furniture	1	7	[0, 0, 0]	n/a	catFR1	3	R1626S
784.242	1.6	838668	WORD	n/a	wordpools/wordpool_categorized_EN.txt	COUCH	Furniture	2	7	[0, 0, 0]	n/a	catFR1	3	R1626S
785.843	0.783	840271	WORD_OFF	n/a	n/a	COUCH	Furniture	2	7	[0, 0, 0]	n/a	catFR1	3	R1626S
786.626	1.6	841053	WORD	n/a	wordpools/wordpool_categorized_EN.txt	LEATHER	Fabric	3	7	[0, 0, 0]	n/a	catFR1	3	R1626S
788.242	0.784	842674	WORD_OFF	n/a	n/a	LEATHER	Fabric	3	7	[0, 0, 0]	n/a	catFR1	3	R1626S
789.026	1.6	843457	WORD	n/a	wordpools/wordpool_categorized_EN.txt	VELVET	Fabric	4	7	[0, 0, 0]	n/a	catFR1	3	R1626S
790.626	0.833	845049	WORD_OFF	n/a	n/a	VELVET	Fabric	4	7	[0, 0, 0]	n/a	catFR1	3	R1626S
791.459	1.6	845889	WORD	n/a	wordpools/wordpool_categorized_EN.txt	BASEBALL	Toys	5	7	[0, 0, 0]	n/a	catFR1	3	R1626S
793.059	0.765	847491	WORD_OFF	n/a	n/a	BASEBALL	Toys	5	7	[0, 0, 0]	n/a	catFR1	3	R1626S
793.824	1.6	848254	WORD	n/a	wordpools/wordpool_categorized_EN.txt	PUZZLE	Toys	6	7	[0, 0, 0]	n/a	catFR1	3	R1626S
795.441	0.818	849866	WORD_OFF	n/a	n/a	PUZZLE	Toys	6	7	[0, 0, 0]	n/a	catFR1	3	R1626S
796.259	1.6	850687	WORD	n/a	wordpools/wordpool_categorized_EN.txt	BOOKCASE	Furniture	7	7	[0, 0, 0]	n/a	catFR1	3	R1626S
797.876	0.95	852308	WORD_OFF	n/a	n/a	BOOKCASE	Furniture	7	7	[0, 0, 0]	n/a	catFR1	3	R1626S
798.826	1.6	853253	WORD	n/a	wordpools/wordpool_categorized_EN.txt	SOFA	Furniture	8	7	[0, 0, 0]	n/a	catFR1	3	R1626S
800.443	0.95	854874	WORD_OFF	n/a	n/a	SOFA	Furniture	8	7	[0, 0, 0]	n/a	catFR1	3	R1626S
801.393	1.6	855818	WORD	n/a	wordpools/wordpool_categorized_EN.txt	SPANDEX	Fabric	9	7	[0, 0, 0]	n/a	catFR1	3	R1626S
803.008	0.968	857440	WORD_OFF	n/a	n/a	SPANDEX	Fabric	9	7	[0, 0, 0]	n/a	catFR1	3	R1626S
803.976	1.6	858403	WORD	n/a	wordpools/wordpool_categorized_EN.txt	DENIM	Fabric	10	7	[0, 0, 0]	n/a	catFR1	3	R1626S
805.576	0.933	860006	WORD_OFF	n/a	n/a	DENIM	Fabric	10	7	[0, 0, 0]	n/a	catFR1	3	R1626S
806.509	1.6	860941	WORD	n/a	wordpools/wordpool_categorized_EN.txt	FRISBEE	Toys	11	7	[0, 0, 0]	n/a	catFR1	3	R1626S
808.126	0.783	862553	WORD_OFF	n/a	n/a	FRISBEE	Toys	11	7	[0, 0, 0]	n/a	catFR1	3	R1626S
808.909	1.6	863335	WORD	n/a	wordpools/wordpool_categorized_EN.txt	BLOCKS	Toys	12	7	[0, 0, 0]	n/a	catFR1	3	R1626S
810.525	0.001	864950	PROB	6.801	n/a	n/a	n/a	-999	7	[3, 4, 8]	15.0	catFR1	3	R1626S
810.526	0.0	864951	START	n/a	n/a	n/a	n/a	-999	7	[-999, -999, -999]	n/a	catFR1	3	R1626S
810.525	0.001	864956	WORD_OFF	n/a	n/a	BLOCKS	Toys	12	7	[0, 0, 0]	n/a	catFR1	3	R1626S
810.526	0.0	864956	ENCODING_END	n/a	n/a	n/a	n/a	-999	7	[0, 0, 0]	n/a	catFR1	3	R1626S
810.526	6.817	864956	DISTRACT_START	n/a	n/a	n/a	n/a	-999	7	[0, 0, 0]	n/a	catFR1	3	R1626S
817.343	6.899	871768	PROB	6.883	n/a	n/a	n/a	-999	7	[3, 3, 6]	12.0	catFR1	3	R1626S
824.242	4.017	878666	PROB	4.0	n/a	n/a	n/a	-999	7	[2, 1, 1]	4.0	catFR1	3	R1626S
828.259	5.316	882683	PROB	5.3	n/a	n/a	n/a	-999	7	[8, 7, 2]	17.0	catFR1	3	R1626S
833.575	0.0	887999	STOP	n/a	n/a	n/a	n/a	-999	7	[-999, -999, -999]	n/a	catFR1	3	R1626S
833.575	2.267	888001	DISTRACT_END	n/a	n/a	n/a	n/a	-999	7	[0, 0, 0]	n/a	catFR1	3	R1626S
835.842	6.083	890271	REC_START	n/a	n/a	n/a	n/a	-999	7	[0, 0, 0]	n/a	catFR1	3	R1626S
841.925	20.986	896348	REC_WORD	6.083	n/a	BOOKCASE	Furniture	7	7	[0, 0, 0]	n/a	catFR1	3	R1626S
862.911	3.121	917333	REC_WORD_VV	27.069	n/a	<>	n/a	-999	7	[0, 0, 0]	n/a	catFR1	3	R1626S
866.032	15.294	920460	REC_END	n/a	n/a	n/a	n/a	-999	7	[0, 0, 0]	n/a	catFR1	3	R1626S
881.326	10.0	935751	COUNTDOWN_START	n/a	n/a	n/a	n/a	-999	8	[0, 0, 0]	n/a	catFR1	3	R1626S
891.676	0.0	946100	COUNTDOWN_END	n/a	n/a	n/a	n/a	-999	8	[0, 0, 0]	n/a	catFR1	3	R1626S
891.676	2.016	946100	ENCODING_START	n/a	n/a	n/a	n/a	-999	8	[0, 0, 0]	n/a	catFR1	3	R1626S
893.692	1.6	948112	WORD	n/a	wordpools/wordpool_categorized_EN.txt	DUCK	Birds	1	8	[0, 0, 0]	n/a	catFR1	3	R1626S
895.292	0.767	949715	WORD_OFF	n/a	n/a	DUCK	Birds	1	8	[0, 0, 0]	n/a	catFR1	3	R1626S
896.059	1.6	950478	WORD	n/a	wordpools/wordpool_categorized_EN.txt	GOOSE	Birds	2	8	[0, 0, 0]	n/a	catFR1	3	R1626S
897.676	0.999	952100	WORD_OFF	n/a	n/a	GOOSE	Birds	2	8	[0, 0, 0]	n/a	catFR1	3	R1626S
898.675	1.6	953101	WORD	n/a	wordpools/wordpool_categorized_EN.txt	TULIP	Flowers	3	8	[0, 0, 0]	n/a	catFR1	3	R1626S
900.276	0.85	954694	WORD_OFF	n/a	n/a	TULIP	Flowers	3	8	[0, 0, 0]	n/a	catFR1	3	R1626S
901.126	1.6	955552	WORD	n/a	wordpools/wordpool_categorized_EN.txt	VIOLET	Flowers	4	8	[0, 0, 0]	n/a	catFR1	3	R1626S
902.726	0.816	957145	WORD_OFF	n/a	n/a	VIOLET	Flowers	4	8	[0, 0, 0]	n/a	catFR1	3	R1626S
903.542	1.6	957966	WORD	n/a	wordpools/wordpool_categorized_EN.txt	PENCIL	OfficeSupplies	5	8	[0, 0, 0]	n/a	catFR1	3	R1626S
905.158	0.784	959578	WORD_OFF	n/a	n/a	PENCIL	OfficeSupplies	5	8	[0, 0, 0]	n/a	catFR1	3	R1626S
905.942	1.6	960369	WORD	n/a	wordpools/wordpool_categorized_EN.txt	BINDER	OfficeSupplies	6	8	[0, 0, 0]	n/a	catFR1	3	R1626S
907.542	0.866	961962	WORD_OFF	n/a	n/a	BINDER	OfficeSupplies	6	8	[0, 0, 0]	n/a	catFR1	3	R1626S
908.408	1.6	962830	WORD	n/a	wordpools/wordpool_categorized_EN.txt	CARNATION	Flowers	7	8	[0, 0, 0]	n/a	catFR1	3	R1626S
910.009	0.917	964433	WORD_OFF	n/a	n/a	CARNATION	Flowers	7	8	[0, 0, 0]	n/a	catFR1	3	R1626S
910.926	1.6	965348	WORD	n/a	wordpools/wordpool_categorized_EN.txt	LILAC	Flowers	8	8	[0, 0, 0]	n/a	catFR1	3	R1626S
912.526	0.866	966951	WORD_OFF	n/a	n/a	LILAC	Flowers	8	8	[0, 0, 0]	n/a	catFR1	3	R1626S
913.392	1.6	967819	WORD	n/a	wordpools/wordpool_categorized_EN.txt	FOLDER	OfficeSupplies	9	8	[0, 0, 0]	n/a	catFR1	3	R1626S
915.009	0.766	969431	WORD_OFF	n/a	n/a	FOLDER	OfficeSupplies	9	8	[0, 0, 0]	n/a	catFR1	3	R1626S
915.775	1.6	970194	WORD	n/a	wordpools/wordpool_categorized_EN.txt	NOTEBOOK	OfficeSupplies	10	8	[0, 0, 0]	n/a	catFR1	3	R1626S
917.375	0.95	971796	WORD_OFF	n/a	n/a	NOTEBOOK	OfficeSupplies	10	8	[0, 0, 0]	n/a	catFR1	3	R1626S
918.325	1.6	972750	WORD	n/a	wordpools/wordpool_categorized_EN.txt	DOVE	Birds	11	8	[0, 0, 0]	n/a	catFR1	3	R1626S
919.925	0.767	974343	WORD_OFF	n/a	n/a	DOVE	Birds	11	8	[0, 0, 0]	n/a	catFR1	3	R1626S
920.692	1.6	975116	WORD	n/a	wordpools/wordpool_categorized_EN.txt	PIGEON	Birds	12	8	[0, 0, 0]	n/a	catFR1	3	R1626S
922.308	0.001	976728	WORD_OFF	n/a	n/a	PIGEON	Birds	12	8	[0, 0, 0]	n/a	catFR1	3	R1626S
922.309	0.0	976728	ENCODING_END	n/a	n/a	n/a	n/a	-999	8	[0, 0, 0]	n/a	catFR1	3	R1626S
922.309	0.0	976728	DISTRACT_START	n/a	n/a	n/a	n/a	-999	8	[0, 0, 0]	n/a	catFR1	3	R1626S
922.308	0.001	976728	PROB	6.584	n/a	n/a	n/a	-999	8	[7, 2, 3]	12.0	catFR1	3	R1626S
922.309	6.6	976729	START	n/a	n/a	n/a	n/a	-999	8	[-999, -999, -999]	n/a	catFR1	3	R1626S
928.909	5.2	983328	PROB	5.183	n/a	n/a	n/a	-999	8	[6, 4, 6]	16.0	catFR1	3	R1626S
934.109	15.133	988528	PROB	15.116	n/a	n/a	n/a	-999	8	[6, 5, 7]	18.0	catFR1	3	R1626S
949.242	0.0	1003660	STOP	n/a	n/a	n/a	n/a	-999	8	[-999, -999, -999]	n/a	catFR1	3	R1626S
949.242	2.383	1003664	DISTRACT_END	n/a	n/a	n/a	n/a	-999	8	[0, 0, 0]	n/a	catFR1	3	R1626S
951.625	5.619	1006049	REC_START	n/a	n/a	n/a	n/a	-999	8	[0, 0, 0]	n/a	catFR1	3	R1626S
957.244	1.5	1011662	REC_WORD	5.619	n/a	DUCK	Birds	1	8	[0, 0, 0]	n/a	catFR1	3	R1626S
958.744	0.84	1013162	REC_WORD	7.119	n/a	GOOSE	Birds	2	8	[0, 0, 0]	n/a	catFR1	3	R1626S
959.584	3.407	1014002	REC_WORD	7.959	n/a	TULIP	Flowers	3	8	[0, 0, 0]	n/a	catFR1	3	R1626S
962.991	18.801	1017409	REC_WORD	11.366	n/a	CARNATION	Flowers	7	8	[0, 0, 0]	n/a	catFR1	3	R1626S
981.792	2.333	1036210	REC_END	n/a	n/a	n/a	n/a	-999	8	[0, 0, 0]	n/a	catFR1	3	R1626S
984.125	10.0	1038547	COUNTDOWN_START	n/a	n/a	n/a	n/a	-999	9	[0, 0, 0]	n/a	catFR1	3	R1626S
994.475	0.0	1048896	COUNTDOWN_END	n/a	n/a	n/a	n/a	-999	9	[0, 0, 0]	n/a	catFR1	3	R1626S
994.475	2.233	1048896	ENCODING_START	n/a	n/a	n/a	n/a	-999	9	[0, 0, 0]	n/a	catFR1	3	R1626S
996.708	1.6	1051128	WORD	n/a	wordpools/wordpool_categorized_EN.txt	LINEN	Fabric	1	9	[0, 0, 0]	n/a	catFR1	3	R1626S
998.309	0.9	1052730	WORD_OFF	n/a	n/a	LINEN	Fabric	1	9	[0, 0, 0]	n/a	catFR1	3	R1626S
999.209	1.6	1053627	WORD	n/a	wordpools/wordpool_categorized_EN.txt	WOOL	Fabric	2	9	[0, 0, 0]	n/a	catFR1	3	R1626S
1000.809	0.966	1055229	WORD_OFF	n/a	n/a	WOOL	Fabric	2	9	[0, 0, 0]	n/a	catFR1	3	R1626S
1001.775	1.6	1056193	WORD	n/a	wordpools/wordpool_categorized_EN.txt	PIANO	Instruments	3	9	[0, 0, 0]	n/a	catFR1	3	R1626S
1003.392	0.782	1057814	WORD_OFF	n/a	n/a	PIANO	Instruments	3	9	[0, 0, 0]	n/a	catFR1	3	R1626S
1004.174	1.6	1058596	WORD	n/a	wordpools/wordpool_categorized_EN.txt	TRUMPET	Instruments	4	9	[0, 0, 0]	n/a	catFR1	3	R1626S
1005.775	0.983	1060189	WORD_OFF	n/a	n/a	TRUMPET	Instruments	4	9	[0, 0, 0]	n/a	catFR1	3	R1626S
1006.758	1.6	1061172	WORD	n/a	wordpools/wordpool_categorized_EN.txt	CAKE	Desserts	5	9	[0, 0, 0]	n/a	catFR1	3	R1626S
1008.358	0.983	1062774	WORD_OFF	n/a	n/a	CAKE	Desserts	5	9	[0, 0, 0]	n/a	catFR1	3	R1626S
1009.341	1.6	1063757	WORD	n/a	wordpools/wordpool_categorized_EN.txt	PASTRY	Desserts	6	9	[0, 0, 0]	n/a	catFR1	3	R1626S
1010.941	0.867	1065359	WORD_OFF	n/a	n/a	PASTRY	Desserts	6	9	[0, 0, 0]	n/a	catFR1	3	R1626S
1011.808	1.6	1066227	WORD	n/a	wordpools/wordpool_categorized_EN.txt	VIOLIN	Instruments	7	9	[0, 0, 0]	n/a	catFR1	3	R1626S
1013.409	0.8	1067830	WORD_OFF	n/a	n/a	VIOLIN	Instruments	7	9	[0, 0, 0]	n/a	catFR1	3	R1626S
1014.209	1.6	1068631	WORD	n/a	wordpools/wordpool_categorized_EN.txt	ORGAN	Instruments	8	9	[0, 0, 0]	n/a	catFR1	3	R1626S
1015.809	1.0	1070224	WORD_OFF	n/a	n/a	ORGAN	Instruments	8	9	[0, 0, 0]	n/a	catFR1	3	R1626S
1016.809	1.6	1071225	WORD	n/a	wordpools/wordpool_categorized_EN.txt	PIE	Desserts	9	9	[0, 0, 0]	n/a	catFR1	3	R1626S
1018.409	0.983	1072828	WORD_OFF	n/a	n/a	PIE	Desserts	9	9	[0, 0, 0]	n/a	catFR1	3	R1626S
1019.392	1.6	1073810	WORD	n/a	wordpools/wordpool_categorized_EN.txt	CHEESECAKE	Desserts	10	9	[0, 0, 0]	n/a	catFR1	3	R1626S
1021.009	0.782	1075422	WORD_OFF	n/a	n/a	CHEESECAKE	Desserts	10	9	[0, 0, 0]	n/a	catFR1	3	R1626S
1021.791	1.6	1076204	WORD	n/a	wordpools/wordpool_categorized_EN.txt	COTTON	Fabric	11	9	[0, 0, 0]	n/a	catFR1	3	R1626S
1023.392	0.865	1077807	WORD_OFF	n/a	n/a	COTTON	Fabric	11	9	[0, 0, 0]	n/a	catFR1	3	R1626S
1024.257	1.6	1078675	WORD	n/a	wordpools/wordpool_categorized_EN.txt	SILK	Fabric	12	9	[0, 0, 0]	n/a	catFR1	3	R1626S
1025.859	0.0	1080274	START	n/a	n/a	n/a	n/a	-999	9	[-999, -999, -999]	n/a	catFR1	3	R1626S
1025.859	0.0	1080274	PROB	10.367	n/a	n/a	n/a	-999	9	[7, 7, 6]	20.0	catFR1	3	R1626S
1025.858	0.001	1080277	WORD_OFF	n/a	n/a	SILK	Fabric	12	9	[0, 0, 0]	n/a	catFR1	3	R1626S
1025.859	0.0	1080277	ENCODING_END	n/a	n/a	n/a	n/a	-999	9	[0, 0, 0]	n/a	catFR1	3	R1626S
1025.859	10.384	1080277	DISTRACT_START	n/a	n/a	n/a	n/a	-999	9	[0, 0, 0]	n/a	catFR1	3	R1626S
1036.243	5.116	1090657	PROB	5.099	n/a	n/a	n/a	-999	9	[2, 1, 5]	8.0	catFR1	3	R1626S
1041.359	6.865	1095773	PROB	6.85	n/a	n/a	n/a	-999	9	[2, 3, 3]	8.0	catFR1	3	R1626S
1048.224	0.0	1102635	DISTRACT_END	n/a	n/a	n/a	n/a	-999	9	[0, 0, 0]	n/a	catFR1	3	R1626S
1048.224	2.301	1102638	STOP	n/a	n/a	n/a	n/a	-999	9	[-999, -999, -999]	n/a	catFR1	3	R1626S
1050.525	11.409	1104944	REC_START	n/a	n/a	n/a	n/a	-999	9	[0, 0, 0]	n/a	catFR1	3	R1626S
1061.934	4.498	1116347	REC_WORD	11.409	n/a	LINEN	Fabric	1	9	[0, 0, 0]	n/a	catFR1	3	R1626S
1066.432	8.713	1120845	REC_WORD	15.907	n/a	WOOL	Fabric	2	9	[0, 0, 0]	n/a	catFR1	3	R1626S
1075.145	5.568	1129558	REC_WORD	24.62	n/a	CHEESECAKE	Desserts	10	9	[0, 0, 0]	n/a	catFR1	3	R1626S
1080.713	3.395	1135123	REC_END	n/a	n/a	n/a	n/a	-999	9	[0, 0, 0]	n/a	catFR1	3	R1626S
1084.108	10.0	1138519	COUNTDOWN_START	n/a	n/a	n/a	n/a	-999	10	[0, 0, 0]	n/a	catFR1	3	R1626S
1094.458	0.0	1148868	COUNTDOWN_END	n/a	n/a	n/a	n/a	-999	10	[0, 0, 0]	n/a	catFR1	3	R1626S
1094.458	1.984	1148878	ENCODING_START	n/a	n/a	n/a	n/a	-999	10	[0, 0, 0]	n/a	catFR1	3	R1626S
1096.442	1.6	1150852	WORD	n/a	wordpools/wordpool_categorized_EN.txt	BASKETBALL	Toys	1	10	[0, 0, 0]	n/a	catFR1	3	R1626S
1098.058	0.934	1152474	WORD_OFF	n/a	n/a	BASKETBALL	Toys	1	10	[0, 0, 0]	n/a	catFR1	3	R1626S
1098.992	1.6	1153409	WORD	n/a	wordpools/wordpool_categorized_EN.txt	SLINKY	Toys	2	10	[0, 0, 0]	n/a	catFR1	3	R1626S
1100.592	0.766	1155002	WORD_OFF	n/a	n/a	SLINKY	Toys	2	10	[0, 0, 0]	n/a	catFR1	3	R1626S
1101.358	1.6	1155774	WORD	n/a	wordpools/wordpool_categorized_EN.txt	PEAR	Fruit	3	10	[0, 0, 0]	n/a	catFR1	3	R1626S
1102.958	0.784	1157377	WORD_OFF	n/a	n/a	PEAR	Fruit	3	10	[0, 0, 0]	n/a	catFR1	3	R1626S
1103.742	1.6	1158159	WORD	n/a	wordpools/wordpool_categorized_EN.txt	GRAPE	Fruit	4	10	[0, 0, 0]	n/a	catFR1	3	R1626S
1105.341	0.967	1159752	WORD_OFF	n/a	n/a	GRAPE	Fruit	4	10	[0, 0, 0]	n/a	catFR1	3	R1626S
1106.308	1.6	1160725	WORD	n/a	wordpools/wordpool_categorized_EN.txt	MOUSSE	Desserts	5	10	[0, 0, 0]	n/a	catFR1	3	R1626S
1107.909	0.882	1162318	WORD_OFF	n/a	n/a	MOUSSE	Desserts	5	10	[0, 0, 0]	n/a	catFR1	3	R1626S
1108.791	1.6	1163205	WORD	n/a	wordpools/wordpool_categorized_EN.txt	CUPCAKE	Desserts	6	10	[0, 0, 0]	n/a	catFR1	3	R1626S
1110.391	0.967	1164807	WORD_OFF	n/a	n/a	CUPCAKE	Desserts	6	10	[0, 0, 0]	n/a	catFR1	3	R1626S
1111.358	1.6	1165770	WORD	n/a	wordpools/wordpool_categorized_EN.txt	BARBIE	Toys	7	10	[0, 0, 0]	n/a	catFR1	3	R1626S
1112.974	0.934	1167392	WORD_OFF	n/a	n/a	BARBIE	Toys	7	10	[0, 0, 0]	n/a	catFR1	3	R1626S
1113.908	1.6	1168317	WORD	n/a	wordpools/wordpool_categorized_EN.txt	DOLLHOUSE	Toys	8	10	[0, 0, 0]	n/a	catFR1	3	R1626S
1115.525	0.85	1169939	WORD_OFF	n/a	n/a	DOLLHOUSE	Toys	8	10	[0, 0, 0]	n/a	catFR1	3	R1626S
1116.375	1.6	1170788	WORD	n/a	wordpools/wordpool_categorized_EN.txt	LEMON	Fruit	9	10	[0, 0, 0]	n/a	catFR1	3	R1626S
1117.975	0.783	1172390	WORD_OFF	n/a	n/a	LEMON	Fruit	9	10	[0, 0, 0]	n/a	catFR1	3	R1626S
1118.758	1.6	1173172	WORD	n/a	wordpools/wordpool_categorized_EN.txt	CHERRY	Fruit	10	10	[0, 0, 0]	n/a	catFR1	3	R1626S
1120.358	0.917	1174775	WORD_OFF	n/a	n/a	CHERRY	Fruit	10	10	[0, 0, 0]	n/a	catFR1	3	R1626S
1121.275	1.6	1175690	WORD	n/a	wordpools/wordpool_categorized_EN.txt	JELLO	Desserts	11	10	[0, 0, 0]	n/a	catFR1	3	R1626S
1122.875	0.967	1177293	WORD_OFF	n/a	n/a	JELLO	Desserts	11	10	[0, 0, 0]	n/a	catFR1	3	R1626S
1123.842	1.6	1178256	WORD	n/a	wordpools/wordpool_categorized_EN.txt	COBBLER	Desserts	12	10	[0, 0, 0]	n/a	catFR1	3	R1626S
1125.458	0.002	1179868	WORD_OFF	n/a	n/a	COBBLER	Desserts	12	10	[0, 0, 0]	n/a	catFR1	3	R1626S
1125.46	0.0	1179868	ENCODING_END	n/a	n/a	n/a	n/a	-999	10	[0, 0, 0]	n/a	catFR1	3	R1626S
1125.458	0.002	1179868	PROB	17.15	n/a	n/a	n/a	-999	10	[8, 6, 8]	22.0	catFR1	3	R1626S
1125.46	0.0	1179870	START	n/a	n/a	n/a	n/a	-999	10	[-999, -999, -999]	n/a	catFR1	3	R1626S
1125.46	17.166	1179878	DISTRACT_START	n/a	n/a	n/a	n/a	-999	10	[0, 0, 0]	n/a	catFR1	3	R1626S
1142.626	4.366	1197036	PROB	4.349	n/a	n/a	n/a	-999	10	[4, 1, 7]	12.0	catFR1	3	R1626S
1146.992	0.0	1201401	STOP	n/a	n/a	n/a	n/a	-999	10	[-999, -999, -999]	n/a	catFR1	3	R1626S
1146.992	2.266	1201406	DISTRACT_END	n/a	n/a	n/a	n/a	-999	10	[0, 0, 0]	n/a	catFR1	3	R1626S
1149.258	29.596	1203667	REC_START	n/a	n/a	n/a	n/a	-999	10	[0, 0, 0]	n/a	catFR1	3	R1626S
1178.854	0.586	1233262	REC_WORD	29.596	n/a	CHEESECAKE	Desserts	-999	10	[0, 0, 0]	n/a	catFR1	3	R1626S
1179.44	3.768	1233846	REC_END	n/a	n/a	n/a	n/a	-999	10	[0, 0, 0]	n/a	catFR1	3	R1626S
1183.208	10.0	1237614	COUNTDOWN_START	n/a	n/a	n/a	n/a	-999	11	[0, 0, 0]	n/a	catFR1	3	R1626S
1193.558	0.0	1247964	COUNTDOWN_END	n/a	n/a	n/a	n/a	-999	11	[0, 0, 0]	n/a	catFR1	3	R1626S
1193.558	2.15	1247973	ENCODING_START	n/a	n/a	n/a	n/a	-999	11	[0, 0, 0]	n/a	catFR1	3	R1626S
1195.708	1.6	1250119	WORD	n/a	wordpools/wordpool_categorized_EN.txt	MONKEY	Zoo	1	11	[0, 0, 0]	n/a	catFR1	3	R1626S
1197.325	0.816	1251731	WORD_OFF	n/a	n/a	MONKEY	Zoo	1	11	[0, 0, 0]	n/a	catFR1	3	R1626S
1198.141	1.6	1252551	WORD	n/a	wordpools/wordpool_categorized_EN.txt	CHIMPANZEE	Zoo	2	11	[0, 0, 0]	n/a	catFR1	3	R1626S
1199.757	0.784	1254163	WORD_OFF	n/a	n/a	CHIMPANZEE	Zoo	2	11	[0, 0, 0]	n/a	catFR1	3	R1626S
1200.541	1.6	1254946	WORD	n/a	wordpools/wordpool_categorized_EN.txt	BALL	Toys	3	11	[0, 0, 0]	n/a	catFR1	3	R1626S
1202.141	0.835	1256548	WORD_OFF	n/a	n/a	BALL	Toys	3	11	[0, 0, 0]	n/a	catFR1	3	R1626S
1202.976	1.6	1257387	WORD	n/a	wordpools/wordpool_categorized_EN.txt	DOLL	Toys	4	11	[0, 0, 0]	n/a	catFR1	3	R1626S
1204.575	0.766	1258980	WORD_OFF	n/a	n/a	DOLL	Toys	4	11	[0, 0, 0]	n/a	catFR1	3	R1626S
1205.341	1.6	1259753	WORD	n/a	wordpools/wordpool_categorized_EN.txt	LILY	Flowers	5	11	[0, 0, 0]	n/a	catFR1	3	R1626S
1206.941	0.8	1261355	WORD_OFF	n/a	n/a	LILY	Flowers	5	11	[0, 0, 0]	n/a	catFR1	3	R1626S
1207.741	1.6	1262147	WORD	n/a	wordpools/wordpool_categorized_EN.txt	ROSE	Flowers	6	11	[0, 0, 0]	n/a	catFR1	3	R1626S
1209.357	0.901	1263769	WORD_OFF	n/a	n/a	ROSE	Flowers	6	11	[0, 0, 0]	n/a	catFR1	3	R1626S
1210.258	1.6	1264665	WORD	n/a	wordpools/wordpool_categorized_EN.txt	MARBLES	Toys	7	11	[0, 0, 0]	n/a	catFR1	3	R1626S
1211.875	0.95	1266287	WORD_OFF	n/a	n/a	MARBLES	Toys	7	11	[0, 0, 0]	n/a	catFR1	3	R1626S
1212.825	1.6	1267231	WORD	n/a	wordpools/wordpool_categorized_EN.txt	FOOTBALL	Toys	8	11	[0, 0, 0]	n/a	catFR1	3	R1626S
1214.441	0.934	1268853	WORD_OFF	n/a	n/a	FOOTBALL	Toys	8	11	[0, 0, 0]	n/a	catFR1	3	R1626S
1215.375	1.6	1269787	WORD	n/a	wordpools/wordpool_categorized_EN.txt	ELEPHANT	Zoo	9	11	[0, 0, 0]	n/a	catFR1	3	R1626S
1216.976	0.832	1271380	WORD_OFF	n/a	n/a	ELEPHANT	Zoo	9	11	[0, 0, 0]	n/a	catFR1	3	R1626S
1217.808	1.6	1272220	WORD	n/a	wordpools/wordpool_categorized_EN.txt	GIRAFFE	Zoo	10	11	[0, 0, 0]	n/a	catFR1	3	R1626S
1219.425	0.966	1273832	WORD_OFF	n/a	n/a	GIRAFFE	Zoo	10	11	[0, 0, 0]	n/a	catFR1	3	R1626S
1220.391	1.6	1274795	WORD	n/a	wordpools/wordpool_categorized_EN.txt	DAFFODIL	Flowers	11	11	[0, 0, 0]	n/a	catFR1	3	R1626S
1222.007	0.768	1276417	WORD_OFF	n/a	n/a	DAFFODIL	Flowers	11	11	[0, 0, 0]	n/a	catFR1	3	R1626S
1222.775	1.6	1277180	WORD	n/a	wordpools/wordpool_categorized_EN.txt	MARIGOLD	Flowers	12	11	[0, 0, 0]	n/a	catFR1	3	R1626S
1224.375	0.0	1278781	PROB	8.4	n/a	n/a	n/a	-999	11	[7, 1, 4]	12.0	catFR1	3	R1626S
1224.375	0.004	1278782	WORD_OFF	n/a	n/a	MARIGOLD	Flowers	12	11	[0, 0, 0]	n/a	catFR1	3	R1626S
1224.379	0.0	1278785	START	n/a	n/a	n/a	n/a	-999	11	[-999, -999, -999]	n/a	catFR1	3	R1626S
1224.379	0.0	1278792	ENCODING_END	n/a	n/a	n/a	n/a	-999	11	[0, 0, 0]	n/a	catFR1	3	R1626S
1224.379	8.413	1278792	DISTRACT_START	n/a	n/a	n/a	n/a	-999	11	[0, 0, 0]	n/a	catFR1	3	R1626S
1232.792	13.698	1287197	PROB	13.683	n/a	n/a	n/a	-999	11	[6, 7, 4]	17.0	catFR1	3	R1626S
1246.49	0.0	1300895	STOP	n/a	n/a	n/a	n/a	-999	11	[-999, -999, -999]	n/a	catFR1	3	R1626S
1246.49	2.101	1300902	DISTRACT_END	n/a	n/a	n/a	n/a	-999	11	[0, 0, 0]	n/a	catFR1	3	R1626S
1248.591	12.356	1303000	REC_START	n/a	n/a	n/a	n/a	-999	11	[0, 0, 0]	n/a	catFR1	3	R1626S
1260.947	1.654	1315351	REC_WORD	12.356	n/a	LILY	Flowers	5	11	[0, 0, 0]	n/a	catFR1	3	R1626S
1262.601	6.12	1317005	REC_WORD	14.01	n/a	ROSE	Flowers	6	11	[0, 0, 0]	n/a	catFR1	3	R1626S
1268.721	10.054	1323125	REC_WORD	20.13	n/a	DAFFODIL	Flowers	11	11	[0, 0, 0]	n/a	catFR1	3	R1626S
1278.775	2.716	1333180	REC_END	n/a	n/a	n/a	n/a	-999	11	[0, 0, 0]	n/a	catFR1	3	R1626S
1281.491	10.0	1335898	COUNTDOWN_START	n/a	n/a	n/a	n/a	-999	12	[0, 0, 0]	n/a	catFR1	3	R1626S
1291.841	0.0	1346248	COUNTDOWN_END	n/a	n/a	n/a	n/a	-999	12	[0, 0, 0]	n/a	catFR1	3	R1626S
1291.841	1.883	1346248	ENCODING_START	n/a	n/a	n/a	n/a	-999	12	[0, 0, 0]	n/a	catFR1	3	R1626S
1293.724	1.6	1348127	WORD	n/a	wordpools/wordpool_categorized_EN.txt	JUICE	Beverages	1	12	[0, 0, 0]	n/a	catFR1	3	R1626S
1295.325	0.867	1349729	WORD_OFF	n/a	n/a	JUICE	Beverages	1	12	[0, 0, 0]	n/a	catFR1	3	R1626S
1296.192	1.6	1350597	WORD	n/a	wordpools/wordpool_categorized_EN.txt	WATER	Beverages	2	12	[0, 0, 0]	n/a	catFR1	3	R1626S
1297.808	0.967	1352209	WORD_OFF	n/a	n/a	WATER	Beverages	2	12	[0, 0, 0]	n/a	catFR1	3	R1626S
1298.775	1.6	1353182	WORD	n/a	wordpools/wordpool_categorized_EN.txt	IRON	Appliances	3	12	[0, 0, 0]	n/a	catFR1	3	R1626S
1300.391	0.883	1354794	WORD_OFF	n/a	n/a	IRON	Appliances	3	12	[0, 0, 0]	n/a	catFR1	3	R1626S
1301.274	1.6	1355681	WORD	n/a	wordpools/wordpool_categorized_EN.txt	FREEZER	Appliances	4	12	[0, 0, 0]	n/a	catFR1	3	R1626S
1302.874	0.984	1357274	WORD_OFF	n/a	n/a	FREEZER	Appliances	4	12	[0, 0, 0]	n/a	catFR1	3	R1626S
1303.858	1.6	1358266	WORD	n/a	wordpools/wordpool_categorized_EN.txt	ORCHID	Flowers	5	12	[0, 0, 0]	n/a	catFR1	3	R1626S
1305.458	0.983	1359859	WORD_OFF	n/a	n/a	ORCHID	Flowers	5	12	[0, 0, 0]	n/a	catFR1	3	R1626S
1306.441	1.6	1360841	WORD	n/a	wordpools/wordpool_categorized_EN.txt	DAISY	Flowers	6	12	[0, 0, 0]	n/a	catFR1	3	R1626S
1308.058	0.933	1362463	WORD_OFF	n/a	n/a	DAISY	Flowers	6	12	[0, 0, 0]	n/a	catFR1	3	R1626S
1308.991	1.6	1363398	WORD	n/a	wordpools/wordpool_categorized_EN.txt	OVEN	Appliances	7	12	[0, 0, 0]	n/a	catFR1	3	R1626S
1310.591	0.834	1365000	WORD_OFF	n/a	n/a	OVEN	Appliances	7	12	[0, 0, 0]	n/a	catFR1	3	R1626S
1311.425	1.6	1365830	WORD	n/a	wordpools/wordpool_categorized_EN.txt	STOVE	Appliances	8	12	[0, 0, 0]	n/a	catFR1	3	R1626S
1313.041	0.867	1367442	WORD_OFF	n/a	n/a	STOVE	Appliances	8	12	[0, 0, 0]	n/a	catFR1	3	R1626S
1313.908	1.6	1368310	WORD	n/a	wordpools/wordpool_categorized_EN.txt	RUM	Beverages	9	12	[0, 0, 0]	n/a	catFR1	3	R1626S
1315.508	0.916	1369913	WORD_OFF	n/a	n/a	RUM	Beverages	9	12	[0, 0, 0]	n/a	catFR1	3	R1626S
1316.424	1.6	1370828	WORD	n/a	wordpools/wordpool_categorized_EN.txt	COLA	Beverages	10	12	[0, 0, 0]	n/a	catFR1	3	R1626S
1318.041	0.783	1372450	WORD_OFF	n/a	n/a	COLA	Beverages	10	12	[0, 0, 0]	n/a	catFR1	3	R1626S
1318.824	1.6	1373232	WORD	n/a	wordpools/wordpool_categorized_EN.txt	SUNFLOWER	Flowers	11	12	[0, 0, 0]	n/a	catFR1	3	R1626S
1320.424	0.95	1374825	WORD_OFF	n/a	n/a	SUNFLOWER	Flowers	11	12	[0, 0, 0]	n/a	catFR1	3	R1626S
1321.374	1.6	1375779	WORD	n/a	wordpools/wordpool_categorized_EN.txt	PETUNIA	Flowers	12	12	[0, 0, 0]	n/a	catFR1	3	R1626S
1322.975	0.001	1377376	PROB	6.249	n/a	n/a	n/a	-999	12	[8, 3, 7]	18.0	catFR1	3	R1626S
1322.976	0.0	1377377	START	n/a	n/a	n/a	n/a	-999	12	[-999, -999, -999]	n/a	catFR1	3	R1626S
1322.974	0.002	1377381	WORD_OFF	n/a	n/a	PETUNIA	Flowers	12	12	[0, 0, 0]	n/a	catFR1	3	R1626S
1322.976	0.0	1377381	ENCODING_END	n/a	n/a	n/a	n/a	-999	12	[0, 0, 0]	n/a	catFR1	3	R1626S
1322.976	6.265	1377381	DISTRACT_START	n/a	n/a	n/a	n/a	-999	12	[0, 0, 0]	n/a	catFR1	3	R1626S
1329.241	5.65	1383642	PROB	5.633	n/a	n/a	n/a	-999	12	[1, 4, 5]	10.0	catFR1	3	R1626S
1334.891	5.35	1389292	PROB	5.332	n/a	n/a	n/a	-999	12	[5, 8, 7]	20.0	catFR1	3	R1626S
1340.241	4.883	1394642	PROB	4.866	n/a	n/a	n/a	-999	12	[5, 7, 1]	13.0	catFR1	3	R1626S
1345.124	0.0	1399524	STOP	n/a	n/a	n/a	n/a	-999	12	[-999, -999, -999]	n/a	catFR1	3	R1626S
1345.124	2.05	1399529	DISTRACT_END	n/a	n/a	n/a	n/a	-999	12	[0, 0, 0]	n/a	catFR1	3	R1626S
1347.174	5.417	1401580	REC_START	n/a	n/a	n/a	n/a	-999	12	[0, 0, 0]	n/a	catFR1	3	R1626S
1352.591	1.581	1406991	REC_WORD	5.417	n/a	JUICE	Beverages	1	12	[0, 0, 0]	n/a	catFR1	3	R1626S
1354.172	3.635	1408572	REC_WORD	6.998	n/a	WATER	Beverages	2	12	[0, 0, 0]	n/a	catFR1	3	R1626S
1357.807	2.642	1412207	REC_WORD	10.633	n/a	COLA	Beverages	10	12	[0, 0, 0]	n/a	catFR1	3	R1626S
1360.449	16.908	1414849	REC_WORD	13.275	n/a	RUM	Beverages	9	12	[0, 0, 0]	n/a	catFR1	3	R1626S
1377.357	0.0	1431760	REC_END	n/a	n/a	n/a	n/a	-999	12	[0, 0, 0]	n/a	catFR1	3	R1626S
