onset	duration	sample	trial_type	response_time	stim_file	item_name	category	serialpos	list	test	answer	experiment	session	subject
0.0	12.218	197623	INSTRUCT_START	n/a	n/a	n/a	n/a	-999	-999	[0, 0, 0]	n/a	catFR1	7	R1617S
12.218	61.116	209842	INSTRUCT_END	n/a	n/a	n/a	n/a	-999	-999	[0, 0, 0]	n/a	catFR1	7	R1617S
73.334	10.35	270953	COUNTDOWN_START	n/a	n/a	n/a	n/a	-999	-999	[0, 0, 0]	n/a	catFR1	7	R1617S
83.684	0.0	281305	COUNTDOWN_END	n/a	n/a	n/a	n/a	-999	-999	[0, 0, 0]	n/a	catFR1	7	R1617S
83.684	2.316	281305	ENCODING_START	n/a	n/a	n/a	n/a	-999	-1	[0, 0, 0]	n/a	catFR1	7	R1617S
86.0	1.599	283613	WORD	n/a	n/a	COAT	Clothing	1	-1	[0, 0, 0]	n/a	catFR1	7	R1617S
87.599	0.784	285214	WORD_OFF	n/a	n/a	COAT	Clothing	1	-1	[0, 0, 0]	n/a	catFR1	7	R1617S
88.383	1.617	286000	WORD	n/a	n/a	SHOES	Clothing	2	-1	[0, 0, 0]	n/a	catFR1	7	R1617S
90.0	0.817	287620	WORD_OFF	n/a	n/a	SHOES	Clothing	2	-1	[0, 0, 0]	n/a	catFR1	7	R1617S
90.817	1.616	288436	WORD	n/a	n/a	APPLE	Fruit	3	-1	[0, 0, 0]	n/a	catFR1	7	R1617S
92.433	0.966	290046	WORD_OFF	n/a	n/a	APPLE	Fruit	3	-1	[0, 0, 0]	n/a	catFR1	7	R1617S
93.399	1.601	291019	WORD	n/a	n/a	BANANA	Fruit	4	-1	[0, 0, 0]	n/a	catFR1	7	R1617S
95.0	0.766	292620	WORD_OFF	n/a	n/a	BANANA	Fruit	4	-1	[0, 0, 0]	n/a	catFR1	7	R1617S
95.766	1.601	293386	WORD	n/a	n/a	CORN	Vegetables	5	-1	[0, 0, 0]	n/a	catFR1	7	R1617S
97.367	0.783	294987	WORD_OFF	n/a	n/a	CORN	Vegetables	5	-1	[0, 0, 0]	n/a	catFR1	7	R1617S
98.15	1.616	295763	WORD	n/a	n/a	POTATO	Vegetables	6	-1	[0, 0, 0]	n/a	catFR1	7	R1617S
99.766	0.851	297383	WORD_OFF	n/a	n/a	POTATO	Vegetables	6	-1	[0, 0, 0]	n/a	catFR1	7	R1617S
100.617	1.6	298228	WORD	n/a	n/a	SHIRT	Clothing	7	-1	[0, 0, 0]	n/a	catFR1	7	R1617S
102.217	0.833	299829	WORD_OFF	n/a	n/a	SHIRT	Clothing	7	-1	[0, 0, 0]	n/a	catFR1	7	R1617S
103.05	1.617	300664	WORD	n/a	n/a	SOCKS	Clothing	8	-1	[0, 0, 0]	n/a	catFR1	7	R1617S
104.667	0.899	302284	WORD_OFF	n/a	n/a	SOCKS	Clothing	8	-1	[0, 0, 0]	n/a	catFR1	7	R1617S
105.566	1.601	303178	WORD	n/a	n/a	CELERY	Vegetables	9	-1	[0, 0, 0]	n/a	catFR1	7	R1617S
107.167	0.799	304779	WORD_OFF	n/a	n/a	CELERY	Vegetables	9	-1	[0, 0, 0]	n/a	catFR1	7	R1617S
107.966	1.6	305584	WORD	n/a	n/a	ONION	Vegetables	10	-1	[0, 0, 0]	n/a	catFR1	7	R1617S
109.566	0.767	307185	WORD_OFF	n/a	n/a	ONION	Vegetables	10	-1	[0, 0, 0]	n/a	catFR1	7	R1617S
110.333	1.6	307951	WORD	n/a	n/a	PLUM	Fruit	11	-1	[0, 0, 0]	n/a	catFR1	7	R1617S
111.933	0.95	309552	WORD_OFF	n/a	n/a	PLUM	Fruit	11	-1	[0, 0, 0]	n/a	catFR1	7	R1617S
112.883	1.618	310495	WORD	n/a	n/a	PEACH	Fruit	12	-1	[0, 0, 0]	n/a	catFR1	7	R1617S
114.501	0.0	312115	START	n/a	n/a	n/a	n/a	-999	-1	[-999, -999, -999]	n/a	catFR1	7	R1617S
114.501	0.0	312115	PROB	0.0	n/a	n/a	n/a	-999	-1	[8, 8, 3]	19	catFR1	7	R1617S
114.5	0.001	312116	WORD_OFF	n/a	n/a	PEACH	Fruit	12	-1	[0, 0, 0]	n/a	catFR1	7	R1617S
114.501	0.0	312116	ENCODING_END	n/a	n/a	n/a	n/a	-999	-1	[0, 0, 0]	n/a	catFR1	7	R1617S
114.501	7.132	312116	DISTRACT_START	n/a	n/a	n/a	n/a	-999	-1	[0, 0, 0]	n/a	catFR1	7	R1617S
121.633	5.05	319247	PROB	5.05	n/a	n/a	n/a	-999	-1	[2, 4, 3]	9	catFR1	7	R1617S
126.683	7.768	324297	PROB	7.768	n/a	n/a	n/a	-999	-1	[1, 8, 7]	16	catFR1	7	R1617S
134.451	3.915	332064	PROB	3.915	n/a	n/a	n/a	-999	-1	[3, 3, 1]	7	catFR1	7	R1617S
138.366	0.0	335979	STOP	n/a	n/a	n/a	n/a	-999	-1	[-999, -999, -999]	n/a	catFR1	7	R1617S
138.366	1.318	335983	DISTRACT_END	n/a	n/a	n/a	n/a	-999	-1	[0, 0, 0]	n/a	catFR1	7	R1617S
139.684	0.869	337299	REC_START	n/a	n/a	n/a	n/a	-999	-1	[0, 0, 0]	n/a	catFR1	7	R1617S
140.553	0.813	338166	REC_WORD_VV	0.813	n/a	<>	n/a	-999	-1	[0, 0, 0]	n/a	catFR1	7	R1617S
141.366	1.891	338979	REC_WORD	1.891	n/a	PLUM	Fruit	11	-1	[0, 0, 0]	n/a	catFR1	7	R1617S
143.257	1.603	340870	REC_WORD	1.603	n/a	PEACH	Fruit	12	-1	[0, 0, 0]	n/a	catFR1	7	R1617S
144.86	1.459	342473	REC_WORD	1.459	n/a	APPLE	Fruit	3	-1	[0, 0, 0]	n/a	catFR1	7	R1617S
146.319	3.785	343932	REC_WORD	3.785	n/a	SOCKS	Clothing	8	-1	[0, 0, 0]	n/a	catFR1	7	R1617S
150.104	5.181	347717	REC_WORD	5.181	n/a	SHOES	Clothing	2	-1	[0, 0, 0]	n/a	catFR1	7	R1617S
155.285	8.826	352897	REC_WORD	8.826	n/a	PANTS	n/a	-999	-1	[0, 0, 0]	n/a	catFR1	7	R1617S
164.111	4.648	361723	REC_WORD_VV	4.648	n/a	<>	n/a	-999	-1	[0, 0, 0]	n/a	catFR1	7	R1617S
168.759	2.132	366371	REC_WORD_VV	2.132	n/a	<>	n/a	-999	-1	[0, 0, 0]	n/a	catFR1	7	R1617S
170.891	27.226	368503	REC_END	n/a	n/a	n/a	n/a	-999	-1	[0, 0, 0]	n/a	catFR1	7	R1617S
198.117	10.349	395729	COUNTDOWN_START	n/a	n/a	n/a	n/a	-999	1	[0, 0, 0]	n/a	catFR1	7	R1617S
208.466	0.0	406081	COUNTDOWN_END	n/a	n/a	n/a	n/a	-999	1	[0, 0, 0]	n/a	catFR1	7	R1617S
208.466	2.1	406081	ENCODING_START	n/a	n/a	n/a	n/a	-999	1	[0, 0, 0]	n/a	catFR1	7	R1617S
210.566	1.601	408173	WORD	n/a	wordpools/wordpool_categorized_EN.txt	HICKORY	Trees	1	1	[0, 0, 0]	n/a	catFR1	7	R1617S
212.167	0.766	409774	WORD_OFF	n/a	n/a	HICKORY	Trees	1	1	[0, 0, 0]	n/a	catFR1	7	R1617S
212.933	1.616	410540	WORD	n/a	wordpools/wordpool_categorized_EN.txt	MAPLE	Trees	2	1	[0, 0, 0]	n/a	catFR1	7	R1617S
214.549	0.934	412161	WORD_OFF	n/a	n/a	MAPLE	Trees	2	1	[0, 0, 0]	n/a	catFR1	7	R1617S
215.483	1.616	413094	WORD	n/a	wordpools/wordpool_categorized_EN.txt	BLOUSE	Clothing	3	1	[0, 0, 0]	n/a	catFR1	7	R1617S
217.099	0.801	414714	WORD_OFF	n/a	n/a	BLOUSE	Clothing	3	1	[0, 0, 0]	n/a	catFR1	7	R1617S
217.9	1.6	415510	WORD	n/a	wordpools/wordpool_categorized_EN.txt	PANTS	Clothing	4	1	[0, 0, 0]	n/a	catFR1	7	R1617S
219.5	0.866	417111	WORD_OFF	n/a	n/a	PANTS	Clothing	4	1	[0, 0, 0]	n/a	catFR1	7	R1617S
220.366	1.617	417975	WORD	n/a	wordpools/wordpool_categorized_EN.txt	STRAWBERRY	Fruit	5	1	[0, 0, 0]	n/a	catFR1	7	R1617S
221.983	0.766	419596	WORD_OFF	n/a	n/a	STRAWBERRY	Fruit	5	1	[0, 0, 0]	n/a	catFR1	7	R1617S
222.749	1.601	420362	WORD	n/a	wordpools/wordpool_categorized_EN.txt	LIME	Fruit	6	1	[0, 0, 0]	n/a	catFR1	7	R1617S
224.35	0.867	421963	WORD_OFF	n/a	n/a	LIME	Fruit	6	1	[0, 0, 0]	n/a	catFR1	7	R1617S
225.217	1.599	422827	WORD	n/a	wordpools/wordpool_categorized_EN.txt	SHORTS	Clothing	7	1	[0, 0, 0]	n/a	catFR1	7	R1617S
226.816	0.951	424428	WORD_OFF	n/a	n/a	SHORTS	Clothing	7	1	[0, 0, 0]	n/a	catFR1	7	R1617S
227.767	1.6	425381	WORD	n/a	wordpools/wordpool_categorized_EN.txt	DRESS	Clothing	8	1	[0, 0, 0]	n/a	catFR1	7	R1617S
229.367	0.85	426972	WORD_OFF	n/a	n/a	DRESS	Clothing	8	1	[0, 0, 0]	n/a	catFR1	7	R1617S
230.217	1.616	427826	WORD	n/a	wordpools/wordpool_categorized_EN.txt	PEAR	Fruit	9	1	[0, 0, 0]	n/a	catFR1	7	R1617S
231.833	0.766	429447	WORD_OFF	n/a	n/a	PEAR	Fruit	9	1	[0, 0, 0]	n/a	catFR1	7	R1617S
232.599	1.6	430213	WORD	n/a	wordpools/wordpool_categorized_EN.txt	CHERRY	Fruit	10	1	[0, 0, 0]	n/a	catFR1	7	R1617S
234.199	0.851	431804	WORD_OFF	n/a	n/a	CHERRY	Fruit	10	1	[0, 0, 0]	n/a	catFR1	7	R1617S
235.05	1.616	432659	WORD	n/a	wordpools/wordpool_categorized_EN.txt	ELM	Trees	11	1	[0, 0, 0]	n/a	catFR1	7	R1617S
236.666	0.833	434279	WORD_OFF	n/a	n/a	ELM	Trees	11	1	[0, 0, 0]	n/a	catFR1	7	R1617S
237.499	1.6	435104	WORD	n/a	wordpools/wordpool_categorized_EN.txt	SPRUCE	Trees	12	1	[0, 0, 0]	n/a	catFR1	7	R1617S
239.099	0.001	436705	WORD_OFF	n/a	n/a	SPRUCE	Trees	12	1	[0, 0, 0]	n/a	catFR1	7	R1617S
239.1	0.001	436708	PROB	0.001	n/a	n/a	n/a	-999	1	[2, 4, 3]	10	catFR1	7	R1617S
239.101	0.0	436709	START	n/a	n/a	n/a	n/a	-999	1	[-999, -999, -999]	n/a	catFR1	7	R1617S
239.101	0.0	436715	ENCODING_END	n/a	n/a	n/a	n/a	-999	1	[0, 0, 0]	n/a	catFR1	7	R1617S
239.101	6.132	436715	DISTRACT_START	n/a	n/a	n/a	n/a	-999	1	[0, 0, 0]	n/a	catFR1	7	R1617S
245.233	6.417	442841	PROB	6.417	n/a	n/a	n/a	-999	1	[6, 6, 3]	15	catFR1	7	R1617S
251.65	12.6	449258	PROB	12.6	n/a	n/a	n/a	-999	1	[7, 6, 8]	31	catFR1	7	R1617S
264.25	0.0	461857	STOP	n/a	n/a	n/a	n/a	-999	1	[-999, -999, -999]	n/a	catFR1	7	R1617S
264.25	1.015	461859	DISTRACT_END	n/a	n/a	n/a	n/a	-999	1	[0, 0, 0]	n/a	catFR1	7	R1617S
265.265	2.124	462870	REC_START	n/a	n/a	n/a	n/a	-999	1	[0, 0, 0]	n/a	catFR1	7	R1617S
267.389	2.518	464996	REC_WORD_VV	2.518	n/a	<>	n/a	-999	1	[0, 0, 0]	n/a	catFR1	7	R1617S
269.907	1.999	467514	REC_WORD	1.999	n/a	BIRCH	n/a	-999	1	[0, 0, 0]	n/a	catFR1	7	R1617S
271.906	3.079	469513	REC_WORD	3.079	n/a	ELM	Trees	11	1	[0, 0, 0]	n/a	catFR1	7	R1617S
274.985	4.448	472591	REC_WORD	4.448	n/a	PANTS	Clothing	4	1	[0, 0, 0]	n/a	catFR1	7	R1617S
279.433	7.248	477039	REC_WORD	7.248	n/a	BLOUSE	Clothing	3	1	[0, 0, 0]	n/a	catFR1	7	R1617S
286.681	4.694	484287	REC_WORD_VV	4.694	n/a	<>	n/a	-999	1	[0, 0, 0]	n/a	catFR1	7	R1617S
291.375	0.82	488981	REC_WORD_VV	0.82	n/a	<>	n/a	-999	1	[0, 0, 0]	n/a	catFR1	7	R1617S
292.195	4.289	489801	REC_WORD	4.289	n/a	STRAWBERRY	Fruit	5	1	[0, 0, 0]	n/a	catFR1	7	R1617S
296.484	23.649	494094	REC_END	n/a	n/a	n/a	n/a	-999	1	[0, 0, 0]	n/a	catFR1	7	R1617S
320.133	10.35	517735	COUNTDOWN_START	n/a	n/a	n/a	n/a	-999	1	[0, 0, 0]	n/a	catFR1	7	R1617S
330.483	0.0	528087	COUNTDOWN_END	n/a	n/a	n/a	n/a	-999	1	[0, 0, 0]	n/a	catFR1	7	R1617S
330.483	2.067	528087	ENCODING_START	n/a	n/a	n/a	n/a	-999	2	[0, 0, 0]	n/a	catFR1	7	R1617S
332.55	1.6	530159	WORD	n/a	wordpools/wordpool_categorized_EN.txt	THUNDERSTORM	Weather	1	2	[0, 0, 0]	n/a	catFR1	7	R1617S
334.15	0.867	531750	WORD_OFF	n/a	n/a	THUNDERSTORM	Weather	1	2	[0, 0, 0]	n/a	catFR1	7	R1617S
335.017	1.6	532625	WORD	n/a	wordpools/wordpool_categorized_EN.txt	SNOW	Weather	2	2	[0, 0, 0]	n/a	catFR1	7	R1617S
336.617	0.833	534226	WORD_OFF	n/a	n/a	SNOW	Weather	2	2	[0, 0, 0]	n/a	catFR1	7	R1617S
337.45	1.6	535051	WORD	n/a	wordpools/wordpool_categorized_EN.txt	COBBLER	Desserts	3	2	[0, 0, 0]	n/a	catFR1	7	R1617S
339.05	0.982	536652	WORD_OFF	n/a	n/a	COBBLER	Desserts	3	2	[0, 0, 0]	n/a	catFR1	7	R1617S
340.032	1.601	537634	WORD	n/a	wordpools/wordpool_categorized_EN.txt	CAKE	Desserts	4	2	[0, 0, 0]	n/a	catFR1	7	R1617S
341.633	0.983	539235	WORD_OFF	n/a	n/a	CAKE	Desserts	4	2	[0, 0, 0]	n/a	catFR1	7	R1617S
342.616	1.6	540217	WORD	n/a	wordpools/wordpool_categorized_EN.txt	EAR	BodyParts	5	2	[0, 0, 0]	n/a	catFR1	7	R1617S
344.216	0.767	541818	WORD_OFF	n/a	n/a	EAR	BodyParts	5	2	[0, 0, 0]	n/a	catFR1	7	R1617S
344.983	1.617	542584	WORD	n/a	wordpools/wordpool_categorized_EN.txt	NOSE	BodyParts	6	2	[0, 0, 0]	n/a	catFR1	7	R1617S
346.6	0.9	544204	WORD_OFF	n/a	n/a	NOSE	BodyParts	6	2	[0, 0, 0]	n/a	catFR1	7	R1617S
347.5	1.6	545108	WORD	n/a	wordpools/wordpool_categorized_EN.txt	FOG	Weather	7	2	[0, 0, 0]	n/a	catFR1	7	R1617S
349.1	0.933	546699	WORD_OFF	n/a	n/a	FOG	Weather	7	2	[0, 0, 0]	n/a	catFR1	7	R1617S
350.033	1.617	547632	WORD	n/a	wordpools/wordpool_categorized_EN.txt	HUMIDITY	Weather	8	2	[0, 0, 0]	n/a	catFR1	7	R1617S
351.65	0.933	549253	WORD_OFF	n/a	n/a	HUMIDITY	Weather	8	2	[0, 0, 0]	n/a	catFR1	7	R1617S
352.583	1.617	550186	WORD	n/a	wordpools/wordpool_categorized_EN.txt	PIE	Desserts	9	2	[0, 0, 0]	n/a	catFR1	7	R1617S
354.2	0.866	551807	WORD_OFF	n/a	n/a	PIE	Desserts	9	2	[0, 0, 0]	n/a	catFR1	7	R1617S
355.066	1.617	552671	WORD	n/a	wordpools/wordpool_categorized_EN.txt	BROWNIES	Desserts	10	2	[0, 0, 0]	n/a	catFR1	7	R1617S
356.683	0.9	554291	WORD_OFF	n/a	n/a	BROWNIES	Desserts	10	2	[0, 0, 0]	n/a	catFR1	7	R1617S
357.583	1.617	555185	WORD	n/a	wordpools/wordpool_categorized_EN.txt	FINGERS	BodyParts	11	2	[0, 0, 0]	n/a	catFR1	7	R1617S
359.2	0.867	556806	WORD_OFF	n/a	n/a	FINGERS	BodyParts	11	2	[0, 0, 0]	n/a	catFR1	7	R1617S
360.067	1.616	557670	WORD	n/a	wordpools/wordpool_categorized_EN.txt	LEG	BodyParts	12	2	[0, 0, 0]	n/a	catFR1	7	R1617S
361.683	0.0	559281	WORD_OFF	n/a	n/a	LEG	BodyParts	12	2	[0, 0, 0]	n/a	catFR1	7	R1617S
361.683	0.001	559285	PROB	0.001	n/a	n/a	n/a	-999	2	[2, 7, 2]	11	catFR1	7	R1617S
361.684	0.0	559286	START	n/a	n/a	n/a	n/a	-999	2	[-999, -999, -999]	n/a	catFR1	7	R1617S
361.684	0.0	559291	ENCODING_END	n/a	n/a	n/a	n/a	-999	2	[0, 0, 0]	n/a	catFR1	7	R1617S
361.684	3.516	559291	DISTRACT_START	n/a	n/a	n/a	n/a	-999	2	[0, 0, 0]	n/a	catFR1	7	R1617S
365.2	5.351	562802	PROB	5.351	n/a	n/a	n/a	-999	2	[8, 4, 8]	20	catFR1	7	R1617S
370.551	8.066	568153	PROB	8.066	n/a	n/a	n/a	-999	2	[8, 3, 4]	16	catFR1	7	R1617S
378.617	6.399	576218	PROB	6.399	n/a	n/a	n/a	-999	2	[4, 1, 6]	11	catFR1	7	R1617S
385.016	0.0	582617	DISTRACT_END	n/a	n/a	n/a	n/a	-999	2	[0, 0, 0]	n/a	catFR1	7	R1617S
385.016	1.184	582617	STOP	n/a	n/a	n/a	n/a	-999	2	[-999, -999, -999]	n/a	catFR1	7	R1617S
386.2	1.146	583806	REC_START	n/a	n/a	n/a	n/a	-999	2	[0, 0, 0]	n/a	catFR1	7	R1617S
387.346	2.26	584947	REC_WORD	2.26	n/a	THUNDERSTORM	Weather	1	2	[0, 0, 0]	n/a	catFR1	7	R1617S
389.606	3.883	587207	REC_WORD	3.883	n/a	FOG	Weather	7	2	[0, 0, 0]	n/a	catFR1	7	R1617S
393.489	2.428	591090	REC_WORD	2.428	n/a	HUMIDITY	Weather	8	2	[0, 0, 0]	n/a	catFR1	7	R1617S
395.917	5.175	593518	REC_WORD	5.175	n/a	NOSE	BodyParts	6	2	[0, 0, 0]	n/a	catFR1	7	R1617S
401.092	1.259	598692	REC_WORD_VV	1.259	n/a	<>	n/a	-999	2	[0, 0, 0]	n/a	catFR1	7	R1617S
402.351	6.227	599951	REC_WORD_VV	6.227	n/a	<>	n/a	-999	2	[0, 0, 0]	n/a	catFR1	7	R1617S
408.578	5.354	606178	REC_WORD	5.354	n/a	RAIN	n/a	-999	2	[0, 0, 0]	n/a	catFR1	7	R1617S
413.932	3.514	611532	REC_WORD	3.514	n/a	STORM	n/a	-999	2	[0, 0, 0]	n/a	catFR1	7	R1617S
417.446	174.487	615049	REC_END	n/a	n/a	n/a	n/a	-999	2	[0, 0, 0]	n/a	catFR1	7	R1617S
591.933	10.349	789523	COUNTDOWN_START	n/a	n/a	n/a	n/a	-999	2	[0, 0, 0]	n/a	catFR1	7	R1617S
602.282	0.0	799875	COUNTDOWN_END	n/a	n/a	n/a	n/a	-999	2	[0, 0, 0]	n/a	catFR1	7	R1617S
602.282	2.051	799875	ENCODING_START	n/a	n/a	n/a	n/a	-999	3	[0, 0, 0]	n/a	catFR1	7	R1617S
604.333	1.616	801928	WORD	n/a	wordpools/wordpool_categorized_EN.txt	COTTON	Fabric	1	3	[0, 0, 0]	n/a	catFR1	7	R1617S
605.949	0.95	803539	WORD_OFF	n/a	n/a	COTTON	Fabric	1	3	[0, 0, 0]	n/a	catFR1	7	R1617S
606.899	1.601	804491	WORD	n/a	wordpools/wordpool_categorized_EN.txt	VELVET	Fabric	2	3	[0, 0, 0]	n/a	catFR1	7	R1617S
608.5	0.799	806092	WORD_OFF	n/a	n/a	VELVET	Fabric	2	3	[0, 0, 0]	n/a	catFR1	7	R1617S
609.299	1.601	806888	WORD	n/a	wordpools/wordpool_categorized_EN.txt	COFFEE	Beverages	3	3	[0, 0, 0]	n/a	catFR1	7	R1617S
610.9	0.8	808489	WORD_OFF	n/a	n/a	COFFEE	Beverages	3	3	[0, 0, 0]	n/a	catFR1	7	R1617S
611.7	1.6	809294	WORD	n/a	wordpools/wordpool_categorized_EN.txt	WATER	Beverages	4	3	[0, 0, 0]	n/a	catFR1	7	R1617S
613.3	0.782	810895	WORD_OFF	n/a	n/a	WATER	Beverages	4	3	[0, 0, 0]	n/a	catFR1	7	R1617S
614.082	1.601	811671	WORD	n/a	wordpools/wordpool_categorized_EN.txt	KNEE	BodyParts	5	3	[0, 0, 0]	n/a	catFR1	7	R1617S
615.683	0.784	813272	WORD_OFF	n/a	n/a	KNEE	BodyParts	5	3	[0, 0, 0]	n/a	catFR1	7	R1617S
616.467	1.6	814058	WORD	n/a	wordpools/wordpool_categorized_EN.txt	HAND	BodyParts	6	3	[0, 0, 0]	n/a	catFR1	7	R1617S
618.067	0.866	815659	WORD_OFF	n/a	n/a	HAND	BodyParts	6	3	[0, 0, 0]	n/a	catFR1	7	R1617S
618.933	1.616	816523	WORD	n/a	wordpools/wordpool_categorized_EN.txt	CIDER	Beverages	7	3	[0, 0, 0]	n/a	catFR1	7	R1617S
620.549	0.934	818144	WORD_OFF	n/a	n/a	CIDER	Beverages	7	3	[0, 0, 0]	n/a	catFR1	7	R1617S
621.483	1.6	819077	WORD	n/a	wordpools/wordpool_categorized_EN.txt	MILK	Beverages	8	3	[0, 0, 0]	n/a	catFR1	7	R1617S
623.083	0.917	820678	WORD_OFF	n/a	n/a	MILK	Beverages	8	3	[0, 0, 0]	n/a	catFR1	7	R1617S
624.0	1.616	821591	WORD	n/a	wordpools/wordpool_categorized_EN.txt	EYE	BodyParts	9	3	[0, 0, 0]	n/a	catFR1	7	R1617S
625.616	0.867	823202	WORD_OFF	n/a	n/a	EYE	BodyParts	9	3	[0, 0, 0]	n/a	catFR1	7	R1617S
626.483	1.6	824076	WORD	n/a	wordpools/wordpool_categorized_EN.txt	ARM	BodyParts	10	3	[0, 0, 0]	n/a	catFR1	7	R1617S
628.083	1.0	825677	WORD_OFF	n/a	n/a	ARM	BodyParts	10	3	[0, 0, 0]	n/a	catFR1	7	R1617S
629.083	1.6	826669	WORD	n/a	wordpools/wordpool_categorized_EN.txt	LEATHER	Fabric	11	3	[0, 0, 0]	n/a	catFR1	7	R1617S
630.683	1.001	828270	WORD_OFF	n/a	n/a	LEATHER	Fabric	11	3	[0, 0, 0]	n/a	catFR1	7	R1617S
631.684	1.617	829272	WORD	n/a	wordpools/wordpool_categorized_EN.txt	SUEDE	Fabric	12	3	[0, 0, 0]	n/a	catFR1	7	R1617S
633.301	0.001	830890	PROB	0.001	n/a	n/a	n/a	-999	3	[4, 2, 7]	13	catFR1	7	R1617S
633.302	0.0	830891	START	n/a	n/a	n/a	n/a	-999	3	[-999, -999, -999]	n/a	catFR1	7	R1617S
633.3	0.002	830892	WORD_OFF	n/a	n/a	SUEDE	Fabric	12	3	[0, 0, 0]	n/a	catFR1	7	R1617S
633.302	0.0	830892	ENCODING_END	n/a	n/a	n/a	n/a	-999	3	[0, 0, 0]	n/a	catFR1	7	R1617S
633.302	5.531	830892	DISTRACT_START	n/a	n/a	n/a	n/a	-999	3	[0, 0, 0]	n/a	catFR1	7	R1617S
638.833	6.718	836422	PROB	6.718	n/a	n/a	n/a	-999	3	[4, 1, 2]	7	catFR1	7	R1617S
645.551	7.366	843140	PROB	7.366	n/a	n/a	n/a	-999	3	[4, 8, 8]	20	catFR1	7	R1617S
652.917	8.316	850505	PROB	8.316	n/a	n/a	n/a	-999	3	[7, 8, 1]	16	catFR1	7	R1617S
661.233	0.0	858821	STOP	n/a	n/a	n/a	n/a	-999	3	[-999, -999, -999]	n/a	catFR1	7	R1617S
661.233	1.15	858825	DISTRACT_END	n/a	n/a	n/a	n/a	-999	3	[0, 0, 0]	n/a	catFR1	7	R1617S
662.383	0.505	859975	REC_START	n/a	n/a	n/a	n/a	-999	3	[0, 0, 0]	n/a	catFR1	7	R1617S
662.888	0.664	860476	REC_WORD_VV	0.664	n/a	<>	n/a	-999	3	[0, 0, 0]	n/a	catFR1	7	R1617S
663.552	1.099	861140	REC_WORD	1.099	n/a	COTTON	Fabric	1	3	[0, 0, 0]	n/a	catFR1	7	R1617S
664.651	1.752	862239	REC_WORD	1.752	n/a	SUEDE	Fabric	12	3	[0, 0, 0]	n/a	catFR1	7	R1617S
666.403	1.875	863991	REC_WORD	1.875	n/a	VELVET	Fabric	2	3	[0, 0, 0]	n/a	catFR1	7	R1617S
668.278	5.97	865865	REC_WORD_VV	5.97	n/a	<>	n/a	-999	3	[0, 0, 0]	n/a	catFR1	7	R1617S
674.248	0.541	871835	REC_WORD_VV	0.541	n/a	<>	n/a	-999	3	[0, 0, 0]	n/a	catFR1	7	R1617S
674.789	0.607	872376	REC_WORD	0.607	n/a	SUEDE	Fabric	12	3	[0, 0, 0]	n/a	catFR1	7	R1617S
675.396	5.364	872983	REC_WORD	5.364	n/a	VELVET	Fabric	2	3	[0, 0, 0]	n/a	catFR1	7	R1617S
680.76	12.851	878347	REC_WORD	12.851	n/a	LEATHER	Fabric	11	3	[0, 0, 0]	n/a	catFR1	7	R1617S
693.611	27.039	891198	REC_END	n/a	n/a	n/a	n/a	-999	3	[0, 0, 0]	n/a	catFR1	7	R1617S
720.65	10.349	918237	COUNTDOWN_START	n/a	n/a	n/a	n/a	-999	3	[0, 0, 0]	n/a	catFR1	7	R1617S
730.999	0.0	928589	COUNTDOWN_END	n/a	n/a	n/a	n/a	-999	3	[0, 0, 0]	n/a	catFR1	7	R1617S
730.999	2.034	928589	ENCODING_START	n/a	n/a	n/a	n/a	-999	4	[0, 0, 0]	n/a	catFR1	7	R1617S
733.033	1.6	930623	WORD	n/a	wordpools/wordpool_categorized_EN.txt	ORCHID	Flowers	1	4	[0, 0, 0]	n/a	catFR1	7	R1617S
734.633	0.767	932214	WORD_OFF	n/a	n/a	ORCHID	Flowers	1	4	[0, 0, 0]	n/a	catFR1	7	R1617S
735.4	1.617	932990	WORD	n/a	wordpools/wordpool_categorized_EN.txt	DAISY	Flowers	2	4	[0, 0, 0]	n/a	catFR1	7	R1617S
737.017	0.915	934600	WORD_OFF	n/a	n/a	DAISY	Flowers	2	4	[0, 0, 0]	n/a	catFR1	7	R1617S
737.932	1.615	935514	WORD	n/a	wordpools/wordpool_categorized_EN.txt	SPATULA	KitchenTools	3	4	[0, 0, 0]	n/a	catFR1	7	R1617S
739.547	0.785	937134	WORD_OFF	n/a	n/a	SPATULA	KitchenTools	3	4	[0, 0, 0]	n/a	catFR1	7	R1617S
740.332	1.601	937920	WORD	n/a	wordpools/wordpool_categorized_EN.txt	GRATER	KitchenTools	4	4	[0, 0, 0]	n/a	catFR1	7	R1617S
741.933	0.983	939521	WORD_OFF	n/a	n/a	GRATER	KitchenTools	4	4	[0, 0, 0]	n/a	catFR1	7	R1617S
742.916	1.601	940503	WORD	n/a	wordpools/wordpool_categorized_EN.txt	LEVEL	Tools	5	4	[0, 0, 0]	n/a	catFR1	7	R1617S
744.517	0.866	942104	WORD_OFF	n/a	n/a	LEVEL	Tools	5	4	[0, 0, 0]	n/a	catFR1	7	R1617S
745.383	1.6	942969	WORD	n/a	wordpools/wordpool_categorized_EN.txt	DRILL	Tools	6	4	[0, 0, 0]	n/a	catFR1	7	R1617S
746.983	0.784	944570	WORD_OFF	n/a	n/a	DRILL	Tools	6	4	[0, 0, 0]	n/a	catFR1	7	R1617S
747.767	1.616	945355	WORD	n/a	wordpools/wordpool_categorized_EN.txt	TONGS	KitchenTools	7	4	[0, 0, 0]	n/a	catFR1	7	R1617S
749.383	0.9	946966	WORD_OFF	n/a	n/a	TONGS	KitchenTools	7	4	[0, 0, 0]	n/a	catFR1	7	R1617S
750.283	1.6	947870	WORD	n/a	wordpools/wordpool_categorized_EN.txt	CORKSCREW	KitchenTools	8	4	[0, 0, 0]	n/a	catFR1	7	R1617S
751.883	0.916	949471	WORD_OFF	n/a	n/a	CORKSCREW	KitchenTools	8	4	[0, 0, 0]	n/a	catFR1	7	R1617S
752.799	1.601	950384	WORD	n/a	wordpools/wordpool_categorized_EN.txt	RATCHET	Tools	9	4	[0, 0, 0]	n/a	catFR1	7	R1617S
754.4	0.883	951985	WORD_OFF	n/a	n/a	RATCHET	Tools	9	4	[0, 0, 0]	n/a	catFR1	7	R1617S
755.283	1.6	952869	WORD	n/a	wordpools/wordpool_categorized_EN.txt	SHOVEL	Tools	10	4	[0, 0, 0]	n/a	catFR1	7	R1617S
756.883	0.95	954470	WORD_OFF	n/a	n/a	SHOVEL	Tools	10	4	[0, 0, 0]	n/a	catFR1	7	R1617S
757.833	1.6	955413	WORD	n/a	wordpools/wordpool_categorized_EN.txt	TULIP	Flowers	11	4	[0, 0, 0]	n/a	catFR1	7	R1617S
759.433	0.833	957014	WORD_OFF	n/a	n/a	TULIP	Flowers	11	4	[0, 0, 0]	n/a	catFR1	7	R1617S
760.266	1.6	957849	WORD	n/a	wordpools/wordpool_categorized_EN.txt	CARNATION	Flowers	12	4	[0, 0, 0]	n/a	catFR1	7	R1617S
761.866	0.004	959450	WORD_OFF	n/a	n/a	CARNATION	Flowers	12	4	[0, 0, 0]	n/a	catFR1	7	R1617S
761.87	0.0	959450	ENCODING_END	n/a	n/a	n/a	n/a	-999	4	[0, 0, 0]	n/a	catFR1	7	R1617S
761.867	0.003	959450	PROB	0.003	n/a	n/a	n/a	-999	4	[7, 7, 4]	21	catFR1	7	R1617S
761.87	0.0	959453	START	n/a	n/a	n/a	n/a	-999	4	[-999, -999, -999]	n/a	catFR1	7	R1617S
761.87	4.23	959459	DISTRACT_START	n/a	n/a	n/a	n/a	-999	4	[0, 0, 0]	n/a	catFR1	7	R1617S
766.1	4.317	963683	PROB	4.317	n/a	n/a	n/a	-999	4	[6, 3, 2]	11	catFR1	7	R1617S
770.417	6.55	967999	PROB	6.55	n/a	n/a	n/a	-999	4	[8, 7, 7]	22	catFR1	7	R1617S
776.967	6.482	974549	PROB	6.482	n/a	n/a	n/a	-999	4	[7, 4, 6]	17	catFR1	7	R1617S
783.449	0.0	981028	DISTRACT_END	n/a	n/a	n/a	n/a	-999	4	[0, 0, 0]	n/a	catFR1	7	R1617S
783.449	1.184	981031	STOP	n/a	n/a	n/a	n/a	-999	4	[-999, -999, -999]	n/a	catFR1	7	R1617S
784.633	2.046	982216	REC_START	n/a	n/a	n/a	n/a	-999	4	[0, 0, 0]	n/a	catFR1	7	R1617S
786.679	1.135	984261	REC_WORD_VV	1.135	n/a	<>	n/a	-999	4	[0, 0, 0]	n/a	catFR1	7	R1617S
787.814	1.285	985396	REC_WORD	1.285	n/a	RATCHET	Tools	9	4	[0, 0, 0]	n/a	catFR1	7	R1617S
789.099	3.433	986681	REC_WORD	3.433	n/a	CORKSCREW	KitchenTools	8	4	[0, 0, 0]	n/a	catFR1	7	R1617S
792.532	4.247	990113	REC_WORD_VV	4.247	n/a	<>	n/a	-999	4	[0, 0, 0]	n/a	catFR1	7	R1617S
796.779	3.792	994360	REC_WORD_VV	3.792	n/a	<>	n/a	-999	4	[0, 0, 0]	n/a	catFR1	7	R1617S
800.571	3.525	998152	REC_WORD	3.525	n/a	TULIP	Flowers	11	4	[0, 0, 0]	n/a	catFR1	7	R1617S
804.096	4.659	1001677	REC_WORD_VV	4.659	n/a	<>	n/a	-999	4	[0, 0, 0]	n/a	catFR1	7	R1617S
808.755	1.162	1006336	REC_WORD_VV	1.162	n/a	<>	n/a	-999	4	[0, 0, 0]	n/a	catFR1	7	R1617S
809.917	3.932	1007498	REC_WORD	3.932	n/a	LEVEL	Tools	5	4	[0, 0, 0]	n/a	catFR1	7	R1617S
813.849	2.036	1011429	REC_WORD_VV	2.036	n/a	<>	n/a	-999	4	[0, 0, 0]	n/a	catFR1	7	R1617S
815.885	22.882	1013469	REC_END	n/a	n/a	n/a	n/a	-999	4	[0, 0, 0]	n/a	catFR1	7	R1617S
838.767	10.349	1036354	COUNTDOWN_START	n/a	n/a	n/a	n/a	-999	4	[0, 0, 0]	n/a	catFR1	7	R1617S
849.116	0.0	1046696	COUNTDOWN_END	n/a	n/a	n/a	n/a	-999	4	[0, 0, 0]	n/a	catFR1	7	R1617S
849.116	2.333	1046696	ENCODING_START	n/a	n/a	n/a	n/a	-999	5	[0, 0, 0]	n/a	catFR1	7	R1617S
851.449	1.6	1049024	WORD	n/a	wordpools/wordpool_categorized_EN.txt	TABLE	Furniture	1	5	[0, 0, 0]	n/a	catFR1	7	R1617S
853.049	0.983	1050625	WORD_OFF	n/a	n/a	TABLE	Furniture	1	5	[0, 0, 0]	n/a	catFR1	7	R1617S
854.032	1.601	1051607	WORD	n/a	wordpools/wordpool_categorized_EN.txt	COUCH	Furniture	2	5	[0, 0, 0]	n/a	catFR1	7	R1617S
855.633	0.85	1053208	WORD_OFF	n/a	n/a	COUCH	Furniture	2	5	[0, 0, 0]	n/a	catFR1	7	R1617S
856.483	1.617	1054072	WORD	n/a	wordpools/wordpool_categorized_EN.txt	SPINACH	Vegetables	3	5	[0, 0, 0]	n/a	catFR1	7	R1617S
858.1	0.898	1055683	WORD_OFF	n/a	n/a	SPINACH	Vegetables	3	5	[0, 0, 0]	n/a	catFR1	7	R1617S
858.998	1.602	1056577	WORD	n/a	wordpools/wordpool_categorized_EN.txt	LETTUCE	Vegetables	4	5	[0, 0, 0]	n/a	catFR1	7	R1617S
860.6	0.933	1058178	WORD_OFF	n/a	n/a	LETTUCE	Vegetables	4	5	[0, 0, 0]	n/a	catFR1	7	R1617S
861.533	1.6	1059111	WORD	n/a	wordpools/wordpool_categorized_EN.txt	GLUE	OfficeSupplies	5	5	[0, 0, 0]	n/a	catFR1	7	R1617S
863.133	0.9	1060712	WORD_OFF	n/a	n/a	GLUE	OfficeSupplies	5	5	[0, 0, 0]	n/a	catFR1	7	R1617S
864.033	1.617	1061616	WORD	n/a	wordpools/wordpool_categorized_EN.txt	MARKER	OfficeSupplies	6	5	[0, 0, 0]	n/a	catFR1	7	R1617S
865.65	0.833	1063226	WORD_OFF	n/a	n/a	MARKER	OfficeSupplies	6	5	[0, 0, 0]	n/a	catFR1	7	R1617S
866.483	1.601	1064061	WORD	n/a	wordpools/wordpool_categorized_EN.txt	CARROT	Vegetables	7	5	[0, 0, 0]	n/a	catFR1	7	R1617S
868.084	0.898	1065662	WORD_OFF	n/a	n/a	CARROT	Vegetables	7	5	[0, 0, 0]	n/a	catFR1	7	R1617S
868.982	1.6	1066556	WORD	n/a	wordpools/wordpool_categorized_EN.txt	BROCCOLI	Vegetables	8	5	[0, 0, 0]	n/a	catFR1	7	R1617S
870.582	1.001	1068157	WORD_OFF	n/a	n/a	BROCCOLI	Vegetables	8	5	[0, 0, 0]	n/a	catFR1	7	R1617S
871.583	1.6	1069159	WORD	n/a	wordpools/wordpool_categorized_EN.txt	NOTEBOOK	OfficeSupplies	9	5	[0, 0, 0]	n/a	catFR1	7	R1617S
873.183	0.817	1070760	WORD_OFF	n/a	n/a	NOTEBOOK	OfficeSupplies	9	5	[0, 0, 0]	n/a	catFR1	7	R1617S
874.0	1.6	1071575	WORD	n/a	wordpools/wordpool_categorized_EN.txt	STAPLER	OfficeSupplies	10	5	[0, 0, 0]	n/a	catFR1	7	R1617S
875.6	0.883	1073176	WORD_OFF	n/a	n/a	STAPLER	OfficeSupplies	10	5	[0, 0, 0]	n/a	catFR1	7	R1617S
876.483	1.6	1074060	WORD	n/a	wordpools/wordpool_categorized_EN.txt	CABINET	Furniture	11	5	[0, 0, 0]	n/a	catFR1	7	R1617S
878.083	0.8	1075661	WORD_OFF	n/a	n/a	CABINET	Furniture	11	5	[0, 0, 0]	n/a	catFR1	7	R1617S
878.883	1.617	1076466	WORD	n/a	wordpools/wordpool_categorized_EN.txt	DRESSER	Furniture	12	5	[0, 0, 0]	n/a	catFR1	7	R1617S
880.5	0.001	1078077	WORD_OFF	n/a	n/a	DRESSER	Furniture	12	5	[0, 0, 0]	n/a	catFR1	7	R1617S
880.501	0.0	1078077	ENCODING_END	n/a	n/a	n/a	n/a	-999	5	[0, 0, 0]	n/a	catFR1	7	R1617S
880.501	0.0	1078077	DISTRACT_START	n/a	n/a	n/a	n/a	-999	5	[0, 0, 0]	n/a	catFR1	7	R1617S
880.501	0.0	1078078	START	n/a	n/a	n/a	n/a	-999	5	[-999, -999, -999]	n/a	catFR1	7	R1617S
880.501	7.35	1078078	PROB	7.35	n/a	n/a	n/a	-999	5	[6, 4, 5]	15	catFR1	7	R1617S
887.851	4.917	1085428	PROB	4.917	n/a	n/a	n/a	-999	5	[4, 7, 7]	21	catFR1	7	R1617S
892.768	6.332	1090345	PROB	6.332	n/a	n/a	n/a	-999	5	[8, 7, 5]	22	catFR1	7	R1617S
899.1	6.917	1096676	PROB	6.917	n/a	n/a	n/a	-999	5	[3, 5, 1]	9	catFR1	7	R1617S
906.017	0.0	1103593	STOP	n/a	n/a	n/a	n/a	-999	5	[-999, -999, -999]	n/a	catFR1	7	R1617S
906.017	1.133	1103594	DISTRACT_END	n/a	n/a	n/a	n/a	-999	5	[0, 0, 0]	n/a	catFR1	7	R1617S
907.15	0.45	1104723	REC_START	n/a	n/a	n/a	n/a	-999	5	[0, 0, 0]	n/a	catFR1	7	R1617S
907.6	3.085	1105176	REC_WORD_VV	3.085	n/a	<>	n/a	-999	5	[0, 0, 0]	n/a	catFR1	7	R1617S
910.685	0.629	1108261	REC_WORD_VV	0.629	n/a	<>	n/a	-999	5	[0, 0, 0]	n/a	catFR1	7	R1617S
911.314	0.952	1108890	REC_WORD_VV	0.952	n/a	<>	n/a	-999	5	[0, 0, 0]	n/a	catFR1	7	R1617S
912.266	0.905	1109842	REC_WORD_VV	0.905	n/a	<>	n/a	-999	5	[0, 0, 0]	n/a	catFR1	7	R1617S
913.171	3.946	1110747	REC_WORD_VV	3.946	n/a	<>	n/a	-999	5	[0, 0, 0]	n/a	catFR1	7	R1617S
917.117	5.827	1114692	REC_WORD_VV	5.827	n/a	<>	n/a	-999	5	[0, 0, 0]	n/a	catFR1	7	R1617S
922.944	2.91	1120519	REC_WORD_VV	2.91	n/a	<>	n/a	-999	5	[0, 0, 0]	n/a	catFR1	7	R1617S
925.854	5.973	1123429	REC_WORD	5.973	n/a	WORKER	n/a	-999	5	[0, 0, 0]	n/a	catFR1	7	R1617S
931.827	6.54	1129402	REC_WORD	6.54	n/a	TOOL	n/a	-999	5	[0, 0, 0]	n/a	catFR1	7	R1617S
938.367	27.916	1135947	REC_END	n/a	n/a	n/a	n/a	-999	5	[0, 0, 0]	n/a	catFR1	7	R1617S
966.283	10.351	1163860	COUNTDOWN_START	n/a	n/a	n/a	n/a	-999	5	[0, 0, 0]	n/a	catFR1	7	R1617S
976.634	0.0	1174212	COUNTDOWN_END	n/a	n/a	n/a	n/a	-999	5	[0, 0, 0]	n/a	catFR1	7	R1617S
976.634	1.982	1174212	ENCODING_START	n/a	n/a	n/a	n/a	-999	6	[0, 0, 0]	n/a	catFR1	7	R1617S
978.616	1.6	1176187	WORD	n/a	wordpools/wordpool_categorized_EN.txt	BEACH	Landscapes	1	6	[0, 0, 0]	n/a	catFR1	7	R1617S
980.216	0.784	1177788	WORD_OFF	n/a	n/a	BEACH	Landscapes	1	6	[0, 0, 0]	n/a	catFR1	7	R1617S
981.0	1.616	1178573	WORD	n/a	wordpools/wordpool_categorized_EN.txt	FOREST	Landscapes	2	6	[0, 0, 0]	n/a	catFR1	7	R1617S
982.616	0.85	1180194	WORD_OFF	n/a	n/a	FOREST	Landscapes	2	6	[0, 0, 0]	n/a	catFR1	7	R1617S
983.466	1.601	1181039	WORD	n/a	wordpools/wordpool_categorized_EN.txt	FREEZER	Appliances	3	6	[0, 0, 0]	n/a	catFR1	7	R1617S
985.067	0.883	1182640	WORD_OFF	n/a	n/a	FREEZER	Appliances	3	6	[0, 0, 0]	n/a	catFR1	7	R1617S
985.95	1.6	1183524	WORD	n/a	wordpools/wordpool_categorized_EN.txt	BLENDER	Appliances	4	6	[0, 0, 0]	n/a	catFR1	7	R1617S
987.55	0.916	1185124	WORD_OFF	n/a	n/a	BLENDER	Appliances	4	6	[0, 0, 0]	n/a	catFR1	7	R1617S
988.466	1.601	1186038	WORD	n/a	wordpools/wordpool_categorized_EN.txt	OYSTER	OceanAnimals	5	6	[0, 0, 0]	n/a	catFR1	7	R1617S
990.067	0.882	1187639	WORD_OFF	n/a	n/a	OYSTER	OceanAnimals	5	6	[0, 0, 0]	n/a	catFR1	7	R1617S
990.949	1.601	1188523	WORD	n/a	wordpools/wordpool_categorized_EN.txt	PLANKTON	OceanAnimals	6	6	[0, 0, 0]	n/a	catFR1	7	R1617S
992.55	0.933	1190124	WORD_OFF	n/a	n/a	PLANKTON	OceanAnimals	6	6	[0, 0, 0]	n/a	catFR1	7	R1617S
993.483	1.6	1191057	WORD	n/a	wordpools/wordpool_categorized_EN.txt	MOUNTAIN	Landscapes	7	6	[0, 0, 0]	n/a	catFR1	7	R1617S
995.083	0.8	1192658	WORD_OFF	n/a	n/a	MOUNTAIN	Landscapes	7	6	[0, 0, 0]	n/a	catFR1	7	R1617S
995.883	1.616	1193453	WORD	n/a	wordpools/wordpool_categorized_EN.txt	VALLEY	Landscapes	8	6	[0, 0, 0]	n/a	catFR1	7	R1617S
997.499	0.851	1195074	WORD_OFF	n/a	n/a	VALLEY	Landscapes	8	6	[0, 0, 0]	n/a	catFR1	7	R1617S
998.35	1.6	1195919	WORD	n/a	wordpools/wordpool_categorized_EN.txt	TURTLE	OceanAnimals	9	6	[0, 0, 0]	n/a	catFR1	7	R1617S
999.95	0.767	1197520	WORD_OFF	n/a	n/a	TURTLE	OceanAnimals	9	6	[0, 0, 0]	n/a	catFR1	7	R1617S
1000.717	1.6	1198286	WORD	n/a	wordpools/wordpool_categorized_EN.txt	FISH	OceanAnimals	10	6	[0, 0, 0]	n/a	catFR1	7	R1617S
1002.317	0.932	1199887	WORD_OFF	n/a	n/a	FISH	OceanAnimals	10	6	[0, 0, 0]	n/a	catFR1	7	R1617S
1003.249	1.601	1200820	WORD	n/a	wordpools/wordpool_categorized_EN.txt	VACUUM	Appliances	11	6	[0, 0, 0]	n/a	catFR1	7	R1617S
1004.85	0.85	1202421	WORD_OFF	n/a	n/a	VACUUM	Appliances	11	6	[0, 0, 0]	n/a	catFR1	7	R1617S
1005.7	1.6	1203275	WORD	n/a	wordpools/wordpool_categorized_EN.txt	MIXER	Appliances	12	6	[0, 0, 0]	n/a	catFR1	7	R1617S
1007.3	0.002	1204871	PROB	0.002	n/a	n/a	n/a	-999	6	[8, 7, 4]	19	catFR1	7	R1617S
1007.302	0.0	1204873	START	n/a	n/a	n/a	n/a	-999	6	[-999, -999, -999]	n/a	catFR1	7	R1617S
1007.3	0.001	1204876	WORD_OFF	n/a	n/a	MIXER	Appliances	12	6	[0, 0, 0]	n/a	catFR1	7	R1617S
1007.301	0.001	1204876	ENCODING_END	n/a	n/a	n/a	n/a	-999	6	[0, 0, 0]	n/a	catFR1	7	R1617S
1007.302	5.998	1204876	DISTRACT_START	n/a	n/a	n/a	n/a	-999	6	[0, 0, 0]	n/a	catFR1	7	R1617S
1013.3	5.002	1210871	PROB	5.002	n/a	n/a	n/a	-999	6	[3, 2, 5]	8	catFR1	7	R1617S
1018.302	5.631	1215872	PROB	5.631	n/a	n/a	n/a	-999	6	[1, 3, 1]	5	catFR1	7	R1617S
1023.933	6.033	1221503	PROB	6.033	n/a	n/a	n/a	-999	6	[1, 4, 2]	7	catFR1	7	R1617S
1029.966	0.0	1227535	DISTRACT_END	n/a	n/a	n/a	n/a	-999	6	[0, 0, 0]	n/a	catFR1	7	R1617S
1029.966	1.334	1227536	STOP	n/a	n/a	n/a	n/a	-999	6	[-999, -999, -999]	n/a	catFR1	7	R1617S
1031.3	0.216	1228871	REC_START	n/a	n/a	n/a	n/a	-999	6	[0, 0, 0]	n/a	catFR1	7	R1617S
1031.516	1.476	1229086	REC_WORD_VV	1.476	n/a	<>	n/a	-999	6	[0, 0, 0]	n/a	catFR1	7	R1617S
1032.992	1.898	1230562	REC_WORD	1.898	n/a	BEACH	Landscapes	1	6	[0, 0, 0]	n/a	catFR1	7	R1617S
1034.89	1.637	1232460	REC_WORD	1.637	n/a	FOREST	Landscapes	2	6	[0, 0, 0]	n/a	catFR1	7	R1617S
1036.527	4.523	1234097	REC_WORD	4.523	n/a	VALLEY	Landscapes	8	6	[0, 0, 0]	n/a	catFR1	7	R1617S
1041.05	3.867	1238619	REC_WORD	3.867	n/a	PLANKTON	OceanAnimals	6	6	[0, 0, 0]	n/a	catFR1	7	R1617S
1044.917	5.592	1242486	REC_WORD_VV	5.592	n/a	<>	n/a	-999	6	[0, 0, 0]	n/a	catFR1	7	R1617S
1050.509	9.357	1248078	REC_WORD	9.357	n/a	MOUNTAIN	Landscapes	7	6	[0, 0, 0]	n/a	catFR1	7	R1617S
1059.866	2.674	1257434	REC_WORD_VV	2.674	n/a	<>	n/a	-999	6	[0, 0, 0]	n/a	catFR1	7	R1617S
1062.54	29.543	1260114	REC_END	n/a	n/a	n/a	n/a	-999	6	[0, 0, 0]	n/a	catFR1	7	R1617S
1092.083	10.35	1289658	COUNTDOWN_START	n/a	n/a	n/a	n/a	-999	6	[0, 0, 0]	n/a	catFR1	7	R1617S
1102.433	0.0	1300000	COUNTDOWN_END	n/a	n/a	n/a	n/a	-999	6	[0, 0, 0]	n/a	catFR1	7	R1617S
1102.433	2.016	1300000	ENCODING_START	n/a	n/a	n/a	n/a	-999	7	[0, 0, 0]	n/a	catFR1	7	R1617S
1104.449	1.601	1302013	WORD	n/a	wordpools/wordpool_categorized_EN.txt	WASHER	Appliances	1	7	[0, 0, 0]	n/a	catFR1	7	R1617S
1106.05	0.833	1303614	WORD_OFF	n/a	n/a	WASHER	Appliances	1	7	[0, 0, 0]	n/a	catFR1	7	R1617S
1106.883	1.6	1304449	WORD	n/a	wordpools/wordpool_categorized_EN.txt	DISHWASHER	Appliances	2	7	[0, 0, 0]	n/a	catFR1	7	R1617S
1108.483	0.95	1306050	WORD_OFF	n/a	n/a	DISHWASHER	Appliances	2	7	[0, 0, 0]	n/a	catFR1	7	R1617S
1109.433	1.617	1307003	WORD	n/a	wordpools/wordpool_categorized_EN.txt	DOLL	Toys	3	7	[0, 0, 0]	n/a	catFR1	7	R1617S
1111.05	0.949	1308614	WORD_OFF	n/a	n/a	DOLL	Toys	3	7	[0, 0, 0]	n/a	catFR1	7	R1617S
1111.999	1.601	1309566	WORD	n/a	wordpools/wordpool_categorized_EN.txt	BASKETBALL	Toys	4	7	[0, 0, 0]	n/a	catFR1	7	R1617S
1113.6	0.816	1311167	WORD_OFF	n/a	n/a	BASKETBALL	Toys	4	7	[0, 0, 0]	n/a	catFR1	7	R1617S
1114.416	1.6	1311983	WORD	n/a	wordpools/wordpool_categorized_EN.txt	GNAT	Insects	5	7	[0, 0, 0]	n/a	catFR1	7	R1617S
1116.016	0.817	1313583	WORD_OFF	n/a	n/a	GNAT	Insects	5	7	[0, 0, 0]	n/a	catFR1	7	R1617S
1116.833	1.6	1314399	WORD	n/a	wordpools/wordpool_categorized_EN.txt	BEETLE	Insects	6	7	[0, 0, 0]	n/a	catFR1	7	R1617S
1118.433	0.85	1316000	WORD_OFF	n/a	n/a	BEETLE	Insects	6	7	[0, 0, 0]	n/a	catFR1	7	R1617S
1119.283	1.617	1316854	WORD	n/a	wordpools/wordpool_categorized_EN.txt	DRYER	Appliances	7	7	[0, 0, 0]	n/a	catFR1	7	R1617S
1120.9	0.849	1318465	WORD_OFF	n/a	n/a	DRYER	Appliances	7	7	[0, 0, 0]	n/a	catFR1	7	R1617S
1121.749	1.601	1319319	WORD	n/a	wordpools/wordpool_categorized_EN.txt	REFRIGERATOR	Appliances	8	7	[0, 0, 0]	n/a	catFR1	7	R1617S
1123.35	0.799	1320920	WORD_OFF	n/a	n/a	REFRIGERATOR	Appliances	8	7	[0, 0, 0]	n/a	catFR1	7	R1617S
1124.149	1.615	1321716	WORD	n/a	wordpools/wordpool_categorized_EN.txt	PUZZLE	Toys	9	7	[0, 0, 0]	n/a	catFR1	7	R1617S
1125.764	0.836	1323327	WORD_OFF	n/a	n/a	PUZZLE	Toys	9	7	[0, 0, 0]	n/a	catFR1	7	R1617S
1126.6	1.617	1324171	WORD	n/a	wordpools/wordpool_categorized_EN.txt	FRISBEE	Toys	10	7	[0, 0, 0]	n/a	catFR1	7	R1617S
1128.217	0.883	1325782	WORD_OFF	n/a	n/a	FRISBEE	Toys	10	7	[0, 0, 0]	n/a	catFR1	7	R1617S
1129.1	1.617	1326666	WORD	n/a	wordpools/wordpool_categorized_EN.txt	SPIDER	Insects	11	7	[0, 0, 0]	n/a	catFR1	7	R1617S
1130.717	0.766	1328287	WORD_OFF	n/a	n/a	SPIDER	Insects	11	7	[0, 0, 0]	n/a	catFR1	7	R1617S
1131.483	1.601	1329053	WORD	n/a	wordpools/wordpool_categorized_EN.txt	BUTTERFLY	Insects	12	7	[0, 0, 0]	n/a	catFR1	7	R1617S
1133.084	0.001	1330649	PROB	0.001	n/a	n/a	n/a	-999	7	[7, 5, 5]	17	catFR1	7	R1617S
1133.085	0.0	1330650	START	n/a	n/a	n/a	n/a	-999	7	[-999, -999, -999]	n/a	catFR1	7	R1617S
1133.083	0.002	1330654	WORD_OFF	n/a	n/a	BUTTERFLY	Insects	12	7	[0, 0, 0]	n/a	catFR1	7	R1617S
1133.085	0.0	1330654	ENCODING_END	n/a	n/a	n/a	n/a	-999	7	[0, 0, 0]	n/a	catFR1	7	R1617S
1133.085	5.132	1330654	DISTRACT_START	n/a	n/a	n/a	n/a	-999	7	[0, 0, 0]	n/a	catFR1	7	R1617S
1138.217	5.0	1335782	PROB	5.0	n/a	n/a	n/a	-999	7	[5, 3, 5]	13	catFR1	7	R1617S
1143.217	4.716	1340781	PROB	4.716	n/a	n/a	n/a	-999	7	[3, 8, 2]	13	catFR1	7	R1617S
1147.933	3.601	1345497	PROB	3.601	n/a	n/a	n/a	-999	7	[3, 4, 6]	13	catFR1	7	R1617S
1151.534	3.999	1349098	PROB	3.999	n/a	n/a	n/a	-999	7	[8, 2, 5]	15	catFR1	7	R1617S
1155.533	0.0	1353096	DISTRACT_END	n/a	n/a	n/a	n/a	-999	7	[0, 0, 0]	n/a	catFR1	7	R1617S
1155.533	1.384	1353097	STOP	n/a	n/a	n/a	n/a	-999	7	[-999, -999, -999]	n/a	catFR1	7	R1617S
1156.917	1.252	1354481	REC_START	n/a	n/a	n/a	n/a	-999	7	[0, 0, 0]	n/a	catFR1	7	R1617S
1158.169	1.306	1355733	REC_WORD_VV	1.306	n/a	<>	n/a	-999	7	[0, 0, 0]	n/a	catFR1	7	R1617S
1159.475	2.118	1357039	REC_WORD_VV	2.118	n/a	<>	n/a	-999	7	[0, 0, 0]	n/a	catFR1	7	R1617S
1161.593	1.79	1359157	REC_WORD	1.79	n/a	DOLL	Toys	3	7	[0, 0, 0]	n/a	catFR1	7	R1617S
1163.383	2.957	1360946	REC_WORD_VV	2.957	n/a	<>	n/a	-999	7	[0, 0, 0]	n/a	catFR1	7	R1617S
1166.34	0.945	1363903	REC_WORD	0.945	n/a	WASHER	Appliances	1	7	[0, 0, 0]	n/a	catFR1	7	R1617S
1167.285	1.838	1364848	REC_WORD	1.838	n/a	DRYER	Appliances	7	7	[0, 0, 0]	n/a	catFR1	7	R1617S
1169.123	3.743	1366686	REC_WORD	3.743	n/a	REFRIGERATOR	Appliances	8	7	[0, 0, 0]	n/a	catFR1	7	R1617S
1172.866	2.223	1370429	REC_WORD_VV	2.223	n/a	<>	n/a	-999	7	[0, 0, 0]	n/a	catFR1	7	R1617S
1175.089	5.474	1372652	REC_WORD	5.474	n/a	DISHWASHER	Appliances	2	7	[0, 0, 0]	n/a	catFR1	7	R1617S
1180.563	1.915	1378126	REC_WORD	1.915	n/a	GNAT	Insects	5	7	[0, 0, 0]	n/a	catFR1	7	R1617S
1182.478	5.662	1380041	REC_WORD	5.662	n/a	SPIDER	Insects	11	7	[0, 0, 0]	n/a	catFR1	7	R1617S
1188.14	17.593	1385705	REC_END	n/a	n/a	n/a	n/a	-999	7	[0, 0, 0]	n/a	catFR1	7	R1617S
1205.733	10.351	1403296	COUNTDOWN_START	n/a	n/a	n/a	n/a	-999	7	[0, 0, 0]	n/a	catFR1	7	R1617S
1216.084	0.0	1413648	COUNTDOWN_END	n/a	n/a	n/a	n/a	-999	7	[0, 0, 0]	n/a	catFR1	7	R1617S
1216.084	1.916	1413648	ENCODING_START	n/a	n/a	n/a	n/a	-999	8	[0, 0, 0]	n/a	catFR1	7	R1617S
1218.0	1.616	1415563	WORD	n/a	wordpools/wordpool_categorized_EN.txt	MOTH	Insects	1	8	[0, 0, 0]	n/a	catFR1	7	R1617S
1219.616	1.0	1417174	WORD_OFF	n/a	n/a	MOTH	Insects	1	8	[0, 0, 0]	n/a	catFR1	7	R1617S
1220.616	1.601	1418176	WORD	n/a	wordpools/wordpool_categorized_EN.txt	MOSQUITO	Insects	2	8	[0, 0, 0]	n/a	catFR1	7	R1617S
1222.217	0.883	1419776	WORD_OFF	n/a	n/a	MOSQUITO	Insects	2	8	[0, 0, 0]	n/a	catFR1	7	R1617S
1223.1	1.6	1420660	WORD	n/a	wordpools/wordpool_categorized_EN.txt	VIOLET	Flowers	3	8	[0, 0, 0]	n/a	catFR1	7	R1617S
1224.7	0.95	1422261	WORD_OFF	n/a	n/a	VIOLET	Flowers	3	8	[0, 0, 0]	n/a	catFR1	7	R1617S
1225.65	1.6	1423214	WORD	n/a	wordpools/wordpool_categorized_EN.txt	ROSE	Flowers	4	8	[0, 0, 0]	n/a	catFR1	7	R1617S
1227.25	0.983	1424815	WORD_OFF	n/a	n/a	ROSE	Flowers	4	8	[0, 0, 0]	n/a	catFR1	7	R1617S
1228.233	1.617	1425797	WORD	n/a	wordpools/wordpool_categorized_EN.txt	CHAIR	Furniture	5	8	[0, 0, 0]	n/a	catFR1	7	R1617S
1229.85	1.0	1427408	WORD_OFF	n/a	n/a	CHAIR	Furniture	5	8	[0, 0, 0]	n/a	catFR1	7	R1617S
1230.85	1.617	1428410	WORD	n/a	wordpools/wordpool_categorized_EN.txt	NIGHTSTAND	Furniture	6	8	[0, 0, 0]	n/a	catFR1	7	R1617S
1232.467	0.9	1430030	WORD_OFF	n/a	n/a	NIGHTSTAND	Furniture	6	8	[0, 0, 0]	n/a	catFR1	7	R1617S
1233.367	1.6	1430924	WORD	n/a	wordpools/wordpool_categorized_EN.txt	ANT	Insects	7	8	[0, 0, 0]	n/a	catFR1	7	R1617S
1234.967	0.833	1432525	WORD_OFF	n/a	n/a	ANT	Insects	7	8	[0, 0, 0]	n/a	catFR1	7	R1617S
1235.8	1.616	1433360	WORD	n/a	wordpools/wordpool_categorized_EN.txt	LADYBUG	Insects	8	8	[0, 0, 0]	n/a	catFR1	7	R1617S
1237.416	0.984	1434981	WORD_OFF	n/a	n/a	LADYBUG	Insects	8	8	[0, 0, 0]	n/a	catFR1	7	R1617S
1238.4	1.616	1435963	WORD	n/a	wordpools/wordpool_categorized_EN.txt	DAFFODIL	Flowers	9	8	[0, 0, 0]	n/a	catFR1	7	R1617S
1240.016	0.917	1437574	WORD_OFF	n/a	n/a	DAFFODIL	Flowers	9	8	[0, 0, 0]	n/a	catFR1	7	R1617S
1240.933	1.6	1438497	WORD	n/a	wordpools/wordpool_categorized_EN.txt	PETUNIA	Flowers	10	8	[0, 0, 0]	n/a	catFR1	7	R1617S
1242.533	0.933	1440098	WORD_OFF	n/a	n/a	PETUNIA	Flowers	10	8	[0, 0, 0]	n/a	catFR1	7	R1617S
1243.466	1.6	1441031	WORD	n/a	wordpools/wordpool_categorized_EN.txt	SOFA	Furniture	11	8	[0, 0, 0]	n/a	catFR1	7	R1617S
1245.066	0.933	1442622	WORD_OFF	n/a	n/a	SOFA	Furniture	11	8	[0, 0, 0]	n/a	catFR1	7	R1617S
1245.999	1.601	1443555	WORD	n/a	wordpools/wordpool_categorized_EN.txt	BED	Furniture	12	8	[0, 0, 0]	n/a	catFR1	7	R1617S
1247.6	0.0	1445156	WORD_OFF	n/a	n/a	BED	Furniture	12	8	[0, 0, 0]	n/a	catFR1	7	R1617S
1247.6	0.004	1445159	PROB	0.004	n/a	n/a	n/a	-999	8	[4, 5, 7]	16	catFR1	7	R1617S
1247.604	0.0	1445163	START	n/a	n/a	n/a	n/a	-999	8	[-999, -999, -999]	n/a	catFR1	7	R1617S
1247.604	0.0	1445166	ENCODING_END	n/a	n/a	n/a	n/a	-999	8	[0, 0, 0]	n/a	catFR1	7	R1617S
1247.604	5.496	1445166	DISTRACT_START	n/a	n/a	n/a	n/a	-999	8	[0, 0, 0]	n/a	catFR1	7	R1617S
1253.1	7.617	1450659	PROB	7.617	n/a	n/a	n/a	-999	8	[6, 8, 3]	17	catFR1	7	R1617S
1260.717	7.366	1458276	PROB	7.366	n/a	n/a	n/a	-999	8	[7, 3, 6]	16	catFR1	7	R1617S
1268.083	0.0	1465641	STOP	n/a	n/a	n/a	n/a	-999	8	[-999, -999, -999]	n/a	catFR1	7	R1617S
1268.083	1.2	1465644	DISTRACT_END	n/a	n/a	n/a	n/a	-999	8	[0, 0, 0]	n/a	catFR1	7	R1617S
1269.283	3.499	1466842	REC_START	n/a	n/a	n/a	n/a	-999	8	[0, 0, 0]	n/a	catFR1	7	R1617S
1272.782	1.903	1470340	REC_WORD	1.903	n/a	DAFFODIL	Flowers	9	8	[0, 0, 0]	n/a	catFR1	7	R1617S
1274.685	1.64	1472243	REC_WORD	1.64	n/a	PETUNIA	Flowers	10	8	[0, 0, 0]	n/a	catFR1	7	R1617S
1276.325	0.615	1473883	REC_WORD_VV	0.615	n/a	<>	n/a	-999	8	[0, 0, 0]	n/a	catFR1	7	R1617S
1276.94	5.529	1474498	REC_WORD	5.529	n/a	ANT	Insects	7	8	[0, 0, 0]	n/a	catFR1	7	R1617S
1282.469	16.405	1480027	REC_WORD_VV	16.405	n/a	<>	n/a	-999	8	[0, 0, 0]	n/a	catFR1	7	R1617S
1298.874	1.642	1496431	REC_WORD_VV	1.642	n/a	<>	n/a	-999	8	[0, 0, 0]	n/a	catFR1	7	R1617S
1300.516	13.317	1498076	REC_END	n/a	n/a	n/a	n/a	-999	8	[0, 0, 0]	n/a	catFR1	7	R1617S
1313.833	10.349	1511394	COUNTDOWN_START	n/a	n/a	n/a	n/a	-999	8	[0, 0, 0]	n/a	catFR1	7	R1617S
1324.182	0.0	1521736	COUNTDOWN_END	n/a	n/a	n/a	n/a	-999	8	[0, 0, 0]	n/a	catFR1	7	R1617S
1324.182	2.05	1521746	ENCODING_START	n/a	n/a	n/a	n/a	-999	9	[0, 0, 0]	n/a	catFR1	7	R1617S
1326.232	1.601	1523789	WORD	n/a	wordpools/wordpool_categorized_EN.txt	MARBLES	Toys	1	9	[0, 0, 0]	n/a	catFR1	7	R1617S
1327.833	0.851	1525390	WORD_OFF	n/a	n/a	MARBLES	Toys	1	9	[0, 0, 0]	n/a	catFR1	7	R1617S
1328.684	1.616	1526235	WORD	n/a	wordpools/wordpool_categorized_EN.txt	FOOTBALL	Toys	2	9	[0, 0, 0]	n/a	catFR1	7	R1617S
1330.3	0.916	1527855	WORD_OFF	n/a	n/a	FOOTBALL	Toys	2	9	[0, 0, 0]	n/a	catFR1	7	R1617S
1331.216	1.601	1528769	WORD	n/a	wordpools/wordpool_categorized_EN.txt	MARIGOLD	Flowers	3	9	[0, 0, 0]	n/a	catFR1	7	R1617S
1332.817	0.816	1530370	WORD_OFF	n/a	n/a	MARIGOLD	Flowers	3	9	[0, 0, 0]	n/a	catFR1	7	R1617S
1333.633	1.616	1531185	WORD	n/a	wordpools/wordpool_categorized_EN.txt	LILY	Flowers	4	9	[0, 0, 0]	n/a	catFR1	7	R1617S
1335.249	0.851	1532805	WORD_OFF	n/a	n/a	LILY	Flowers	4	9	[0, 0, 0]	n/a	catFR1	7	R1617S
1336.1	1.617	1533660	WORD	n/a	wordpools/wordpool_categorized_EN.txt	TOE	BodyParts	5	9	[0, 0, 0]	n/a	catFR1	7	R1617S
1337.717	0.766	1535271	WORD_OFF	n/a	n/a	TOE	BodyParts	5	9	[0, 0, 0]	n/a	catFR1	7	R1617S
1338.483	1.617	1536037	WORD	n/a	wordpools/wordpool_categorized_EN.txt	HEAD	BodyParts	6	9	[0, 0, 0]	n/a	catFR1	7	R1617S
1340.1	0.799	1537657	WORD_OFF	n/a	n/a	HEAD	BodyParts	6	9	[0, 0, 0]	n/a	catFR1	7	R1617S
1340.899	1.601	1538453	WORD	n/a	wordpools/wordpool_categorized_EN.txt	SUNFLOWER	Flowers	7	9	[0, 0, 0]	n/a	catFR1	7	R1617S
1342.5	0.85	1540054	WORD_OFF	n/a	n/a	SUNFLOWER	Flowers	7	9	[0, 0, 0]	n/a	catFR1	7	R1617S
1343.35	1.617	1540908	WORD	n/a	wordpools/wordpool_categorized_EN.txt	LILAC	Flowers	8	9	[0, 0, 0]	n/a	catFR1	7	R1617S
1344.967	0.966	1542519	WORD_OFF	n/a	n/a	LILAC	Flowers	8	9	[0, 0, 0]	n/a	catFR1	7	R1617S
1345.933	1.616	1543492	WORD	n/a	wordpools/wordpool_categorized_EN.txt	BASEBALL	Toys	9	9	[0, 0, 0]	n/a	catFR1	7	R1617S
1347.549	0.984	1545102	WORD_OFF	n/a	n/a	BASEBALL	Toys	9	9	[0, 0, 0]	n/a	catFR1	7	R1617S
1348.533	1.617	1546085	WORD	n/a	wordpools/wordpool_categorized_EN.txt	BALL	Toys	10	9	[0, 0, 0]	n/a	catFR1	7	R1617S
1350.15	0.8	1547705	WORD_OFF	n/a	n/a	BALL	Toys	10	9	[0, 0, 0]	n/a	catFR1	7	R1617S
1350.95	1.6	1548501	WORD	n/a	wordpools/wordpool_categorized_EN.txt	FOOT	BodyParts	11	9	[0, 0, 0]	n/a	catFR1	7	R1617S
1352.55	0.883	1550102	WORD_OFF	n/a	n/a	FOOT	BodyParts	11	9	[0, 0, 0]	n/a	catFR1	7	R1617S
1353.433	1.617	1550986	WORD	n/a	wordpools/wordpool_categorized_EN.txt	ELBOW	BodyParts	12	9	[0, 0, 0]	n/a	catFR1	7	R1617S
1355.05	0.0	1552604	PROB	0.0	n/a	n/a	n/a	-999	9	[5, 4, 6]	16	catFR1	7	R1617S
1355.05	0.004	1552606	WORD_OFF	n/a	n/a	ELBOW	BodyParts	12	9	[0, 0, 0]	n/a	catFR1	7	R1617S
1355.054	0.0	1552606	ENCODING_END	n/a	n/a	n/a	n/a	-999	9	[0, 0, 0]	n/a	catFR1	7	R1617S
1355.054	0.0	1552606	DISTRACT_START	n/a	n/a	n/a	n/a	-999	9	[0, 0, 0]	n/a	catFR1	7	R1617S
1355.054	6.046	1552608	START	n/a	n/a	n/a	n/a	-999	9	[-999, -999, -999]	n/a	catFR1	7	R1617S
1361.1	7.751	1558654	PROB	7.751	n/a	n/a	n/a	-999	9	[8, 5, 3]	16	catFR1	7	R1617S
1368.851	3.033	1566405	PROB	3.033	n/a	n/a	n/a	-999	9	[4, 4, 4]	12	catFR1	7	R1617S
1371.884	7.816	1569437	PROB	7.816	n/a	n/a	n/a	-999	9	[6, 7, 4]	17	catFR1	7	R1617S
1379.7	0.0	1577249	DISTRACT_END	n/a	n/a	n/a	n/a	-999	9	[0, 0, 0]	n/a	catFR1	7	R1617S
1379.7	1.283	1577253	STOP	n/a	n/a	n/a	n/a	-999	9	[-999, -999, -999]	n/a	catFR1	7	R1617S
1380.983	0.444	1578536	REC_START	n/a	n/a	n/a	n/a	-999	9	[0, 0, 0]	n/a	catFR1	7	R1617S
1381.427	0.811	1578980	REC_WORD_VV	0.811	n/a	<>	n/a	-999	9	[0, 0, 0]	n/a	catFR1	7	R1617S
1382.238	1.644	1579791	REC_WORD	1.644	n/a	FOOT	BodyParts	11	9	[0, 0, 0]	n/a	catFR1	7	R1617S
1383.882	3.812	1581435	REC_WORD	3.812	n/a	BALL	Toys	10	9	[0, 0, 0]	n/a	catFR1	7	R1617S
1387.694	0.833	1585247	REC_WORD_VV	0.833	n/a	<>	n/a	-999	9	[0, 0, 0]	n/a	catFR1	7	R1617S
1388.527	6.798	1586080	REC_WORD	6.798	n/a	ARM	BodyParts	-999	9	[0, 0, 0]	n/a	catFR1	7	R1617S
1395.325	1.104	1592877	REC_WORD_VV	1.104	n/a	<>	n/a	-999	9	[0, 0, 0]	n/a	catFR1	7	R1617S
1396.429	2.186	1593981	REC_WORD	2.186	n/a	ELBOW	BodyParts	12	9	[0, 0, 0]	n/a	catFR1	7	R1617S
1398.615	4.195	1596167	REC_WORD	4.195	n/a	BASEBALL	Toys	9	9	[0, 0, 0]	n/a	catFR1	7	R1617S
1402.81	6.598	1600362	REC_WORD_VV	6.598	n/a	<>	n/a	-999	9	[0, 0, 0]	n/a	catFR1	7	R1617S
1409.408	2.815	1606960	REC_WORD_VV	2.815	n/a	<>	n/a	-999	9	[0, 0, 0]	n/a	catFR1	7	R1617S
1412.223	9.308	1609779	REC_END	n/a	n/a	n/a	n/a	-999	9	[0, 0, 0]	n/a	catFR1	7	R1617S
1421.531	10.351	1619090	COUNTDOWN_START	n/a	n/a	n/a	n/a	-999	9	[0, 0, 0]	n/a	catFR1	7	R1617S
1431.882	0.001	1629432	COUNTDOWN_END	n/a	n/a	n/a	n/a	-999	9	[0, 0, 0]	n/a	catFR1	7	R1617S
1431.883	2.017	1629432	ENCODING_START	n/a	n/a	n/a	n/a	-999	10	[0, 0, 0]	n/a	catFR1	7	R1617S
1433.9	1.6	1631455	WORD	n/a	wordpools/wordpool_categorized_EN.txt	BIRCH	Trees	1	10	[0, 0, 0]	n/a	catFR1	7	R1617S
1435.5	0.866	1633056	WORD_OFF	n/a	n/a	BIRCH	Trees	1	10	[0, 0, 0]	n/a	catFR1	7	R1617S
1436.366	1.6	1633921	WORD	n/a	wordpools/wordpool_categorized_EN.txt	CYPRESS	Trees	2	10	[0, 0, 0]	n/a	catFR1	7	R1617S
1437.966	0.801	1635522	WORD_OFF	n/a	n/a	CYPRESS	Trees	2	10	[0, 0, 0]	n/a	catFR1	7	R1617S
1438.767	1.616	1636317	WORD	n/a	wordpools/wordpool_categorized_EN.txt	STRAINER	KitchenTools	3	10	[0, 0, 0]	n/a	catFR1	7	R1617S
1440.383	0.984	1637938	WORD_OFF	n/a	n/a	STRAINER	KitchenTools	3	10	[0, 0, 0]	n/a	catFR1	7	R1617S
1441.367	1.616	1638920	WORD	n/a	wordpools/wordpool_categorized_EN.txt	FORK	KitchenTools	4	10	[0, 0, 0]	n/a	catFR1	7	R1617S
1442.983	0.917	1640531	WORD_OFF	n/a	n/a	FORK	KitchenTools	4	10	[0, 0, 0]	n/a	catFR1	7	R1617S
1443.9	1.6	1641454	WORD	n/a	wordpools/wordpool_categorized_EN.txt	CALCULATOR	Electronics	5	10	[0, 0, 0]	n/a	catFR1	7	R1617S
1445.5	0.783	1643055	WORD_OFF	n/a	n/a	CALCULATOR	Electronics	5	10	[0, 0, 0]	n/a	catFR1	7	R1617S
1446.283	1.617	1643831	WORD	n/a	wordpools/wordpool_categorized_EN.txt	TELEVISION	Electronics	6	10	[0, 0, 0]	n/a	catFR1	7	R1617S
1447.9	0.95	1645451	WORD_OFF	n/a	n/a	TELEVISION	Electronics	6	10	[0, 0, 0]	n/a	catFR1	7	R1617S
1448.85	1.6	1646404	WORD	n/a	wordpools/wordpool_categorized_EN.txt	LADLE	KitchenTools	7	10	[0, 0, 0]	n/a	catFR1	7	R1617S
1450.45	0.933	1648005	WORD_OFF	n/a	n/a	LADLE	KitchenTools	7	10	[0, 0, 0]	n/a	catFR1	7	R1617S
1451.383	1.6	1648938	WORD	n/a	wordpools/wordpool_categorized_EN.txt	COLANDER	KitchenTools	8	10	[0, 0, 0]	n/a	catFR1	7	R1617S
1452.983	0.867	1650529	WORD_OFF	n/a	n/a	COLANDER	KitchenTools	8	10	[0, 0, 0]	n/a	catFR1	7	R1617S
1453.85	1.616	1651403	WORD	n/a	wordpools/wordpool_categorized_EN.txt	PHONE	Electronics	9	10	[0, 0, 0]	n/a	catFR1	7	R1617S
1455.466	0.984	1653014	WORD_OFF	n/a	n/a	PHONE	Electronics	9	10	[0, 0, 0]	n/a	catFR1	7	R1617S
1456.45	1.6	1653996	WORD	n/a	wordpools/wordpool_categorized_EN.txt	SPEAKER	Electronics	10	10	[0, 0, 0]	n/a	catFR1	7	R1617S
1458.05	1.0	1655597	WORD_OFF	n/a	n/a	SPEAKER	Electronics	10	10	[0, 0, 0]	n/a	catFR1	7	R1617S
1459.05	1.616	1656599	WORD	n/a	wordpools/wordpool_categorized_EN.txt	PINE	Trees	11	10	[0, 0, 0]	n/a	catFR1	7	R1617S
1460.666	0.95	1658220	WORD_OFF	n/a	n/a	PINE	Trees	11	10	[0, 0, 0]	n/a	catFR1	7	R1617S
1461.616	1.6	1659163	WORD	n/a	wordpools/wordpool_categorized_EN.txt	WALNUT	Trees	12	10	[0, 0, 0]	n/a	catFR1	7	R1617S
1463.216	0.001	1660764	WORD_OFF	n/a	n/a	WALNUT	Trees	12	10	[0, 0, 0]	n/a	catFR1	7	R1617S
1463.217	0.001	1660766	PROB	0.001	n/a	n/a	n/a	-999	10	[6, 4, 8]	18	catFR1	7	R1617S
1463.218	0.0	1660767	START	n/a	n/a	n/a	n/a	-999	10	[-999, -999, -999]	n/a	catFR1	7	R1617S
1463.218	0.0	1660773	ENCODING_END	n/a	n/a	n/a	n/a	-999	10	[0, 0, 0]	n/a	catFR1	7	R1617S
1463.218	6.532	1660773	DISTRACT_START	n/a	n/a	n/a	n/a	-999	10	[0, 0, 0]	n/a	catFR1	7	R1617S
1469.75	4.251	1667299	PROB	4.251	n/a	n/a	n/a	-999	10	[1, 2, 7]	10	catFR1	7	R1617S
1474.001	4.232	1671549	PROB	4.232	n/a	n/a	n/a	-999	10	[8, 1, 2]	11	catFR1	7	R1617S
1478.233	4.283	1675781	PROB	4.283	n/a	n/a	n/a	-999	10	[5, 6, 1]	12	catFR1	7	R1617S
1482.516	6.467	1680064	PROB	6.467	n/a	n/a	n/a	-999	10	[6, 6, 1]	13	catFR1	7	R1617S
1488.983	0.0	1686531	STOP	n/a	n/a	n/a	n/a	-999	10	[-999, -999, -999]	n/a	catFR1	7	R1617S
1488.983	1.034	1686536	DISTRACT_END	n/a	n/a	n/a	n/a	-999	10	[0, 0, 0]	n/a	catFR1	7	R1617S
1490.017	2.696	1687567	REC_START	n/a	n/a	n/a	n/a	-999	10	[0, 0, 0]	n/a	catFR1	7	R1617S
1492.713	1.165	1690261	REC_WORD_VV	1.165	n/a	<>	n/a	-999	10	[0, 0, 0]	n/a	catFR1	7	R1617S
1493.878	2.984	1691425	REC_WORD	2.984	n/a	BIRCH	Trees	1	10	[0, 0, 0]	n/a	catFR1	7	R1617S
1496.862	3.197	1694409	REC_WORD_VV	3.197	n/a	<>	n/a	-999	10	[0, 0, 0]	n/a	catFR1	7	R1617S
1500.059	7.821	1697606	REC_WORD	7.821	n/a	ELM	Trees	-999	10	[0, 0, 0]	n/a	catFR1	7	R1617S
1507.88	4.61	1705427	REC_WORD	4.61	n/a	LADLE	KitchenTools	7	10	[0, 0, 0]	n/a	catFR1	7	R1617S
1512.49	4.455	1710037	REC_WORD	4.455	n/a	SPATULA	KitchenTools	-999	10	[0, 0, 0]	n/a	catFR1	7	R1617S
1516.945	0.803	1714491	REC_WORD_VV	0.803	n/a	<>	n/a	-999	10	[0, 0, 0]	n/a	catFR1	7	R1617S
1517.748	3.504	1715294	REC_WORD	3.504	n/a	COLANDER	KitchenTools	8	10	[0, 0, 0]	n/a	catFR1	7	R1617S
1521.252	36.914	1718800	REC_END	n/a	n/a	n/a	n/a	-999	10	[0, 0, 0]	n/a	catFR1	7	R1617S
1558.166	10.351	1755711	COUNTDOWN_START	n/a	n/a	n/a	n/a	-999	10	[0, 0, 0]	n/a	catFR1	7	R1617S
1568.517	0.0	1766063	COUNTDOWN_END	n/a	n/a	n/a	n/a	-999	10	[0, 0, 0]	n/a	catFR1	7	R1617S
1568.517	2.016	1766063	ENCODING_START	n/a	n/a	n/a	n/a	-999	11	[0, 0, 0]	n/a	catFR1	7	R1617S
1570.533	1.6	1768076	WORD	n/a	wordpools/wordpool_categorized_EN.txt	COMPUTER	Electronics	1	11	[0, 0, 0]	n/a	catFR1	7	R1617S
1572.133	0.849	1769677	WORD_OFF	n/a	n/a	COMPUTER	Electronics	1	11	[0, 0, 0]	n/a	catFR1	7	R1617S
1572.982	1.601	1770522	WORD	n/a	wordpools/wordpool_categorized_EN.txt	STEREO	Electronics	2	11	[0, 0, 0]	n/a	catFR1	7	R1617S
1574.583	0.783	1772123	WORD_OFF	n/a	n/a	STEREO	Electronics	2	11	[0, 0, 0]	n/a	catFR1	7	R1617S
1575.366	1.601	1772909	WORD	n/a	wordpools/wordpool_categorized_EN.txt	CRAB	OceanAnimals	3	11	[0, 0, 0]	n/a	catFR1	7	R1617S
1576.967	0.8	1774510	WORD_OFF	n/a	n/a	CRAB	OceanAnimals	3	11	[0, 0, 0]	n/a	catFR1	7	R1617S
1577.767	1.6	1775315	WORD	n/a	wordpools/wordpool_categorized_EN.txt	DOLPHIN	OceanAnimals	4	11	[0, 0, 0]	n/a	catFR1	7	R1617S
1579.367	0.833	1776916	WORD_OFF	n/a	n/a	DOLPHIN	OceanAnimals	4	11	[0, 0, 0]	n/a	catFR1	7	R1617S
1580.2	1.6	1777741	WORD	n/a	wordpools/wordpool_categorized_EN.txt	PAPER	OfficeSupplies	5	11	[0, 0, 0]	n/a	catFR1	7	R1617S
1581.8	0.867	1779342	WORD_OFF	n/a	n/a	PAPER	OfficeSupplies	5	11	[0, 0, 0]	n/a	catFR1	7	R1617S
1582.667	1.6	1780216	WORD	n/a	wordpools/wordpool_categorized_EN.txt	ERASER	OfficeSupplies	6	11	[0, 0, 0]	n/a	catFR1	7	R1617S
1584.267	0.8	1781807	WORD_OFF	n/a	n/a	ERASER	OfficeSupplies	6	11	[0, 0, 0]	n/a	catFR1	7	R1617S
1585.067	1.6	1782613	WORD	n/a	wordpools/wordpool_categorized_EN.txt	WHALE	OceanAnimals	7	11	[0, 0, 0]	n/a	catFR1	7	R1617S
1586.667	0.816	1784213	WORD_OFF	n/a	n/a	WHALE	OceanAnimals	7	11	[0, 0, 0]	n/a	catFR1	7	R1617S
1587.483	1.617	1785029	WORD	n/a	wordpools/wordpool_categorized_EN.txt	LOBSTER	OceanAnimals	8	11	[0, 0, 0]	n/a	catFR1	7	R1617S
1589.1	1.0	1786639	WORD_OFF	n/a	n/a	LOBSTER	OceanAnimals	8	11	[0, 0, 0]	n/a	catFR1	7	R1617S
1590.1	1.616	1787641	WORD	n/a	wordpools/wordpool_categorized_EN.txt	RULER	OfficeSupplies	9	11	[0, 0, 0]	n/a	catFR1	7	R1617S
1591.716	0.851	1789262	WORD_OFF	n/a	n/a	RULER	OfficeSupplies	9	11	[0, 0, 0]	n/a	catFR1	7	R1617S
1592.567	1.6	1790107	WORD	n/a	wordpools/wordpool_categorized_EN.txt	FOLDER	OfficeSupplies	10	11	[0, 0, 0]	n/a	catFR1	7	R1617S
1594.167	0.98	1791708	WORD_OFF	n/a	n/a	FOLDER	OfficeSupplies	10	11	[0, 0, 0]	n/a	catFR1	7	R1617S
1595.147	1.603	1792690	WORD	n/a	wordpools/wordpool_categorized_EN.txt	RADIO	Electronics	11	11	[0, 0, 0]	n/a	catFR1	7	R1617S
1596.75	0.799	1794291	WORD_OFF	n/a	n/a	RADIO	Electronics	11	11	[0, 0, 0]	n/a	catFR1	7	R1617S
1597.549	1.601	1795096	WORD	n/a	wordpools/wordpool_categorized_EN.txt	PRINTER	Electronics	12	11	[0, 0, 0]	n/a	catFR1	7	R1617S
1599.15	0.001	1796692	PROB	0.001	n/a	n/a	n/a	-999	11	[2, 3, 1]	6	catFR1	7	R1617S
1599.151	0.0	1796693	START	n/a	n/a	n/a	n/a	-999	11	[-999, -999, -999]	n/a	catFR1	7	R1617S
1599.149	0.002	1796697	WORD_OFF	n/a	n/a	PRINTER	Electronics	12	11	[0, 0, 0]	n/a	catFR1	7	R1617S
1599.151	0.0	1796697	ENCODING_END	n/a	n/a	n/a	n/a	-999	11	[0, 0, 0]	n/a	catFR1	7	R1617S
1599.151	6.133	1796697	DISTRACT_START	n/a	n/a	n/a	n/a	-999	11	[0, 0, 0]	n/a	catFR1	7	R1617S
1605.284	5.7	1802826	PROB	5.7	n/a	n/a	n/a	-999	11	[1, 8, 5]	14	catFR1	7	R1617S
1610.984	11.316	1808526	PROB	11.316	n/a	n/a	n/a	-999	11	[6, 7, 4]	17	catFR1	7	R1617S
1622.3	0.0	1819841	STOP	n/a	n/a	n/a	n/a	-999	11	[-999, -999, -999]	n/a	catFR1	7	R1617S
1622.3	1.317	1819847	DISTRACT_END	n/a	n/a	n/a	n/a	-999	11	[0, 0, 0]	n/a	catFR1	7	R1617S
1623.617	1.511	1821163	REC_START	n/a	n/a	n/a	n/a	-999	11	[0, 0, 0]	n/a	catFR1	7	R1617S
1625.128	2.438	1822669	REC_WORD	2.438	n/a	STEREO	Electronics	2	11	[0, 0, 0]	n/a	catFR1	7	R1617S
1627.566	2.114	1825107	REC_WORD	2.114	n/a	CALCULATOR	Electronics	-999	11	[0, 0, 0]	n/a	catFR1	7	R1617S
1629.68	1.593	1827221	REC_WORD	1.593	n/a	PAPER	OfficeSupplies	5	11	[0, 0, 0]	n/a	catFR1	7	R1617S
1631.273	21.704	1828814	REC_WORD	21.704	n/a	ERASER	OfficeSupplies	6	11	[0, 0, 0]	n/a	catFR1	7	R1617S
1652.977	1.877	1850517	REC_WORD_VV	1.877	n/a	<>	n/a	-999	11	[0, 0, 0]	n/a	catFR1	7	R1617S
1654.854	19.629	1852396	REC_END	n/a	n/a	n/a	n/a	-999	11	[0, 0, 0]	n/a	catFR1	7	R1617S
1674.483	10.35	1872030	COUNTDOWN_START	n/a	n/a	n/a	n/a	-999	11	[0, 0, 0]	n/a	catFR1	7	R1617S
1684.833	0.0	1882372	COUNTDOWN_END	n/a	n/a	n/a	n/a	-999	11	[0, 0, 0]	n/a	catFR1	7	R1617S
1684.833	1.9	1882372	ENCODING_START	n/a	n/a	n/a	n/a	-999	12	[0, 0, 0]	n/a	catFR1	7	R1617S
1686.733	1.614	1884268	WORD	n/a	wordpools/wordpool_categorized_EN.txt	JELLO	Desserts	1	12	[0, 0, 0]	n/a	catFR1	7	R1617S
1688.347	0.803	1885888	WORD_OFF	n/a	n/a	JELLO	Desserts	1	12	[0, 0, 0]	n/a	catFR1	7	R1617S
1689.15	1.617	1886694	WORD	n/a	wordpools/wordpool_categorized_EN.txt	MOUSSE	Desserts	2	12	[0, 0, 0]	n/a	catFR1	7	R1617S
1690.767	0.9	1888305	WORD_OFF	n/a	n/a	MOUSSE	Desserts	2	12	[0, 0, 0]	n/a	catFR1	7	R1617S
1691.667	1.6	1889208	WORD	n/a	wordpools/wordpool_categorized_EN.txt	EVERGREEN	Trees	3	12	[0, 0, 0]	n/a	catFR1	7	R1617S
1693.267	0.766	1890809	WORD_OFF	n/a	n/a	EVERGREEN	Trees	3	12	[0, 0, 0]	n/a	catFR1	7	R1617S
1694.033	1.616	1891575	WORD	n/a	wordpools/wordpool_categorized_EN.txt	CEDAR	Trees	4	12	[0, 0, 0]	n/a	catFR1	7	R1617S
1695.649	0.834	1893186	WORD_OFF	n/a	n/a	CEDAR	Trees	4	12	[0, 0, 0]	n/a	catFR1	7	R1617S
1696.483	1.617	1894021	WORD	n/a	wordpools/wordpool_categorized_EN.txt	COLA	Beverages	5	12	[0, 0, 0]	n/a	catFR1	7	R1617S
1698.1	0.917	1895642	WORD_OFF	n/a	n/a	COLA	Beverages	5	12	[0, 0, 0]	n/a	catFR1	7	R1617S
1699.017	1.6	1896555	WORD	n/a	wordpools/wordpool_categorized_EN.txt	SODA	Beverages	6	12	[0, 0, 0]	n/a	catFR1	7	R1617S
1700.617	0.783	1898156	WORD_OFF	n/a	n/a	SODA	Beverages	6	12	[0, 0, 0]	n/a	catFR1	7	R1617S
1701.4	1.6	1898942	WORD	n/a	wordpools/wordpool_categorized_EN.txt	CUPCAKE	Desserts	7	12	[0, 0, 0]	n/a	catFR1	7	R1617S
1703.0	0.767	1900543	WORD_OFF	n/a	n/a	CUPCAKE	Desserts	7	12	[0, 0, 0]	n/a	catFR1	7	R1617S
1703.767	1.599	1901309	WORD	n/a	wordpools/wordpool_categorized_EN.txt	PUDDING	Desserts	8	12	[0, 0, 0]	n/a	catFR1	7	R1617S
1705.366	0.883	1902910	WORD_OFF	n/a	n/a	PUDDING	Desserts	8	12	[0, 0, 0]	n/a	catFR1	7	R1617S
1706.249	1.601	1903784	WORD	n/a	wordpools/wordpool_categorized_EN.txt	BEER	Beverages	9	12	[0, 0, 0]	n/a	catFR1	7	R1617S
1707.85	0.833	1905385	WORD_OFF	n/a	n/a	BEER	Beverages	9	12	[0, 0, 0]	n/a	catFR1	7	R1617S
1708.683	1.6	1906220	WORD	n/a	wordpools/wordpool_categorized_EN.txt	RUM	Beverages	10	12	[0, 0, 0]	n/a	catFR1	7	R1617S
1710.283	0.984	1907821	WORD_OFF	n/a	n/a	RUM	Beverages	10	12	[0, 0, 0]	n/a	catFR1	7	R1617S
1711.267	1.599	1908803	WORD	n/a	wordpools/wordpool_categorized_EN.txt	WILLOW	Trees	11	12	[0, 0, 0]	n/a	catFR1	7	R1617S
1712.866	0.983	1910404	WORD_OFF	n/a	n/a	WILLOW	Trees	11	12	[0, 0, 0]	n/a	catFR1	7	R1617S
1713.849	1.601	1911386	WORD	n/a	wordpools/wordpool_categorized_EN.txt	OAK	Trees	12	12	[0, 0, 0]	n/a	catFR1	7	R1617S
1715.45	0.0	1912987	WORD_OFF	n/a	n/a	OAK	Trees	12	12	[0, 0, 0]	n/a	catFR1	7	R1617S
1715.45	0.004	1912987	PROB	0.004	n/a	n/a	n/a	-999	12	[6, 2, 3]	11	catFR1	7	R1617S
1715.454	0.0	1912991	START	n/a	n/a	n/a	n/a	-999	12	[-999, -999, -999]	n/a	catFR1	7	R1617S
1715.454	0.0	1912997	ENCODING_END	n/a	n/a	n/a	n/a	-999	12	[0, 0, 0]	n/a	catFR1	7	R1617S
1715.454	7.312	1912997	DISTRACT_START	n/a	n/a	n/a	n/a	-999	12	[0, 0, 0]	n/a	catFR1	7	R1617S
1722.766	8.733	1920302	PROB	8.733	n/a	n/a	n/a	-999	12	[7, 8, 6]	21	catFR1	7	R1617S
1731.499	5.084	1929035	PROB	5.084	n/a	n/a	n/a	-999	12	[8, 2, 6]	16	catFR1	7	R1617S
1736.583	0.0	1934119	STOP	n/a	n/a	n/a	n/a	-999	12	[-999, -999, -999]	n/a	catFR1	7	R1617S
1736.583	1.117	1934123	DISTRACT_END	n/a	n/a	n/a	n/a	-999	12	[0, 0, 0]	n/a	catFR1	7	R1617S
1737.7	0.997	1935233	REC_START	n/a	n/a	n/a	n/a	-999	12	[0, 0, 0]	n/a	catFR1	7	R1617S
1738.697	1.926	1936233	REC_WORD_VV	1.926	n/a	<>	n/a	-999	12	[0, 0, 0]	n/a	catFR1	7	R1617S
1740.623	0.302	1938159	REC_WORD_VV	0.302	n/a	<>	n/a	-999	12	[0, 0, 0]	n/a	catFR1	7	R1617S
1740.925	2.642	1938461	REC_WORD	2.642	n/a	SODA	Beverages	6	12	[0, 0, 0]	n/a	catFR1	7	R1617S
1743.567	2.13	1941102	REC_WORD_VV	2.13	n/a	<>	n/a	-999	12	[0, 0, 0]	n/a	catFR1	7	R1617S
1745.697	4.058	1943232	REC_WORD	4.058	n/a	PUDDING	Desserts	8	12	[0, 0, 0]	n/a	catFR1	7	R1617S
1749.755	1.769	1947290	REC_WORD_VV	1.769	n/a	<>	n/a	-999	12	[0, 0, 0]	n/a	catFR1	7	R1617S
1751.524	2.397	1949059	REC_WORD	2.397	n/a	BEER	Beverages	9	12	[0, 0, 0]	n/a	catFR1	7	R1617S
1753.921	5.292	1951456	REC_WORD	5.292	n/a	WILLOW	Trees	11	12	[0, 0, 0]	n/a	catFR1	7	R1617S
1759.213	9.726	1956748	REC_WORD	9.726	n/a	COKE	n/a	-999	12	[0, 0, 0]	n/a	catFR1	7	R1617S
1768.939	0.0	1966476	REC_END	n/a	n/a	n/a	n/a	-999	12	[0, 0, 0]	n/a	catFR1	7	R1617S
