onset	duration	sample	trial_type	response_time	stim_file	item_name	category	serialpos	list	test	answer	experiment	session	subject
0.0	0.0	29351	INSTRUCT_START	n/a	n/a	n/a	n/a	-999	-999	[0, 0, 0]	n/a	catFR1	1	R1277J
0.0	11.029	29351	INSTRUCT_END	n/a	n/a	n/a	n/a	-999	-999	[0, 0, 0]	n/a	catFR1	1	R1277J
11.029	0.0	40380	SESS_START	n/a	n/a	n/a	n/a	-999	-999	[0, 0, 0]	n/a	catFR1	1	R1277J
11.029	21.501	40380	MIC_TEST	n/a	n/a	n/a	n/a	-999	-999	[0, 0, 0]	n/a	catFR1	1	R1277J
32.53	1.809	61881	PRACTICE_TRIAL	n/a	n/a	n/a	n/a	-999	-1	[0, 0, 0]	n/a	catFR1	1	R1277J
34.339	10.428	63690	COUNTDOWN_START	n/a	n/a	n/a	n/a	-999	-1	[0, 0, 0]	n/a	catFR1	1	R1277J
44.767	0.007	74118	COUNTDOWN_END	n/a	n/a	n/a	n/a	-999	-1	[0, 0, 0]	n/a	catFR1	1	R1277J
44.774	1.616	74125	PRACTICE_ORIENT	n/a	n/a	n/a	n/a	-999	-1	[0, 0, 0]	n/a	catFR1	1	R1277J
46.39	2.151	75741	PRACTICE_ORIENT_OFF	n/a	n/a	n/a	n/a	-999	-1	[0, 0, 0]	n/a	catFR1	1	R1277J
48.541	1.617	77892	PRACTICE_WORD	n/a	n/a	BEAM	n/a	-1	-1	[0, 0, 0]	n/a	catFR1	1	R1277J
50.158	0.932	79509	PRACTICE_WORD_OFF	n/a	n/a	BEAM	n/a	-999	-1	[0, 0, 0]	n/a	catFR1	1	R1277J
51.09	1.618	80441	PRACTICE_WORD	n/a	n/a	RHINO	n/a	-1	-1	[0, 0, 0]	n/a	catFR1	1	R1277J
52.708	0.917	82059	PRACTICE_WORD_OFF	n/a	n/a	RHINO	n/a	-999	-1	[0, 0, 0]	n/a	catFR1	1	R1277J
53.625	1.617	82976	PRACTICE_WORD	n/a	n/a	ATTIC	n/a	-1	-1	[0, 0, 0]	n/a	catFR1	1	R1277J
55.242	0.865	84593	PRACTICE_WORD_OFF	n/a	n/a	ATTIC	n/a	-999	-1	[0, 0, 0]	n/a	catFR1	1	R1277J
56.107	1.618	85458	PRACTICE_WORD	n/a	n/a	TONGUE	n/a	-1	-1	[0, 0, 0]	n/a	catFR1	1	R1277J
57.725	0.834	87076	PRACTICE_WORD_OFF	n/a	n/a	TONGUE	n/a	-999	-1	[0, 0, 0]	n/a	catFR1	1	R1277J
58.559	1.617	87910	PRACTICE_WORD	n/a	n/a	RING	n/a	-1	-1	[0, 0, 0]	n/a	catFR1	1	R1277J
60.176	0.916	89527	PRACTICE_WORD_OFF	n/a	n/a	RING	n/a	-999	-1	[0, 0, 0]	n/a	catFR1	1	R1277J
61.092	1.617	90443	PRACTICE_WORD	n/a	n/a	FLOOD	n/a	-1	-1	[0, 0, 0]	n/a	catFR1	1	R1277J
62.709	0.951	92060	PRACTICE_WORD_OFF	n/a	n/a	FLOOD	n/a	-999	-1	[0, 0, 0]	n/a	catFR1	1	R1277J
63.66	1.616	93011	PRACTICE_WORD	n/a	n/a	IRON	n/a	-1	-1	[0, 0, 0]	n/a	catFR1	1	R1277J
65.276	0.884	94627	PRACTICE_WORD_OFF	n/a	n/a	IRON	n/a	-999	-1	[0, 0, 0]	n/a	catFR1	1	R1277J
66.16	1.617	95511	PRACTICE_WORD	n/a	n/a	COTTON	n/a	-1	-1	[0, 0, 0]	n/a	catFR1	1	R1277J
67.777	0.766	97128	PRACTICE_WORD_OFF	n/a	n/a	COTTON	n/a	-999	-1	[0, 0, 0]	n/a	catFR1	1	R1277J
68.543	1.617	97894	PRACTICE_WORD	n/a	n/a	CHEST	n/a	-1	-1	[0, 0, 0]	n/a	catFR1	1	R1277J
70.16	0.849	99511	PRACTICE_WORD_OFF	n/a	n/a	CHEST	n/a	-999	-1	[0, 0, 0]	n/a	catFR1	1	R1277J
71.009	1.618	100360	PRACTICE_WORD	n/a	n/a	WATCH	n/a	-1	-1	[0, 0, 0]	n/a	catFR1	1	R1277J
72.627	0.867	101978	PRACTICE_WORD_OFF	n/a	n/a	WATCH	n/a	-999	-1	[0, 0, 0]	n/a	catFR1	1	R1277J
73.494	1.616	102845	PRACTICE_WORD	n/a	n/a	WAGON	n/a	-1	-1	[0, 0, 0]	n/a	catFR1	1	R1277J
75.11	0.817	104461	PRACTICE_WORD_OFF	n/a	n/a	WAGON	n/a	-999	-1	[0, 0, 0]	n/a	catFR1	1	R1277J
75.927	1.617	105278	PRACTICE_WORD	n/a	n/a	CAMEL	n/a	-1	-1	[0, 0, 0]	n/a	catFR1	1	R1277J
77.544	0.001	106895	PRACTICE_WORD_OFF	n/a	n/a	CAMEL	n/a	-999	-1	[0, 0, 0]	n/a	catFR1	1	R1277J
77.545	0.0	106896	DISTRACT_START	n/a	n/a	n/a	n/a	-999	-1	[0, 0, 0]	n/a	catFR1	1	R1277J
77.545	0.0	106896	ENCODING_END	n/a	n/a	n/a	n/a	-999	-1	[0, 0, 0]	n/a	catFR1	1	R1277J
77.545	0.016	106896	START	n/a	n/a	n/a	n/a	-999	-1	[-999, -999, -999]	n/a	catFR1	1	R1277J
77.561	2.967	106912	PROB	2.967	n/a	n/a	n/a	-999	-1	[3, 8, 7]	18	catFR1	1	R1277J
80.528	4.334	109879	PROB	4.334	n/a	n/a	n/a	-999	-1	[9, 5, 7]	23	catFR1	1	R1277J
84.862	8.618	114213	PROB	8.618	n/a	n/a	n/a	-999	-1	[6, 9, 6]	21	catFR1	1	R1277J
93.48	2.217	122831	PROB	2.217	n/a	n/a	n/a	-999	-1	[3, 1, 7]	11	catFR1	1	R1277J
95.697	3.949	125048	PROB	3.949	n/a	n/a	n/a	-999	-1	[8, 9, 4]	21	catFR1	1	R1277J
99.646	0.018	128997	STOP	n/a	n/a	n/a	n/a	-999	-1	[-999, -999, -999]	n/a	catFR1	1	R1277J
99.664	0.7	129015	DISTRACT_END	n/a	n/a	n/a	n/a	-999	-1	[0, 0, 0]	n/a	catFR1	1	R1277J
100.364	0.518	129715	RETRIEVAL_ORIENT	n/a	n/a	n/a	n/a	-999	-1	[0, 0, 0]	n/a	catFR1	1	R1277J
100.882	30.009	130233	PRACTICE_REC_START	n/a	n/a	n/a	n/a	-999	-1	[0, 0, 0]	n/a	catFR1	1	R1277J
130.891	15.946	160242	PRACTICE_REC_END	n/a	n/a	n/a	n/a	-999	-1	[0, 0, 0]	n/a	catFR1	1	R1277J
146.837	0.5	176188	TRIAL	n/a	n/a	n/a	n/a	-999	1	[0, 0, 0]	n/a	catFR1	1	R1277J
147.337	10.428	176688	COUNTDOWN_START	n/a	n/a	n/a	n/a	-999	1	[0, 0, 0]	n/a	catFR1	1	R1277J
157.765	0.006	187116	COUNTDOWN_END	n/a	n/a	n/a	n/a	-999	1	[0, 0, 0]	n/a	catFR1	1	R1277J
157.771	1.617	187122	ORIENT	n/a	n/a	n/a	n/a	-999	1	[0, 0, 0]	n/a	catFR1	1	R1277J
159.388	2.017	188739	ORIENT_OFF	n/a	n/a	n/a	n/a	-999	1	[0, 0, 0]	n/a	catFR1	1	R1277J
161.405	1.616	190756	WORD	n/a	wordpools/wordpool_categorized_EN.txt	WALNUT	Trees	1	1	[0, 0, 0]	n/a	catFR1	1	R1277J
163.021	0.834	192372	WORD_OFF	n/a	n/a	WALNUT	n/a	1	1	[0, 0, 0]	n/a	catFR1	1	R1277J
163.855	1.617	193206	WORD	n/a	wordpools/wordpool_categorized_EN.txt	WILLOW	Trees	2	1	[0, 0, 0]	n/a	catFR1	1	R1277J
165.472	0.984	194823	WORD_OFF	n/a	n/a	WILLOW	n/a	2	1	[0, 0, 0]	n/a	catFR1	1	R1277J
166.456	1.616	195807	WORD	n/a	wordpools/wordpool_categorized_EN.txt	KNEE	BodyParts	3	1	[0, 0, 0]	n/a	catFR1	1	R1277J
168.072	0.866	197423	WORD_OFF	n/a	n/a	KNEE	n/a	3	1	[0, 0, 0]	n/a	catFR1	1	R1277J
168.938	1.618	198289	WORD	n/a	wordpools/wordpool_categorized_EN.txt	HAND	BodyParts	4	1	[0, 0, 0]	n/a	catFR1	1	R1277J
170.556	0.934	199907	WORD_OFF	n/a	n/a	HAND	n/a	4	1	[0, 0, 0]	n/a	catFR1	1	R1277J
171.49	1.616	200841	WORD	n/a	wordpools/wordpool_categorized_EN.txt	TOASTER	Appliances	5	1	[0, 0, 0]	n/a	catFR1	1	R1277J
173.106	1.0	202457	WORD_OFF	n/a	n/a	TOASTER	n/a	5	1	[0, 0, 0]	n/a	catFR1	1	R1277J
174.106	1.618	203457	WORD	n/a	wordpools/wordpool_categorized_EN.txt	IRON	Appliances	6	1	[0, 0, 0]	n/a	catFR1	1	R1277J
175.724	0.9	205075	WORD_OFF	n/a	n/a	IRON	n/a	6	1	[0, 0, 0]	n/a	catFR1	1	R1277J
176.624	1.617	205975	WORD	n/a	wordpools/wordpool_categorized_EN.txt	CYPRESS	Trees	7	1	[0, 0, 0]	n/a	catFR1	1	R1277J
178.241	0.832	207592	WORD_OFF	n/a	n/a	CYPRESS	n/a	7	1	[0, 0, 0]	n/a	catFR1	1	R1277J
179.073	1.618	208424	WORD	n/a	wordpools/wordpool_categorized_EN.txt	PINE	Trees	8	1	[0, 0, 0]	n/a	catFR1	1	R1277J
180.691	0.984	210042	WORD_OFF	n/a	n/a	PINE	n/a	8	1	[0, 0, 0]	n/a	catFR1	1	R1277J
181.675	1.617	211026	WORD	n/a	wordpools/wordpool_categorized_EN.txt	TOE	BodyParts	9	1	[0, 0, 0]	n/a	catFR1	1	R1277J
183.292	0.916	212643	WORD_OFF	n/a	n/a	TOE	n/a	9	1	[0, 0, 0]	n/a	catFR1	1	R1277J
184.208	1.617	213559	WORD	n/a	wordpools/wordpool_categorized_EN.txt	HEAD	BodyParts	10	1	[0, 0, 0]	n/a	catFR1	1	R1277J
185.825	1.0	215176	WORD_OFF	n/a	n/a	HEAD	n/a	10	1	[0, 0, 0]	n/a	catFR1	1	R1277J
186.825	1.617	216176	WORD	n/a	wordpools/wordpool_categorized_EN.txt	OVEN	Appliances	11	1	[0, 0, 0]	n/a	catFR1	1	R1277J
188.442	0.933	217793	WORD_OFF	n/a	n/a	OVEN	n/a	11	1	[0, 0, 0]	n/a	catFR1	1	R1277J
189.375	1.616	218726	WORD	n/a	wordpools/wordpool_categorized_EN.txt	WASHER	Appliances	12	1	[0, 0, 0]	n/a	catFR1	1	R1277J
190.991	0.001	220342	WORD_OFF	n/a	n/a	WASHER	n/a	12	1	[0, 0, 0]	n/a	catFR1	1	R1277J
190.992	0.133	220343	ENCODING_END	n/a	n/a	n/a	n/a	-999	1	[0, 0, 0]	n/a	catFR1	1	R1277J
191.125	0.0	220476	DISTRACT_START	n/a	n/a	n/a	n/a	-999	1	[0, 0, 0]	n/a	catFR1	1	R1277J
191.125	0.016	220476	START	n/a	n/a	n/a	n/a	-999	1	[-999, -999, -999]	n/a	catFR1	1	R1277J
191.141	4.135	220492	PROB	4.135	n/a	n/a	n/a	-999	1	[5, 9, 7]	21	catFR1	1	R1277J
195.276	5.134	224626	PROB	5.134	n/a	n/a	n/a	-999	1	[9, 5, 8]	22	catFR1	1	R1277J
200.41	5.151	229760	PROB	5.151	n/a	n/a	n/a	-999	1	[7, 5, 2]	14	catFR1	1	R1277J
205.561	3.234	234911	PROB	3.234	n/a	n/a	n/a	-999	1	[4, 1, 5]	10	catFR1	1	R1277J
208.795	2.134	238145	PROB	2.134	n/a	n/a	n/a	-999	1	[5, 8, 2]	15	catFR1	1	R1277J
210.929	6.53	240279	PROB	6.53	n/a	n/a	n/a	-999	1	[8, 7, 6]	21	catFR1	1	R1277J
217.459	0.021	246809	STOP	n/a	n/a	n/a	n/a	-999	1	[-999, -999, -999]	n/a	catFR1	1	R1277J
217.48	0.582	246830	DISTRACT_END	n/a	n/a	n/a	n/a	-999	1	[0, 0, 0]	n/a	catFR1	1	R1277J
218.062	0.518	247412	RETRIEVAL_ORIENT	n/a	n/a	n/a	n/a	-999	1	[0, 0, 0]	n/a	catFR1	1	R1277J
218.58	3.891	247930	REC_START	n/a	n/a	n/a	n/a	-999	1	[0, 0, 0]	n/a	catFR1	1	R1277J
222.471	0.382	251821	REC_WORD_VV	0.382	n/a	<>	n/a	-999	1	[0, 0, 0]	n/a	catFR1	1	R1277J
222.853	1.078	252203	REC_WORD	1.078	n/a	OVEN	Appliances	11	1	[0, 0, 0]	n/a	catFR1	1	R1277J
223.931	2.338	253281	REC_WORD	2.338	n/a	TOASTER	Appliances	5	1	[0, 0, 0]	n/a	catFR1	1	R1277J
226.269	1.522	255619	REC_WORD	1.522	n/a	CYPRESS	Trees	7	1	[0, 0, 0]	n/a	catFR1	1	R1277J
227.791	1.508	257141	REC_WORD	1.508	n/a	WILLOW	Trees	2	1	[0, 0, 0]	n/a	catFR1	1	R1277J
229.299	8.678	258649	REC_WORD	8.678	n/a	PINE	Trees	8	1	[0, 0, 0]	n/a	catFR1	1	R1277J
237.977	10.615	267327	REC_WORD	10.615	n/a	OVEN	Appliances	11	1	[0, 0, 0]	n/a	catFR1	1	R1277J
248.592	24.979	277942	REC_END	n/a	n/a	n/a	n/a	-999	1	[0, 0, 0]	n/a	catFR1	1	R1277J
273.571	0.5	302921	TRIAL	n/a	n/a	n/a	n/a	-999	2	[0, 0, 0]	n/a	catFR1	1	R1277J
274.071	10.428	303421	COUNTDOWN_START	n/a	n/a	n/a	n/a	-999	2	[0, 0, 0]	n/a	catFR1	1	R1277J
284.499	0.006	313849	COUNTDOWN_END	n/a	n/a	n/a	n/a	-999	2	[0, 0, 0]	n/a	catFR1	1	R1277J
284.505	1.616	313855	ORIENT	n/a	n/a	n/a	n/a	-999	2	[0, 0, 0]	n/a	catFR1	1	R1277J
286.121	2.134	315471	ORIENT_OFF	n/a	n/a	n/a	n/a	-999	2	[0, 0, 0]	n/a	catFR1	1	R1277J
288.255	1.617	317605	WORD	n/a	wordpools/wordpool_categorized_EN.txt	LAKE	Landscapes	1	2	[0, 0, 0]	n/a	catFR1	1	R1277J
289.872	0.884	319222	WORD_OFF	n/a	n/a	LAKE	n/a	1	2	[0, 0, 0]	n/a	catFR1	1	R1277J
290.756	1.617	320106	WORD	n/a	wordpools/wordpool_categorized_EN.txt	OCEAN	Landscapes	2	2	[0, 0, 0]	n/a	catFR1	1	R1277J
292.373	0.95	321723	WORD_OFF	n/a	n/a	OCEAN	n/a	2	2	[0, 0, 0]	n/a	catFR1	1	R1277J
293.323	1.616	322673	WORD	n/a	wordpools/wordpool_categorized_EN.txt	HICKORY	Trees	3	2	[0, 0, 0]	n/a	catFR1	1	R1277J
294.939	0.801	324289	WORD_OFF	n/a	n/a	HICKORY	n/a	3	2	[0, 0, 0]	n/a	catFR1	1	R1277J
295.74	1.617	325090	WORD	n/a	wordpools/wordpool_categorized_EN.txt	OAK	Trees	4	2	[0, 0, 0]	n/a	catFR1	1	R1277J
297.357	0.8	326707	WORD_OFF	n/a	n/a	OAK	n/a	4	2	[0, 0, 0]	n/a	catFR1	1	R1277J
298.157	1.617	327507	WORD	n/a	wordpools/wordpool_categorized_EN.txt	THUNDER	Weather	5	2	[0, 0, 0]	n/a	catFR1	1	R1277J
299.774	0.983	329124	WORD_OFF	n/a	n/a	THUNDER	n/a	5	2	[0, 0, 0]	n/a	catFR1	1	R1277J
300.757	1.617	330107	WORD	n/a	wordpools/wordpool_categorized_EN.txt	CLOUD	Weather	6	2	[0, 0, 0]	n/a	catFR1	1	R1277J
302.374	0.95	331724	WORD_OFF	n/a	n/a	CLOUD	n/a	6	2	[0, 0, 0]	n/a	catFR1	1	R1277J
303.324	1.616	332674	WORD	n/a	wordpools/wordpool_categorized_EN.txt	CEDAR	Trees	7	2	[0, 0, 0]	n/a	catFR1	1	R1277J
304.94	0.834	334290	WORD_OFF	n/a	n/a	CEDAR	n/a	7	2	[0, 0, 0]	n/a	catFR1	1	R1277J
305.774	1.617	335124	WORD	n/a	wordpools/wordpool_categorized_EN.txt	SPRUCE	Trees	8	2	[0, 0, 0]	n/a	catFR1	1	R1277J
307.391	0.767	336741	WORD_OFF	n/a	n/a	SPRUCE	n/a	8	2	[0, 0, 0]	n/a	catFR1	1	R1277J
308.158	1.617	337508	WORD	n/a	wordpools/wordpool_categorized_EN.txt	VALLEY	Landscapes	9	2	[0, 0, 0]	n/a	catFR1	1	R1277J
309.775	1.017	339125	WORD_OFF	n/a	n/a	VALLEY	n/a	9	2	[0, 0, 0]	n/a	catFR1	1	R1277J
310.792	1.617	340142	WORD	n/a	wordpools/wordpool_categorized_EN.txt	WOODS	Landscapes	10	2	[0, 0, 0]	n/a	catFR1	1	R1277J
312.409	0.766	341759	WORD_OFF	n/a	n/a	WOODS	n/a	10	2	[0, 0, 0]	n/a	catFR1	1	R1277J
313.175	1.618	342525	WORD	n/a	wordpools/wordpool_categorized_EN.txt	HUMIDITY	Weather	11	2	[0, 0, 0]	n/a	catFR1	1	R1277J
314.793	0.933	344143	WORD_OFF	n/a	n/a	HUMIDITY	n/a	11	2	[0, 0, 0]	n/a	catFR1	1	R1277J
315.726	1.617	345076	WORD	n/a	wordpools/wordpool_categorized_EN.txt	FOG	Weather	12	2	[0, 0, 0]	n/a	catFR1	1	R1277J
317.343	0.0	346693	ENCODING_END	n/a	n/a	n/a	n/a	-999	2	[0, 0, 0]	n/a	catFR1	1	R1277J
317.343	0.099	346693	WORD_OFF	n/a	n/a	FOG	n/a	12	2	[0, 0, 0]	n/a	catFR1	1	R1277J
317.442	0.001	346792	DISTRACT_START	n/a	n/a	n/a	n/a	-999	2	[0, 0, 0]	n/a	catFR1	1	R1277J
317.443	0.016	346793	START	n/a	n/a	n/a	n/a	-999	2	[-999, -999, -999]	n/a	catFR1	1	R1277J
317.459	4.483	346809	PROB	4.483	n/a	n/a	n/a	-999	2	[6, 8, 4]	18	catFR1	1	R1277J
321.942	2.969	351292	PROB	2.969	n/a	n/a	n/a	-999	2	[4, 3, 2]	9	catFR1	1	R1277J
324.911	3.483	354261	PROB	3.483	n/a	n/a	n/a	-999	2	[5, 9, 6]	20	catFR1	1	R1277J
328.394	2.268	357744	PROB	2.268	n/a	n/a	n/a	-999	2	[2, 3, 1]	6	catFR1	1	R1277J
330.662	2.083	360012	PROB	2.083	n/a	n/a	n/a	-999	2	[3, 2, 3]	8	catFR1	1	R1277J
332.745	2.316	362095	PROB	2.316	n/a	n/a	n/a	-999	2	[6, 4, 3]	13	catFR1	1	R1277J
335.061	6.177	364411	PROB	6.177	n/a	n/a	n/a	-999	2	[7, 5, 6]	18	catFR1	1	R1277J
341.238	0.008	370588	STOP	n/a	n/a	n/a	n/a	-999	2	[-999, -999, -999]	n/a	catFR1	1	R1277J
341.246	0.617	370596	DISTRACT_END	n/a	n/a	n/a	n/a	-999	2	[0, 0, 0]	n/a	catFR1	1	R1277J
341.863	0.518	371213	RETRIEVAL_ORIENT	n/a	n/a	n/a	n/a	-999	2	[0, 0, 0]	n/a	catFR1	1	R1277J
342.381	0.699	371731	REC_START	n/a	n/a	n/a	n/a	-999	2	[0, 0, 0]	n/a	catFR1	1	R1277J
343.08	0.602	372430	REC_WORD	0.602	n/a	CEDAR	Trees	7	2	[0, 0, 0]	n/a	catFR1	1	R1277J
343.682	0.483	373032	REC_WORD	0.483	n/a	OAK	Trees	4	2	[0, 0, 0]	n/a	catFR1	1	R1277J
344.165	3.575	373515	REC_WORD	3.575	n/a	PINE	n/a	-999	2	[0, 0, 0]	n/a	catFR1	1	R1277J
347.74	0.643	377090	REC_WORD	0.643	n/a	THUNDER	Weather	5	2	[0, 0, 0]	n/a	catFR1	1	R1277J
348.383	12.979	377733	REC_WORD	12.979	n/a	CLOUD	Weather	6	2	[0, 0, 0]	n/a	catFR1	1	R1277J
361.362	11.029	390712	REC_WORD	11.029	n/a	STORM	n/a	-999	2	[0, 0, 0]	n/a	catFR1	1	R1277J
372.391	5.06	401741	REC_END	n/a	n/a	n/a	n/a	-999	2	[0, 0, 0]	n/a	catFR1	1	R1277J
377.451	0.5	406801	TRIAL	n/a	n/a	n/a	n/a	-999	3	[0, 0, 0]	n/a	catFR1	1	R1277J
377.951	10.428	407301	COUNTDOWN_START	n/a	n/a	n/a	n/a	-999	3	[0, 0, 0]	n/a	catFR1	1	R1277J
388.379	0.007	417729	COUNTDOWN_END	n/a	n/a	n/a	n/a	-999	3	[0, 0, 0]	n/a	catFR1	1	R1277J
388.386	1.616	417736	ORIENT	n/a	n/a	n/a	n/a	-999	3	[0, 0, 0]	n/a	catFR1	1	R1277J
390.002	2.017	419352	ORIENT_OFF	n/a	n/a	n/a	n/a	-999	3	[0, 0, 0]	n/a	catFR1	1	R1277J
392.019	1.618	421369	WORD	n/a	wordpools/wordpool_categorized_EN.txt	ELM	Trees	1	3	[0, 0, 0]	n/a	catFR1	1	R1277J
393.637	0.783	422987	WORD_OFF	n/a	n/a	ELM	n/a	1	3	[0, 0, 0]	n/a	catFR1	1	R1277J
394.42	1.616	423770	WORD	n/a	wordpools/wordpool_categorized_EN.txt	BIRCH	Trees	2	3	[0, 0, 0]	n/a	catFR1	1	R1277J
396.036	0.917	425386	WORD_OFF	n/a	n/a	BIRCH	n/a	2	3	[0, 0, 0]	n/a	catFR1	1	R1277J
396.953	1.601	426303	WORD	n/a	wordpools/wordpool_categorized_EN.txt	FINCH	Birds	3	3	[0, 0, 0]	n/a	catFR1	1	R1277J
398.554	0.883	427904	WORD_OFF	n/a	n/a	FINCH	n/a	3	3	[0, 0, 0]	n/a	catFR1	1	R1277J
399.437	1.616	428787	WORD	n/a	wordpools/wordpool_categorized_EN.txt	PIGEON	Birds	4	3	[0, 0, 0]	n/a	catFR1	1	R1277J
401.053	0.785	430403	WORD_OFF	n/a	n/a	PIGEON	n/a	4	3	[0, 0, 0]	n/a	catFR1	1	R1277J
401.838	1.617	431188	WORD	n/a	wordpools/wordpool_categorized_EN.txt	CHICKEN	FarmAnimals	5	3	[0, 0, 0]	n/a	catFR1	1	R1277J
403.455	0.8	432804	WORD_OFF	n/a	n/a	CHICKEN	n/a	5	3	[0, 0, 0]	n/a	catFR1	1	R1277J
404.255	1.616	433604	WORD	n/a	wordpools/wordpool_categorized_EN.txt	SHEEP	FarmAnimals	6	3	[0, 0, 0]	n/a	catFR1	1	R1277J
405.871	0.934	435220	WORD_OFF	n/a	n/a	SHEEP	n/a	6	3	[0, 0, 0]	n/a	catFR1	1	R1277J
406.805	1.617	436154	WORD	n/a	wordpools/wordpool_categorized_EN.txt	BLUEBIRD	Birds	7	3	[0, 0, 0]	n/a	catFR1	1	R1277J
408.422	0.917	437771	WORD_OFF	n/a	n/a	BLUEBIRD	n/a	7	3	[0, 0, 0]	n/a	catFR1	1	R1277J
409.339	1.616	438688	WORD	n/a	wordpools/wordpool_categorized_EN.txt	SEAGULL	Birds	8	3	[0, 0, 0]	n/a	catFR1	1	R1277J
410.955	0.817	440304	WORD_OFF	n/a	n/a	SEAGULL	n/a	8	3	[0, 0, 0]	n/a	catFR1	1	R1277J
411.772	1.617	441121	WORD	n/a	wordpools/wordpool_categorized_EN.txt	EVERGREEN	Trees	9	3	[0, 0, 0]	n/a	catFR1	1	R1277J
413.389	0.8	442738	WORD_OFF	n/a	n/a	EVERGREEN	n/a	9	3	[0, 0, 0]	n/a	catFR1	1	R1277J
414.189	1.617	443538	WORD	n/a	wordpools/wordpool_categorized_EN.txt	MAPLE	Trees	10	3	[0, 0, 0]	n/a	catFR1	1	R1277J
415.806	0.767	445155	WORD_OFF	n/a	n/a	MAPLE	n/a	10	3	[0, 0, 0]	n/a	catFR1	1	R1277J
416.573	1.617	445922	WORD	n/a	wordpools/wordpool_categorized_EN.txt	CALF	FarmAnimals	11	3	[0, 0, 0]	n/a	catFR1	1	R1277J
418.19	0.882	447539	WORD_OFF	n/a	n/a	CALF	n/a	11	3	[0, 0, 0]	n/a	catFR1	1	R1277J
419.072	1.618	448421	WORD	n/a	wordpools/wordpool_categorized_EN.txt	HORSE	FarmAnimals	12	3	[0, 0, 0]	n/a	catFR1	1	R1277J
420.69	0.001	450039	WORD_OFF	n/a	n/a	HORSE	n/a	12	3	[0, 0, 0]	n/a	catFR1	1	R1277J
420.691	0.101	450040	ENCODING_END	n/a	n/a	n/a	n/a	-999	3	[0, 0, 0]	n/a	catFR1	1	R1277J
420.792	0.0	450141	DISTRACT_START	n/a	n/a	n/a	n/a	-999	3	[0, 0, 0]	n/a	catFR1	1	R1277J
420.792	0.015	450141	START	n/a	n/a	n/a	n/a	-999	3	[-999, -999, -999]	n/a	catFR1	1	R1277J
420.807	2.584	450156	PROB	2.584	n/a	n/a	n/a	-999	3	[8, 9, 1]	18	catFR1	1	R1277J
423.391	3.682	452740	PROB	3.682	n/a	n/a	n/a	-999	3	[9, 8, 5]	22	catFR1	1	R1277J
427.073	3.901	456422	PROB	3.901	n/a	n/a	n/a	-999	3	[8, 8, 8]	24	catFR1	1	R1277J
430.974	3.651	460323	PROB	3.651	n/a	n/a	n/a	-999	3	[4, 8, 4]	1	catFR1	1	R1277J
434.625	7.905	463974	PROB	7.905	n/a	n/a	n/a	-999	3	[9, 6, 6]	21	catFR1	1	R1277J
442.53	0.013	471879	STOP	n/a	n/a	n/a	n/a	-999	3	[-999, -999, -999]	n/a	catFR1	1	R1277J
442.543	0.683	471892	DISTRACT_END	n/a	n/a	n/a	n/a	-999	3	[0, 0, 0]	n/a	catFR1	1	R1277J
443.226	0.518	472575	RETRIEVAL_ORIENT	n/a	n/a	n/a	n/a	-999	3	[0, 0, 0]	n/a	catFR1	1	R1277J
443.744	1.442	473093	REC_START	n/a	n/a	n/a	n/a	-999	3	[0, 0, 0]	n/a	catFR1	1	R1277J
445.186	0.743	474535	REC_WORD	0.743	n/a	FINCH	Birds	3	3	[0, 0, 0]	n/a	catFR1	1	R1277J
445.929	2.685	475278	REC_WORD	2.685	n/a	BLUEBIRD	Birds	7	3	[0, 0, 0]	n/a	catFR1	1	R1277J
448.614	0.453	477963	REC_WORD	0.453	n/a	OAK	n/a	-999	3	[0, 0, 0]	n/a	catFR1	1	R1277J
449.067	2.465	478416	REC_WORD	2.465	n/a	ELM	Trees	1	3	[0, 0, 0]	n/a	catFR1	1	R1277J
451.532	3.42	480881	REC_WORD	3.42	n/a	SPRUCE	n/a	-999	3	[0, 0, 0]	n/a	catFR1	1	R1277J
454.952	9.666	484301	REC_WORD	9.666	n/a	CALF	FarmAnimals	11	3	[0, 0, 0]	n/a	catFR1	1	R1277J
464.618	9.137	493967	REC_WORD	9.137	n/a	FINCH	Birds	3	3	[0, 0, 0]	n/a	catFR1	1	R1277J
473.755	7.326	503104	REC_END	n/a	n/a	n/a	n/a	-999	3	[0, 0, 0]	n/a	catFR1	1	R1277J
481.081	0.5	510430	TRIAL	n/a	n/a	n/a	n/a	-999	4	[0, 0, 0]	n/a	catFR1	1	R1277J
481.581	10.428	510930	COUNTDOWN_START	n/a	n/a	n/a	n/a	-999	4	[0, 0, 0]	n/a	catFR1	1	R1277J
492.009	0.006	521358	COUNTDOWN_END	n/a	n/a	n/a	n/a	-999	4	[0, 0, 0]	n/a	catFR1	1	R1277J
492.015	1.601	521364	ORIENT	n/a	n/a	n/a	n/a	-999	4	[0, 0, 0]	n/a	catFR1	1	R1277J
493.616	2.034	522965	ORIENT_OFF	n/a	n/a	n/a	n/a	-999	4	[0, 0, 0]	n/a	catFR1	1	R1277J
495.65	1.617	524999	WORD	n/a	wordpools/wordpool_categorized_EN.txt	GOOSE	Birds	1	4	[0, 0, 0]	n/a	catFR1	1	R1277J
497.267	0.815	526616	WORD_OFF	n/a	n/a	GOOSE	n/a	1	4	[0, 0, 0]	n/a	catFR1	1	R1277J
498.082	1.619	527431	WORD	n/a	wordpools/wordpool_categorized_EN.txt	CROW	Birds	2	4	[0, 0, 0]	n/a	catFR1	1	R1277J
499.701	0.883	529050	WORD_OFF	n/a	n/a	CROW	n/a	2	4	[0, 0, 0]	n/a	catFR1	1	R1277J
500.584	1.617	529933	WORD	n/a	wordpools/wordpool_categorized_EN.txt	LEVEL	Tools	3	4	[0, 0, 0]	n/a	catFR1	1	R1277J
502.201	0.899	531550	WORD_OFF	n/a	n/a	LEVEL	n/a	3	4	[0, 0, 0]	n/a	catFR1	1	R1277J
503.1	1.618	532449	WORD	n/a	wordpools/wordpool_categorized_EN.txt	PLIERS	Tools	4	4	[0, 0, 0]	n/a	catFR1	1	R1277J
504.718	0.85	534067	WORD_OFF	n/a	n/a	PLIERS	n/a	4	4	[0, 0, 0]	n/a	catFR1	1	R1277J
505.568	1.617	534917	WORD	n/a	wordpools/wordpool_categorized_EN.txt	CHAIR	Furniture	5	4	[0, 0, 0]	n/a	catFR1	1	R1277J
507.185	0.949	536534	WORD_OFF	n/a	n/a	CHAIR	n/a	5	4	[0, 0, 0]	n/a	catFR1	1	R1277J
508.134	1.601	537483	WORD	n/a	wordpools/wordpool_categorized_EN.txt	SHELF	Furniture	6	4	[0, 0, 0]	n/a	catFR1	1	R1277J
509.735	0.867	539084	WORD_OFF	n/a	n/a	SHELF	n/a	6	4	[0, 0, 0]	n/a	catFR1	1	R1277J
510.602	1.617	539951	WORD	n/a	wordpools/wordpool_categorized_EN.txt	HAMMER	Tools	7	4	[0, 0, 0]	n/a	catFR1	1	R1277J
512.219	0.833	541568	WORD_OFF	n/a	n/a	HAMMER	n/a	7	4	[0, 0, 0]	n/a	catFR1	1	R1277J
513.052	1.618	542401	WORD	n/a	wordpools/wordpool_categorized_EN.txt	SAW	Tools	8	4	[0, 0, 0]	n/a	catFR1	1	R1277J
514.67	0.783	544019	WORD_OFF	n/a	n/a	SAW	n/a	8	4	[0, 0, 0]	n/a	catFR1	1	R1277J
515.453	1.616	544802	WORD	n/a	wordpools/wordpool_categorized_EN.txt	DUCK	Birds	9	4	[0, 0, 0]	n/a	catFR1	1	R1277J
517.069	0.95	546418	WORD_OFF	n/a	n/a	DUCK	n/a	9	4	[0, 0, 0]	n/a	catFR1	1	R1277J
518.019	1.601	547368	WORD	n/a	wordpools/wordpool_categorized_EN.txt	ROBIN	Birds	10	4	[0, 0, 0]	n/a	catFR1	1	R1277J
519.62	0.8	548969	WORD_OFF	n/a	n/a	ROBIN	n/a	10	4	[0, 0, 0]	n/a	catFR1	1	R1277J
520.42	1.616	549769	WORD	n/a	wordpools/wordpool_categorized_EN.txt	DRESSER	Furniture	11	4	[0, 0, 0]	n/a	catFR1	1	R1277J
522.036	0.851	551385	WORD_OFF	n/a	n/a	DRESSER	n/a	11	4	[0, 0, 0]	n/a	catFR1	1	R1277J
522.887	1.617	552236	WORD	n/a	wordpools/wordpool_categorized_EN.txt	NIGHTSTAND	Furniture	12	4	[0, 0, 0]	n/a	catFR1	1	R1277J
524.504	0.001	553853	WORD_OFF	n/a	n/a	NIGHTSTAND	n/a	12	4	[0, 0, 0]	n/a	catFR1	1	R1277J
524.505	0.131	553854	ENCODING_END	n/a	n/a	n/a	n/a	-999	4	[0, 0, 0]	n/a	catFR1	1	R1277J
524.636	0.0	553985	DISTRACT_START	n/a	n/a	n/a	n/a	-999	4	[0, 0, 0]	n/a	catFR1	1	R1277J
524.636	0.018	553985	START	n/a	n/a	n/a	n/a	-999	4	[-999, -999, -999]	n/a	catFR1	1	R1277J
524.654	5.034	554003	PROB	5.034	n/a	n/a	n/a	-999	4	[8, 3, 5]	16	catFR1	1	R1277J
529.688	4.618	559037	PROB	4.618	n/a	n/a	n/a	-999	4	[6, 8, 2]	16	catFR1	1	R1277J
534.306	4.517	563655	PROB	4.517	n/a	n/a	n/a	-999	4	[3, 6, 6]	15	catFR1	1	R1277J
538.823	2.433	568172	PROB	2.433	n/a	n/a	n/a	-999	4	[7, 5, 5]	17	catFR1	1	R1277J
541.256	4.724	570605	PROB	4.724	n/a	n/a	n/a	-999	4	[6, 6, 6]	18	catFR1	1	R1277J
545.98	0.009	575329	STOP	n/a	n/a	n/a	n/a	-999	4	[-999, -999, -999]	n/a	catFR1	1	R1277J
545.989	0.584	575338	DISTRACT_END	n/a	n/a	n/a	n/a	-999	4	[0, 0, 0]	n/a	catFR1	1	R1277J
546.573	0.517	575922	RETRIEVAL_ORIENT	n/a	n/a	n/a	n/a	-999	4	[0, 0, 0]	n/a	catFR1	1	R1277J
547.09	1.419	576439	REC_START	n/a	n/a	n/a	n/a	-999	4	[0, 0, 0]	n/a	catFR1	1	R1277J
548.509	0.557	577858	REC_WORD	0.557	n/a	CHAIR	Furniture	5	4	[0, 0, 0]	n/a	catFR1	1	R1277J
549.066	3.318	578415	REC_WORD	3.318	n/a	DRESSER	Furniture	11	4	[0, 0, 0]	n/a	catFR1	1	R1277J
552.384	0.654	581733	REC_WORD	0.654	n/a	GOOSE	Birds	1	4	[0, 0, 0]	n/a	catFR1	1	R1277J
553.038	2.49	582387	REC_WORD	2.49	n/a	DUCK	Birds	9	4	[0, 0, 0]	n/a	catFR1	1	R1277J
555.528	1.0	584877	REC_WORD	1.0	n/a	PLIERS	Tools	4	4	[0, 0, 0]	n/a	catFR1	1	R1277J
556.528	2.294	585877	REC_WORD_VV	2.294	n/a	<>	n/a	-999	4	[0, 0, 0]	n/a	catFR1	1	R1277J
558.822	1.903	588171	REC_WORD_VV	1.903	n/a	<>	n/a	-999	4	[0, 0, 0]	n/a	catFR1	1	R1277J
560.725	5.735	590074	REC_WORD_VV	5.735	n/a	<>	n/a	-999	4	[0, 0, 0]	n/a	catFR1	1	R1277J
566.46	10.64	595809	REC_WORD	10.64	n/a	CHICKEN	n/a	-999	4	[0, 0, 0]	n/a	catFR1	1	R1277J
577.1	4.662	606449	REC_END	n/a	n/a	n/a	n/a	-999	4	[0, 0, 0]	n/a	catFR1	1	R1277J
581.762	0.5	611111	TRIAL	n/a	n/a	n/a	n/a	-999	5	[0, 0, 0]	n/a	catFR1	1	R1277J
582.262	10.428	611611	COUNTDOWN_START	n/a	n/a	n/a	n/a	-999	5	[0, 0, 0]	n/a	catFR1	1	R1277J
592.69	0.007	622039	COUNTDOWN_END	n/a	n/a	n/a	n/a	-999	5	[0, 0, 0]	n/a	catFR1	1	R1277J
592.697	1.617	622046	ORIENT	n/a	n/a	n/a	n/a	-999	5	[0, 0, 0]	n/a	catFR1	1	R1277J
594.314	1.966	623663	ORIENT_OFF	n/a	n/a	n/a	n/a	-999	5	[0, 0, 0]	n/a	catFR1	1	R1277J
596.28	1.617	625629	WORD	n/a	wordpools/wordpool_categorized_EN.txt	SCANNER	Electronics	1	5	[0, 0, 0]	n/a	catFR1	1	R1277J
597.897	0.984	627246	WORD_OFF	n/a	n/a	SCANNER	n/a	1	5	[0, 0, 0]	n/a	catFR1	1	R1277J
598.881	1.617	628230	WORD	n/a	wordpools/wordpool_categorized_EN.txt	PRINTER	Electronics	2	5	[0, 0, 0]	n/a	catFR1	1	R1277J
600.498	0.966	629847	WORD_OFF	n/a	n/a	PRINTER	n/a	2	5	[0, 0, 0]	n/a	catFR1	1	R1277J
601.464	1.616	630813	WORD	n/a	wordpools/wordpool_categorized_EN.txt	SODA	Beverages	3	5	[0, 0, 0]	n/a	catFR1	1	R1277J
603.08	0.901	632429	WORD_OFF	n/a	n/a	SODA	n/a	3	5	[0, 0, 0]	n/a	catFR1	1	R1277J
603.981	1.617	633330	WORD	n/a	wordpools/wordpool_categorized_EN.txt	CIDER	Beverages	4	5	[0, 0, 0]	n/a	catFR1	1	R1277J
605.598	0.8	634947	WORD_OFF	n/a	n/a	CIDER	n/a	4	5	[0, 0, 0]	n/a	catFR1	1	R1277J
606.398	1.616	635747	WORD	n/a	wordpools/wordpool_categorized_EN.txt	FOREST	Landscapes	5	5	[0, 0, 0]	n/a	catFR1	1	R1277J
608.014	0.884	637363	WORD_OFF	n/a	n/a	FOREST	n/a	5	5	[0, 0, 0]	n/a	catFR1	1	R1277J
608.898	1.618	638247	WORD	n/a	wordpools/wordpool_categorized_EN.txt	RIVER	Landscapes	6	5	[0, 0, 0]	n/a	catFR1	1	R1277J
610.516	0.966	639865	WORD_OFF	n/a	n/a	RIVER	n/a	6	5	[0, 0, 0]	n/a	catFR1	1	R1277J
611.482	1.616	640831	WORD	n/a	wordpools/wordpool_categorized_EN.txt	JUICE	Beverages	7	5	[0, 0, 0]	n/a	catFR1	1	R1277J
613.098	1.017	642446	WORD_OFF	n/a	n/a	JUICE	n/a	7	5	[0, 0, 0]	n/a	catFR1	1	R1277J
614.115	1.618	643463	WORD	n/a	wordpools/wordpool_categorized_EN.txt	WATER	Beverages	8	5	[0, 0, 0]	n/a	catFR1	1	R1277J
615.733	0.833	645081	WORD_OFF	n/a	n/a	WATER	n/a	8	5	[0, 0, 0]	n/a	catFR1	1	R1277J
616.566	1.617	645914	WORD	n/a	wordpools/wordpool_categorized_EN.txt	COMPUTER	Electronics	9	5	[0, 0, 0]	n/a	catFR1	1	R1277J
618.183	0.949	647531	WORD_OFF	n/a	n/a	COMPUTER	n/a	9	5	[0, 0, 0]	n/a	catFR1	1	R1277J
619.132	1.618	648480	WORD	n/a	wordpools/wordpool_categorized_EN.txt	TABLET	Electronics	10	5	[0, 0, 0]	n/a	catFR1	1	R1277J
620.75	0.967	650098	WORD_OFF	n/a	n/a	TABLET	n/a	10	5	[0, 0, 0]	n/a	catFR1	1	R1277J
621.717	1.617	651065	WORD	n/a	wordpools/wordpool_categorized_EN.txt	CREEK	Landscapes	11	5	[0, 0, 0]	n/a	catFR1	1	R1277J
623.334	0.934	652682	WORD_OFF	n/a	n/a	CREEK	n/a	11	5	[0, 0, 0]	n/a	catFR1	1	R1277J
624.268	1.616	653616	WORD	n/a	wordpools/wordpool_categorized_EN.txt	BEACH	Landscapes	12	5	[0, 0, 0]	n/a	catFR1	1	R1277J
625.884	0.001	655232	WORD_OFF	n/a	n/a	BEACH	n/a	12	5	[0, 0, 0]	n/a	catFR1	1	R1277J
625.885	0.098	655233	ENCODING_END	n/a	n/a	n/a	n/a	-999	5	[0, 0, 0]	n/a	catFR1	1	R1277J
625.983	0.0	655331	DISTRACT_START	n/a	n/a	n/a	n/a	-999	5	[0, 0, 0]	n/a	catFR1	1	R1277J
625.983	0.017	655331	START	n/a	n/a	n/a	n/a	-999	5	[-999, -999, -999]	n/a	catFR1	1	R1277J
626.0	6.802	655348	PROB	6.802	n/a	n/a	n/a	-999	5	[9, 2, 7]	18	catFR1	1	R1277J
632.802	3.5	662150	PROB	3.5	n/a	n/a	n/a	-999	5	[7, 7, 4]	18	catFR1	1	R1277J
636.302	2.968	665650	PROB	2.968	n/a	n/a	n/a	-999	5	[8, 9, 1]	18	catFR1	1	R1277J
639.27	4.067	668618	PROB	4.067	n/a	n/a	n/a	-999	5	[7, 8, 6]	21	catFR1	1	R1277J
643.337	3.243	672685	PROB	3.243	n/a	n/a	n/a	-999	5	[2, 9, 5]	16	catFR1	1	R1277J
646.58	0.007	675928	STOP	n/a	n/a	n/a	n/a	-999	5	[-999, -999, -999]	n/a	catFR1	1	R1277J
646.587	0.533	675935	DISTRACT_END	n/a	n/a	n/a	n/a	-999	5	[0, 0, 0]	n/a	catFR1	1	R1277J
647.12	0.518	676468	RETRIEVAL_ORIENT	n/a	n/a	n/a	n/a	-999	5	[0, 0, 0]	n/a	catFR1	1	R1277J
647.638	1.248	676986	REC_START	n/a	n/a	n/a	n/a	-999	5	[0, 0, 0]	n/a	catFR1	1	R1277J
648.886	1.301	678234	REC_WORD	1.301	n/a	SCANTER	n/a	-999	5	[0, 0, 0]	n/a	catFR1	1	R1277J
650.187	0.357	679535	REC_WORD_VV	0.357	n/a	<>	n/a	-999	5	[0, 0, 0]	n/a	catFR1	1	R1277J
650.544	1.133	679892	REC_WORD	1.133	n/a	SCANNER	Electronics	1	5	[0, 0, 0]	n/a	catFR1	1	R1277J
651.677	1.446	681025	REC_WORD	1.446	n/a	PRINTER	Electronics	2	5	[0, 0, 0]	n/a	catFR1	1	R1277J
653.123	1.489	682471	REC_WORD	1.489	n/a	COMPUTER	Electronics	9	5	[0, 0, 0]	n/a	catFR1	1	R1277J
654.612	3.54	683960	REC_WORD	3.54	n/a	SODA	Beverages	3	5	[0, 0, 0]	n/a	catFR1	1	R1277J
658.152	5.854	687500	REC_WORD	5.854	n/a	JUICE	Beverages	7	5	[0, 0, 0]	n/a	catFR1	1	R1277J
664.006	13.64	693354	REC_WORD_VV	13.64	n/a	<>	n/a	-999	5	[0, 0, 0]	n/a	catFR1	1	R1277J
677.646	30.966	706994	REC_END	n/a	n/a	n/a	n/a	-999	5	[0, 0, 0]	n/a	catFR1	1	R1277J
708.612	0.5	737960	TRIAL	n/a	n/a	n/a	n/a	-999	6	[0, 0, 0]	n/a	catFR1	1	R1277J
709.112	10.428	738460	COUNTDOWN_START	n/a	n/a	n/a	n/a	-999	6	[0, 0, 0]	n/a	catFR1	1	R1277J
719.54	0.007	748888	COUNTDOWN_END	n/a	n/a	n/a	n/a	-999	6	[0, 0, 0]	n/a	catFR1	1	R1277J
719.547	1.617	748895	ORIENT	n/a	n/a	n/a	n/a	-999	6	[0, 0, 0]	n/a	catFR1	1	R1277J
721.164	2.0	750512	ORIENT_OFF	n/a	n/a	n/a	n/a	-999	6	[0, 0, 0]	n/a	catFR1	1	R1277J
723.164	1.617	752512	WORD	n/a	wordpools/wordpool_categorized_EN.txt	COW	FarmAnimals	1	6	[0, 0, 0]	n/a	catFR1	1	R1277J
724.781	0.983	754129	WORD_OFF	n/a	n/a	COW	n/a	1	6	[0, 0, 0]	n/a	catFR1	1	R1277J
725.764	1.617	755112	WORD	n/a	wordpools/wordpool_categorized_EN.txt	TURKEY	FarmAnimals	2	6	[0, 0, 0]	n/a	catFR1	1	R1277J
727.381	0.884	756729	WORD_OFF	n/a	n/a	TURKEY	n/a	2	6	[0, 0, 0]	n/a	catFR1	1	R1277J
728.265	1.617	757613	WORD	n/a	wordpools/wordpool_categorized_EN.txt	MOSQUITO	Insects	3	6	[0, 0, 0]	n/a	catFR1	1	R1277J
729.882	0.966	759230	WORD_OFF	n/a	n/a	MOSQUITO	n/a	3	6	[0, 0, 0]	n/a	catFR1	1	R1277J
730.848	1.617	760196	WORD	n/a	wordpools/wordpool_categorized_EN.txt	BEETLE	Insects	4	6	[0, 0, 0]	n/a	catFR1	1	R1277J
732.465	0.967	761813	WORD_OFF	n/a	n/a	BEETLE	n/a	4	6	[0, 0, 0]	n/a	catFR1	1	R1277J
733.432	1.616	762780	WORD	n/a	wordpools/wordpool_categorized_EN.txt	MILK	Beverages	5	6	[0, 0, 0]	n/a	catFR1	1	R1277J
735.048	0.983	764396	WORD_OFF	n/a	n/a	MILK	n/a	5	6	[0, 0, 0]	n/a	catFR1	1	R1277J
736.031	1.601	765379	WORD	n/a	wordpools/wordpool_categorized_EN.txt	COLA	Beverages	6	6	[0, 0, 0]	n/a	catFR1	1	R1277J
737.632	0.934	766980	WORD_OFF	n/a	n/a	COLA	n/a	6	6	[0, 0, 0]	n/a	catFR1	1	R1277J
738.566	1.617	767914	WORD	n/a	wordpools/wordpool_categorized_EN.txt	PIG	FarmAnimals	7	6	[0, 0, 0]	n/a	catFR1	1	R1277J
740.183	0.849	769531	WORD_OFF	n/a	n/a	PIG	n/a	7	6	[0, 0, 0]	n/a	catFR1	1	R1277J
741.032	1.618	770380	WORD	n/a	wordpools/wordpool_categorized_EN.txt	BULL	FarmAnimals	8	6	[0, 0, 0]	n/a	catFR1	1	R1277J
742.65	0.767	771998	WORD_OFF	n/a	n/a	BULL	n/a	8	6	[0, 0, 0]	n/a	catFR1	1	R1277J
743.417	1.616	772765	WORD	n/a	wordpools/wordpool_categorized_EN.txt	CRICKET	Insects	9	6	[0, 0, 0]	n/a	catFR1	1	R1277J
745.033	0.851	774381	WORD_OFF	n/a	n/a	CRICKET	n/a	9	6	[0, 0, 0]	n/a	catFR1	1	R1277J
745.884	1.617	775232	WORD	n/a	wordpools/wordpool_categorized_EN.txt	GNAT	Insects	10	6	[0, 0, 0]	n/a	catFR1	1	R1277J
747.501	0.917	776849	WORD_OFF	n/a	n/a	GNAT	n/a	10	6	[0, 0, 0]	n/a	catFR1	1	R1277J
748.418	1.616	777766	WORD	n/a	wordpools/wordpool_categorized_EN.txt	WINE	Beverages	11	6	[0, 0, 0]	n/a	catFR1	1	R1277J
750.034	0.983	779382	WORD_OFF	n/a	n/a	WINE	n/a	11	6	[0, 0, 0]	n/a	catFR1	1	R1277J
751.017	1.618	780365	WORD	n/a	wordpools/wordpool_categorized_EN.txt	RUM	Beverages	12	6	[0, 0, 0]	n/a	catFR1	1	R1277J
752.635	0.0	781983	ENCODING_END	n/a	n/a	n/a	n/a	-999	6	[0, 0, 0]	n/a	catFR1	1	R1277J
752.635	0.136	781983	WORD_OFF	n/a	n/a	RUM	n/a	12	6	[0, 0, 0]	n/a	catFR1	1	R1277J
752.771	0.0	782119	DISTRACT_START	n/a	n/a	n/a	n/a	-999	6	[0, 0, 0]	n/a	catFR1	1	R1277J
752.771	0.014	782119	START	n/a	n/a	n/a	n/a	-999	6	[-999, -999, -999]	n/a	catFR1	1	R1277J
752.785	3.484	782133	PROB	3.484	n/a	n/a	n/a	-999	6	[7, 2, 8]	17	catFR1	1	R1277J
756.269	4.567	785617	PROB	4.567	n/a	n/a	n/a	-999	6	[7, 5, 8]	20	catFR1	1	R1277J
760.836	2.801	790184	PROB	2.801	n/a	n/a	n/a	-999	6	[7, 6, 3]	16	catFR1	1	R1277J
763.637	5.733	792985	PROB	5.733	n/a	n/a	n/a	-999	6	[5, 6, 1]	12	catFR1	1	R1277J
769.37	4.028	798718	PROB	4.028	n/a	n/a	n/a	-999	6	[7, 4, 7]	18	catFR1	1	R1277J
773.398	0.006	802746	STOP	n/a	n/a	n/a	n/a	-999	6	[-999, -999, -999]	n/a	catFR1	1	R1277J
773.404	0.566	802752	DISTRACT_END	n/a	n/a	n/a	n/a	-999	6	[0, 0, 0]	n/a	catFR1	1	R1277J
773.97	0.519	803318	RETRIEVAL_ORIENT	n/a	n/a	n/a	n/a	-999	6	[0, 0, 0]	n/a	catFR1	1	R1277J
774.489	1.329	803837	REC_START	n/a	n/a	n/a	n/a	-999	6	[0, 0, 0]	n/a	catFR1	1	R1277J
775.818	1.68	805166	REC_WORD	1.68	n/a	COW	FarmAnimals	1	6	[0, 0, 0]	n/a	catFR1	1	R1277J
777.498	2.927	806846	REC_WORD	2.927	n/a	TURKEY	FarmAnimals	2	6	[0, 0, 0]	n/a	catFR1	1	R1277J
780.425	2.647	809773	REC_WORD	2.647	n/a	SHEEP	n/a	-999	6	[0, 0, 0]	n/a	catFR1	1	R1277J
783.072	2.773	812420	REC_WORD	2.773	n/a	BULL	FarmAnimals	8	6	[0, 0, 0]	n/a	catFR1	1	R1277J
785.845	2.465	815193	REC_WORD	2.465	n/a	MOSQUITO	Insects	3	6	[0, 0, 0]	n/a	catFR1	1	R1277J
788.31	2.23	817658	REC_WORD	2.23	n/a	BEETLE	Insects	4	6	[0, 0, 0]	n/a	catFR1	1	R1277J
790.54	2.637	819888	REC_WORD	2.637	n/a	GNAT	Insects	10	6	[0, 0, 0]	n/a	catFR1	1	R1277J
793.177	4.142	822525	REC_WORD	4.142	n/a	RUM	Beverages	12	6	[0, 0, 0]	n/a	catFR1	1	R1277J
797.319	7.18	826667	REC_WORD	7.18	n/a	WINE	Beverages	11	6	[0, 0, 0]	n/a	catFR1	1	R1277J
804.499	42.798	833847	REC_END	n/a	n/a	n/a	n/a	-999	6	[0, 0, 0]	n/a	catFR1	1	R1277J
847.297	0.5	876644	TRIAL	n/a	n/a	n/a	n/a	-999	7	[0, 0, 0]	n/a	catFR1	1	R1277J
847.797	10.428	877144	COUNTDOWN_START	n/a	n/a	n/a	n/a	-999	7	[0, 0, 0]	n/a	catFR1	1	R1277J
858.225	0.007	887572	COUNTDOWN_END	n/a	n/a	n/a	n/a	-999	7	[0, 0, 0]	n/a	catFR1	1	R1277J
858.232	1.617	887579	ORIENT	n/a	n/a	n/a	n/a	-999	7	[0, 0, 0]	n/a	catFR1	1	R1277J
859.849	2.166	889196	ORIENT_OFF	n/a	n/a	n/a	n/a	-999	7	[0, 0, 0]	n/a	catFR1	1	R1277J
862.015	1.601	891362	WORD	n/a	wordpools/wordpool_categorized_EN.txt	TEA	Beverages	1	7	[0, 0, 0]	n/a	catFR1	1	R1277J
863.616	0.817	892963	WORD_OFF	n/a	n/a	TEA	n/a	1	7	[0, 0, 0]	n/a	catFR1	1	R1277J
864.433	1.616	893780	WORD	n/a	wordpools/wordpool_categorized_EN.txt	BEER	Beverages	2	7	[0, 0, 0]	n/a	catFR1	1	R1277J
866.049	0.785	895396	WORD_OFF	n/a	n/a	BEER	n/a	2	7	[0, 0, 0]	n/a	catFR1	1	R1277J
866.834	1.616	896181	WORD	n/a	wordpools/wordpool_categorized_EN.txt	FOUNDATION	Building	3	7	[0, 0, 0]	n/a	catFR1	1	R1277J
868.45	0.934	897797	WORD_OFF	n/a	n/a	FOUNDATION	n/a	3	7	[0, 0, 0]	n/a	catFR1	1	R1277J
869.384	1.616	898731	WORD	n/a	wordpools/wordpool_categorized_EN.txt	WALL	Building	4	7	[0, 0, 0]	n/a	catFR1	1	R1277J
871.0	1.0	900347	WORD_OFF	n/a	n/a	WALL	n/a	4	7	[0, 0, 0]	n/a	catFR1	1	R1277J
872.0	1.618	901347	WORD	n/a	wordpools/wordpool_categorized_EN.txt	ORANGUTAN	Zoo	5	7	[0, 0, 0]	n/a	catFR1	1	R1277J
873.618	0.967	902965	WORD_OFF	n/a	n/a	ORANGUTAN	n/a	5	7	[0, 0, 0]	n/a	catFR1	1	R1277J
874.585	1.616	903932	WORD	n/a	wordpools/wordpool_categorized_EN.txt	CHEETAH	Zoo	6	7	[0, 0, 0]	n/a	catFR1	1	R1277J
876.201	0.783	905548	WORD_OFF	n/a	n/a	CHEETAH	n/a	6	7	[0, 0, 0]	n/a	catFR1	1	R1277J
876.984	1.618	906331	WORD	n/a	wordpools/wordpool_categorized_EN.txt	LEMONADE	Beverages	7	7	[0, 0, 0]	n/a	catFR1	1	R1277J
878.602	0.933	907949	WORD_OFF	n/a	n/a	LEMONADE	n/a	7	7	[0, 0, 0]	n/a	catFR1	1	R1277J
879.535	1.617	908882	WORD	n/a	wordpools/wordpool_categorized_EN.txt	COFFEE	Beverages	8	7	[0, 0, 0]	n/a	catFR1	1	R1277J
881.152	1.0	910499	WORD_OFF	n/a	n/a	COFFEE	n/a	8	7	[0, 0, 0]	n/a	catFR1	1	R1277J
882.152	1.617	911499	WORD	n/a	wordpools/wordpool_categorized_EN.txt	CEILING	Building	9	7	[0, 0, 0]	n/a	catFR1	1	R1277J
883.769	0.967	913116	WORD_OFF	n/a	n/a	CEILING	n/a	9	7	[0, 0, 0]	n/a	catFR1	1	R1277J
884.736	1.617	914083	WORD	n/a	wordpools/wordpool_categorized_EN.txt	WINDOW	Building	10	7	[0, 0, 0]	n/a	catFR1	1	R1277J
886.353	0.8	915700	WORD_OFF	n/a	n/a	WINDOW	n/a	10	7	[0, 0, 0]	n/a	catFR1	1	R1277J
887.153	1.617	916500	WORD	n/a	wordpools/wordpool_categorized_EN.txt	PANDA	Zoo	11	7	[0, 0, 0]	n/a	catFR1	1	R1277J
888.77	0.983	918117	WORD_OFF	n/a	n/a	PANDA	n/a	11	7	[0, 0, 0]	n/a	catFR1	1	R1277J
889.753	1.617	919100	WORD	n/a	wordpools/wordpool_categorized_EN.txt	LION	Zoo	12	7	[0, 0, 0]	n/a	catFR1	1	R1277J
891.37	0.001	920717	WORD_OFF	n/a	n/a	LION	n/a	12	7	[0, 0, 0]	n/a	catFR1	1	R1277J
891.371	0.128	920718	ENCODING_END	n/a	n/a	n/a	n/a	-999	7	[0, 0, 0]	n/a	catFR1	1	R1277J
891.499	0.0	920846	DISTRACT_START	n/a	n/a	n/a	n/a	-999	7	[0, 0, 0]	n/a	catFR1	1	R1277J
891.499	0.021	920846	START	n/a	n/a	n/a	n/a	-999	7	[-999, -999, -999]	n/a	catFR1	1	R1277J
891.52	7.068	920867	PROB	7.068	n/a	n/a	n/a	-999	7	[1, 7, 5]	13	catFR1	1	R1277J
898.588	2.516	927935	PROB	2.516	n/a	n/a	n/a	-999	7	[5, 3, 3]	11	catFR1	1	R1277J
901.104	1.933	930451	PROB	1.933	n/a	n/a	n/a	-999	7	[1, 4, 3]	8	catFR1	1	R1277J
903.037	3.485	932384	PROB	3.485	n/a	n/a	n/a	-999	7	[3, 8, 1]	12	catFR1	1	R1277J
906.522	3.416	935869	PROB	3.416	n/a	n/a	n/a	-999	7	[6, 3, 9]	18	catFR1	1	R1277J
909.938	4.311	939285	PROB	4.311	n/a	n/a	n/a	-999	7	[5, 4, 8]	17	catFR1	1	R1277J
914.249	0.008	943596	STOP	n/a	n/a	n/a	n/a	-999	7	[-999, -999, -999]	n/a	catFR1	1	R1277J
914.257	0.649	943604	DISTRACT_END	n/a	n/a	n/a	n/a	-999	7	[0, 0, 0]	n/a	catFR1	1	R1277J
914.906	0.518	944253	RETRIEVAL_ORIENT	n/a	n/a	n/a	n/a	-999	7	[0, 0, 0]	n/a	catFR1	1	R1277J
915.424	1.67	944771	REC_START	n/a	n/a	n/a	n/a	-999	7	[0, 0, 0]	n/a	catFR1	1	R1277J
917.094	1.161	946441	REC_WORD	1.161	n/a	TEA	Beverages	1	7	[0, 0, 0]	n/a	catFR1	1	R1277J
918.255	4.608	947602	REC_WORD	4.608	n/a	BEER	Beverages	2	7	[0, 0, 0]	n/a	catFR1	1	R1277J
922.863	1.206	952210	REC_WORD	1.206	n/a	FOUNDATION	Building	3	7	[0, 0, 0]	n/a	catFR1	1	R1277J
924.069	3.998	953416	REC_WORD	3.998	n/a	WALL	Building	4	7	[0, 0, 0]	n/a	catFR1	1	R1277J
928.067	1.0	957414	REC_WORD	1.0	n/a	ORANGUTAN	Zoo	5	7	[0, 0, 0]	n/a	catFR1	1	R1277J
929.067	3.031	958414	REC_WORD_VV	3.031	n/a	<>	n/a	-999	7	[0, 0, 0]	n/a	catFR1	1	R1277J
932.098	13.337	961445	REC_WORD	13.337	n/a	CHEETAH	Zoo	6	7	[0, 0, 0]	n/a	catFR1	1	R1277J
945.435	13.411	974782	REC_END	n/a	n/a	n/a	n/a	-999	7	[0, 0, 0]	n/a	catFR1	1	R1277J
958.846	0.5	988193	TRIAL	n/a	n/a	n/a	n/a	-999	8	[0, 0, 0]	n/a	catFR1	1	R1277J
959.346	10.428	988693	COUNTDOWN_START	n/a	n/a	n/a	n/a	-999	8	[0, 0, 0]	n/a	catFR1	1	R1277J
969.774	0.007	999121	COUNTDOWN_END	n/a	n/a	n/a	n/a	-999	8	[0, 0, 0]	n/a	catFR1	1	R1277J
969.781	1.617	999128	ORIENT	n/a	n/a	n/a	n/a	-999	8	[0, 0, 0]	n/a	catFR1	1	R1277J
971.398	1.933	1000745	ORIENT_OFF	n/a	n/a	n/a	n/a	-999	8	[0, 0, 0]	n/a	catFR1	1	R1277J
973.331	1.616	1002678	WORD	n/a	wordpools/wordpool_categorized_EN.txt	ROACH	Insects	1	8	[0, 0, 0]	n/a	catFR1	1	R1277J
974.947	0.984	1004294	WORD_OFF	n/a	n/a	ROACH	n/a	1	8	[0, 0, 0]	n/a	catFR1	1	R1277J
975.931	1.617	1005278	WORD	n/a	wordpools/wordpool_categorized_EN.txt	BEE	Insects	2	8	[0, 0, 0]	n/a	catFR1	1	R1277J
977.548	0.917	1006895	WORD_OFF	n/a	n/a	BEE	n/a	2	8	[0, 0, 0]	n/a	catFR1	1	R1277J
978.465	1.616	1007812	WORD	n/a	wordpools/wordpool_categorized_EN.txt	COLANDER	KitchenTools	3	8	[0, 0, 0]	n/a	catFR1	1	R1277J
980.081	0.9	1009428	WORD_OFF	n/a	n/a	COLANDER	n/a	3	8	[0, 0, 0]	n/a	catFR1	1	R1277J
980.981	1.618	1010328	WORD	n/a	wordpools/wordpool_categorized_EN.txt	TONGS	KitchenTools	4	8	[0, 0, 0]	n/a	catFR1	1	R1277J
982.599	0.967	1011946	WORD_OFF	n/a	n/a	TONGS	n/a	4	8	[0, 0, 0]	n/a	catFR1	1	R1277J
983.566	1.617	1012913	WORD	n/a	wordpools/wordpool_categorized_EN.txt	DRILL	Tools	5	8	[0, 0, 0]	n/a	catFR1	1	R1277J
985.183	0.916	1014530	WORD_OFF	n/a	n/a	DRILL	n/a	5	8	[0, 0, 0]	n/a	catFR1	1	R1277J
986.099	1.617	1015446	WORD	n/a	wordpools/wordpool_categorized_EN.txt	CROWBAR	Tools	6	8	[0, 0, 0]	n/a	catFR1	1	R1277J
987.716	0.901	1017063	WORD_OFF	n/a	n/a	CROWBAR	n/a	6	8	[0, 0, 0]	n/a	catFR1	1	R1277J
988.617	1.617	1017964	WORD	n/a	wordpools/wordpool_categorized_EN.txt	ANT	Insects	7	8	[0, 0, 0]	n/a	catFR1	1	R1277J
990.234	0.782	1019581	WORD_OFF	n/a	n/a	ANT	n/a	7	8	[0, 0, 0]	n/a	catFR1	1	R1277J
991.016	1.618	1020363	WORD	n/a	wordpools/wordpool_categorized_EN.txt	MOTH	Insects	8	8	[0, 0, 0]	n/a	catFR1	1	R1277J
992.634	1.0	1021981	WORD_OFF	n/a	n/a	MOTH	n/a	8	8	[0, 0, 0]	n/a	catFR1	1	R1277J
993.634	1.617	1022981	WORD	n/a	wordpools/wordpool_categorized_EN.txt	FORK	KitchenTools	9	8	[0, 0, 0]	n/a	catFR1	1	R1277J
995.251	1.017	1024598	WORD_OFF	n/a	n/a	FORK	n/a	9	8	[0, 0, 0]	n/a	catFR1	1	R1277J
996.268	1.616	1025615	WORD	n/a	wordpools/wordpool_categorized_EN.txt	SPOON	KitchenTools	10	8	[0, 0, 0]	n/a	catFR1	1	R1277J
997.884	0.95	1027231	WORD_OFF	n/a	n/a	SPOON	n/a	10	8	[0, 0, 0]	n/a	catFR1	1	R1277J
998.834	1.618	1028181	WORD	n/a	wordpools/wordpool_categorized_EN.txt	WRENCH	Tools	11	8	[0, 0, 0]	n/a	catFR1	1	R1277J
1000.452	0.849	1029799	WORD_OFF	n/a	n/a	WRENCH	n/a	11	8	[0, 0, 0]	n/a	catFR1	1	R1277J
1001.301	1.618	1030648	WORD	n/a	wordpools/wordpool_categorized_EN.txt	SANDER	Tools	12	8	[0, 0, 0]	n/a	catFR1	1	R1277J
1002.919	0.0	1032266	ENCODING_END	n/a	n/a	n/a	n/a	-999	8	[0, 0, 0]	n/a	catFR1	1	R1277J
1002.919	0.099	1032266	WORD_OFF	n/a	n/a	SANDER	n/a	12	8	[0, 0, 0]	n/a	catFR1	1	R1277J
1003.018	0.001	1032365	DISTRACT_START	n/a	n/a	n/a	n/a	-999	8	[0, 0, 0]	n/a	catFR1	1	R1277J
1003.019	0.015	1032366	START	n/a	n/a	n/a	n/a	-999	8	[-999, -999, -999]	n/a	catFR1	1	R1277J
1003.034	6.669	1032381	PROB	6.669	n/a	n/a	n/a	-999	8	[4, 5, 7]	16	catFR1	1	R1277J
1009.703	1.933	1039050	PROB	1.933	n/a	n/a	n/a	-999	8	[3, 7, 4]	14	catFR1	1	R1277J
1011.636	3.851	1040983	PROB	3.851	n/a	n/a	n/a	-999	8	[7, 5, 1]	12	catFR1	1	R1277J
1015.487	4.834	1044834	PROB	4.834	n/a	n/a	n/a	-999	8	[3, 6, 9]	18	catFR1	1	R1277J
1020.321	1.967	1049668	PROB	1.967	n/a	n/a	n/a	-999	8	[1, 9, 8]	18	catFR1	1	R1277J
1022.288	1.462	1051635	PROB	1.462	n/a	n/a	n/a	-999	8	[5, 5, 1]	11	catFR1	1	R1277J
1023.75	0.022	1053097	STOP	n/a	n/a	n/a	n/a	-999	8	[-999, -999, -999]	n/a	catFR1	1	R1277J
1023.772	0.599	1053119	DISTRACT_END	n/a	n/a	n/a	n/a	-999	8	[0, 0, 0]	n/a	catFR1	1	R1277J
1024.371	0.518	1053718	RETRIEVAL_ORIENT	n/a	n/a	n/a	n/a	-999	8	[0, 0, 0]	n/a	catFR1	1	R1277J
1024.889	1.007	1054236	REC_START	n/a	n/a	n/a	n/a	-999	8	[0, 0, 0]	n/a	catFR1	1	R1277J
1025.896	0.645	1055243	REC_WORD	0.645	n/a	ROACH	Insects	1	8	[0, 0, 0]	n/a	catFR1	1	R1277J
1026.541	0.569	1055888	REC_WORD	0.569	n/a	BEE	Insects	2	8	[0, 0, 0]	n/a	catFR1	1	R1277J
1027.11	1.808	1056457	REC_WORD	1.808	n/a	ANT	Insects	7	8	[0, 0, 0]	n/a	catFR1	1	R1277J
1028.918	2.948	1058265	REC_WORD	2.948	n/a	COLANDER	KitchenTools	3	8	[0, 0, 0]	n/a	catFR1	1	R1277J
1031.866	3.914	1061212	REC_WORD	3.914	n/a	FORK	KitchenTools	9	8	[0, 0, 0]	n/a	catFR1	1	R1277J
1035.78	19.12	1065126	REC_WORD	19.12	n/a	SANDER	Tools	12	8	[0, 0, 0]	n/a	catFR1	1	R1277J
1054.9	9.477	1084246	REC_END	n/a	n/a	n/a	n/a	-999	8	[0, 0, 0]	n/a	catFR1	1	R1277J
1064.377	0.5	1093723	TRIAL	n/a	n/a	n/a	n/a	-999	9	[0, 0, 0]	n/a	catFR1	1	R1277J
1064.877	10.428	1094223	COUNTDOWN_START	n/a	n/a	n/a	n/a	-999	9	[0, 0, 0]	n/a	catFR1	1	R1277J
1075.305	0.006	1104651	COUNTDOWN_END	n/a	n/a	n/a	n/a	-999	9	[0, 0, 0]	n/a	catFR1	1	R1277J
1075.311	1.617	1104657	ORIENT	n/a	n/a	n/a	n/a	-999	9	[0, 0, 0]	n/a	catFR1	1	R1277J
1076.928	2.116	1106274	ORIENT_OFF	n/a	n/a	n/a	n/a	-999	9	[0, 0, 0]	n/a	catFR1	1	R1277J
1079.044	1.602	1108390	WORD	n/a	wordpools/wordpool_categorized_EN.txt	CHIMPANZEE	Zoo	1	9	[0, 0, 0]	n/a	catFR1	1	R1277J
1080.646	0.816	1109992	WORD_OFF	n/a	n/a	CHIMPANZEE	n/a	1	9	[0, 0, 0]	n/a	catFR1	1	R1277J
1081.462	1.616	1110808	WORD	n/a	wordpools/wordpool_categorized_EN.txt	MONKEY	Zoo	2	9	[0, 0, 0]	n/a	catFR1	1	R1277J
1083.078	0.867	1112424	WORD_OFF	n/a	n/a	MONKEY	n/a	2	9	[0, 0, 0]	n/a	catFR1	1	R1277J
1083.945	1.618	1113291	WORD	n/a	wordpools/wordpool_categorized_EN.txt	TRUMPET	Instruments	3	9	[0, 0, 0]	n/a	catFR1	1	R1277J
1085.563	0.783	1114909	WORD_OFF	n/a	n/a	TRUMPET	n/a	3	9	[0, 0, 0]	n/a	catFR1	1	R1277J
1086.346	1.616	1115692	WORD	n/a	wordpools/wordpool_categorized_EN.txt	TROMBONE	Instruments	4	9	[0, 0, 0]	n/a	catFR1	1	R1277J
1087.962	1.0	1117308	WORD_OFF	n/a	n/a	TROMBONE	n/a	4	9	[0, 0, 0]	n/a	catFR1	1	R1277J
1088.962	1.601	1118308	WORD	n/a	wordpools/wordpool_categorized_EN.txt	MARIGOLD	Flowers	5	9	[0, 0, 0]	n/a	catFR1	1	R1277J
1090.563	0.784	1119909	WORD_OFF	n/a	n/a	MARIGOLD	n/a	5	9	[0, 0, 0]	n/a	catFR1	1	R1277J
1091.347	1.616	1120693	WORD	n/a	wordpools/wordpool_categorized_EN.txt	DAISY	Flowers	6	9	[0, 0, 0]	n/a	catFR1	1	R1277J
1092.963	0.868	1122309	WORD_OFF	n/a	n/a	DAISY	n/a	6	9	[0, 0, 0]	n/a	catFR1	1	R1277J
1093.831	1.616	1123177	WORD	n/a	wordpools/wordpool_categorized_EN.txt	BEAR	Zoo	7	9	[0, 0, 0]	n/a	catFR1	1	R1277J
1095.447	0.834	1124793	WORD_OFF	n/a	n/a	BEAR	n/a	7	9	[0, 0, 0]	n/a	catFR1	1	R1277J
1096.281	1.617	1125627	WORD	n/a	wordpools/wordpool_categorized_EN.txt	ELEPHANT	Zoo	8	9	[0, 0, 0]	n/a	catFR1	1	R1277J
1097.898	0.85	1127244	WORD_OFF	n/a	n/a	ELEPHANT	n/a	8	9	[0, 0, 0]	n/a	catFR1	1	R1277J
1098.748	1.617	1128094	WORD	n/a	wordpools/wordpool_categorized_EN.txt	ORGAN	Instruments	9	9	[0, 0, 0]	n/a	catFR1	1	R1277J
1100.365	0.9	1129711	WORD_OFF	n/a	n/a	ORGAN	n/a	9	9	[0, 0, 0]	n/a	catFR1	1	R1277J
1101.265	1.617	1130611	WORD	n/a	wordpools/wordpool_categorized_EN.txt	FLUTE	Instruments	10	9	[0, 0, 0]	n/a	catFR1	1	R1277J
1102.882	0.933	1132228	WORD_OFF	n/a	n/a	FLUTE	n/a	10	9	[0, 0, 0]	n/a	catFR1	1	R1277J
1103.815	1.617	1133161	WORD	n/a	wordpools/wordpool_categorized_EN.txt	CARNATION	Flowers	11	9	[0, 0, 0]	n/a	catFR1	1	R1277J
1105.432	0.867	1134778	WORD_OFF	n/a	n/a	CARNATION	n/a	11	9	[0, 0, 0]	n/a	catFR1	1	R1277J
1106.299	1.617	1135645	WORD	n/a	wordpools/wordpool_categorized_EN.txt	DAFFODIL	Flowers	12	9	[0, 0, 0]	n/a	catFR1	1	R1277J
1107.916	0.0	1137262	ENCODING_END	n/a	n/a	n/a	n/a	-999	9	[0, 0, 0]	n/a	catFR1	1	R1277J
1107.916	0.132	1137262	WORD_OFF	n/a	n/a	DAFFODIL	n/a	12	9	[0, 0, 0]	n/a	catFR1	1	R1277J
1108.048	0.0	1137394	DISTRACT_START	n/a	n/a	n/a	n/a	-999	9	[0, 0, 0]	n/a	catFR1	1	R1277J
1108.048	0.017	1137394	START	n/a	n/a	n/a	n/a	-999	9	[-999, -999, -999]	n/a	catFR1	1	R1277J
1108.065	6.435	1137411	PROB	6.435	n/a	n/a	n/a	-999	9	[4, 4, 7]	14	catFR1	1	R1277J
1114.5	2.834	1143846	PROB	2.834	n/a	n/a	n/a	-999	9	[5, 4, 4]	13	catFR1	1	R1277J
1117.334	2.733	1146680	PROB	2.733	n/a	n/a	n/a	-999	9	[5, 5, 9]	19	catFR1	1	R1277J
1120.067	2.551	1149413	PROB	2.551	n/a	n/a	n/a	-999	9	[1, 6, 7]	14	catFR1	1	R1277J
1122.618	7.391	1151964	PROB	7.391	n/a	n/a	n/a	-999	9	[9, 7, 8]	24	catFR1	1	R1277J
1130.009	0.009	1159355	STOP	n/a	n/a	n/a	n/a	-999	9	[-999, -999, -999]	n/a	catFR1	1	R1277J
1130.018	0.601	1159364	DISTRACT_END	n/a	n/a	n/a	n/a	-999	9	[0, 0, 0]	n/a	catFR1	1	R1277J
1130.619	0.517	1159965	RETRIEVAL_ORIENT	n/a	n/a	n/a	n/a	-999	9	[0, 0, 0]	n/a	catFR1	1	R1277J
1131.136	1.38	1160482	REC_START	n/a	n/a	n/a	n/a	-999	9	[0, 0, 0]	n/a	catFR1	1	R1277J
1132.516	1.0	1161862	REC_WORD	1.0	n/a	CHIMPANZEE	Zoo	1	9	[0, 0, 0]	n/a	catFR1	1	R1277J
1133.516	2.46	1162862	REC_WORD_VV	2.46	n/a	<>	n/a	-999	9	[0, 0, 0]	n/a	catFR1	1	R1277J
1135.976	6.68	1165322	REC_WORD	6.68	n/a	CHEETAH	n/a	-999	9	[0, 0, 0]	n/a	catFR1	1	R1277J
1142.656	1.95	1172002	REC_WORD	1.95	n/a	MARIGOLD	Flowers	5	9	[0, 0, 0]	n/a	catFR1	1	R1277J
1144.606	16.538	1173952	REC_WORD	16.538	n/a	DAISY	Flowers	6	9	[0, 0, 0]	n/a	catFR1	1	R1277J
1161.144	6.147	1190490	REC_END	n/a	n/a	n/a	n/a	-999	9	[0, 0, 0]	n/a	catFR1	1	R1277J
1167.291	0.5	1196637	TRIAL	n/a	n/a	n/a	n/a	-999	10	[0, 0, 0]	n/a	catFR1	1	R1277J
1167.791	10.428	1197137	COUNTDOWN_START	n/a	n/a	n/a	n/a	-999	10	[0, 0, 0]	n/a	catFR1	1	R1277J
1178.219	0.006	1207565	COUNTDOWN_END	n/a	n/a	n/a	n/a	-999	10	[0, 0, 0]	n/a	catFR1	1	R1277J
1178.225	1.617	1207571	ORIENT	n/a	n/a	n/a	n/a	-999	10	[0, 0, 0]	n/a	catFR1	1	R1277J
1179.842	2.233	1209188	ORIENT_OFF	n/a	n/a	n/a	n/a	-999	10	[0, 0, 0]	n/a	catFR1	1	R1277J
1182.075	1.618	1211421	WORD	n/a	wordpools/wordpool_categorized_EN.txt	LIME	Fruit	1	10	[0, 0, 0]	n/a	catFR1	1	R1277J
1183.693	0.917	1213039	WORD_OFF	n/a	n/a	LIME	n/a	1	10	[0, 0, 0]	n/a	catFR1	1	R1277J
1184.61	1.616	1213956	WORD	n/a	wordpools/wordpool_categorized_EN.txt	BANANA	Fruit	2	10	[0, 0, 0]	n/a	catFR1	1	R1277J
1186.226	0.833	1215572	WORD_OFF	n/a	n/a	BANANA	n/a	2	10	[0, 0, 0]	n/a	catFR1	1	R1277J
1187.059	1.618	1216405	WORD	n/a	wordpools/wordpool_categorized_EN.txt	SPINACH	Vegetables	3	10	[0, 0, 0]	n/a	catFR1	1	R1277J
1188.677	0.9	1218023	WORD_OFF	n/a	n/a	SPINACH	n/a	3	10	[0, 0, 0]	n/a	catFR1	1	R1277J
1189.577	1.617	1218923	WORD	n/a	wordpools/wordpool_categorized_EN.txt	PEAS	Vegetables	4	10	[0, 0, 0]	n/a	catFR1	1	R1277J
1191.194	0.983	1220540	WORD_OFF	n/a	n/a	PEAS	n/a	4	10	[0, 0, 0]	n/a	catFR1	1	R1277J
1192.177	1.617	1221523	WORD	n/a	wordpools/wordpool_categorized_EN.txt	DOVE	Birds	5	10	[0, 0, 0]	n/a	catFR1	1	R1277J
1193.794	0.984	1223140	WORD_OFF	n/a	n/a	DOVE	n/a	5	10	[0, 0, 0]	n/a	catFR1	1	R1277J
1194.778	1.616	1224124	WORD	n/a	wordpools/wordpool_categorized_EN.txt	SPARROW	Birds	6	10	[0, 0, 0]	n/a	catFR1	1	R1277J
1196.394	0.967	1225740	WORD_OFF	n/a	n/a	SPARROW	n/a	6	10	[0, 0, 0]	n/a	catFR1	1	R1277J
1197.361	1.616	1226707	WORD	n/a	wordpools/wordpool_categorized_EN.txt	CUCUMBER	Vegetables	7	10	[0, 0, 0]	n/a	catFR1	1	R1277J
1198.977	0.984	1228323	WORD_OFF	n/a	n/a	CUCUMBER	n/a	7	10	[0, 0, 0]	n/a	catFR1	1	R1277J
1199.961	1.618	1229307	WORD	n/a	wordpools/wordpool_categorized_EN.txt	CABBAGE	Vegetables	8	10	[0, 0, 0]	n/a	catFR1	1	R1277J
1201.579	0.8	1230925	WORD_OFF	n/a	n/a	CABBAGE	n/a	8	10	[0, 0, 0]	n/a	catFR1	1	R1277J
1202.379	1.616	1231725	WORD	n/a	wordpools/wordpool_categorized_EN.txt	CHERRY	Fruit	9	10	[0, 0, 0]	n/a	catFR1	1	R1277J
1203.995	0.851	1233341	WORD_OFF	n/a	n/a	CHERRY	n/a	9	10	[0, 0, 0]	n/a	catFR1	1	R1277J
1204.846	1.616	1234192	WORD	n/a	wordpools/wordpool_categorized_EN.txt	PEACH	Fruit	10	10	[0, 0, 0]	n/a	catFR1	1	R1277J
1206.462	0.934	1235808	WORD_OFF	n/a	n/a	PEACH	n/a	10	10	[0, 0, 0]	n/a	catFR1	1	R1277J
1207.396	1.616	1236742	WORD	n/a	wordpools/wordpool_categorized_EN.txt	CARDINAL	Birds	11	10	[0, 0, 0]	n/a	catFR1	1	R1277J
1209.012	0.801	1238358	WORD_OFF	n/a	n/a	CARDINAL	n/a	11	10	[0, 0, 0]	n/a	catFR1	1	R1277J
1209.813	1.617	1239159	WORD	n/a	wordpools/wordpool_categorized_EN.txt	HAWK	Birds	12	10	[0, 0, 0]	n/a	catFR1	1	R1277J
1211.43	0.0	1240776	ENCODING_END	n/a	n/a	n/a	n/a	-999	10	[0, 0, 0]	n/a	catFR1	1	R1277J
1211.43	0.1	1240776	WORD_OFF	n/a	n/a	HAWK	n/a	12	10	[0, 0, 0]	n/a	catFR1	1	R1277J
1211.53	0.0	1240876	DISTRACT_START	n/a	n/a	n/a	n/a	-999	10	[0, 0, 0]	n/a	catFR1	1	R1277J
1211.53	0.017	1240876	START	n/a	n/a	n/a	n/a	-999	10	[-999, -999, -999]	n/a	catFR1	1	R1277J
1211.547	4.383	1240893	PROB	4.383	n/a	n/a	n/a	-999	10	[6, 4, 5]	15	catFR1	1	R1277J
1215.93	3.701	1245276	PROB	3.701	n/a	n/a	n/a	-999	10	[3, 1, 5]	9	catFR1	1	R1277J
1219.631	5.167	1248977	PROB	5.167	n/a	n/a	n/a	-999	10	[1, 7, 6]	14	catFR1	1	R1277J
1224.798	2.283	1254144	PROB	2.283	n/a	n/a	n/a	-999	10	[3, 1, 4]	8	catFR1	1	R1277J
1227.081	2.701	1256427	PROB	2.701	n/a	n/a	n/a	-999	10	[2, 1, 7]	10	catFR1	1	R1277J
1229.782	4.042	1259128	PROB	4.042	n/a	n/a	n/a	-999	10	[8, 1, 5]	4	catFR1	1	R1277J
1233.824	0.01	1263170	STOP	n/a	n/a	n/a	n/a	-999	10	[-999, -999, -999]	n/a	catFR1	1	R1277J
1233.834	0.533	1263180	DISTRACT_END	n/a	n/a	n/a	n/a	-999	10	[0, 0, 0]	n/a	catFR1	1	R1277J
1234.367	0.517	1263713	RETRIEVAL_ORIENT	n/a	n/a	n/a	n/a	-999	10	[0, 0, 0]	n/a	catFR1	1	R1277J
1234.884	2.032	1264230	REC_START	n/a	n/a	n/a	n/a	-999	10	[0, 0, 0]	n/a	catFR1	1	R1277J
1236.916	0.374	1266262	REC_WORD_VV	0.374	n/a	<>	n/a	-999	10	[0, 0, 0]	n/a	catFR1	1	R1277J
1237.29	0.89	1266636	REC_WORD	0.89	n/a	DOVE	Birds	5	10	[0, 0, 0]	n/a	catFR1	1	R1277J
1238.18	1.585	1267526	REC_WORD	1.585	n/a	PIGEON	n/a	-999	10	[0, 0, 0]	n/a	catFR1	1	R1277J
1239.765	7.224	1269111	REC_WORD	7.224	n/a	SPARROW	Birds	6	10	[0, 0, 0]	n/a	catFR1	1	R1277J
1246.989	5.76	1276334	REC_WORD	5.76	n/a	PEAS	Vegetables	4	10	[0, 0, 0]	n/a	catFR1	1	R1277J
1252.749	8.292	1282094	REC_WORD	8.292	n/a	CUCUMBER	Vegetables	7	10	[0, 0, 0]	n/a	catFR1	1	R1277J
1261.041	1.0	1290386	REC_WORD_VV	1.0	n/a	<>	n/a	-999	10	[0, 0, 0]	n/a	catFR1	1	R1277J
1262.041	2.853	1291386	REC_WORD_VV	2.853	n/a	<>	n/a	-999	10	[0, 0, 0]	n/a	catFR1	1	R1277J
1264.894	18.479	1294239	REC_END	n/a	n/a	n/a	n/a	-999	10	[0, 0, 0]	n/a	catFR1	1	R1277J
1283.373	0.5	1312718	TRIAL	n/a	n/a	n/a	n/a	-999	11	[0, 0, 0]	n/a	catFR1	1	R1277J
1283.873	10.428	1313218	COUNTDOWN_START	n/a	n/a	n/a	n/a	-999	11	[0, 0, 0]	n/a	catFR1	1	R1277J
1294.301	0.007	1323646	COUNTDOWN_END	n/a	n/a	n/a	n/a	-999	11	[0, 0, 0]	n/a	catFR1	1	R1277J
1294.308	1.617	1323653	ORIENT	n/a	n/a	n/a	n/a	-999	11	[0, 0, 0]	n/a	catFR1	1	R1277J
1295.925	1.867	1325270	ORIENT_OFF	n/a	n/a	n/a	n/a	-999	11	[0, 0, 0]	n/a	catFR1	1	R1277J
1297.792	1.616	1327137	WORD	n/a	wordpools/wordpool_categorized_EN.txt	KNIFE	KitchenTools	1	11	[0, 0, 0]	n/a	catFR1	1	R1277J
1299.408	0.784	1328753	WORD_OFF	n/a	n/a	KNIFE	n/a	1	11	[0, 0, 0]	n/a	catFR1	1	R1277J
1300.192	1.617	1329537	WORD	n/a	wordpools/wordpool_categorized_EN.txt	WHISK	KitchenTools	2	11	[0, 0, 0]	n/a	catFR1	1	R1277J
1301.809	0.866	1331154	WORD_OFF	n/a	n/a	WHISK	n/a	2	11	[0, 0, 0]	n/a	catFR1	1	R1277J
1302.675	1.618	1332020	WORD	n/a	wordpools/wordpool_categorized_EN.txt	TAPE	OfficeSupplies	3	11	[0, 0, 0]	n/a	catFR1	1	R1277J
1304.293	0.866	1333638	WORD_OFF	n/a	n/a	TAPE	n/a	3	11	[0, 0, 0]	n/a	catFR1	1	R1277J
1305.159	1.617	1334504	WORD	n/a	wordpools/wordpool_categorized_EN.txt	STAPLER	OfficeSupplies	4	11	[0, 0, 0]	n/a	catFR1	1	R1277J
1306.776	0.867	1336121	WORD_OFF	n/a	n/a	STAPLER	n/a	4	11	[0, 0, 0]	n/a	catFR1	1	R1277J
1307.643	1.617	1336988	WORD	n/a	wordpools/wordpool_categorized_EN.txt	CRAB	OceanAnimals	5	11	[0, 0, 0]	n/a	catFR1	1	R1277J
1309.26	1.0	1338605	WORD_OFF	n/a	n/a	CRAB	n/a	5	11	[0, 0, 0]	n/a	catFR1	1	R1277J
1310.26	1.617	1339605	WORD	n/a	wordpools/wordpool_categorized_EN.txt	OCTOPUS	OceanAnimals	6	11	[0, 0, 0]	n/a	catFR1	1	R1277J
1311.877	0.933	1341222	WORD_OFF	n/a	n/a	OCTOPUS	n/a	6	11	[0, 0, 0]	n/a	catFR1	1	R1277J
1312.81	1.617	1342155	WORD	n/a	wordpools/wordpool_categorized_EN.txt	NOTEBOOK	OfficeSupplies	7	11	[0, 0, 0]	n/a	catFR1	1	R1277J
1314.427	0.883	1343772	WORD_OFF	n/a	n/a	NOTEBOOK	n/a	7	11	[0, 0, 0]	n/a	catFR1	1	R1277J
1315.31	1.617	1344655	WORD	n/a	wordpools/wordpool_categorized_EN.txt	PEN	OfficeSupplies	8	11	[0, 0, 0]	n/a	catFR1	1	R1277J
1316.927	0.9	1346272	WORD_OFF	n/a	n/a	PEN	n/a	8	11	[0, 0, 0]	n/a	catFR1	1	R1277J
1317.827	1.617	1347172	WORD	n/a	wordpools/wordpool_categorized_EN.txt	GRATER	KitchenTools	9	11	[0, 0, 0]	n/a	catFR1	1	R1277J
1319.444	0.784	1348789	WORD_OFF	n/a	n/a	GRATER	n/a	9	11	[0, 0, 0]	n/a	catFR1	1	R1277J
1320.228	1.617	1349573	WORD	n/a	wordpools/wordpool_categorized_EN.txt	LADLE	KitchenTools	10	11	[0, 0, 0]	n/a	catFR1	1	R1277J
1321.845	0.883	1351190	WORD_OFF	n/a	n/a	LADLE	n/a	10	11	[0, 0, 0]	n/a	catFR1	1	R1277J
1322.728	1.617	1352073	WORD	n/a	wordpools/wordpool_categorized_EN.txt	FISH	OceanAnimals	11	11	[0, 0, 0]	n/a	catFR1	1	R1277J
1324.345	0.883	1353690	WORD_OFF	n/a	n/a	FISH	n/a	11	11	[0, 0, 0]	n/a	catFR1	1	R1277J
1325.228	1.617	1354573	WORD	n/a	wordpools/wordpool_categorized_EN.txt	PLANKTON	OceanAnimals	12	11	[0, 0, 0]	n/a	catFR1	1	R1277J
1326.845	0.0	1356190	ENCODING_END	n/a	n/a	n/a	n/a	-999	11	[0, 0, 0]	n/a	catFR1	1	R1277J
1326.845	0.099	1356190	WORD_OFF	n/a	n/a	PLANKTON	n/a	12	11	[0, 0, 0]	n/a	catFR1	1	R1277J
1326.944	0.0	1356289	DISTRACT_START	n/a	n/a	n/a	n/a	-999	11	[0, 0, 0]	n/a	catFR1	1	R1277J
1326.944	0.017	1356289	START	n/a	n/a	n/a	n/a	-999	11	[-999, -999, -999]	n/a	catFR1	1	R1277J
1326.961	5.134	1356306	PROB	5.134	n/a	n/a	n/a	-999	11	[7, 6, 4]	17	catFR1	1	R1277J
1332.095	2.685	1361440	PROB	2.685	n/a	n/a	n/a	-999	11	[9, 8, 2]	19	catFR1	1	R1277J
1334.78	3.232	1364125	PROB	3.232	n/a	n/a	n/a	-999	11	[7, 4, 7]	18	catFR1	1	R1277J
1338.012	5.269	1367357	PROB	5.269	n/a	n/a	n/a	-999	11	[2, 6, 3]	11	catFR1	1	R1277J
1343.281	4.818	1372626	PROB	4.818	n/a	n/a	n/a	-999	11	[8, 3, 8]	19	catFR1	1	R1277J
1348.099	0.015	1377444	STOP	n/a	n/a	n/a	n/a	-999	11	[-999, -999, -999]	n/a	catFR1	1	R1277J
1348.114	0.701	1377459	DISTRACT_END	n/a	n/a	n/a	n/a	-999	11	[0, 0, 0]	n/a	catFR1	1	R1277J
1348.815	0.518	1378160	RETRIEVAL_ORIENT	n/a	n/a	n/a	n/a	-999	11	[0, 0, 0]	n/a	catFR1	1	R1277J
1349.333	0.972	1378678	REC_START	n/a	n/a	n/a	n/a	-999	11	[0, 0, 0]	n/a	catFR1	1	R1277J
1350.305	0.462	1379650	REC_WORD	0.462	n/a	WHISK	KitchenTools	2	11	[0, 0, 0]	n/a	catFR1	1	R1277J
1350.767	0.51	1380112	REC_WORD	0.51	n/a	PAPER	n/a	-999	11	[0, 0, 0]	n/a	catFR1	1	R1277J
1351.277	2.649	1380622	REC_WORD	2.649	n/a	GRATER	KitchenTools	9	11	[0, 0, 0]	n/a	catFR1	1	R1277J
1353.926	25.415	1383271	REC_WORD	25.415	n/a	STAPLER	OfficeSupplies	4	11	[0, 0, 0]	n/a	catFR1	1	R1277J
1379.341	4.745	1408686	REC_END	n/a	n/a	n/a	n/a	-999	11	[0, 0, 0]	n/a	catFR1	1	R1277J
1384.086	0.5	1413431	TRIAL	n/a	n/a	n/a	n/a	-999	12	[0, 0, 0]	n/a	catFR1	1	R1277J
1384.586	10.428	1413931	COUNTDOWN_START	n/a	n/a	n/a	n/a	-999	12	[0, 0, 0]	n/a	catFR1	1	R1277J
1395.014	0.006	1424359	COUNTDOWN_END	n/a	n/a	n/a	n/a	-999	12	[0, 0, 0]	n/a	catFR1	1	R1277J
1395.02	1.618	1424365	ORIENT	n/a	n/a	n/a	n/a	-999	12	[0, 0, 0]	n/a	catFR1	1	R1277J
1396.638	2.2	1425983	ORIENT_OFF	n/a	n/a	n/a	n/a	-999	12	[0, 0, 0]	n/a	catFR1	1	R1277J
1398.838	1.617	1428183	WORD	n/a	wordpools/wordpool_categorized_EN.txt	SPATULA	KitchenTools	1	12	[0, 0, 0]	n/a	catFR1	1	R1277J
1400.455	0.834	1429800	WORD_OFF	n/a	n/a	SPATULA	n/a	1	12	[0, 0, 0]	n/a	catFR1	1	R1277J
1401.289	1.616	1430634	WORD	n/a	wordpools/wordpool_categorized_EN.txt	CORKSCREW	KitchenTools	2	12	[0, 0, 0]	n/a	catFR1	1	R1277J
1402.905	0.834	1432250	WORD_OFF	n/a	n/a	CORKSCREW	n/a	2	12	[0, 0, 0]	n/a	catFR1	1	R1277J
1403.739	1.617	1433084	WORD	n/a	wordpools/wordpool_categorized_EN.txt	ROOSTER	FarmAnimals	3	12	[0, 0, 0]	n/a	catFR1	1	R1277J
1405.356	0.883	1434701	WORD_OFF	n/a	n/a	ROOSTER	n/a	3	12	[0, 0, 0]	n/a	catFR1	1	R1277J
1406.239	1.617	1435584	WORD	n/a	wordpools/wordpool_categorized_EN.txt	GOAT	FarmAnimals	4	12	[0, 0, 0]	n/a	catFR1	1	R1277J
1407.856	0.851	1437201	WORD_OFF	n/a	n/a	GOAT	n/a	4	12	[0, 0, 0]	n/a	catFR1	1	R1277J
1408.707	1.616	1438052	WORD	n/a	wordpools/wordpool_categorized_EN.txt	LEMON	Fruit	5	12	[0, 0, 0]	n/a	catFR1	1	R1277J
1410.323	0.917	1439668	WORD_OFF	n/a	n/a	LEMON	n/a	5	12	[0, 0, 0]	n/a	catFR1	1	R1277J
1411.24	1.617	1440585	WORD	n/a	wordpools/wordpool_categorized_EN.txt	PLUM	Fruit	6	12	[0, 0, 0]	n/a	catFR1	1	R1277J
1412.857	0.934	1442202	WORD_OFF	n/a	n/a	PLUM	n/a	6	12	[0, 0, 0]	n/a	catFR1	1	R1277J
1413.791	1.616	1443136	WORD	n/a	wordpools/wordpool_categorized_EN.txt	STRAINER	KitchenTools	7	12	[0, 0, 0]	n/a	catFR1	1	R1277J
1415.407	0.8	1444752	WORD_OFF	n/a	n/a	STRAINER	n/a	7	12	[0, 0, 0]	n/a	catFR1	1	R1277J
1416.207	1.617	1445552	WORD	n/a	wordpools/wordpool_categorized_EN.txt	PEELER	KitchenTools	8	12	[0, 0, 0]	n/a	catFR1	1	R1277J
1417.824	0.951	1447169	WORD_OFF	n/a	n/a	PEELER	n/a	8	12	[0, 0, 0]	n/a	catFR1	1	R1277J
1418.775	1.616	1448120	WORD	n/a	wordpools/wordpool_categorized_EN.txt	HEN	FarmAnimals	9	12	[0, 0, 0]	n/a	catFR1	1	R1277J
1420.391	0.867	1449736	WORD_OFF	n/a	n/a	HEN	n/a	9	12	[0, 0, 0]	n/a	catFR1	1	R1277J
1421.258	1.617	1450603	WORD	n/a	wordpools/wordpool_categorized_EN.txt	LAMB	FarmAnimals	10	12	[0, 0, 0]	n/a	catFR1	1	R1277J
1422.875	0.984	1452220	WORD_OFF	n/a	n/a	LAMB	n/a	10	12	[0, 0, 0]	n/a	catFR1	1	R1277J
1423.859	1.616	1453204	WORD	n/a	wordpools/wordpool_categorized_EN.txt	GRAPE	Fruit	11	12	[0, 0, 0]	n/a	catFR1	1	R1277J
1425.475	0.934	1454820	WORD_OFF	n/a	n/a	GRAPE	n/a	11	12	[0, 0, 0]	n/a	catFR1	1	R1277J
1426.409	1.616	1455754	WORD	n/a	wordpools/wordpool_categorized_EN.txt	STRAWBERRY	Fruit	12	12	[0, 0, 0]	n/a	catFR1	1	R1277J
1428.025	0.0	1457370	ENCODING_END	n/a	n/a	n/a	n/a	-999	12	[0, 0, 0]	n/a	catFR1	1	R1277J
1428.025	0.132	1457370	WORD_OFF	n/a	n/a	STRAWBERRY	n/a	12	12	[0, 0, 0]	n/a	catFR1	1	R1277J
1428.157	0.0	1457502	DISTRACT_START	n/a	n/a	n/a	n/a	-999	12	[0, 0, 0]	n/a	catFR1	1	R1277J
1428.157	0.019	1457502	START	n/a	n/a	n/a	n/a	-999	12	[-999, -999, -999]	n/a	catFR1	1	R1277J
1428.176	7.1	1457521	PROB	7.1	n/a	n/a	n/a	-999	12	[1, 7, 7]	17	catFR1	1	R1277J
1435.276	5.185	1464621	PROB	5.185	n/a	n/a	n/a	-999	12	[3, 4, 8]	15	catFR1	1	R1277J
1440.461	2.767	1469806	PROB	2.767	n/a	n/a	n/a	-999	12	[9, 4, 4]	17	catFR1	1	R1277J
1443.228	2.633	1472573	PROB	2.633	n/a	n/a	n/a	-999	12	[1, 9, 7]	17	catFR1	1	R1277J
1445.861	2.281	1475206	PROB	2.281	n/a	n/a	n/a	-999	12	[5, 9, 1]	15	catFR1	1	R1277J
1448.142	0.02	1477487	STOP	n/a	n/a	n/a	n/a	-999	12	[-999, -999, -999]	n/a	catFR1	1	R1277J
1448.162	0.6	1477507	DISTRACT_END	n/a	n/a	n/a	n/a	-999	12	[0, 0, 0]	n/a	catFR1	1	R1277J
1448.762	0.517	1478107	RETRIEVAL_ORIENT	n/a	n/a	n/a	n/a	-999	12	[0, 0, 0]	n/a	catFR1	1	R1277J
1449.279	2.951	1478623	REC_START	n/a	n/a	n/a	n/a	-999	12	[0, 0, 0]	n/a	catFR1	1	R1277J
1452.23	19.242	1481574	REC_WORD	19.242	n/a	CORKSCREW	KitchenTools	2	12	[0, 0, 0]	n/a	catFR1	1	R1277J
1471.472	7.818	1500816	REC_WORD	7.818	n/a	STRAWBERRY	Fruit	12	12	[0, 0, 0]	n/a	catFR1	1	R1277J
1479.29	7.877	1508634	REC_END	n/a	n/a	n/a	n/a	-999	12	[0, 0, 0]	n/a	catFR1	1	R1277J
1487.167	0.5	1516511	TRIAL	n/a	n/a	n/a	n/a	-999	13	[0, 0, 0]	n/a	catFR1	1	R1277J
1487.667	10.428	1517011	COUNTDOWN_START	n/a	n/a	n/a	n/a	-999	13	[0, 0, 0]	n/a	catFR1	1	R1277J
1498.095	0.005	1527439	COUNTDOWN_END	n/a	n/a	n/a	n/a	-999	13	[0, 0, 0]	n/a	catFR1	1	R1277J
1498.1	1.619	1527444	ORIENT	n/a	n/a	n/a	n/a	-999	13	[0, 0, 0]	n/a	catFR1	1	R1277J
1499.719	2.266	1529063	ORIENT_OFF	n/a	n/a	n/a	n/a	-999	13	[0, 0, 0]	n/a	catFR1	1	R1277J
1501.985	1.618	1531329	WORD	n/a	wordpools/wordpool_categorized_EN.txt	RADIO	Electronics	1	13	[0, 0, 0]	n/a	catFR1	1	R1277J
1503.603	0.883	1532947	WORD_OFF	n/a	n/a	RADIO	n/a	1	13	[0, 0, 0]	n/a	catFR1	1	R1277J
1504.486	1.616	1533830	WORD	n/a	wordpools/wordpool_categorized_EN.txt	HEADPHONES	Electronics	2	13	[0, 0, 0]	n/a	catFR1	1	R1277J
1506.102	1.0	1535446	WORD_OFF	n/a	n/a	HEADPHONES	n/a	2	13	[0, 0, 0]	n/a	catFR1	1	R1277J
1507.102	1.618	1536446	WORD	n/a	wordpools/wordpool_categorized_EN.txt	TORNADO	Weather	3	13	[0, 0, 0]	n/a	catFR1	1	R1277J
1508.72	0.817	1538064	WORD_OFF	n/a	n/a	TORNADO	n/a	3	13	[0, 0, 0]	n/a	catFR1	1	R1277J
1509.537	1.616	1538881	WORD	n/a	wordpools/wordpool_categorized_EN.txt	DRIZZLE	Weather	4	13	[0, 0, 0]	n/a	catFR1	1	R1277J
1511.153	0.966	1540497	WORD_OFF	n/a	n/a	DRIZZLE	n/a	4	13	[0, 0, 0]	n/a	catFR1	1	R1277J
1512.119	1.618	1541463	WORD	n/a	wordpools/wordpool_categorized_EN.txt	PAPER	OfficeSupplies	5	13	[0, 0, 0]	n/a	catFR1	1	R1277J
1513.737	0.95	1543081	WORD_OFF	n/a	n/a	PAPER	n/a	5	13	[0, 0, 0]	n/a	catFR1	1	R1277J
1514.687	1.617	1544031	WORD	n/a	wordpools/wordpool_categorized_EN.txt	ERASER	OfficeSupplies	6	13	[0, 0, 0]	n/a	catFR1	1	R1277J
1516.304	0.983	1545648	WORD_OFF	n/a	n/a	ERASER	n/a	6	13	[0, 0, 0]	n/a	catFR1	1	R1277J
1517.287	1.617	1546631	WORD	n/a	wordpools/wordpool_categorized_EN.txt	PHONE	Electronics	7	13	[0, 0, 0]	n/a	catFR1	1	R1277J
1518.904	0.817	1548248	WORD_OFF	n/a	n/a	PHONE	n/a	7	13	[0, 0, 0]	n/a	catFR1	1	R1277J
1519.721	1.617	1549065	WORD	n/a	wordpools/wordpool_categorized_EN.txt	MICROWAVE	Electronics	8	13	[0, 0, 0]	n/a	catFR1	1	R1277J
1521.338	0.833	1550682	WORD_OFF	n/a	n/a	MICROWAVE	n/a	8	13	[0, 0, 0]	n/a	catFR1	1	R1277J
1522.171	1.618	1551515	WORD	n/a	wordpools/wordpool_categorized_EN.txt	HURRICANE	Weather	9	13	[0, 0, 0]	n/a	catFR1	1	R1277J
1523.789	1.0	1553133	WORD_OFF	n/a	n/a	HURRICANE	n/a	9	13	[0, 0, 0]	n/a	catFR1	1	R1277J
1524.789	1.617	1554133	WORD	n/a	wordpools/wordpool_categorized_EN.txt	RAIN	Weather	10	13	[0, 0, 0]	n/a	catFR1	1	R1277J
1526.406	0.816	1555750	WORD_OFF	n/a	n/a	RAIN	n/a	10	13	[0, 0, 0]	n/a	catFR1	1	R1277J
1527.222	1.617	1556566	WORD	n/a	wordpools/wordpool_categorized_EN.txt	PENCIL	OfficeSupplies	11	13	[0, 0, 0]	n/a	catFR1	1	R1277J
1528.839	0.934	1558183	WORD_OFF	n/a	n/a	PENCIL	n/a	11	13	[0, 0, 0]	n/a	catFR1	1	R1277J
1529.773	1.617	1559117	WORD	n/a	wordpools/wordpool_categorized_EN.txt	FOLDER	OfficeSupplies	12	13	[0, 0, 0]	n/a	catFR1	1	R1277J
1531.39	0.0	1560734	ENCODING_END	n/a	n/a	n/a	n/a	-999	13	[0, 0, 0]	n/a	catFR1	1	R1277J
1531.39	0.099	1560734	WORD_OFF	n/a	n/a	FOLDER	n/a	12	13	[0, 0, 0]	n/a	catFR1	1	R1277J
1531.489	0.0	1560833	DISTRACT_START	n/a	n/a	n/a	n/a	-999	13	[0, 0, 0]	n/a	catFR1	1	R1277J
1531.489	0.017	1560833	START	n/a	n/a	n/a	n/a	-999	13	[-999, -999, -999]	n/a	catFR1	1	R1277J
1531.506	5.134	1560850	PROB	5.134	n/a	n/a	n/a	-999	13	[4, 8, 7]	19	catFR1	1	R1277J
1536.64	3.4	1565984	PROB	3.4	n/a	n/a	n/a	-999	13	[1, 7, 6]	14	catFR1	1	R1277J
1540.04	5.801	1569384	PROB	5.801	n/a	n/a	n/a	-999	13	[3, 4, 9]	16	catFR1	1	R1277J
1545.841	9.138	1575185	PROB	9.138	n/a	n/a	n/a	-999	13	[8, 9, 7]	24	catFR1	1	R1277J
1554.979	0.013	1584323	STOP	n/a	n/a	n/a	n/a	-999	13	[-999, -999, -999]	n/a	catFR1	1	R1277J
1554.992	0.651	1584336	DISTRACT_END	n/a	n/a	n/a	n/a	-999	13	[0, 0, 0]	n/a	catFR1	1	R1277J
1555.643	0.517	1584987	RETRIEVAL_ORIENT	n/a	n/a	n/a	n/a	-999	13	[0, 0, 0]	n/a	catFR1	1	R1277J
1556.16	2.281	1585504	REC_START	n/a	n/a	n/a	n/a	-999	13	[0, 0, 0]	n/a	catFR1	1	R1277J
1558.441	2.689	1587785	REC_WORD	2.689	n/a	TORNADO	Weather	3	13	[0, 0, 0]	n/a	catFR1	1	R1277J
1561.13	0.655	1590474	REC_WORD	0.655	n/a	STORM	n/a	-999	13	[0, 0, 0]	n/a	catFR1	1	R1277J
1561.785	11.584	1591129	REC_WORD	11.584	n/a	DRIZZLE	Weather	4	13	[0, 0, 0]	n/a	catFR1	1	R1277J
1573.369	0.495	1602713	REC_WORD	0.495	n/a	PAPER	OfficeSupplies	5	13	[0, 0, 0]	n/a	catFR1	1	R1277J
1573.864	2.269	1603208	REC_WORD	2.269	n/a	PEN	n/a	-999	13	[0, 0, 0]	n/a	catFR1	1	R1277J
1576.133	10.036	1605477	REC_WORD	10.036	n/a	FOLDER	OfficeSupplies	12	13	[0, 0, 0]	n/a	catFR1	1	R1277J
1586.169	5.729	1615513	REC_END	n/a	n/a	n/a	n/a	-999	13	[0, 0, 0]	n/a	catFR1	1	R1277J
1591.898	0.5	1621242	TRIAL	n/a	n/a	n/a	n/a	-999	14	[0, 0, 0]	n/a	catFR1	1	R1277J
1592.398	10.428	1621742	COUNTDOWN_START	n/a	n/a	n/a	n/a	-999	14	[0, 0, 0]	n/a	catFR1	1	R1277J
1602.826	0.007	1632170	COUNTDOWN_END	n/a	n/a	n/a	n/a	-999	14	[0, 0, 0]	n/a	catFR1	1	R1277J
1602.833	1.617	1632177	ORIENT	n/a	n/a	n/a	n/a	-999	14	[0, 0, 0]	n/a	catFR1	1	R1277J
1604.45	2.1	1633794	ORIENT_OFF	n/a	n/a	n/a	n/a	-999	14	[0, 0, 0]	n/a	catFR1	1	R1277J
1606.55	1.617	1635894	WORD	n/a	wordpools/wordpool_categorized_EN.txt	LETTUCE	Vegetables	1	14	[0, 0, 0]	n/a	catFR1	1	R1277J
1608.167	0.882	1637511	WORD_OFF	n/a	n/a	LETTUCE	n/a	1	14	[0, 0, 0]	n/a	catFR1	1	R1277J
1609.049	1.618	1638393	WORD	n/a	wordpools/wordpool_categorized_EN.txt	POTATO	Vegetables	2	14	[0, 0, 0]	n/a	catFR1	1	R1277J
1610.667	0.917	1640011	WORD_OFF	n/a	n/a	POTATO	n/a	2	14	[0, 0, 0]	n/a	catFR1	1	R1277J
1611.584	1.617	1640928	WORD	n/a	wordpools/wordpool_categorized_EN.txt	JELLO	Desserts	3	14	[0, 0, 0]	n/a	catFR1	1	R1277J
1613.201	0.849	1642545	WORD_OFF	n/a	n/a	JELLO	n/a	3	14	[0, 0, 0]	n/a	catFR1	1	R1277J
1614.05	1.617	1643394	WORD	n/a	wordpools/wordpool_categorized_EN.txt	MOUSSE	Desserts	4	14	[0, 0, 0]	n/a	catFR1	1	R1277J
1615.667	0.8	1645011	WORD_OFF	n/a	n/a	MOUSSE	n/a	4	14	[0, 0, 0]	n/a	catFR1	1	R1277J
1616.467	1.617	1645811	WORD	n/a	wordpools/wordpool_categorized_EN.txt	ELBOW	BodyParts	5	14	[0, 0, 0]	n/a	catFR1	1	R1277J
1618.084	0.784	1647428	WORD_OFF	n/a	n/a	ELBOW	n/a	5	14	[0, 0, 0]	n/a	catFR1	1	R1277J
1618.868	1.617	1648212	WORD	n/a	wordpools/wordpool_categorized_EN.txt	EYE	BodyParts	6	14	[0, 0, 0]	n/a	catFR1	1	R1277J
1620.485	0.8	1649829	WORD_OFF	n/a	n/a	EYE	n/a	6	14	[0, 0, 0]	n/a	catFR1	1	R1277J
1621.285	1.617	1650629	WORD	n/a	wordpools/wordpool_categorized_EN.txt	CARROT	Vegetables	7	14	[0, 0, 0]	n/a	catFR1	1	R1277J
1622.902	0.8	1652246	WORD_OFF	n/a	n/a	CARROT	n/a	7	14	[0, 0, 0]	n/a	catFR1	1	R1277J
1623.702	1.617	1653046	WORD	n/a	wordpools/wordpool_categorized_EN.txt	CELERY	Vegetables	8	14	[0, 0, 0]	n/a	catFR1	1	R1277J
1625.319	1.0	1654663	WORD_OFF	n/a	n/a	CELERY	n/a	8	14	[0, 0, 0]	n/a	catFR1	1	R1277J
1626.319	1.617	1655663	WORD	n/a	wordpools/wordpool_categorized_EN.txt	PIE	Desserts	9	14	[0, 0, 0]	n/a	catFR1	1	R1277J
1627.936	0.767	1657280	WORD_OFF	n/a	n/a	PIE	n/a	9	14	[0, 0, 0]	n/a	catFR1	1	R1277J
1628.703	1.616	1658047	WORD	n/a	wordpools/wordpool_categorized_EN.txt	BROWNIES	Desserts	10	14	[0, 0, 0]	n/a	catFR1	1	R1277J
1630.319	0.951	1659663	WORD_OFF	n/a	n/a	BROWNIES	n/a	10	14	[0, 0, 0]	n/a	catFR1	1	R1277J
1631.27	1.617	1660614	WORD	n/a	wordpools/wordpool_categorized_EN.txt	FOOT	BodyParts	11	14	[0, 0, 0]	n/a	catFR1	1	R1277J
1632.887	0.849	1662231	WORD_OFF	n/a	n/a	FOOT	n/a	11	14	[0, 0, 0]	n/a	catFR1	1	R1277J
1633.736	1.617	1663080	WORD	n/a	wordpools/wordpool_categorized_EN.txt	NOSE	BodyParts	12	14	[0, 0, 0]	n/a	catFR1	1	R1277J
1635.353	0.0	1664697	ENCODING_END	n/a	n/a	n/a	n/a	-999	14	[0, 0, 0]	n/a	catFR1	1	R1277J
1635.353	0.104	1664697	WORD_OFF	n/a	n/a	NOSE	n/a	12	14	[0, 0, 0]	n/a	catFR1	1	R1277J
1635.457	0.0	1664801	DISTRACT_START	n/a	n/a	n/a	n/a	-999	14	[0, 0, 0]	n/a	catFR1	1	R1277J
1635.457	0.013	1664801	START	n/a	n/a	n/a	n/a	-999	14	[-999, -999, -999]	n/a	catFR1	1	R1277J
1635.47	2.549	1664814	PROB	2.549	n/a	n/a	n/a	-999	14	[8, 2, 1]	11	catFR1	1	R1277J
1638.019	12.22	1667363	PROB	12.22	n/a	n/a	n/a	-999	14	[9, 8, 6]	23	catFR1	1	R1277J
1650.239	2.417	1679583	PROB	2.417	n/a	n/a	n/a	-999	14	[7, 1, 3]	11	catFR1	1	R1277J
1652.656	8.992	1682000	PROB	8.992	n/a	n/a	n/a	-999	14	[9, 2, 2]	13	catFR1	1	R1277J
1661.648	0.009	1690991	STOP	n/a	n/a	n/a	n/a	-999	14	[-999, -999, -999]	n/a	catFR1	1	R1277J
1661.657	0.667	1691000	DISTRACT_END	n/a	n/a	n/a	n/a	-999	14	[0, 0, 0]	n/a	catFR1	1	R1277J
1662.324	0.518	1691667	RETRIEVAL_ORIENT	n/a	n/a	n/a	n/a	-999	14	[0, 0, 0]	n/a	catFR1	1	R1277J
1662.842	2.425	1692185	REC_START	n/a	n/a	n/a	n/a	-999	14	[0, 0, 0]	n/a	catFR1	1	R1277J
1665.267	2.209	1694610	REC_WORD	2.209	n/a	JELLO	Desserts	3	14	[0, 0, 0]	n/a	catFR1	1	R1277J
1667.476	1.963	1696819	REC_WORD	1.963	n/a	FOOT	BodyParts	11	14	[0, 0, 0]	n/a	catFR1	1	R1277J
1669.439	1.55	1698782	REC_WORD	1.55	n/a	ELBOW	BodyParts	5	14	[0, 0, 0]	n/a	catFR1	1	R1277J
1670.989	1.35	1700332	REC_WORD	1.35	n/a	EYE	BodyParts	6	14	[0, 0, 0]	n/a	catFR1	1	R1277J
1672.339	3.299	1701682	REC_WORD	3.299	n/a	NOSE	BodyParts	12	14	[0, 0, 0]	n/a	catFR1	1	R1277J
1675.638	2.581	1704981	REC_WORD_VV	2.581	n/a	<>	n/a	-999	14	[0, 0, 0]	n/a	catFR1	1	R1277J
1678.219	2.084	1707562	REC_WORD	2.084	n/a	BROWNIES	Desserts	10	14	[0, 0, 0]	n/a	catFR1	1	R1277J
1680.303	5.231	1709646	REC_WORD	5.231	n/a	LETTUCE	Vegetables	1	14	[0, 0, 0]	n/a	catFR1	1	R1277J
1685.534	1.0	1714877	REC_WORD	1.0	n/a	CELERY	Vegetables	8	14	[0, 0, 0]	n/a	catFR1	1	R1277J
1686.534	6.317	1715877	REC_WORD_VV	6.317	n/a	<>	n/a	-999	14	[0, 0, 0]	n/a	catFR1	1	R1277J
1692.851	4.894	1722194	REC_END	n/a	n/a	n/a	n/a	-999	14	[0, 0, 0]	n/a	catFR1	1	R1277J
1697.745	0.5	1727088	TRIAL	n/a	n/a	n/a	n/a	-999	15	[0, 0, 0]	n/a	catFR1	1	R1277J
1698.245	10.428	1727588	COUNTDOWN_START	n/a	n/a	n/a	n/a	-999	15	[0, 0, 0]	n/a	catFR1	1	R1277J
1708.673	0.007	1738016	COUNTDOWN_END	n/a	n/a	n/a	n/a	-999	15	[0, 0, 0]	n/a	catFR1	1	R1277J
1708.68	1.617	1738023	ORIENT	n/a	n/a	n/a	n/a	-999	15	[0, 0, 0]	n/a	catFR1	1	R1277J
1710.297	2.301	1739640	ORIENT_OFF	n/a	n/a	n/a	n/a	-999	15	[0, 0, 0]	n/a	catFR1	1	R1277J
1712.598	1.616	1741941	WORD	n/a	wordpools/wordpool_categorized_EN.txt	CABINET	Furniture	1	15	[0, 0, 0]	n/a	catFR1	1	R1277J
1714.214	0.849	1743557	WORD_OFF	n/a	n/a	CABINET	n/a	1	15	[0, 0, 0]	n/a	catFR1	1	R1277J
1715.063	1.618	1744406	WORD	n/a	wordpools/wordpool_categorized_EN.txt	DESK	Furniture	2	15	[0, 0, 0]	n/a	catFR1	1	R1277J
1716.681	1.017	1746024	WORD_OFF	n/a	n/a	DESK	n/a	2	15	[0, 0, 0]	n/a	catFR1	1	R1277J
1717.698	1.617	1747041	WORD	n/a	wordpools/wordpool_categorized_EN.txt	ARM	BodyParts	3	15	[0, 0, 0]	n/a	catFR1	1	R1277J
1719.315	0.816	1748658	WORD_OFF	n/a	n/a	ARM	n/a	3	15	[0, 0, 0]	n/a	catFR1	1	R1277J
1720.131	1.618	1749474	WORD	n/a	wordpools/wordpool_categorized_EN.txt	LEG	BodyParts	4	15	[0, 0, 0]	n/a	catFR1	1	R1277J
1721.749	1.0	1751092	WORD_OFF	n/a	n/a	LEG	n/a	4	15	[0, 0, 0]	n/a	catFR1	1	R1277J
1722.749	1.617	1752092	WORD	n/a	wordpools/wordpool_categorized_EN.txt	DRUM	Instruments	5	15	[0, 0, 0]	n/a	catFR1	1	R1277J
1724.366	0.916	1753709	WORD_OFF	n/a	n/a	DRUM	n/a	5	15	[0, 0, 0]	n/a	catFR1	1	R1277J
1725.282	1.617	1754625	WORD	n/a	wordpools/wordpool_categorized_EN.txt	BANJO	Instruments	6	15	[0, 0, 0]	n/a	catFR1	1	R1277J
1726.899	0.884	1756242	WORD_OFF	n/a	n/a	BANJO	n/a	6	15	[0, 0, 0]	n/a	catFR1	1	R1277J
1727.783	1.617	1757126	WORD	n/a	wordpools/wordpool_categorized_EN.txt	COUCH	Furniture	7	15	[0, 0, 0]	n/a	catFR1	1	R1277J
1729.4	0.849	1758743	WORD_OFF	n/a	n/a	COUCH	n/a	7	15	[0, 0, 0]	n/a	catFR1	1	R1277J
1730.249	1.618	1759592	WORD	n/a	wordpools/wordpool_categorized_EN.txt	BED	Furniture	8	15	[0, 0, 0]	n/a	catFR1	1	R1277J
1731.867	0.783	1761210	WORD_OFF	n/a	n/a	BED	n/a	8	15	[0, 0, 0]	n/a	catFR1	1	R1277J
1732.65	1.617	1761993	WORD	n/a	wordpools/wordpool_categorized_EN.txt	EAR	BodyParts	9	15	[0, 0, 0]	n/a	catFR1	1	R1277J
1734.267	0.883	1763610	WORD_OFF	n/a	n/a	EAR	n/a	9	15	[0, 0, 0]	n/a	catFR1	1	R1277J
1735.15	1.617	1764493	WORD	n/a	wordpools/wordpool_categorized_EN.txt	FINGERS	BodyParts	10	15	[0, 0, 0]	n/a	catFR1	1	R1277J
1736.767	0.783	1766110	WORD_OFF	n/a	n/a	FINGERS	n/a	10	15	[0, 0, 0]	n/a	catFR1	1	R1277J
1737.55	1.617	1766893	WORD	n/a	wordpools/wordpool_categorized_EN.txt	GUITAR	Instruments	11	15	[0, 0, 0]	n/a	catFR1	1	R1277J
1739.167	0.883	1768510	WORD_OFF	n/a	n/a	GUITAR	n/a	11	15	[0, 0, 0]	n/a	catFR1	1	R1277J
1740.05	1.618	1769393	WORD	n/a	wordpools/wordpool_categorized_EN.txt	VIOLIN	Instruments	12	15	[0, 0, 0]	n/a	catFR1	1	R1277J
1741.668	0.0	1771011	WORD_OFF	n/a	n/a	VIOLIN	n/a	12	15	[0, 0, 0]	n/a	catFR1	1	R1277J
1741.668	0.132	1771011	ENCODING_END	n/a	n/a	n/a	n/a	-999	15	[0, 0, 0]	n/a	catFR1	1	R1277J
1741.8	0.0	1771143	DISTRACT_START	n/a	n/a	n/a	n/a	-999	15	[0, 0, 0]	n/a	catFR1	1	R1277J
1741.8	0.018	1771143	START	n/a	n/a	n/a	n/a	-999	15	[-999, -999, -999]	n/a	catFR1	1	R1277J
1741.818	2.45	1771161	PROB	2.45	n/a	n/a	n/a	-999	15	[5, 1, 4]	10	catFR1	1	R1277J
1744.268	3.217	1773611	PROB	3.217	n/a	n/a	n/a	-999	15	[8, 7, 3]	18	catFR1	1	R1277J
1747.485	2.267	1776828	PROB	2.267	n/a	n/a	n/a	-999	15	[1, 1, 6]	8	catFR1	1	R1277J
1749.752	3.401	1779095	PROB	3.401	n/a	n/a	n/a	-999	15	[9, 7, 3]	19	catFR1	1	R1277J
1753.153	2.416	1782496	PROB	2.416	n/a	n/a	n/a	-999	15	[2, 2, 3]	7	catFR1	1	R1277J
1755.569	3.118	1784912	PROB	3.118	n/a	n/a	n/a	-999	15	[8, 7, 3]	18	catFR1	1	R1277J
1758.687	5.119	1788030	PROB	5.119	n/a	n/a	n/a	-999	15	[2, 7, 9]	18	catFR1	1	R1277J
1763.806	0.015	1793149	STOP	n/a	n/a	n/a	n/a	-999	15	[-999, -999, -999]	n/a	catFR1	1	R1277J
1763.821	0.633	1793164	DISTRACT_END	n/a	n/a	n/a	n/a	-999	15	[0, 0, 0]	n/a	catFR1	1	R1277J
1764.454	0.517	1793797	RETRIEVAL_ORIENT	n/a	n/a	n/a	n/a	-999	15	[0, 0, 0]	n/a	catFR1	1	R1277J
1764.971	0.88	1794314	REC_START	n/a	n/a	n/a	n/a	-999	15	[0, 0, 0]	n/a	catFR1	1	R1277J
1765.851	0.765	1795194	REC_WORD	0.765	n/a	ARM	BodyParts	3	15	[0, 0, 0]	n/a	catFR1	1	R1277J
1766.616	0.693	1795959	REC_WORD	0.693	n/a	ELBOW	n/a	-999	15	[0, 0, 0]	n/a	catFR1	1	R1277J
1767.309	1.132	1796652	REC_WORD	1.132	n/a	EAR	BodyParts	9	15	[0, 0, 0]	n/a	catFR1	1	R1277J
1768.441	2.081	1797784	REC_WORD	2.081	n/a	NOSE	n/a	-999	15	[0, 0, 0]	n/a	catFR1	1	R1277J
1770.522	0.401	1799865	REC_WORD_VV	0.401	n/a	<>	n/a	-999	15	[0, 0, 0]	n/a	catFR1	1	R1277J
1770.923	0.918	1800266	REC_WORD	0.918	n/a	DRUM	Instruments	5	15	[0, 0, 0]	n/a	catFR1	1	R1277J
1771.841	5.836	1801184	REC_WORD	5.836	n/a	VIOLIN	Instruments	12	15	[0, 0, 0]	n/a	catFR1	1	R1277J
1777.677	0.457	1807020	REC_WORD	0.457	n/a	COUCH	Furniture	7	15	[0, 0, 0]	n/a	catFR1	1	R1277J
1778.134	0.729	1807477	REC_WORD	0.729	n/a	CHAIR	n/a	-999	15	[0, 0, 0]	n/a	catFR1	1	R1277J
1778.863	12.005	1808206	REC_WORD	12.005	n/a	ARM	BodyParts	3	15	[0, 0, 0]	n/a	catFR1	1	R1277J
1790.868	4.112	1820211	REC_WORD	4.112	n/a	DESK	Furniture	2	15	[0, 0, 0]	n/a	catFR1	1	R1277J
1794.98	13.68	1824323	REC_END	n/a	n/a	n/a	n/a	-999	15	[0, 0, 0]	n/a	catFR1	1	R1277J
1808.66	0.5	1838003	TRIAL	n/a	n/a	n/a	n/a	-999	16	[0, 0, 0]	n/a	catFR1	1	R1277J
1809.16	10.428	1838503	COUNTDOWN_START	n/a	n/a	n/a	n/a	-999	16	[0, 0, 0]	n/a	catFR1	1	R1277J
1819.588	0.007	1848931	COUNTDOWN_END	n/a	n/a	n/a	n/a	-999	16	[0, 0, 0]	n/a	catFR1	1	R1277J
1819.595	1.617	1848938	ORIENT	n/a	n/a	n/a	n/a	-999	16	[0, 0, 0]	n/a	catFR1	1	R1277J
1821.212	1.983	1850555	ORIENT_OFF	n/a	n/a	n/a	n/a	-999	16	[0, 0, 0]	n/a	catFR1	1	R1277J
1823.195	1.617	1852538	WORD	n/a	wordpools/wordpool_categorized_EN.txt	RULER	OfficeSupplies	1	16	[0, 0, 0]	n/a	catFR1	1	R1277J
1824.812	0.984	1854155	WORD_OFF	n/a	n/a	RULER	n/a	1	16	[0, 0, 0]	n/a	catFR1	1	R1277J
1825.796	1.617	1855139	WORD	n/a	wordpools/wordpool_categorized_EN.txt	GLUE	OfficeSupplies	2	16	[0, 0, 0]	n/a	catFR1	1	R1277J
1827.413	0.783	1856756	WORD_OFF	n/a	n/a	GLUE	n/a	2	16	[0, 0, 0]	n/a	catFR1	1	R1277J
1828.196	1.617	1857539	WORD	n/a	wordpools/wordpool_categorized_EN.txt	BROCCOLI	Vegetables	3	16	[0, 0, 0]	n/a	catFR1	1	R1277J
1829.813	1.0	1859156	WORD_OFF	n/a	n/a	BROCCOLI	n/a	3	16	[0, 0, 0]	n/a	catFR1	1	R1277J
1830.813	1.617	1860156	WORD	n/a	wordpools/wordpool_categorized_EN.txt	CORN	Vegetables	4	16	[0, 0, 0]	n/a	catFR1	1	R1277J
1832.43	0.784	1861773	WORD_OFF	n/a	n/a	CORN	n/a	4	16	[0, 0, 0]	n/a	catFR1	1	R1277J
1833.214	1.617	1862557	WORD	n/a	wordpools/wordpool_categorized_EN.txt	AXE	Tools	5	16	[0, 0, 0]	n/a	catFR1	1	R1277J
1834.831	0.899	1864174	WORD_OFF	n/a	n/a	AXE	n/a	5	16	[0, 0, 0]	n/a	catFR1	1	R1277J
1835.73	1.617	1865073	WORD	n/a	wordpools/wordpool_categorized_EN.txt	SHOVEL	Tools	6	16	[0, 0, 0]	n/a	catFR1	1	R1277J
1837.347	0.984	1866690	WORD_OFF	n/a	n/a	SHOVEL	n/a	6	16	[0, 0, 0]	n/a	catFR1	1	R1277J
1838.331	1.616	1867674	WORD	n/a	wordpools/wordpool_categorized_EN.txt	ONION	Vegetables	7	16	[0, 0, 0]	n/a	catFR1	1	R1277J
1839.947	0.868	1869290	WORD_OFF	n/a	n/a	ONION	n/a	7	16	[0, 0, 0]	n/a	catFR1	1	R1277J
1840.815	1.617	1870158	WORD	n/a	wordpools/wordpool_categorized_EN.txt	CAULIFLOWER	Vegetables	8	16	[0, 0, 0]	n/a	catFR1	1	R1277J
1842.432	0.916	1871775	WORD_OFF	n/a	n/a	CAULIFLOWER	n/a	8	16	[0, 0, 0]	n/a	catFR1	1	R1277J
1843.348	1.616	1872691	WORD	n/a	wordpools/wordpool_categorized_EN.txt	MARKER	OfficeSupplies	9	16	[0, 0, 0]	n/a	catFR1	1	R1277J
1844.964	0.901	1874307	WORD_OFF	n/a	n/a	MARKER	n/a	9	16	[0, 0, 0]	n/a	catFR1	1	R1277J
1845.865	1.617	1875208	WORD	n/a	wordpools/wordpool_categorized_EN.txt	BINDER	OfficeSupplies	10	16	[0, 0, 0]	n/a	catFR1	1	R1277J
1847.482	0.85	1876825	WORD_OFF	n/a	n/a	BINDER	n/a	10	16	[0, 0, 0]	n/a	catFR1	1	R1277J
1848.332	1.616	1877675	WORD	n/a	wordpools/wordpool_categorized_EN.txt	RATCHET	Tools	11	16	[0, 0, 0]	n/a	catFR1	1	R1277J
1849.948	1.0	1879291	WORD_OFF	n/a	n/a	RATCHET	n/a	11	16	[0, 0, 0]	n/a	catFR1	1	R1277J
1850.948	1.618	1880291	WORD	n/a	wordpools/wordpool_categorized_EN.txt	SCREWDRIVER	Tools	12	16	[0, 0, 0]	n/a	catFR1	1	R1277J
1852.566	0.0	1881909	ENCODING_END	n/a	n/a	n/a	n/a	-999	16	[0, 0, 0]	n/a	catFR1	1	R1277J
1852.566	0.101	1881909	WORD_OFF	n/a	n/a	SCREWDRIVER	n/a	12	16	[0, 0, 0]	n/a	catFR1	1	R1277J
1852.667	0.0	1882010	DISTRACT_START	n/a	n/a	n/a	n/a	-999	16	[0, 0, 0]	n/a	catFR1	1	R1277J
1852.667	0.016	1882010	START	n/a	n/a	n/a	n/a	-999	16	[-999, -999, -999]	n/a	catFR1	1	R1277J
1852.683	3.933	1882026	PROB	3.933	n/a	n/a	n/a	-999	16	[8, 8, 1]	17	catFR1	1	R1277J
1856.616	3.918	1885959	PROB	3.918	n/a	n/a	n/a	-999	16	[6, 8, 3]	17	catFR1	1	R1277J
1860.534	2.734	1889877	PROB	2.734	n/a	n/a	n/a	-999	16	[8, 2, 2]	12	catFR1	1	R1277J
1863.268	1.883	1892611	PROB	1.883	n/a	n/a	n/a	-999	16	[5, 1, 1]	7	catFR1	1	R1277J
1865.151	3.8	1894494	PROB	3.8	n/a	n/a	n/a	-999	16	[1, 6, 4]	11	catFR1	1	R1277J
1868.951	5.265	1898293	PROB	5.265	n/a	n/a	n/a	-999	16	[5, 6, 6]	17	catFR1	1	R1277J
1874.216	0.02	1903558	STOP	n/a	n/a	n/a	n/a	-999	16	[-999, -999, -999]	n/a	catFR1	1	R1277J
1874.236	0.699	1903578	DISTRACT_END	n/a	n/a	n/a	n/a	-999	16	[0, 0, 0]	n/a	catFR1	1	R1277J
1874.935	0.518	1904277	RETRIEVAL_ORIENT	n/a	n/a	n/a	n/a	-999	16	[0, 0, 0]	n/a	catFR1	1	R1277J
1875.453	1.165	1904795	REC_START	n/a	n/a	n/a	n/a	-999	16	[0, 0, 0]	n/a	catFR1	1	R1277J
1876.618	0.568	1905960	REC_WORD	0.568	n/a	SHOVEL	Tools	6	16	[0, 0, 0]	n/a	catFR1	1	R1277J
1877.186	1.0	1906528	REC_WORD	1.0	n/a	SCREWDRIVER	Tools	12	16	[0, 0, 0]	n/a	catFR1	1	R1277J
1878.186	0.275	1907528	REC_WORD_VV	0.275	n/a	<>	n/a	-999	16	[0, 0, 0]	n/a	catFR1	1	R1277J
1878.461	3.194	1907803	REC_WORD	3.194	n/a	RATCHET	Tools	11	16	[0, 0, 0]	n/a	catFR1	1	R1277J
1881.655	1.0	1910997	REC_WORD_VV	1.0	n/a	<>	n/a	-999	16	[0, 0, 0]	n/a	catFR1	1	R1277J
1882.655	1.0	1911997	REC_WORD_VV	1.0	n/a	<>	n/a	-999	16	[0, 0, 0]	n/a	catFR1	1	R1277J
1883.655	1.256	1912997	REC_WORD_VV	1.256	n/a	<>	n/a	-999	16	[0, 0, 0]	n/a	catFR1	1	R1277J
1884.911	20.552	1914253	REC_WORD	20.552	n/a	CORN	Vegetables	4	16	[0, 0, 0]	n/a	catFR1	1	R1277J
1905.463	5.278	1934805	REC_END	n/a	n/a	n/a	n/a	-999	16	[0, 0, 0]	n/a	catFR1	1	R1277J
1910.741	0.5	1940083	TRIAL	n/a	n/a	n/a	n/a	-999	17	[0, 0, 0]	n/a	catFR1	1	R1277J
1911.241	10.428	1940583	COUNTDOWN_START	n/a	n/a	n/a	n/a	-999	17	[0, 0, 0]	n/a	catFR1	1	R1277J
1921.669	0.006	1951011	COUNTDOWN_END	n/a	n/a	n/a	n/a	-999	17	[0, 0, 0]	n/a	catFR1	1	R1277J
1921.675	1.617	1951017	ORIENT	n/a	n/a	n/a	n/a	-999	17	[0, 0, 0]	n/a	catFR1	1	R1277J
1923.292	1.9	1952634	ORIENT_OFF	n/a	n/a	n/a	n/a	-999	17	[0, 0, 0]	n/a	catFR1	1	R1277J
1925.192	1.617	1954534	WORD	n/a	wordpools/wordpool_categorized_EN.txt	HALLWAY	Building	1	17	[0, 0, 0]	n/a	catFR1	1	R1277J
1926.809	0.9	1956151	WORD_OFF	n/a	n/a	HALLWAY	n/a	1	17	[0, 0, 0]	n/a	catFR1	1	R1277J
1927.709	1.617	1957051	WORD	n/a	wordpools/wordpool_categorized_EN.txt	ROOF	Building	2	17	[0, 0, 0]	n/a	catFR1	1	R1277J
1929.326	0.884	1958668	WORD_OFF	n/a	n/a	ROOF	n/a	2	17	[0, 0, 0]	n/a	catFR1	1	R1277J
1930.21	1.617	1959552	WORD	n/a	wordpools/wordpool_categorized_EN.txt	BOOKCASE	Furniture	3	17	[0, 0, 0]	n/a	catFR1	1	R1277J
1931.827	1.017	1961169	WORD_OFF	n/a	n/a	BOOKCASE	n/a	3	17	[0, 0, 0]	n/a	catFR1	1	R1277J
1932.844	1.617	1962186	WORD	n/a	wordpools/wordpool_categorized_EN.txt	SOFA	Furniture	4	17	[0, 0, 0]	n/a	catFR1	1	R1277J
1934.461	0.932	1963803	WORD_OFF	n/a	n/a	SOFA	n/a	4	17	[0, 0, 0]	n/a	catFR1	1	R1277J
1935.393	1.616	1964735	WORD	n/a	wordpools/wordpool_categorized_EN.txt	SQUID	OceanAnimals	5	17	[0, 0, 0]	n/a	catFR1	1	R1277J
1937.009	0.984	1966351	WORD_OFF	n/a	n/a	SQUID	n/a	5	17	[0, 0, 0]	n/a	catFR1	1	R1277J
1937.993	1.618	1967335	WORD	n/a	wordpools/wordpool_categorized_EN.txt	DOLPHIN	OceanAnimals	6	17	[0, 0, 0]	n/a	catFR1	1	R1277J
1939.611	0.85	1968953	WORD_OFF	n/a	n/a	DOLPHIN	n/a	6	17	[0, 0, 0]	n/a	catFR1	1	R1277J
1940.461	1.616	1969803	WORD	n/a	wordpools/wordpool_categorized_EN.txt	ROOM	Building	7	17	[0, 0, 0]	n/a	catFR1	1	R1277J
1942.077	0.967	1971419	WORD_OFF	n/a	n/a	ROOM	n/a	7	17	[0, 0, 0]	n/a	catFR1	1	R1277J
1943.044	1.618	1972386	WORD	n/a	wordpools/wordpool_categorized_EN.txt	DOOR	Building	8	17	[0, 0, 0]	n/a	catFR1	1	R1277J
1944.662	0.9	1974004	WORD_OFF	n/a	n/a	DOOR	n/a	8	17	[0, 0, 0]	n/a	catFR1	1	R1277J
1945.562	1.617	1974904	WORD	n/a	wordpools/wordpool_categorized_EN.txt	RECLINER	Furniture	9	17	[0, 0, 0]	n/a	catFR1	1	R1277J
1947.179	0.799	1976521	WORD_OFF	n/a	n/a	RECLINER	n/a	9	17	[0, 0, 0]	n/a	catFR1	1	R1277J
1947.978	1.601	1977320	WORD	n/a	wordpools/wordpool_categorized_EN.txt	TABLE	Furniture	10	17	[0, 0, 0]	n/a	catFR1	1	R1277J
1949.579	1.0	1978921	WORD_OFF	n/a	n/a	TABLE	n/a	10	17	[0, 0, 0]	n/a	catFR1	1	R1277J
1950.579	1.617	1979921	WORD	n/a	wordpools/wordpool_categorized_EN.txt	WHALE	OceanAnimals	11	17	[0, 0, 0]	n/a	catFR1	1	R1277J
1952.196	0.967	1981538	WORD_OFF	n/a	n/a	WHALE	n/a	11	17	[0, 0, 0]	n/a	catFR1	1	R1277J
1953.163	1.617	1982505	WORD	n/a	wordpools/wordpool_categorized_EN.txt	LOBSTER	OceanAnimals	12	17	[0, 0, 0]	n/a	catFR1	1	R1277J
1954.78	0.0	1984122	ENCODING_END	n/a	n/a	n/a	n/a	-999	17	[0, 0, 0]	n/a	catFR1	1	R1277J
1954.78	0.099	1984122	WORD_OFF	n/a	n/a	LOBSTER	n/a	12	17	[0, 0, 0]	n/a	catFR1	1	R1277J
1954.879	0.0	1984221	DISTRACT_START	n/a	n/a	n/a	n/a	-999	17	[0, 0, 0]	n/a	catFR1	1	R1277J
1954.879	0.017	1984221	START	n/a	n/a	n/a	n/a	-999	17	[-999, -999, -999]	n/a	catFR1	1	R1277J
1954.896	3.434	1984238	PROB	3.434	n/a	n/a	n/a	-999	17	[7, 3, 1]	11	catFR1	1	R1277J
1958.33	2.467	1987672	PROB	2.467	n/a	n/a	n/a	-999	17	[2, 2, 4]	8	catFR1	1	R1277J
1960.797	2.584	1990139	PROB	2.584	n/a	n/a	n/a	-999	17	[9, 7, 1]	17	catFR1	1	R1277J
1963.381	2.267	1992723	PROB	2.267	n/a	n/a	n/a	-999	17	[3, 3, 1]	7	catFR1	1	R1277J
1965.648	3.667	1994990	PROB	3.667	n/a	n/a	n/a	-999	17	[7, 7, 5]	19	catFR1	1	R1277J
1969.315	3.451	1998657	PROB	3.451	n/a	n/a	n/a	-999	17	[8, 8, 6]	22	catFR1	1	R1277J
1972.766	2.582	2002108	PROB	2.582	n/a	n/a	n/a	-999	17	[3, 5, 4]	12	catFR1	1	R1277J
1975.348	0.018	2004690	STOP	n/a	n/a	n/a	n/a	-999	17	[-999, -999, -999]	n/a	catFR1	1	R1277J
1975.366	0.682	2004708	DISTRACT_END	n/a	n/a	n/a	n/a	-999	17	[0, 0, 0]	n/a	catFR1	1	R1277J
1976.048	0.519	2005390	RETRIEVAL_ORIENT	n/a	n/a	n/a	n/a	-999	17	[0, 0, 0]	n/a	catFR1	1	R1277J
1976.567	0.669	2005909	REC_START	n/a	n/a	n/a	n/a	-999	17	[0, 0, 0]	n/a	catFR1	1	R1277J
1977.236	0.817	2006578	REC_WORD	0.817	n/a	ROOM	Building	7	17	[0, 0, 0]	n/a	catFR1	1	R1277J
1978.053	2.257	2007395	REC_WORD	2.257	n/a	DRAWER	n/a	-999	17	[0, 0, 0]	n/a	catFR1	1	R1277J
1980.31	1.76	2009652	REC_WORD	1.76	n/a	HALL	n/a	-999	17	[0, 0, 0]	n/a	catFR1	1	R1277J
1982.07	2.48	2011412	REC_WORD	2.48	n/a	DOOR	Building	8	17	[0, 0, 0]	n/a	catFR1	1	R1277J
1984.55	8.634	2013892	REC_WORD_VV	8.634	n/a	<>	n/a	-999	17	[0, 0, 0]	n/a	catFR1	1	R1277J
1993.184	6.696	2022526	REC_WORD	6.696	n/a	DOLPHIN	OceanAnimals	6	17	[0, 0, 0]	n/a	catFR1	1	R1277J
1999.88	1.223	2029222	REC_WORD	1.223	n/a	COUCH	n/a	-999	17	[0, 0, 0]	n/a	catFR1	1	R1277J
2001.103	5.473	2030445	REC_WORD	5.473	n/a	SOFA	Furniture	4	17	[0, 0, 0]	n/a	catFR1	1	R1277J
2006.576	5.345	2035918	REC_END	n/a	n/a	n/a	n/a	-999	17	[0, 0, 0]	n/a	catFR1	1	R1277J
2011.921	0.5	2041263	TRIAL	n/a	n/a	n/a	n/a	-999	18	[0, 0, 0]	n/a	catFR1	1	R1277J
2012.421	10.428	2041763	COUNTDOWN_START	n/a	n/a	n/a	n/a	-999	18	[0, 0, 0]	n/a	catFR1	1	R1277J
2022.849	0.007	2052191	COUNTDOWN_END	n/a	n/a	n/a	n/a	-999	18	[0, 0, 0]	n/a	catFR1	1	R1277J
2022.856	1.617	2052198	ORIENT	n/a	n/a	n/a	n/a	-999	18	[0, 0, 0]	n/a	catFR1	1	R1277J
2024.473	2.133	2053815	ORIENT_OFF	n/a	n/a	n/a	n/a	-999	18	[0, 0, 0]	n/a	catFR1	1	R1277J
2026.606	1.617	2055948	WORD	n/a	wordpools/wordpool_categorized_EN.txt	STREAM	Landscapes	1	18	[0, 0, 0]	n/a	catFR1	1	R1277J
2028.223	0.816	2057565	WORD_OFF	n/a	n/a	STREAM	n/a	1	18	[0, 0, 0]	n/a	catFR1	1	R1277J
2029.039	1.618	2058381	WORD	n/a	wordpools/wordpool_categorized_EN.txt	ISLAND	Landscapes	2	18	[0, 0, 0]	n/a	catFR1	1	R1277J
2030.657	0.85	2059999	WORD_OFF	n/a	n/a	ISLAND	n/a	2	18	[0, 0, 0]	n/a	catFR1	1	R1277J
2031.507	1.616	2060849	WORD	n/a	wordpools/wordpool_categorized_EN.txt	ORANGE	Fruit	3	18	[0, 0, 0]	n/a	catFR1	1	R1277J
2033.123	1.017	2062465	WORD_OFF	n/a	n/a	ORANGE	n/a	3	18	[0, 0, 0]	n/a	catFR1	1	R1277J
2034.14	1.617	2063482	WORD	n/a	wordpools/wordpool_categorized_EN.txt	APPLE	Fruit	4	18	[0, 0, 0]	n/a	catFR1	1	R1277J
2035.757	0.85	2065099	WORD_OFF	n/a	n/a	APPLE	n/a	4	18	[0, 0, 0]	n/a	catFR1	1	R1277J
2036.607	1.617	2065949	WORD	n/a	wordpools/wordpool_categorized_EN.txt	MOPED	Vehicles	5	18	[0, 0, 0]	n/a	catFR1	1	R1277J
2038.224	0.934	2067566	WORD_OFF	n/a	n/a	MOPED	n/a	5	18	[0, 0, 0]	n/a	catFR1	1	R1277J
2039.158	1.617	2068500	WORD	n/a	wordpools/wordpool_categorized_EN.txt	PLANE	Vehicles	6	18	[0, 0, 0]	n/a	catFR1	1	R1277J
2040.775	0.833	2070117	WORD_OFF	n/a	n/a	PLANE	n/a	6	18	[0, 0, 0]	n/a	catFR1	1	R1277J
2041.608	1.617	2070950	WORD	n/a	wordpools/wordpool_categorized_EN.txt	PEAR	Fruit	7	18	[0, 0, 0]	n/a	catFR1	1	R1277J
2043.225	1.0	2072567	WORD_OFF	n/a	n/a	PEAR	n/a	7	18	[0, 0, 0]	n/a	catFR1	1	R1277J
2044.225	1.617	2073567	WORD	n/a	wordpools/wordpool_categorized_EN.txt	BLUEBERRY	Fruit	8	18	[0, 0, 0]	n/a	catFR1	1	R1277J
2045.842	0.767	2075184	WORD_OFF	n/a	n/a	BLUEBERRY	n/a	8	18	[0, 0, 0]	n/a	catFR1	1	R1277J
2046.609	1.617	2075951	WORD	n/a	wordpools/wordpool_categorized_EN.txt	MOUNTAIN	Landscapes	9	18	[0, 0, 0]	n/a	catFR1	1	R1277J
2048.226	0.865	2077568	WORD_OFF	n/a	n/a	MOUNTAIN	n/a	9	18	[0, 0, 0]	n/a	catFR1	1	R1277J
2049.091	1.602	2078433	WORD	n/a	wordpools/wordpool_categorized_EN.txt	HILLS	Landscapes	10	18	[0, 0, 0]	n/a	catFR1	1	R1277J
2050.693	0.933	2080035	WORD_OFF	n/a	n/a	HILLS	n/a	10	18	[0, 0, 0]	n/a	catFR1	1	R1277J
2051.626	1.617	2080968	WORD	n/a	wordpools/wordpool_categorized_EN.txt	BIKE	Vehicles	11	18	[0, 0, 0]	n/a	catFR1	1	R1277J
2053.243	0.883	2082585	WORD_OFF	n/a	n/a	BIKE	n/a	11	18	[0, 0, 0]	n/a	catFR1	1	R1277J
2054.126	1.617	2083468	WORD	n/a	wordpools/wordpool_categorized_EN.txt	SCOOTER	Vehicles	12	18	[0, 0, 0]	n/a	catFR1	1	R1277J
2055.743	0.0	2085085	ENCODING_END	n/a	n/a	n/a	n/a	-999	18	[0, 0, 0]	n/a	catFR1	1	R1277J
2055.743	0.13	2085085	WORD_OFF	n/a	n/a	SCOOTER	n/a	12	18	[0, 0, 0]	n/a	catFR1	1	R1277J
2055.873	0.0	2085215	DISTRACT_START	n/a	n/a	n/a	n/a	-999	18	[0, 0, 0]	n/a	catFR1	1	R1277J
2055.873	0.02	2085215	START	n/a	n/a	n/a	n/a	-999	18	[-999, -999, -999]	n/a	catFR1	1	R1277J
2055.893	3.634	2085235	PROB	3.634	n/a	n/a	n/a	-999	18	[5, 2, 9]	16	catFR1	1	R1277J
2059.527	4.101	2088869	PROB	4.101	n/a	n/a	n/a	-999	18	[9, 7, 7]	23	catFR1	1	R1277J
2063.628	6.968	2092970	PROB	6.968	n/a	n/a	n/a	-999	18	[5, 7, 6]	18	catFR1	1	R1277J
2070.596	5.805	2099938	PROB	5.805	n/a	n/a	n/a	-999	18	[4, 9, 4]	17	catFR1	1	R1277J
2076.401	0.012	2105743	STOP	n/a	n/a	n/a	n/a	-999	18	[-999, -999, -999]	n/a	catFR1	1	R1277J
2076.413	0.599	2105755	DISTRACT_END	n/a	n/a	n/a	n/a	-999	18	[0, 0, 0]	n/a	catFR1	1	R1277J
2077.012	0.518	2106353	RETRIEVAL_ORIENT	n/a	n/a	n/a	n/a	-999	18	[0, 0, 0]	n/a	catFR1	1	R1277J
2077.53	1.174	2106871	REC_START	n/a	n/a	n/a	n/a	-999	18	[0, 0, 0]	n/a	catFR1	1	R1277J
2078.704	1.096	2108045	REC_WORD	1.096	n/a	STREAM	Landscapes	1	18	[0, 0, 0]	n/a	catFR1	1	R1277J
2079.8	0.907	2109141	REC_WORD	0.907	n/a	MOUNTAIN	Landscapes	9	18	[0, 0, 0]	n/a	catFR1	1	R1277J
2080.707	1.539	2110048	REC_WORD	1.539	n/a	ISLAND	Landscapes	2	18	[0, 0, 0]	n/a	catFR1	1	R1277J
2082.246	0.926	2111587	REC_WORD	0.926	n/a	APPLE	Fruit	4	18	[0, 0, 0]	n/a	catFR1	1	R1277J
2083.172	1.541	2112513	REC_WORD	1.541	n/a	PEAR	Fruit	7	18	[0, 0, 0]	n/a	catFR1	1	R1277J
2084.713	1.012	2114054	REC_WORD	1.012	n/a	MOPED	Vehicles	5	18	[0, 0, 0]	n/a	catFR1	1	R1277J
2085.725	6.785	2115066	REC_WORD	6.785	n/a	BIKE	Vehicles	11	18	[0, 0, 0]	n/a	catFR1	1	R1277J
2092.51	4.932	2121851	REC_WORD	4.932	n/a	MOTORCYCLE	n/a	-999	18	[0, 0, 0]	n/a	catFR1	1	R1277J
2097.442	10.1	2126783	REC_WORD	10.1	n/a	APPLE	Fruit	4	18	[0, 0, 0]	n/a	catFR1	1	R1277J
2107.542	5.591	2136883	REC_END	n/a	n/a	n/a	n/a	-999	18	[0, 0, 0]	n/a	catFR1	1	R1277J
2113.133	0.5	2142474	TRIAL	n/a	n/a	n/a	n/a	-999	19	[0, 0, 0]	n/a	catFR1	1	R1277J
2113.633	10.428	2142974	COUNTDOWN_START	n/a	n/a	n/a	n/a	-999	19	[0, 0, 0]	n/a	catFR1	1	R1277J
2124.061	0.007	2153402	COUNTDOWN_END	n/a	n/a	n/a	n/a	-999	19	[0, 0, 0]	n/a	catFR1	1	R1277J
2124.068	1.618	2153409	ORIENT	n/a	n/a	n/a	n/a	-999	19	[0, 0, 0]	n/a	catFR1	1	R1277J
2125.686	2.067	2155027	ORIENT_OFF	n/a	n/a	n/a	n/a	-999	19	[0, 0, 0]	n/a	catFR1	1	R1277J
2127.753	1.617	2157094	WORD	n/a	wordpools/wordpool_categorized_EN.txt	JEEP	Vehicles	1	19	[0, 0, 0]	n/a	catFR1	1	R1277J
2129.37	0.917	2158711	WORD_OFF	n/a	n/a	JEEP	n/a	1	19	[0, 0, 0]	n/a	catFR1	1	R1277J
2130.287	1.617	2159628	WORD	n/a	wordpools/wordpool_categorized_EN.txt	BOAT	Vehicles	2	19	[0, 0, 0]	n/a	catFR1	1	R1277J
2131.904	0.9	2161245	WORD_OFF	n/a	n/a	BOAT	n/a	2	19	[0, 0, 0]	n/a	catFR1	1	R1277J
2132.804	1.617	2162145	WORD	n/a	wordpools/wordpool_categorized_EN.txt	THUNDERSTORM	Weather	3	19	[0, 0, 0]	n/a	catFR1	1	R1277J
2134.421	0.9	2163762	WORD_OFF	n/a	n/a	THUNDERSTORM	n/a	3	19	[0, 0, 0]	n/a	catFR1	1	R1277J
2135.321	1.616	2164662	WORD	n/a	wordpools/wordpool_categorized_EN.txt	SNOW	Weather	4	19	[0, 0, 0]	n/a	catFR1	1	R1277J
2136.937	0.817	2166278	WORD_OFF	n/a	n/a	SNOW	n/a	4	19	[0, 0, 0]	n/a	catFR1	1	R1277J
2137.754	1.617	2167095	WORD	n/a	wordpools/wordpool_categorized_EN.txt	PASTRY	Desserts	5	19	[0, 0, 0]	n/a	catFR1	1	R1277J
2139.371	1.017	2168712	WORD_OFF	n/a	n/a	PASTRY	n/a	5	19	[0, 0, 0]	n/a	catFR1	1	R1277J
2140.388	1.616	2169729	WORD	n/a	wordpools/wordpool_categorized_EN.txt	CAKE	Desserts	6	19	[0, 0, 0]	n/a	catFR1	1	R1277J
2142.004	0.901	2171345	WORD_OFF	n/a	n/a	CAKE	n/a	6	19	[0, 0, 0]	n/a	catFR1	1	R1277J
2142.905	1.617	2172246	WORD	n/a	wordpools/wordpool_categorized_EN.txt	WIND	Weather	7	19	[0, 0, 0]	n/a	catFR1	1	R1277J
2144.522	0.783	2173863	WORD_OFF	n/a	n/a	WIND	n/a	7	19	[0, 0, 0]	n/a	catFR1	1	R1277J
2145.305	1.617	2174646	WORD	n/a	wordpools/wordpool_categorized_EN.txt	LIGHTNING	Weather	8	19	[0, 0, 0]	n/a	catFR1	1	R1277J
2146.922	0.867	2176263	WORD_OFF	n/a	n/a	LIGHTNING	n/a	8	19	[0, 0, 0]	n/a	catFR1	1	R1277J
2147.789	1.617	2177130	WORD	n/a	wordpools/wordpool_categorized_EN.txt	MOTORCYCLE	Vehicles	9	19	[0, 0, 0]	n/a	catFR1	1	R1277J
2149.406	0.883	2178747	WORD_OFF	n/a	n/a	MOTORCYCLE	n/a	9	19	[0, 0, 0]	n/a	catFR1	1	R1277J
2150.289	1.617	2179630	WORD	n/a	wordpools/wordpool_categorized_EN.txt	BUS	Vehicles	10	19	[0, 0, 0]	n/a	catFR1	1	R1277J
2151.906	0.817	2181247	WORD_OFF	n/a	n/a	BUS	n/a	10	19	[0, 0, 0]	n/a	catFR1	1	R1277J
2152.723	1.617	2182064	WORD	n/a	wordpools/wordpool_categorized_EN.txt	CHEESECAKE	Desserts	11	19	[0, 0, 0]	n/a	catFR1	1	R1277J
2154.34	0.816	2183681	WORD_OFF	n/a	n/a	CHEESECAKE	n/a	11	19	[0, 0, 0]	n/a	catFR1	1	R1277J
2155.156	1.618	2184497	WORD	n/a	wordpools/wordpool_categorized_EN.txt	COBBLER	Desserts	12	19	[0, 0, 0]	n/a	catFR1	1	R1277J
2156.774	0.0	2186115	ENCODING_END	n/a	n/a	n/a	n/a	-999	19	[0, 0, 0]	n/a	catFR1	1	R1277J
2156.774	0.098	2186115	WORD_OFF	n/a	n/a	COBBLER	n/a	12	19	[0, 0, 0]	n/a	catFR1	1	R1277J
2156.872	0.0	2186213	DISTRACT_START	n/a	n/a	n/a	n/a	-999	19	[0, 0, 0]	n/a	catFR1	1	R1277J
2156.872	0.018	2186213	START	n/a	n/a	n/a	n/a	-999	19	[-999, -999, -999]	n/a	catFR1	1	R1277J
2156.89	2.166	2186231	PROB	2.166	n/a	n/a	n/a	-999	19	[1, 3, 7]	11	catFR1	1	R1277J
2159.056	9.169	2188397	PROB	9.169	n/a	n/a	n/a	-999	19	[6, 5, 8]	19	catFR1	1	R1277J
2168.225	2.017	2197566	PROB	2.017	n/a	n/a	n/a	-999	19	[4, 1, 3]	8	catFR1	1	R1277J
2170.242	4.65	2199583	PROB	4.65	n/a	n/a	n/a	-999	19	[7, 6, 2]	15	catFR1	1	R1277J
2174.892	5.209	2204233	PROB	5.209	n/a	n/a	n/a	-999	19	[8, 5, 1]	13	catFR1	1	R1277J
2180.101	0.008	2209442	STOP	n/a	n/a	n/a	n/a	-999	19	[-999, -999, -999]	n/a	catFR1	1	R1277J
2180.109	0.601	2209450	DISTRACT_END	n/a	n/a	n/a	n/a	-999	19	[0, 0, 0]	n/a	catFR1	1	R1277J
2180.71	0.518	2210051	RETRIEVAL_ORIENT	n/a	n/a	n/a	n/a	-999	19	[0, 0, 0]	n/a	catFR1	1	R1277J
2181.228	1.187	2210569	REC_START	n/a	n/a	n/a	n/a	-999	19	[0, 0, 0]	n/a	catFR1	1	R1277J
2182.415	0.455	2211756	REC_WORD_VV	0.455	n/a	<>	n/a	-999	19	[0, 0, 0]	n/a	catFR1	1	R1277J
2182.87	6.21	2212211	REC_WORD	6.21	n/a	BOAT	Vehicles	2	19	[0, 0, 0]	n/a	catFR1	1	R1277J
2189.08	1.42	2218421	REC_WORD_VV	1.42	n/a	<>	n/a	-999	19	[0, 0, 0]	n/a	catFR1	1	R1277J
2190.5	3.939	2219841	REC_WORD	3.939	n/a	JEEP	Vehicles	1	19	[0, 0, 0]	n/a	catFR1	1	R1277J
2194.439	1.0	2223780	REC_WORD	1.0	n/a	THUNDERSTORM	Weather	3	19	[0, 0, 0]	n/a	catFR1	1	R1277J
2195.439	0.847	2224780	REC_WORD_VV	0.847	n/a	<>	n/a	-999	19	[0, 0, 0]	n/a	catFR1	1	R1277J
2196.286	3.295	2225627	REC_WORD	3.295	n/a	SNOW	Weather	4	19	[0, 0, 0]	n/a	catFR1	1	R1277J
2199.581	0.764	2228922	REC_WORD	0.764	n/a	COBBLER	Desserts	12	19	[0, 0, 0]	n/a	catFR1	1	R1277J
2200.345	1.0	2229686	REC_WORD	1.0	n/a	CHEESECAKE	Desserts	11	19	[0, 0, 0]	n/a	catFR1	1	R1277J
2201.345	3.267	2230686	REC_WORD_VV	3.267	n/a	<>	n/a	-999	19	[0, 0, 0]	n/a	catFR1	1	R1277J
2204.612	6.626	2233953	REC_WORD_VV	6.626	n/a	<>	n/a	-999	19	[0, 0, 0]	n/a	catFR1	1	R1277J
2211.238	5.927	2240579	REC_END	n/a	n/a	n/a	n/a	-999	19	[0, 0, 0]	n/a	catFR1	1	R1277J
2217.165	0.5	2246506	TRIAL	n/a	n/a	n/a	n/a	-999	20	[0, 0, 0]	n/a	catFR1	1	R1277J
2217.665	10.428	2247006	COUNTDOWN_START	n/a	n/a	n/a	n/a	-999	20	[0, 0, 0]	n/a	catFR1	1	R1277J
2228.093	0.005	2257434	COUNTDOWN_END	n/a	n/a	n/a	n/a	-999	20	[0, 0, 0]	n/a	catFR1	1	R1277J
2228.098	1.602	2257439	ORIENT	n/a	n/a	n/a	n/a	-999	20	[0, 0, 0]	n/a	catFR1	1	R1277J
2229.7	2.067	2259041	ORIENT_OFF	n/a	n/a	n/a	n/a	-999	20	[0, 0, 0]	n/a	catFR1	1	R1277J
2231.767	1.617	2261108	WORD	n/a	wordpools/wordpool_categorized_EN.txt	SLINKY	Toys	1	20	[0, 0, 0]	n/a	catFR1	1	R1277J
2233.384	0.917	2262725	WORD_OFF	n/a	n/a	SLINKY	n/a	1	20	[0, 0, 0]	n/a	catFR1	1	R1277J
2234.301	1.616	2263642	WORD	n/a	wordpools/wordpool_categorized_EN.txt	BLOCKS	Toys	2	20	[0, 0, 0]	n/a	catFR1	1	R1277J
2235.917	0.95	2265258	WORD_OFF	n/a	n/a	BLOCKS	n/a	2	20	[0, 0, 0]	n/a	catFR1	1	R1277J
2236.867	1.618	2266208	WORD	n/a	wordpools/wordpool_categorized_EN.txt	SHRIMP	OceanAnimals	3	20	[0, 0, 0]	n/a	catFR1	1	R1277J
2238.485	0.9	2267826	WORD_OFF	n/a	n/a	SHRIMP	n/a	3	20	[0, 0, 0]	n/a	catFR1	1	R1277J
2239.385	1.615	2268726	WORD	n/a	wordpools/wordpool_categorized_EN.txt	TURTLE	OceanAnimals	4	20	[0, 0, 0]	n/a	catFR1	1	R1277J
2241.0	0.967	2270341	WORD_OFF	n/a	n/a	TURTLE	n/a	4	20	[0, 0, 0]	n/a	catFR1	1	R1277J
2241.967	1.601	2271308	WORD	n/a	wordpools/wordpool_categorized_EN.txt	TRAIN	Vehicles	5	20	[0, 0, 0]	n/a	catFR1	1	R1277J
2243.568	0.934	2272909	WORD_OFF	n/a	n/a	TRAIN	n/a	5	20	[0, 0, 0]	n/a	catFR1	1	R1277J
2244.502	1.616	2273843	WORD	n/a	wordpools/wordpool_categorized_EN.txt	TRUCK	Vehicles	6	20	[0, 0, 0]	n/a	catFR1	1	R1277J
2246.118	0.9	2275459	WORD_OFF	n/a	n/a	TRUCK	n/a	6	20	[0, 0, 0]	n/a	catFR1	1	R1277J
2247.018	1.601	2276359	WORD	n/a	wordpools/wordpool_categorized_EN.txt	BASKETBALL	Toys	7	20	[0, 0, 0]	n/a	catFR1	1	R1277J
2248.619	0.934	2277960	WORD_OFF	n/a	n/a	BASKETBALL	n/a	7	20	[0, 0, 0]	n/a	catFR1	1	R1277J
2249.553	1.617	2278894	WORD	n/a	wordpools/wordpool_categorized_EN.txt	BARBIE	Toys	8	20	[0, 0, 0]	n/a	catFR1	1	R1277J
2251.17	0.983	2280511	WORD_OFF	n/a	n/a	BARBIE	n/a	8	20	[0, 0, 0]	n/a	catFR1	1	R1277J
2252.153	1.617	2281494	WORD	n/a	wordpools/wordpool_categorized_EN.txt	JELLYFISH	OceanAnimals	9	20	[0, 0, 0]	n/a	catFR1	1	R1277J
2253.77	0.834	2283111	WORD_OFF	n/a	n/a	JELLYFISH	n/a	9	20	[0, 0, 0]	n/a	catFR1	1	R1277J
2254.604	1.616	2283945	WORD	n/a	wordpools/wordpool_categorized_EN.txt	OYSTER	OceanAnimals	10	20	[0, 0, 0]	n/a	catFR1	1	R1277J
2256.22	0.883	2285561	WORD_OFF	n/a	n/a	OYSTER	n/a	10	20	[0, 0, 0]	n/a	catFR1	1	R1277J
2257.103	1.618	2286444	WORD	n/a	wordpools/wordpool_categorized_EN.txt	CAR	Vehicles	11	20	[0, 0, 0]	n/a	catFR1	1	R1277J
2258.721	0.85	2288062	WORD_OFF	n/a	n/a	CAR	n/a	11	20	[0, 0, 0]	n/a	catFR1	1	R1277J
2259.571	1.617	2288912	WORD	n/a	wordpools/wordpool_categorized_EN.txt	VAN	Vehicles	12	20	[0, 0, 0]	n/a	catFR1	1	R1277J
2261.188	0.0	2290529	ENCODING_END	n/a	n/a	n/a	n/a	-999	20	[0, 0, 0]	n/a	catFR1	1	R1277J
2261.188	0.104	2290529	WORD_OFF	n/a	n/a	VAN	n/a	12	20	[0, 0, 0]	n/a	catFR1	1	R1277J
2261.292	0.0	2290633	DISTRACT_START	n/a	n/a	n/a	n/a	-999	20	[0, 0, 0]	n/a	catFR1	1	R1277J
2261.292	0.013	2290633	START	n/a	n/a	n/a	n/a	-999	20	[-999, -999, -999]	n/a	catFR1	1	R1277J
2261.305	3.55	2290646	PROB	3.55	n/a	n/a	n/a	-999	20	[3, 2, 5]	10	catFR1	1	R1277J
2264.855	4.434	2294196	PROB	4.434	n/a	n/a	n/a	-999	20	[1, 8, 4]	13	catFR1	1	R1277J
2269.289	4.184	2298630	PROB	4.184	n/a	n/a	n/a	-999	20	[2, 5, 3]	10	catFR1	1	R1277J
2273.473	5.8	2302814	PROB	5.8	n/a	n/a	n/a	-999	20	[1, 3, 6]	10	catFR1	1	R1277J
2279.273	3.482	2308614	PROB	3.482	n/a	n/a	n/a	-999	20	[4, 3, 4]	11	catFR1	1	R1277J
2282.755	0.019	2312096	STOP	n/a	n/a	n/a	n/a	-999	20	[-999, -999, -999]	n/a	catFR1	1	R1277J
2282.774	0.533	2312115	DISTRACT_END	n/a	n/a	n/a	n/a	-999	20	[0, 0, 0]	n/a	catFR1	1	R1277J
2283.307	0.518	2312648	RETRIEVAL_ORIENT	n/a	n/a	n/a	n/a	-999	20	[0, 0, 0]	n/a	catFR1	1	R1277J
2283.825	5.314	2313166	REC_START	n/a	n/a	n/a	n/a	-999	20	[0, 0, 0]	n/a	catFR1	1	R1277J
2289.139	0.574	2318479	REC_WORD	0.574	n/a	BARBIE	Toys	8	20	[0, 0, 0]	n/a	catFR1	1	R1277J
2289.713	0.815	2319053	REC_WORD	0.815	n/a	BLOCKS	Toys	2	20	[0, 0, 0]	n/a	catFR1	1	R1277J
2290.528	3.989	2319868	REC_WORD	3.989	n/a	SLINKY	Toys	1	20	[0, 0, 0]	n/a	catFR1	1	R1277J
2294.517	3.821	2323857	REC_WORD	3.821	n/a	TRUCK	Vehicles	6	20	[0, 0, 0]	n/a	catFR1	1	R1277J
2298.338	4.145	2327678	REC_WORD	4.145	n/a	BOAT	n/a	-999	20	[0, 0, 0]	n/a	catFR1	1	R1277J
2302.483	0.692	2331823	REC_WORD_VV	0.692	n/a	<>	n/a	-999	20	[0, 0, 0]	n/a	catFR1	1	R1277J
2303.175	1.0	2332515	REC_WORD	1.0	n/a	JELLYFISH	OceanAnimals	9	20	[0, 0, 0]	n/a	catFR1	1	R1277J
2304.175	0.23	2333515	REC_WORD_VV	0.23	n/a	<>	n/a	-999	20	[0, 0, 0]	n/a	catFR1	1	R1277J
2304.405	3.015	2333745	REC_WORD	3.015	n/a	SHRIMP	OceanAnimals	3	20	[0, 0, 0]	n/a	catFR1	1	R1277J
2307.42	6.416	2336760	REC_WORD	6.416	n/a	OYSTER	OceanAnimals	10	20	[0, 0, 0]	n/a	catFR1	1	R1277J
2313.836	6.125	2343176	REC_END	n/a	n/a	n/a	n/a	-999	20	[0, 0, 0]	n/a	catFR1	1	R1277J
2319.961	0.5	2349301	TRIAL	n/a	n/a	n/a	n/a	-999	21	[0, 0, 0]	n/a	catFR1	1	R1277J
2320.461	10.428	2349801	COUNTDOWN_START	n/a	n/a	n/a	n/a	-999	21	[0, 0, 0]	n/a	catFR1	1	R1277J
2330.889	0.008	2360229	COUNTDOWN_END	n/a	n/a	n/a	n/a	-999	21	[0, 0, 0]	n/a	catFR1	1	R1277J
2330.897	1.617	2360237	ORIENT	n/a	n/a	n/a	n/a	-999	21	[0, 0, 0]	n/a	catFR1	1	R1277J
2332.514	1.967	2361854	ORIENT_OFF	n/a	n/a	n/a	n/a	-999	21	[0, 0, 0]	n/a	catFR1	1	R1277J
2334.481	1.616	2363821	WORD	n/a	wordpools/wordpool_categorized_EN.txt	MARBLES	Toys	1	21	[0, 0, 0]	n/a	catFR1	1	R1277J
2336.097	0.9	2365437	WORD_OFF	n/a	n/a	MARBLES	n/a	1	21	[0, 0, 0]	n/a	catFR1	1	R1277J
2336.997	1.618	2366337	WORD	n/a	wordpools/wordpool_categorized_EN.txt	BASEBALL	Toys	2	21	[0, 0, 0]	n/a	catFR1	1	R1277J
2338.615	0.767	2367955	WORD_OFF	n/a	n/a	BASEBALL	n/a	2	21	[0, 0, 0]	n/a	catFR1	1	R1277J
2339.382	1.615	2368722	WORD	n/a	wordpools/wordpool_categorized_EN.txt	GIRAFFE	Zoo	3	21	[0, 0, 0]	n/a	catFR1	1	R1277J
2340.997	0.902	2370337	WORD_OFF	n/a	n/a	GIRAFFE	n/a	3	21	[0, 0, 0]	n/a	catFR1	1	R1277J
2341.899	1.617	2371239	WORD	n/a	wordpools/wordpool_categorized_EN.txt	TIGER	Zoo	4	21	[0, 0, 0]	n/a	catFR1	1	R1277J
2343.516	0.883	2372856	WORD_OFF	n/a	n/a	TIGER	n/a	4	21	[0, 0, 0]	n/a	catFR1	1	R1277J
2344.399	1.616	2373739	WORD	n/a	wordpools/wordpool_categorized_EN.txt	COOKIE	Desserts	5	21	[0, 0, 0]	n/a	catFR1	1	R1277J
2346.015	0.851	2375355	WORD_OFF	n/a	n/a	COOKIE	n/a	5	21	[0, 0, 0]	n/a	catFR1	1	R1277J
